Time (s),Linear Acceleration x (m/s^2),Linear Acceleration y (m/s^2),Linear Acceleration z (m/s^2),Absolute acceleration (m/s^2)
0.0012409165501594543,-2.487656384110451,-0.32074842989444735,2.161747201681137,3.3112633245728835
0.011266916524618864,-3.372224629819393,-1.035679886341095,4.123590964078903,5.426650368317939
0.02129191649146378,-3.4012247729301452,-1.4617796471714974,5.647651936411858,6.752858808514743
0.03131691669113934,-3.042300456762314,-1.599547941684723,6.637950412631035,7.475060626343612
0.04134291666559875,-2.764932812154293,-1.0823868602514268,6.880516306757928,7.493858780263619
0.051367916632443666,-2.592108705639839,-0.41524469733238223,6.211707102656365,6.743645959694803
0.06139291659928858,-2.6197303676605226,0.08130085587501526,4.7656345385313035,5.438829799069945
0.0714179165661335,-3.3250355529785156,0.597146021425724,3.6185172468423845,4.9503648214219025
0.08144391654059291,-3.0656097972393037,0.6730183222889901,2.7212473869323732,4.154046753703256
0.09146891650743783,-2.195441197156906,-0.14894729375839233,2.1839502489566804,3.100288057005291
0.10149391670711339,-2.3326291555166248,-1.6435912165045738,2.3893313598632813,3.721754319049459
0.1115189166739583,-3.4028497141599656,-2.9751153641939165,3.343237935304642,5.622093693587941
0.12154491664841771,-3.958312981724739,-4.09719078540802,3.6043704932928087,6.741416812973577
0.13156991661526263,-3.7375688964128497,-4.845481484234333,3.121290493011475,6.869539024654736
0.14159491658210754,-3.7067341893911365,-4.9332186627388,2.830694400072098,6.788914162942046
0.15161991654895246,-3.9182665711641316,-4.744262965321541,2.494172521233559,6.639408149263037
0.16164591652341187,-3.518318774700165,-4.6099480363726615,1.8000898969173433,6.072109315176047
0.1716709164902568,-2.722850693464279,-4.522767220437527,1.2043410676717758,5.414773922930106
0.18169591668993235,-1.9419971430301668,-4.459248039722443,0.7922719931602479,4.92787387160547
0.19172091665677726,-1.3230021232366562,-4.254133561849594,0.18594496607780459,4.458986713430921
0.20174691663123667,-0.8038874870538711,-3.845605268776417,-0.44305756330490115,3.9536331366838278
0.2117719165980816,-0.3490086078643799,-3.345999867618084,-0.876676551103592,3.4765045516608426
0.2217969165649265,0.05838327884674072,-2.7676450431346895,-1.196689401268959,3.0158470145460585
0.23182191653177142,0.42124920308589936,-2.331173491179943,-1.4357604146003724,2.7700593324356833
0.24184791650623083,0.723255552649498,-2.040266618728638,-1.562375437617302,2.669607364015648
0.2518729167059064,0.8446776634454728,-1.768394479751587,-1.7144849056005478,2.6038736303192036
0.2618979166727513,0.6759942626953125,-1.375753948688507,-1.7746778976917268,2.3450263988033324
0.2719239166472107,0.45646230518817904,-1.1376524037122726,-1.8511109465360642,2.2201852544586593
0.28194891661405563,-0.08657036662101746,-1.683004958331585,-2.2621374624967574,2.8208626370982453
0.29197391658090055,-0.5779662770032883,-2.235019830465317,-2.749764257669449,3.590342899039404
0.30199891654774547,-0.328252746462822,-2.4917932891845704,-2.869975994825363,3.8149109914203083
0.3120249165222049,0.323799507021904,-2.472675525248051,-2.3268170231580734,3.410725411575454
0.3220499164890498,0.7563040155172348,-2.0861190220713617,-1.5360436713695527,2.6987624012665368
0.33207491668872535,1.438109825849533,-1.2805814507603646,-0.7896553641557694,2.081250661832081
0.34209991665557027,2.6101403492689133,0.2799249243736267,-0.3592190158367157,2.649571457331529
0.3521259166300297,4.677992377281189,3.841049410700798,-0.2556016767024994,6.058267530778003
0.3621509165968746,6.323278993964196,8.84724775671959,-0.6333002328872681,10.893058307438904
0.3721759165637195,6.8710502493381505,10.55698413848877,-0.7073388469219208,12.615925406944912
0.3822009165305644,6.696230780482293,5.374974635839463,-0.512887351512909,8.601913300931253
0.39222691650502384,6.705799748897553,0.6216210043430329,-1.4869305682182312,6.896747455145556
0.4022519167046994,7.761570083498955,-3.0454667240381244,-2.7350403839349746,8.774809606484045
0.4122769166715443,8.241965627074242,-5.65558953166008,-3.3411124724149706,10.53938911426195
0.42230191663838923,8.384124303460121,-6.517074431777001,-3.62985324382782,11.222372033439255
0.43232791661284864,7.414633144140244,-6.873913046121598,-2.796296399831772,10.490316429142444
0.44235291657969356,4.13183436870575,-7.687295826673508,0.21257435560226443,8.729934721054317
0.45237791654653847,1.9222288763523103,-6.678541783690453,1.3276758027076723,7.075352093477567
0.4624029165133834,0.9474939340353012,-5.121780842542648,2.8809155505895614,5.9523153615798385
0.4724289164878428,0.9703015834093094,-3.844221525192261,3.8126208329200746,5.500509241255239
0.48245391668751836,0.2671388179063797,-2.953674793839455,4.240776182413102,5.174914546648786
0.4924789166543633,-0.6765959411859512,-2.6591651594638828,4.152908903360367,4.977508791809984
0.5025039166212082,-1.8314935380220414,-2.4328549633920193,4.366252460181713,5.323280229215868
0.5125299165956676,-3.1984947896003724,-1.6548753194510937,5.69957579612732,6.741968962983251
0.5225549165625125,-3.815073155164719,-1.1326480641961099,7.989836027026177,8.926094025683973
0.5325799165293574,-3.5802191537618637,-1.1606584198772907,10.184793659448625,10.857951880632934
0.5426049164962023,-3.063990703225136,-1.0036589254438877,10.903117085695268,11.369843114680751
0.5526309167034924,-3.0740216016769413,-1.1479815101623536,9.433594847917558,9.98800190778455
0.5626559166703373,-2.5474266225099567,-1.625699467509985,7.883914300203323,8.443244983339355
0.5726809166371822,-0.8866179871559143,-1.3318206015229226,6.278730812072754,6.479374829430774
0.5827059166040272,0.7610864531993866,-0.20712592005729677,4.464071992635727,4.533220984183091
0.5927319165784866,1.2240385830402374,1.138354654312134,3.2347405099868776,3.641108064685174
0.6027569165453315,0.3386298000812531,1.8361685331165791,2.5675916227698328,3.1746986888251905
0.6127819165121764,-1.0888649904727936,1.6132596623897553,1.7834060364961626,2.6398429492646294
0.6228069164790213,-2.6112004494667054,1.5546726080775262,0.1310068666934967,3.0417983997501463
0.6328329166863114,-3.351784810423851,1.8559610657393932,-1.8807466819882395,4.26805119167265
0.6428579166531563,-3.2453064286708835,2.1945325398445132,-3.3616268438100816,5.162220638585056
0.6528829166200012,-2.8873919266462327,2.1889462561905386,-4.116251246631146,5.483798152370753
0.6629089165944606,-2.5370261800289153,1.2106328178942205,-4.075348511338234,4.950818028041565
0.6729339165613055,-2.2627017188072207,0.08205295398831368,-3.67641403734684,4.317704474550366
0.6829589165281504,-1.7035950511693956,-0.39737005144357684,-3.383186112642288,3.808685774506577
0.6929844582919031,-0.9027703356742859,-0.3443062770366669,-3.248328854441643,3.388979409494615
0.7030104582663625,-0.16123872578144074,-0.028259154707193375,-2.613626166880131,2.618747457605814
0.7130354582332075,-0.46941564202308655,0.15459146484732628,-1.485508233010769,1.5655619682153643
0.7230604582000524,-1.0209823250770569,0.19813933432102204,-0.23473296403884888,1.066191196892656
0.7330854581668973,-0.7865849912166596,0.07126206368207932,0.6005458849668504,0.992194330803275
0.7431114583741874,-0.9682907259464264,-0.12378380119800568,1.6912428081035615,1.9527446313727008
0.7531364583410323,-0.9868883800506593,-0.6310446694493294,2.5256135845184327,2.78404203054183
0.7631614583078772,-0.3321025532484055,-0.9417584002017976,2.728292112350464,2.905301850159208
0.7731864582747221,0.6244493025541306,-1.036108633428812,2.8900556257367134,3.1330304102543414
0.7832124582491815,1.6987523871660233,-1.0969807796180249,2.7376684150099755,3.4035209495898306
0.7932374582160264,2.796578820347786,-1.5297750176489353,2.267110227048397,3.911630540404864
0.8032624581828713,3.8431935846805576,-2.122730778157711,1.6477497562766077,4.689477811566812
0.8132874581497163,5.028727667927742,-2.2721082808077337,0.8578220580518247,5.584481773734903
0.8233134583570063,5.878777753114701,-2.0952560274302963,0.18937830492854119,6.2438761865828925
0.8333384583238512,5.4648679751157765,-1.2585387633740903,0.03035508915781975,5.607996365530115
0.8433634582906961,5.205836321711541,-0.27261473536491393,-0.5648246598243714,5.243479522105044
0.8533884582575411,5.2569088268280035,0.33513813525438313,-0.47989005178213123,5.289395281606718
0.8634144582320005,5.210093094706536,1.3100622349977493,0.27216800808906555,5.379164297519011
0.8734394581988454,5.448630841970444,2.378331723958254,0.4248583969473839,5.960247016585344
0.8834644581656903,4.46182666182518,1.295234573185444,1.1160568821430208,4.778191365352345
0.8934894583653659,3.4063849407434463,0.08628312215209008,1.914342444241047,3.908402504286736
0.9035154583398253,2.5265760362148284,-0.04677977174520493,1.9295285403728486,3.179442592960745
0.9135404583066702,1.4952447241544724,-0.49755185902118687,2.0161070930957794,2.558906494649294
0.9235654582735151,1.3518446838855744,-0.5626243525743485,2.1411474609375003,2.5939434575446123
0.93359045824036,2.3159587436914446,-0.21601047188043596,2.6743293285369876,3.544342362683938
0.9436164582148194,3.76170971095562,-0.6334829583764077,3.0508023083209994,4.8845834349008594
0.9536414581816643,5.120341842770577,-0.814605871886015,3.8116335305571556,6.4350628190100805
0.9636664581485093,6.197549239397049,-0.5051028071343899,5.119424414634705,8.054393320274587
0.9736914583481848,6.942783890962601,-0.2501628890633583,5.783703196048737,9.03969315229553
0.9837174583226442,7.464768925309182,-0.6146233490109444,5.801720806360245,9.474201881127739
0.9937424582894892,7.60423262000084,-1.4242282435297966,5.635919498205185,9.571643976820397
1.003767458256334,7.014335099458695,-2.4590026885271072,5.0682320415973665,8.996364106524144
1.013792458223179,5.161378771662712,-3.6149410897493364,4.891264598071575,7.976973064720533
1.0238184581976384,3.1243678826093677,-4.263378594517708,4.21294080466032,6.759211635216395
1.0338434581644833,2.0551694172620776,-5.2570409739017485,2.891436153352261,6.341971630640089
1.0438684583641589,2.143374080657959,-7.042325720787049,1.9475098979473116,7.6145386472128385
1.0538934583310038,2.9040787106752397,-8.357770317792893,1.3011795835196973,8.943101595718657
1.0639194583054632,3.2269648826122284,-8.148903096914292,0.35549638599157335,8.771790109035042
1.0739444582723081,3.385150192379952,-8.912669329047203,-0.21618866577744486,9.536333358955075
1.083969458239153,3.1917102652788163,-10.599619696140289,-0.5894043079018593,11.085411564685572
1.093994458205998,2.627928748726845,-11.595457824468614,-1.8857875666022301,12.03814131889832
1.1040204581804574,1.6450848877429962,-11.974819328784942,-3.0765332731604578,12.47267650609865
1.1140454581473023,0.6044442236423493,-12.14910260796547,-3.589860335290432,12.682789291999592
1.1240704583469778,-0.0493803209066391,-11.748812749385834,-3.7716169407963753,12.339454355210613
1.1340954583138227,-0.44110459327697754,-11.197517377138139,-4.028216152489185,11.908211202556638
1.1441214582882822,-1.11331629216671,-11.109736636877061,-4.2385378682613375,11.942818953993132
1.154146458255127,-2.580332413315773,-10.800724153518678,-5.086537334918976,12.214197462917259
1.164171458221972,-4.3046751397848135,-10.50460244178772,-6.124480093717575,12.899075817183057
1.174196458188817,-5.763627950549126,-10.522230627536775,-7.357199453115464,14.073561323430063
1.1842224581632763,-6.876694566607475,-11.15720784187317,-8.545585223436357,15.646061542771035
1.1942474583629519,-7.867102385759354,-11.703564655780793,-9.564171359539033,17.039310414294608
1.2042724583297968,-8.671431337594987,-11.947551423311234,-10.622727892398835,18.187359740524155
1.2142974582966417,-9.245453667640687,-11.841723836660385,-11.344724539518356,18.82571676780917
1.2243234582711011,-9.933133006095886,-11.17489917755127,-11.365875087976455,18.781070775137167
1.234348458237946,-10.358113317489625,-10.238813745975495,-10.9241308093071,18.20605537620891
1.244373458204791,-10.289967527389527,-9.261805990934372,-10.366680657863617,17.29544881726295
1.2543984581716359,-10.016880336999893,-8.303813965916634,-9.949751962423326,16.379523258632226
1.2644244581460953,-9.929634032249451,-7.347784266471863,-9.65383548796177,15.67750315801748
1.2744494583457708,-10.151788465976715,-6.806806890964508,-8.924873637557031,15.134226063964428
1.2844744583126158,-11.01919951915741,-6.191049474477769,-7.5682617187500005,14.731952928309507
1.2944994582794607,-11.719533401727677,-5.294003562927246,-6.262462688684463,14.303579125717524
1.30452545825392,-12.250906140804291,-4.512704454660416,-4.762740751504898,13.897226422274112
1.314550458220765,-12.7096073448658,-3.2455607825517654,-2.87718853533268,13.429296240747485
1.32457545818761,-12.620059576034546,-2.0123537653684616,-0.9287413287162781,12.81319756482821
1.3346004581544548,-12.185222028493882,-0.955053214430809,0.8822033393383026,12.254388816176302
1.3446264583617449,-12.162702062129975,-0.06793119728565217,2.6488693821430207,12.4479896008697
1.3546514583285898,-12.2277347946167,0.9013670039176941,3.755988210439682,12.823315020703241
1.3646764582954347,-12.413146494627,1.318121452331543,5.307367959022522,13.56435788058639
1.3747014582622796,-13.019115672111512,1.9371562331914902,6.825695736408234,14.827004736009016
1.384727458236739,-13.131602067947389,2.880985717177391,8.078038351535797,15.684188062580207
1.394752458203584,-12.44739129781723,3.130167151093483,9.064968831539154,15.713343260793902
1.4047774581704289,-12.312987198829651,3.5855401200056076,9.889052016735077,16.194415750511187
1.4148024583701044,-11.969342826604844,4.040361696481705,9.923478083610535,16.06440498789457
1.4248284583445638,-11.24188955783844,3.6293421971797946,9.97905002117157,15.463946615916363
1.4348534583114088,-10.594696340560914,3.250103484392166,9.752383875846864,14.762105353567655
1.4448784582782537,-9.520783849954606,3.101714015007019,9.345773177146912,13.697059218209072
1.4549034582450986,-8.484936148524286,2.5570464617013933,9.42514503657818,12.937000696157051
1.464929458219558,-8.241123628020286,2.833030947446823,10.211175127029419,13.424242268238828
1.474954458186403,-7.456126155853272,3.3130265414714817,11.305138889551163,13.941883926806158
1.4849794581532478,-6.389962980151177,3.558588548898697,12.249166009426117,14.266648074251204
1.4950044583529234,-6.146372653841973,3.8741920137405397,12.769617319107056,14.69184763859421
1.5050304583273828,-5.85162445306778,3.5348272186517717,12.417500331401826,14.175007114136722
1.5150554582942277,-5.636304829716683,2.4480596244335175,11.534183682203293,13.068983176707892
1.5250804582610726,-4.089637352228165,1.5265244042873383,10.445115208625793,11.320593719018913
1.5351054582279176,-1.5033261609077455,0.9988851124048234,8.158854473233223,8.356115564618012
1.545131458202377,-0.3226592999696732,0.48385826468467713,7.447910817861557,7.470582533844318
1.5551564581692219,0.2961410075426102,0.36520013272762303,7.51152793943882,7.526228977267609
1.5651814583688974,1.5959431332349778,0.011546496748924256,7.727220030426979,7.890316673286248
1.5752064583357424,3.139848970770836,-0.06894861280918121,5.816117236018181,6.609888438813983
1.5852324583102018,4.586707985401154,-1.0207577919960023,5.754053134918213,7.428927519684479
1.5952574582770467,7.176096566319466,-3.3724395149946216,6.210858671665192,10.071964835663293
1.6052824582438916,7.192333699464799,-5.5256135290861135,3.4176133489608764,9.692375865610664
1.6153074582107365,9.018340795040132,-9.117890226244928,1.804315972030163,12.950750904880419
1.625333458185196,10.550456306934358,-9.983014433383943,-2.6685101795196533,14.767994177947223
1.6353584581520408,6.1719852125644685,-6.709605116844178,-1.2038943403959275,9.19573617884579
1.6453834583517164,3.86430437207222,-1.731371079683304,-3.1471141362190247,5.275871632438551
1.6554084583185613,5.54975609779358,-3.4845534431934357,-3.82029237985611,7.585284392233089
1.6654334582854062,3.6693535244464877,-2.3578753861784936,6.215125969648361,7.5928599646451875
1.6754594582598656,-3.7632855355739596,8.221121472716332,7.729520909786225,11.895152364986343
1.6854844582267106,-0.6037565910816193,-2.2864075005054474,-11.797165714502334,12.031845252290749
1.695509041659534,-1.7546055757999421,-9.756856411099434,-20.759285531044007,23.00484347942523
1.7055350416339934,0.15503833830356598,-9.321493198871613,-26.19058405637741,27.80037707580824
1.7155600416008383,2.0704265570640565,-2.5263526725769045,-13.597655560970306,13.984468552977596
1.7255850415676832,4.041165103912354,3.3221324104070664,-3.5645211338996887,6.330354655418094
1.7356100415345281,3.691483481526375,3.5272106355428696,-2.210909713804722,5.5638464145287925
1.7456360415089875,-0.9338991576433182,0.771542444229126,-3.0580917397141456,3.2892811476676544
1.755661041708663,-3.526513647437096,-0.38273125469684605,-0.9320835971832276,3.667637052792975
1.765686041675508,-4.012922467589378,-1.296745493710041,1.814875458776951,4.591172893413161
1.775711041642353,-3.873924211263657,-1.75386531829834,2.600153889656067,4.984388889245908
1.7857360416091979,-3.4633175253868105,-0.9653554236888886,2.5779628291726113,4.424067328182589
1.7957620415836573,-3.249452689290047,0.3084014493227005,2.6076248770952226,4.177769947415072
1.8057870415505022,-2.5809475404024127,1.288640960454941,2.2230885869264605,3.6419786650383035
1.815812041517347,0.25708803892135623,1.016088205575943,1.8507750239968301,2.1269456247674587
1.825837041484192,2.5729128813743594,0.9863115522265434,1.266881424486637,3.032767666160224
1.835863041691482,3.488897924423218,1.1589228200912476,0.6286326929926872,3.7297037271976614
1.845888041658327,3.5960943442583084,1.6625739097595216,0.4340408644080162,3.985528573501351
1.855913041625172,6.066814852952957,3.0584241539239887,0.5761869692802429,6.8185183279716
1.8659380415920168,10.763446984291077,3.858225314319134,0.09966988384723664,11.434492889736903
1.8759640415664762,8.619833167791366,2.7270358380675317,0.4025711497664452,9.049879106003853
1.8859890415333211,6.00021155834198,2.538913368880749,-0.09210475623607636,6.515911534517898
1.896014041500166,4.514776123166085,2.5578352510929108,0.39932360619306567,5.204342797751427
1.9060390416998416,3.2581527614593506,2.3669873946905136,1.3325620284676551,4.241922948774861
1.916065041674301,1.956216402053833,2.609425234794617,1.9279530081152918,3.788520221557249
1.926090041641146,0.7750741624832154,2.4220477008819583,2.8270860832929614,3.802561077095985
1.9361150416079909,0.10237363636493683,2.7405905610322954,3.3086937546730044,4.297530843036968
1.9461400415748358,0.12037195086479188,2.689091793894768,3.0809704327583316,4.091220220188378
1.9561660415492952,-0.27755914092063905,2.5414320570230484,3.4852334743738176,4.322356804807859
1.96619104151614,0.0787970781326294,2.1222589078545573,2.4152067509293556,3.216118079490396
1.976216041482985,0.721410756111145,0.21432238072156906,1.059518399834633,1.2995948605235235
1.9862410416826606,0.4061329811811447,-0.8989772468805314,0.6415752124786377,1.1767424705852139
1.99626704165712,-3.025210214853287,0.6173770952224732,4.734232066869736,5.65207966900111
2.006292041623965,-5.2293497300148015,3.529255406856537,8.781965348124505,10.81317056654946
2.01631704159081,-3.6952221912145617,1.386457861661911,0.5622589015960694,3.9866110315696317
2.0263420415576547,-1.7301396560668947,-2.7867739167809487,-1.7088902896642686,3.698621109934719
2.036368041532114,-0.47177616298198705,-3.3725909578800204,-3.0741876626014712,4.587763322363434
2.046393041498959,-0.23107319176197053,-2.6167003405094147,-2.6622440108656886,3.740061318396181
2.0564180416986346,-0.08113245606422424,-1.835314693450928,-1.630844578742981,2.4565456518125726
2.0664430416654795,0.4489345997571945,0.17509516507387163,-0.024773775637149813,0.48250837469490476
2.0764680416323245,-0.1887633240222931,-0.37565963208675385,-0.12505674004554748,0.43862391624980973
2.086494041606784,-1.7693545925617218,-2.0713586032390596,-2.5577519282698633,3.7367415035027416
2.096519041573629,-4.113463586568833,-5.370624307394028,-6.871623861193657,9.642790188473736
2.1065440415404737,-6.714670559763909,-6.0535674011707306,-7.765193603038788,11.917663810468545
2.1165690415073186,-7.417654400467873,-5.122903507947922,-5.970485483407974,10.812605331931378
2.126595041481778,-5.705448739528657,-3.4603187808394433,-4.3807468307018285,7.982286275192303
2.1366200416814536,-3.4710264945030214,-2.6165117678046226,-4.053647447526455,5.943586155297132
2.1466450416482985,-1.4753647756576538,-2.4860501539707185,-4.399351501464844,5.264165672046253
2.1566700416151434,0.4338698333501816,-3.0452047687768937,-3.564966691732407,4.70855632112799
2.166696041589603,0.5823294693231583,-5.342566443085671,-3.019577007293701,6.1644114976698345
2.1767210415564477,0.11076672971248627,-6.481380103826523,-4.345927830934524,7.804335079324873
2.1867460415232927,-0.20301942050457003,-5.926520268917084,-2.9128875410556794,6.60679750028896
2.1967710414901376,-0.07743175327777863,-5.182791275382042,0.6751756525039673,5.227158237735495
2.2067970416974276,1.4697432625293732,-3.1662783855199814,3.9219848155975345,5.250469404361779
2.2168220416642725,3.743879796266556,-1.1089832130074502,5.220253801345826,6.519012919613734
2.2268470416311175,5.2817051142454154,-0.17127313256263735,5.245026115179062,7.445538418992569
2.2368720415979624,5.375574560165406,0.3260685190558434,4.472999521493912,7.000774760717668
2.246898041572422,4.537222999334335,1.1364566481113434,3.0693964540958407,5.594561721094965
2.2569230415392667,3.9566845321655277,1.2142883509397506,2.035054995417595,4.61208169059049
2.2669480415061116,2.8186567372083666,0.5886871469020843,1.1084478273242713,3.0854553869789996
2.276973041705787,3.6713895249366764,0.4540781030058861,-0.9332408342510462,3.8152623005709274
2.2869990416802466,3.6975312566757204,-0.3430096569657326,-2.3056460094451907,4.370972036027709
2.2970240416470915,4.168585873246193,-0.24577396899461748,-4.124454013109207,5.86929586345038
2.3070490416139364,4.274403519630432,0.06691787481307984,-6.092678257226944,7.4428308993745445
2.3170740415807813,5.106925991177559,-0.16547386407852174,-6.491360716223717,8.261103959350134
2.3270990415476263,4.873021577596664,0.0763067489862442,-5.783587421178818,7.56320338706301
2.3371250415220857,2.108073855042458,0.316227947473526,-3.623351724743843,4.203885490148497
2.3471500414889306,-3.562813746929169,2.0322126638889313,8.84803128361702,9.752496485641174
2.357175041688606,-8.439588652253152,7.002185754776002,15.465201276540757,18.958631609046734
2.367200041655451,-10.3923674762249,8.763057791590692,10.402313590049744,17.117260634966946
2.3772260416299105,-10.12861127257347,7.30501129925251,6.49384636759758,14.075581587951154
2.3872510415967554,-8.2550359082222,4.871673794388771,5.353452204465866,10.978992390491609
2.3972760415636003,-5.484563736319542,3.3392641675472263,6.241967028379441,8.955069901558128
2.407301041530445,-2.6825434970855713,3.7962872207164766,7.062400381565094,8.454900083706614
2.4173270415049046,-0.629550998210907,3.6255122709274294,7.268397789001465,8.146795695557556
2.42735204170458,3.887868651151657,2.7958426558971405,5.249499235153198,7.10559645807555
2.437377041671425,10.648038150072098,3.4245013689994814,2.063159637451172,11.373853953751903
2.44740204163827,12.946392681598663,4.4058337247371675,-0.7635515662282706,13.696841434085176
2.4574280416127294,10.72131428718567,5.204183898568154,-1.537948694229126,12.016463551345241
2.4674530415795743,7.741430518627167,0.26775511443614963,-0.635713963508606,7.772102130018534
2.4774780415464193,1.5224962574243546,-7.021608451008797,-6.484758625030518,9.678485135498066
2.487503041513264,-3.780557625889778,-6.341822853684426,-8.709876195788384,11.41811177104816
2.4975290414877236,-5.12845894753933,-3.6060082983970645,-6.535798970460892,9.056547642837328
2.507554041687399,-2.416856542825699,-1.6432740050554275,-1.8564851224422456,3.462380974725297
2.517579041654244,0.2524131900072098,-2.9200158816576005,2.5141881251335145,3.8615213447791024
2.527604041621089,3.123190253376961,-3.8161162984371186,5.99940464258194,7.7659459840653025
2.537629041587934,6.004354895353318,-1.1064177471399308,5.229451471567154,8.038880558511579
2.5476550415623933,2.558719934821129,0.2806727832555771,1.7203818225860597,3.096052087997876
2.5576800415292382,-0.9428611850738526,0.8376960879564286,2.262023149430752,2.5898785065436933
2.567705041496083,-2.0635812216997147,0.357758966088295,5.049380618333816,5.46649829096959
2.5777300416957587,-2.2396379613876345,-0.22520843446254732,4.544880220592022,5.071748540352747
2.587756041670218,-2.7180466210842136,-0.3418662339448929,2.0736358013749125,3.435784538215799
2.597781041637063,-5.733793117403985,1.4884221929311754,-0.6111158967018128,5.9552705040830025
2.607806041603908,-8.173015844821931,0.8642763608694077,-1.6052846449613571,8.373893981835256
2.617831041570753,-7.413482412099839,-0.4381301146745682,-0.7044798508286476,7.459756787732556
2.6278570415452123,-4.859199344515801,-1.3884464997053148,-1.8464036455750465,5.380409684650376
2.637882041512057,-3.3801864910125734,-2.712200574874878,-3.6905496811866763,5.692262258687893
2.647907041478902,-0.8571006578207017,-1.4245934021472932,-6.4223279035091405,6.634032227783521
2.6579320416785777,0.4117012846469879,-0.4081947094202042,-5.605002930164337,5.634907161234286
2.6679570416454226,1.4361141711473466,-0.5828925561904907,-0.3718584302812815,1.5938840412036799
2.677983041619882,3.5163283824920657,-1.8205738627910615,4.275824393033981,5.827669235934865
2.688008041586727,6.010014415383339,-3.8466101127862933,5.0558610874414445,8.745193763914548
2.6980327914934605,5.088424231410027,-5.1278631162643435,3.1593587905168534,7.88470603543094
2.708057791693136,0.7834064447879792,-4.992431661486626,1.0950975376367569,5.17081600613361
2.7180837916675955,-4.360875068306923,-3.2748085552453996,-0.49468102231621747,5.475975871817661
2.7281087916344404,-6.994406034350396,-1.943240261077881,-2.1553684741258623,7.572549883948399
2.7381337916012853,-7.338569639325142,-0.5329678595066071,-2.675973565578461,7.82939931375112
2.7481587915681303,-6.646324210166932,0.8438099366426468,-2.1350996857881546,7.031663486265582
2.7581847915425897,-4.653579667210579,0.4881857889890671,-1.4641825604438783,4.902852195809556
2.7682097915094346,-2.323911541700363,-1.1787565755844116,0.23201970979571343,2.6160781838212204
2.77823479170911,0.019222721457481384,-2.3497837167978286,1.6216337522864344,2.8550917770367787
2.788259791675955,0.9994680798053742,-1.4052063739299774,2.2088231348991396,2.8022207331238094
2.7982857916504145,0.9760874032974244,0.04048670589923859,2.4690335869789126,2.655280144515911
2.8083107916172594,0.8555675178766251,1.1841360139846802,1.7065788853168489,2.2464606315425146
2.8183357915841043,1.7428035557270052,1.932583710551262,0.7623740831762552,2.71172606928532
2.828360791550949,3.881250187754631,1.7480660498142244,-0.04288823045790196,4.256956346354785
2.838385791517794,5.362766234278679,2.993747516870499,-0.16216317057609558,6.143946839953866
2.8484117914922535,6.0957158857584,3.856331693530083,0.6290142238140106,7.240490672887595
2.858436791691929,5.687862069010735,4.868457825779915,0.5739059339091183,7.508863065635494
2.868461791658774,4.54574473142624,4.377443153858185,-0.13471634030342103,6.3122066047376855
2.878486791625619,5.667640058398247,2.6755075424909593,-0.8742610663175583,6.328097411826497
2.8885127916000783,8.414224600195885,-0.31155894577503207,-2.1449692010879517,8.688908877002333
2.8985377915669233,7.780763568878174,-1.5108532816171647,-2.9861426281929018,8.469947293181107
2.908562791533768,6.509043865799904,-0.6161076647043229,-3.3234416019916537,7.3343373786091695
2.918587791500613,5.876968039870262,0.8157433015108109,-3.233885647058487,6.7573816566675555
2.928613791707903,6.017277241945267,2.5434470075368885,-3.0107325088977817,7.193139671013953
2.938638791674748,5.786077165603638,2.9789119613170625,-2.4545851171016695,6.955400314625659
2.948663791641593,3.1336561846733093,2.894667617082596,-2.2201585471630096,4.809158520122713
2.958688791608438,-0.5684218668937684,3.745110050439835,-1.6297803854942323,4.123728508717589
2.968713791575283,-4.546109597682953,4.244906655550003,-0.3606691984087229,6.230283080178505
2.978739791549742,-7.139225778579712,2.97237302005291,0.9973570887744427,7.797324364832092
2.988764791516587,-9.176070021986963,-0.7129217684268951,2.4350728122889995,9.52040430325592
2.998789791483432,-10.482473069429398,-4.748931967020035,3.9034280920028688,12.15201001267422
3.0088147916831076,-9.371706163287163,-6.00477531015873,4.716347773075104,12.08842997469386
3.018840791657567,-5.293032340407372,-4.423087688684464,3.9578820419311525,7.952655299724208
3.028865791624412,-1.6685345613956453,-1.4527179247140884,2.872692611217499,3.6258460791794485
3.038890791591257,-0.7352639794349671,-0.16217194139957428,2.4236755657196047,2.5379354022311316
3.0489157915581018,-1.3058428841829302,-0.13382054686546327,2.638520979881287,2.9470199419427536
3.058941791532561,-1.7172535622119904,-0.5567812299728394,2.728562253713608,3.271699421916769
3.068966791499406,-1.6117598515748979,-1.9200279843807222,2.0110504209995272,3.213814100995297
3.0789917916990817,-1.2937362241744996,-3.502338334321976,0.7091947531700135,3.800405823557058
3.0890167916659266,-0.8772840768098832,-4.327438935041428,-0.9519594526290894,4.516921726949287
3.0990417916327715,-0.2586545079946518,-4.180369182229042,-1.995496827363968,4.639439216355349
3.109067791607231,0.8358729261159897,-3.0792022347450256,-2.2614445674419406,3.910792948071418
3.119092791574076,1.7625648057460785,-1.7155859363079071,-1.980216298699379,3.157709041211185
3.1291177915409207,2.284852725863457,-1.0817132610082627,-1.7875230610370636,3.096109534830141
3.1391427915077657,2.180534890294075,-1.2403675174713136,-1.9458159595727922,3.1748139685209793
3.149168791482225,1.0068414187431336,-2.635072876811028,-2.6504294192790985,3.870673690093492
3.1591937916819006,-0.7255312889814377,-4.6037590509653095,-3.665192645788193,5.929134016142317
3.1692187916487455,-2.2193925619125365,-5.978017281889916,-4.64324295938015,7.888098576100614
3.1792437916155905,-0.7950798261165619,-0.990470969080925,-5.1757026958465575,5.329266653704145
3.1892687915824354,0.07768844604492188,7.396905555725098,-4.356324180364609,8.584742725288574
3.199294791556895,-3.4814058870077136,4.273263897299767,-3.1326586496829987,6.339914944342019
3.2093197915237397,-3.557146040797234,0.842762115597725,-0.546929841041565,3.6963046668352355
3.2193447914905846,-2.3497924876213077,-1.9742772817611696,3.6662322807312013,4.781271238534299
3.22936979169026,-0.9929735773801804,-3.7558344286680225,6.383139864206314,7.472400103511792
3.2393957916647196,0.6369869023561477,-3.421841470599175,5.960517150163651,6.902355834139574
3.2494207916315645,1.657168158888817,-1.5888609856367113,2.9418581557273864,3.7316504320385038
3.2594457915984094,1.8994568949937822,0.6583099436759949,0.5105251129344106,2.0741129112993835
3.2694707915652543,1.4941998267173768,2.6166529780626298,-0.12063978988677264,3.0156359012105876
3.2794967915397137,1.0998314434289933,3.0008670866489413,0.1309753282740712,3.1987477256427255
3.2895217915065587,0.8697189491987228,1.8251949173212052,0.3591886103153229,2.0534760759723363
3.299546791706234,0.9614056295156479,0.7184637594223022,0.0595292965695262,1.2016799470814472
3.309571791673079,0.9387634563446046,1.1101313138008118,-0.20656104248017074,1.468446738945502
3.319596791639924,1.1614950102567674,2.4859489971399307,0.21157806314527988,2.752049845485489
3.3296227916143835,2.0516511476039887,3.849654173254967,0.28480859197676184,4.371524404505587
3.3396477915812284,2.3271468061208727,3.8283662152290345,-0.0017646165937185289,4.480178930468892
3.3496727915480733,2.5233793634176256,4.871420025229455,0.3088523427397013,5.494867263505488
3.359697791514918,2.811710245013237,6.261400834321976,0.5795502877235413,6.888158930074187
3.3697237914893776,2.8714617723226548,6.033537763953209,0.7234151085466147,6.7210267131022
3.379748791689053,3.0211089777946474,5.357066368460655,1.2893578290939331,6.28392418344218
3.389773791655898,2.8646959590911867,3.8511498910188675,2.7259567344188693,5.519844068363851
3.399798791622743,2.059796319007874,1.4891297060251236,4.191242079734803,4.90171177529897
3.409823791589588,1.1762680006027222,-0.18111984372138978,4.5054609239101415,4.6599988137244
3.4198497915640473,0.3776155257225037,-1.9205220741033555,2.4599774193763735,3.143642382050888
3.4298747915308923,0.4213363265991211,-6.610155673027039,1.8662479260563851,6.881465225028268
3.439899791497737,-1.1198201501369476,-10.127810204029084,2.4219658398628234,10.47341659760323
3.4499247916974127,-1.7272224801778795,-12.459716058969498,1.8808200645446778,12.718699064030412
3.459950791671872,-0.7755436939001084,-0.7574956780672074,4.179018767774105,4.317344737781188
3.469975791638717,-1.068209116458893,8.85530989766121,5.872577365636825,10.67917361107555
3.480000791605562,-2.3808599138259887,8.776654906868934,4.33232837677002,10.07309458149266
3.490025791572407,-2.6333058482408527,5.093615974187851,2.1327800953388216,6.1178406581043445
3.500050791539252,-1.4660302805900574,0.9472992217540741,1.8374360632896425,2.5343227667012296
3.510076791513711,-1.5787482261657715e-05,-3.039935842752457,2.563248310983181,3.976361632454783
3.520101791480556,-0.10123401403427125,-4.594040978550911,2.5968124982714653,5.278152706144584
3.5301267916802317,-1.131597027182579,-6.021200723648072,2.250935074388981,6.527026788324301
3.5401517916470766,-2.6043972140550613,-7.61025759100914,0.8577704563736916,8.089170266839334
3.550177791621536,-4.8183466029167175,-8.080515816807747,-1.3613209739327432,9.506018864150672
3.560202791588381,-7.285234261751175,-7.149992841482163,-2.9345877277851105,10.621150644535005
3.570227791555226,-8.850218726992608,-6.121036083698273,-3.5095479512214665,11.318585648192522
3.5802527915220708,-7.962012051343918,-5.15326283633709,-3.0120914018154146,9.951002380615186
3.59027879149653,-4.735198026895524,-5.290781747102738,-2.3554642868041995,7.480821068291954
3.6003037916962057,-1.2270469754934312,-4.841517364382744,-2.7996842765808108,5.725745952993464
3.6103287916630507,1.7139820450544359,-3.9553870350122455,-5.479821059703827,6.972177557541512
3.6203537916298956,4.350323767662049,-3.929903699755669,-6.835462925434113,9.005165927278792
3.6303787915967405,6.314685341119767,-4.963156406879425,-8.671272878050804,11.819439318433028
3.6404047915712,8.105116807222366,-5.361655848026276,-6.9804481458663945,11.965238326440574
3.650429791538045,8.660943186879159,-4.715208150744439,-3.451376049220562,10.447828550676387
3.6604547915048897,7.225362866520882,-2.889578785300255,-0.7654739114642144,7.8193020416459476
3.6704797917045653,4.933934946656227,-0.7948704957962036,2.5941327193379404,5.630724440821319
3.6805057916790247,1.8289155006408693,1.1335751402378083,5.352095650434494,5.768435867585722
3.6905307916458696,0.8197275942564011,2.5110060703754424,5.049672394394875,5.6987977771597915
3.7005562915001065,2.068222741484642,3.0219883990287784,3.0860601416230202,4.7889170372823395
3.710581291699782,2.577358519434929,2.855157396197319,1.9080906012654306,4.2936593294533205
3.720606291666627,1.910725064277649,2.4423708683252334,1.1788945698738098,3.3175048058112195
3.7306322916410863,-0.31924861907958985,2.6403646069765094,0.6303266313672066,2.7332684831112313
3.7406572916079313,-1.123109793663025,2.9281522822380066,0.24158268481492998,3.1454433058314435
3.750682291574776,-0.24668116450309754,1.8955111938714981,0.9357530173659325,2.1282499835597797
3.760707291541621,1.030406282544136,0.9630282318592072,1.0480502557754516,1.7571482069237319
3.770732291508466,2.8530097138881683,0.42492417812347416,0.7669143730401993,2.984691381076074
3.7807582914829254,3.763186717629433,0.6055949556827546,0.819389332830906,3.8986816234270862
3.790783291682601,3.8677799570560456,1.0301940286159517,0.8575991329550744,4.093470142268748
3.800808291649446,3.9473354190588,1.382758328318596,0.7663422229886055,4.252147446623373
3.810833291616291,3.8918272161483767,1.521688756942749,0.6581742882728577,4.230254028672826
3.82085929159075,3.2413618969917297,1.9715045320987703,0.4066574764251709,3.8155769380905302
3.830884291557595,1.7926165705919266,3.245066108107567,-0.20386112719774246,3.712881303560819
3.84090929152444,2.842664819955826,2.6667694634199144,-0.083603343218565,3.89863978441722
3.850934291491285,3.8605025124549868,1.594876601099968,0.29050838470458984,4.187064143644221
3.8609592916909605,4.090497477650643,0.9464671629667283,0.12772409364581108,4.200509867782506
3.87098529166542,3.6207064443826678,0.9719417273998261,-0.32948804385960107,3.7633426961813568
3.881010291632265,3.027607573270798,1.1754973375797273,-0.7566846692562104,3.334782346281553
3.8910352915991098,2.96932603597641,0.49027441442012787,-0.9581751159578562,3.158380227617193
3.9010602915659547,2.6691153663396836,-0.11783601343631744,-1.4728481340408326,3.050793960732312
3.911086291540414,1.5273202103376389,-0.26537412822246553,-2.0446789276599886,2.5658999142703216
3.921111291507259,0.36234727621078494,-0.16535399615764618,-1.9329362976551057,1.9735450902919105
3.9311362917069346,-0.6533883422613144,0.1638530158996582,-1.6771480947732926,1.8073709825113622
3.9411612916737795,-1.515914631485939,0.48436521828174595,-1.366910619735718,2.0978683173594472
3.9511862916406244,-2.7095167028903964,0.7194671416282654,-0.7858985280990601,2.9114859140296487
3.961212291615084,-4.19686213105917,0.6457384300231934,-0.03657780569046736,4.246406457582277
3.9712372915819287,-5.459489706158639,0.4975489354133606,0.8038436329364776,5.54073527440137
3.9812622915487736,-6.3903436338901525,0.4047805202007294,1.4177720403671266,6.558232733532803
3.9912872915156186,-7.283695859313012,0.3547926735877991,1.6364725238084794,7.473696912063345
4.001313291490078,-7.682207579612732,0.06096833288669586,2.046230778694153,7.950288726426832
4.0113382916897535,-7.470027326345444,-0.346592538356781,2.6884269654750828,7.946639175946383
4.0213632916565984,-7.358938415050507,-0.633283275961876,3.4252486431598665,8.141704402125367
4.031388291623443,-7.1388690984249115,-0.7843262118101121,3.560392999649048,8.015922774261767
4.041413291590288,-6.062120123505593,-0.44973332941532135,3.4497484767436983,6.989443827100545
4.051439291564748,-4.902021720707417,-0.004786530733108521,3.244774332046509,5.878639326159723
4.061464291531593,-4.476454933583737,-0.30625902950763706,3.16998610496521,5.493746924571029
4.0714892914984375,-4.201855068504811,-1.1321905195713045,3.135585765838623,5.363705760410101
4.081514291698113,-3.7088877189159395,-2.1351102107763293,2.735574234724045,5.079164312893694
4.091539291664958,-3.391219602227211,-3.0708635205030443,2.0969097661972045,5.0326537452580276
4.101565291639417,-3.0398978358507156,-3.7414426767826083,1.4445943880081178,5.032516776119541
4.111590291606262,-2.522742601633072,-3.8872757434844973,0.6838669538497926,4.684316060060972
4.121615291573107,-1.856457640528679,-3.394074212908745,-0.07815618675202132,3.8694034583301136
4.131640291539952,-1.1701026964187622,-2.5193453693389896,-0.568228908777237,2.835335165892462
4.141666291514412,-0.6101744949817658,-2.150036982893944,-0.9122018945217133,2.413935425504781
4.1516912914812565,-0.12212494611740113,-2.2249246126413347,-1.2803449308872223,2.5699196828792097
4.161716291680932,0.026881989240646362,-2.5096120941638946,-1.594421103000641,2.973391020066652
4.171741291647777,-0.2343792074918747,-3.022440973520279,-1.8709183895587922,3.5623613898238897
4.181766291614622,-0.1886680144071579,-3.434993612766266,-2.0624655729532244,4.0110523530643
4.191792291589081,0.18432119429111482,-3.62501525759697,-1.9360154414176942,4.113741084448981
4.201817291555926,0.8221980428695679,-3.151921716928482,-1.7430099624395372,3.694415225784375
4.211842291522771,1.9415726351737976,-1.8060400235652925,-2.0794417941570282,3.3698016320938606
4.221867291489616,2.772440344691277,-0.7927450329065323,-2.3007425343990326,3.688941089481201
4.231893291696906,3.315937870144844,0.020482796430587768,-2.28965095102787,4.029685469258509
4.241918291663751,3.5907564210891727,0.5891923463344574,-2.0920600855350497,4.197308029923602
4.251943291630596,3.7403527557849885,0.9788525515794755,-1.7010029804706575,4.223955752018725
4.261968291597441,3.843166102766991,1.3606973683834076,-1.5774057054519655,4.371456482841293
4.271993291564286,3.790449360609055,1.8573236131668092,-1.7123255288600923,4.555130741938655
4.282019291538745,3.586598466038704,2.374551937580109,-1.5492969703674317,4.571925914015487
4.29204429150559,3.3534044891595842,2.8924971306324005,-1.4024874186515808,4.64530217296015
4.302069291705266,3.40009742975235,3.3846332985162735,-1.2202769961208106,4.9503011064474975
4.312094291672111,3.1096562880277636,3.7755898314714433,-1.0471872798353434,5.002163732249287
4.32212029164657,2.928738757967949,4.231504252552987,-1.0896158460527658,5.260266309205926
4.332145291613415,2.8588312017917636,4.609446052908898,-0.9835053272545338,5.5124578441702035
4.34217029158026,2.4845468348264697,4.8932780867815024,-1.0162426451593638,5.581208876476741
4.352195291547105,2.2852211004495624,4.630669691562653,-1.0897257006168366,5.277578930994942
4.36222029151395,2.0597431093454364,4.183720806241036,-0.7852063639461995,4.728912189399562
4.372246291488409,2.0240370869636535,3.8311506593227387,-0.41065580248832706,4.352364839021506
4.382271291688085,1.703728952407837,3.396504900455475,-0.11248756527900697,3.801524869632337
4.3922962916549295,1.4274035739898683,2.7911900264024734,0.29432544708251956,3.148785511165855
4.402321291621774,1.1185489654541017,2.0467517656087875,0.6768614047765732,2.4286798758620383
4.412346291588619,0.5178978306055069,1.3611967206001283,1.0416288435459138,1.7905488887001193
4.422372291563079,-0.3552850091457367,1.007375854253769,1.5135681438446045,1.8525447566842745
4.432397291529924,-1.1884261161088945,0.6382434689998627,2.228516411036253,2.6049945783875543
4.442422291496769,-2.0250299441814423,-0.05827978312969208,3.251413260698319,3.830904723403861
4.452447291696444,-2.6682523173093795,-0.3196263492107391,4.041230592727661,4.85317176035782
4.462472291663289,-3.1888375282287598,-0.5156548386812211,4.7238322091102605,5.722689528003681
4.4724982916377485,-3.4716047841310504,-0.7320363163948059,5.05690481543541,6.177394536379906
4.482523291604593,-3.3580910325050355,-1.0270716154575348,4.670822521448136,5.8436490750845405
4.492548291571438,-2.2199351835250853,-1.148380874991417,3.7960042154788973,4.544946518610771
4.502573291538283,-1.7812378889322282,-0.9949926209449769,2.801547199487686,3.465758999650725
4.512599291512743,-2.8283952748775483,-1.0909653103351593,2.415214498490095,3.875988417555075
4.5226242914795876,-3.8410149121284487,-1.2905728805065155,3.109210730195046,5.107461725735398
4.532649291679263,-4.062523228526116,-0.5884509193897247,3.424506046772003,5.345803132479055
4.542674291646108,-4.082703723907471,0.5654842257499695,2.8944910311698915,5.036498827191655
4.552699291612953,-2.190566958189011,0.9457596498727799,1.04859170794487,2.6062596730962317
4.562725291587412,-0.2636193788051605,-1.0853812193870545,-1.0498851120471955,1.532907797872429
4.572750291554257,1.1680070543289185,-3.723953654766083,-4.843980796337128,6.22062868664339
4.582775291521102,1.4787175691127779,-4.560854521393776,-8.445175082087518,9.711281160672508
4.592800291487947,-0.7166446906328202,-5.666819694042206,-5.4716314494609835,7.909815154359002
4.602826291695237,-1.1765206003189088,-6.511090391278267,-1.1645004791021347,6.718225969123102
4.612851291662082,0.14312697529792787,-5.69163293838501,1.131797294318676,5.804837289002526
4.622876291628927,2.1865972834825516,-4.75841556608677,1.0290495823323726,5.336915721894864
4.632901291595772,3.1606106793880464,-3.692576326131821,0.33107168912887575,4.871774651429763
4.642926291562617,2.3325040251016618,-3.1777909684181216,-0.23564863801002503,3.9489822418784333
4.652952291537076,0.6140576308965683,-3.6562569308280946,-0.7303429627418518,3.7787143794572953
4.662977291503921,-0.16379278957843782,-4.076879312396049,-0.6571720755100251,4.132753094801446
4.673002291703597,-0.3575999218225479,-3.8368897014856342,-0.16729000926017762,3.85714742169032
4.683027291670442,-0.25912345468997955,-2.841801186203957,-0.7854132091999054,2.9597048595875877
4.693051791517064,-0.39647513508796695,-1.7698153531551362,-1.0828862124681473,2.112363952106803
4.703077791491523,-0.0011407917737960816,-1.1843827664852142,-0.7628694154322148,1.4088057296713872
4.713102791691199,0.030470425486564638,-0.6418283969163895,-0.3907695682346821,0.7520458718561751
4.723127791658044,-0.018280735015869142,0.03624279677867889,-0.06864046454429627,0.07974483659722324
4.733152791624889,0.5963592785596847,0.9419104278087617,-0.020919437259435656,1.1150234374193053
4.743177791591734,1.1364911466836929,2.0168122673034667,-0.15988860368728638,2.3204974065112065
4.753203791566193,1.2638832646608353,3.025731786489487,-0.37056480690836907,3.2999654583921982
4.763228791533038,1.7839708775281906,3.797423919439316,-0.9260877160727978,4.296582243325442
4.773253791499883,2.2982498663663864,4.128904913663864,-1.3756510376930238,4.921607868556434
4.7832787916995585,2.2638372480869293,4.137358818054199,-1.2032459572702647,4.867288558206086
4.793304791674018,2.097105647921562,3.999418907761574,-0.7667424649000169,4.580512821266441
4.803329791640863,2.1272854667901995,3.770277636051178,-0.45583372950553896,4.352943980696212
4.813354791607708,1.9193228101730349,3.5635200905799866,-0.2505754101276398,4.055276010554442
4.823379791574553,1.6006361085176468,3.467689488530159,-0.1664632860571146,3.8229067954055598
4.833404791541398,1.479259021282196,3.4371448034048084,-0.19292712628841402,3.7469177369773337
4.843430791515857,1.2790100115537644,3.365147452354431,-0.4190834674984217,3.6243226868578877
4.853455791482702,1.0994747632741928,2.9191364604234695,-1.189232520237565,3.338334377626228
4.8634807916823775,0.714747269153595,2.277744265794754,-1.7913401234149933,2.9846075180632794
4.873505791649222,0.22255906105041506,1.871451655626297,-1.8936810153722765,2.671683293914798
4.883530791616067,-0.35895004391670227,1.6809674960374834,-1.6957808321714403,2.4145743905546566
4.893556791590527,-0.8335088968276978,1.4242624497413636,-1.3768602418899536,2.1491869933841166
4.903581791557372,-1.488922129869461,1.11452549636364,-0.9406392431259156,2.0841924998828985
4.9136067915242165,-2.269520156979561,0.7522249978780747,-0.3405019323527813,2.4150581268998845
4.9236317914910614,-2.900951619744301,0.37837741792201995,0.21978280305862427,2.933767927258515
4.933656791690737,-3.358224933743477,0.018485387563705446,0.7213705565035343,3.434878730750182
4.943682791665196,-3.830136752128601,-0.353528505563736,1.10583477973938,4.002224444522521
4.953707791632041,-4.194409516453743,-0.6742629021406175,1.280718567967415,4.437109611363835
4.963732791598886,-4.625649272203446,-0.8206625640392304,1.2759864163398744,4.868085821771796
4.973757791565731,-5.160387083888054,-0.8019643378257751,1.3088229176402093,5.38384240895322
4.983782791532576,-5.492853918671608,-0.6131834721565247,1.3672158443927767,5.693568064715713
4.9938087915070355,-5.573738452792168,-0.3711239469051361,1.4805173420906068,5.778946696789261
5.003833791706711,-5.573130342364312,-0.37472056925296787,1.843526523113251,5.8820733894966875
5.013858791673556,-5.378129208683968,-0.6839762967824936,2.3104828262329105,5.89325277331434
5.023883791640401,-4.674785764217377,-0.9182935237884522,2.469475636482239,5.366115434496413
5.03390979161486,-3.962632319927216,-1.0741890639066696,2.4311945003271105,4.771482342665561
5.043934791581705,-3.6476580154895784,-1.3597115278244019,2.314166572093964,4.528751633757483
5.05395979154855,-3.3397968488931657,-1.6721949183940887,1.9977702248096467,4.235748423610132
5.063984791515395,-2.771187286376953,-2.0055382508039474,1.5814322443306448,3.7686324568765897
5.07400979148224,-2.1263393872976306,-2.2940778779983524,1.1689085488021373,3.3392304047126493
5.08403579168953,-1.6643777757883074,-2.62188214302063,0.7640449981391431,3.1981532345417607
5.094060791656375,-1.079473192691803,-3.1343601894378663,0.24686695978045464,3.3242171208728912
5.10408579162322,-0.5004082238674165,-3.838026400208473,-0.4766451394557953,3.8997494314607173
5.114110791590065,-0.20637747645378113,-4.639251065254212,-1.0308549101650715,4.7568796447946005
5.12413579155691,0.04100593864917755,-5.486762874126435,-1.3728375037014484,5.65605261074063
5.134161791531369,0.7530593955516816,-5.902093525528908,-1.6926609040796758,6.186025167546504
5.144186791498214,1.7810665655136109,-5.8362544620037085,-2.3127269876003265,6.525547515360188
5.15421179169789,2.9219934099912646,-5.085877768993378,-2.91174528747797,6.54846995780874
5.1642367916647345,4.320536881685257,-3.608355370759964,-3.1208724170923237,6.436389676787953
5.174261791631579,5.350185949802399,-2.0216408979892733,-2.7396754717826846,6.341714540136094
5.184287791606039,5.866470533609391,-0.5302173292636871,-2.0139845538139345,6.225169935106983
5.194312791572884,5.822819899320603,0.9399299758672714,-1.297080392986536,6.039132179819212
5.204337791539729,5.342157137989998,2.0259497112035754,-0.8190219815075398,5.771820520901173
5.214362791506574,4.194440506696702,2.594928233027458,0.00150843545794487,4.932239448177533
5.224387791706249,1.975065486431122,2.8520297205448153,1.8228015057742597,3.9188726098222753
5.2344137916807085,0.415234757065773,2.893207567334175,3.236333291530609,4.36083972475767
5.244438791647553,0.49381139516830447,2.9732389926910403,2.728928581774235,4.065839520453412
5.254463791614398,1.8698062491416931,3.2993352860212326,1.1815427738428117,3.9721319294975967
5.264488791581243,3.4040302670001985,3.964964189529419,-0.15157620191574098,5.227938257849965
5.274514791555703,4.359838356971741,4.516694594621659,-0.8715055659413338,6.337842102125398
5.284539791522548,4.8258725541830065,4.811149265170098,-1.1763755893707275,6.915205180486759
5.2945647914893925,5.04527411878109,4.892134371399879,-1.0625937429070473,7.107522430772878
5.304589791689068,5.327805147171021,4.497368962168694,-0.8996271649003029,7.030018798262697
5.314614791655913,5.737694379687309,4.129080914855003,-0.9132120010256768,7.127720684407638
5.324640791630372,5.759607989788056,3.6482035607099537,-0.687033805847168,6.852334555958578
5.334665791597217,5.732514916062355,3.2439720940589907,-0.46986587762832643,6.603473037188105
5.344690791564062,5.612980871200562,3.0169755810499193,-0.5405253857374192,6.395300118817059
5.354715791530907,5.154762062430382,2.890185726284981,-0.5152122044563294,5.932131915956836
5.364740791497752,4.521492819786072,2.7593577843904495,-0.260381190776825,5.303371669623347
5.374766791705042,3.721513611674309,2.389031982421875,0.09290553241968155,4.4233210162575745
5.384791791671887,2.4076489323377612,1.768461138010025,0.7149375960230828,3.0717037526828883
5.394816791638732,0.14134532868862154,0.718783017396927,1.666267888247967,1.8201857606976999
5.404841791605577,-2.601633235216141,-1.0923341435194016,2.5510875642299653,3.8039107681500948
5.414866791572422,-5.160308731198311,-3.0037725681066516,3.4182740843296053,6.8801187168384645
5.424892791546881,-7.133823536038399,-4.569618912935257,4.589146274328232,9.634994487801833
5.434917791513726,-8.079015421271325,-5.021782345175743,5.496027202606202,10.986132309017856
5.444942791480571,-6.822510758042336,-3.9777771931886674,5.619760133028031,9.69283593150253
5.454967791680247,-5.803902987241745,-1.6069715666770936,6.345907718539238,8.748610876798566
5.4649927916470915,-5.465864340662956,1.1782227247953416,6.295257382392884,8.419866227579103
5.475018791621551,-4.00161512196064,3.1068385148048403,4.99774151802063,7.116374738750481
5.485043791588396,-1.186988285779953,3.9056558811664583,2.82251765370369,4.962831344921764
5.495068791555241,0.7724282974004746,3.1825734061002735,0.2257957872748375,3.282743166528986
5.505093791522086,-0.09801979959011078,1.13955450296402,-0.9937994965910912,1.5151995861146368
5.515118791488931,-1.4260645616054535,-1.3002435904741287,-1.3217271378636362,2.339071643922265
5.525144791696221,-2.163138839006424,-4.160014439821244,-1.2174733293056488,4.844288501308515
5.5351697916630656,-2.3529131466150286,-6.933644692897797,-0.7568165239691734,7.361005383357385
5.5451947916299105,-1.4163903433084488,-8.757171984314919,-0.5782089364528656,8.889800241944782
5.555219791596755,0.5149233520030976,-9.821369326114654,-1.7814542359113694,9.994899734015869
5.5652447915636,1.990540727376938,-9.645413158535957,-3.706727172732353,10.523120911558381
5.57527079153806,3.6313255727291107,-7.742450273036957,-5.324981526732445,10.074099955115011
5.585295791504905,3.769216951131821,-5.369779384732246,-5.540026330947876,8.586816570358929
5.59532079170458,2.1547615331411363,-3.6161064398288727,-4.737989487648011,6.337804622575521
5.605345791671425,1.562278373837471,-2.5926864105463028,-3.7767136663198473,4.84007258810845
5.61537079163827,1.753040276169777,-2.0405390989780425,-2.9478573989868164,3.9908411731228854
5.625396791612729,1.537689662575722,-1.6798039001226426,-2.144066390991211,3.1278189414091018
5.635421791579574,0.9853950011730195,-1.3998766368627549,-1.6314550280570985,2.3648051537798502
5.645446791546419,0.20162018179893496,-1.1610120302438736,-1.508985680937767,1.914585442688535
5.655471791513264,-0.6904292839765549,-0.9135005611181259,-1.750893763303757,2.092081461538126
5.665496791480109,-1.3872981065511705,-0.6024029606580734,-2.1715740323066712,2.6463596016487876
5.675522791687399,-1.6738262915611268,-0.1208619475364685,-2.671110436320305,3.15454165096973
5.685547791654244,-1.5665871870517731,0.7231760305166245,-2.946353495121002,3.4144074015794184
5.6955734165385365,-1.1304813784360885,1.8166872185468674,-2.8175229620933533,3.537905628891988
5.7055984165053815,-0.24674489915370942,2.8262002301216125,-2.456545103788376,3.7527196315398346
5.715623416705057,0.8693856579065323,3.5534008991718293,-1.9356656317412855,4.1387547415029475
5.725649416679516,1.8458466982841493,3.877069428563118,-1.4092736971378328,4.519388204271655
5.735674416646361,2.5188466018438342,3.950275983810425,-0.8806976813077927,4.767063766906268
5.745699416613206,2.730891199707985,3.9094741129875183,-0.5430930443108082,4.799656721010456
5.755724416580051,2.6451014363765717,3.7530792206525803,-0.13555556192994117,4.593532470287515
5.765749416546896,2.322621645927429,3.542650793194771,0.23287106439471247,4.242543445303361
5.7757754165213555,1.9502528268098833,3.2515582716464997,0.5349570822715759,3.829137809254876
5.7858004164882,1.5046236580610277,2.7542689526081086,0.7819985814392567,3.2344105486272032
5.795825416687876,1.0671127635240556,2.0126168900728225,0.766285651177168,2.403445463388417
5.805850416654721,0.6185482925176621,1.0639640378952027,0.5380093288421631,1.3431587776700022
5.815875416621566,-0.13179156303405762,0.41029035151004795,0.17740116074681284,0.46602399129606537
5.825901416596025,-0.8277523130178452,0.12003690540790558,-0.21059682726860046,0.8625159558071376
5.83592641656287,-1.5054463613033295,0.058206692934036255,-0.32844636239111424,1.5419577746591204
5.845951416529715,-2.16904628098011,-0.12821832954883577,-0.07108116544783116,2.173994995658307
5.85597641649656,-2.7417506486177445,-0.336720684170723,0.3114531111717224,2.7798526001935366
5.8660014166962355,-3.166260843873024,-0.5676395094394684,0.6842160326242447,3.2887039884155365
5.876027416670695,-3.908085983991623,-1.043021650314331,1.0147912931442262,4.170231599076667
5.88605241663754,-4.659188901185989,-1.5451933944225311,1.1560658705234528,5.043030055441954
5.896077416604385,-5.2444226825237275,-1.840422821044922,1.1258268485963345,5.670856330944443
5.90610241657123,-5.898453633785248,-2.066282635331154,1.090620324611664,6.344346451088678
5.916127416538075,-5.61179037809372,-1.1345621502399446,0.8805976939201355,5.792656974045658
5.926153416512534,-5.112586095929146,0.35073529064655307,0.9192805337905884,5.206402647913361
5.936178416479379,-4.94982884824276,1.5424475419521333,1.5234487688541414,5.403780731848177
5.9462034166790545,-4.095431942939759,2.507767297625542,1.6158837465941907,5.066807663687139
5.956228416645899,-3.104337660670281,3.3660964554548265,1.4996921163797379,4.8183601051408464
5.966253416612744,-2.155904663801193,3.8235282289981845,1.4114026683568954,4.6107863244343354
5.976279416587204,-1.3521592640876772,3.9875309336185456,1.3149550388753415,4.411104666213053
5.986304416554049,-0.6883470904827118,3.7294816124439243,1.1893944150209428,3.9746086460199272
5.996329416520894,-0.7375584268569947,2.8788690251111984,1.1447788439691067,3.18471315794244
6.0063544164877385,-1.449636442065239,1.5541004580259323,1.1606136886775493,2.4215074193868755
6.016379416687414,-2.071120621562004,0.4706938433647156,1.0323995983600618,2.3615550499479885
6.0264054166618735,-2.235209864974022,-0.19756923079490663,0.5806647670269013,2.317836990191606
6.036430416628718,-2.0233553016185764,-0.6997140777111054,0.04516681730747223,2.1414029299785664
6.046455416595563,-1.6661757946014406,-1.2796099358797075,-0.3704211115837097,2.1332499071662285
6.056480416562408,-1.4944103264808655,-1.9833293563127519,-0.9829358084499836,2.670771492104449
6.066505416529253,-1.3820642638206482,-2.773961205482483,-2.0889914667606355,3.737492173510293
6.0765314165037125,-1.3657645654678345,-3.5229041612148286,-2.2630455350875858,4.404264032874523
6.086556416703388,-1.3933727788925172,-3.941921482086182,-1.6066267271339894,4.479004589440878
6.096581416670233,-1.086093410253525,-4.06429902791977,-1.375036202967167,4.425929285880659
6.106606416637078,-0.2323607486486435,-3.972960256934166,-1.3784977546334267,4.211728953793246
6.116631416603923,0.9926022791862489,-3.8704614901542667,-1.3301374804973602,4.211293999287723
6.126657416578382,2.0358244889974597,-3.7388418352603914,-1.596905292570591,4.546825940426467
6.136682416545227,2.9955841273069383,-3.1417633491754535,-1.9703698799014093,4.767238054641086
6.146707416512072,3.9452333450317383,-2.1804506903886796,-2.1840095981955527,5.008904998597706
6.156732416478917,4.5354302430152895,-1.2508603459596634,-2.182382902801037,5.1862871332765925
6.166757416678593,4.930546485185624,-0.38883691728115083,-2.0659826731681825,5.360015596679562
6.176783416653052,5.2465253412723545,0.3508387863636017,-1.999631101191044,5.625623570012536
6.186808416619897,5.380577437877656,0.86358229637146,-1.8576770773530007,5.75737371301595
6.196833416586742,5.429819764494896,1.1706242680549621,-1.6805464965105057,5.803235337188417
6.206858416553587,5.312382531166077,1.337959885597229,-1.6102319741249085,5.710025553655609
6.216883416520432,5.041948222517967,1.4705338060855866,-1.4336197489500047,5.444169095277269
6.226909416494891,4.540144268274307,1.5343427163362504,-0.6769890202581883,4.839982611690696
6.236934416694567,3.7059331208467485,1.724622223377228,0.47856404945254327,4.115493367627258
6.2469594166614115,2.8984817558526994,1.930072331428528,1.6161328379809856,3.8390442877827518
6.256984416628256,2.2276032221317292,2.1420970487594606,2.5543462175130847,4.00942395868522
6.267009416595101,1.9651246351003648,2.08159181535244,3.06477130651474,4.193752791767378
6.277035416569561,1.9397868955135347,2.0233149558305743,2.971345664262772,4.084785388123455
6.287060416536406,2.104155051112175,1.9999272626638414,2.7167403531074523,3.9759094156267403
6.297085416503251,2.5822660875320436,2.077418657541275,2.6475958585739137,4.241878151934162
6.307110416702926,3.218629091978073,2.1994997495412827,2.7048178803920746,4.744830043958206
6.317135416669771,3.3106595885753634,2.048922836780548,2.6156124660372737,4.690413657130513
6.3271614166442305,2.6730201369524003,1.6304668486118317,2.529666874408722,4.0252544382257405
6.337186416611075,1.769058723449707,1.239721400141716,2.4350008915364745,3.255104799966703
6.34721141657792,0.9117458117008209,0.7786298543214798,2.202616754025221,2.5078009171996243
6.357236416544765,0.10448097288608552,0.2609776067733765,1.8541582229733469,1.8753475146628322
6.36726141651161,-0.6795920544862748,-0.32152552485466007,1.4883524648845197,1.6674582703569425
6.37728741648607,-1.5379826080799104,-0.7132708472013474,1.364291944205761,2.176106227473362
6.387312416685745,-2.5703050231933595,-0.8223699510097504,1.6760476487874985,3.176774459980264
6.39733741665259,-3.931794104576111,-0.5783855223655701,2.329646636992693,4.606602668617397
6.407362416619435,-5.071780716776848,0.24387742459774017,3.219180484414101,6.012117665891987
6.41738741658628,-6.017614626288414,1.3870887762308122,4.219116633832455,7.479080574077769
6.427413416560739,-6.82865091919899,2.3890466004610063,4.934862899780273,8.757333434047107
6.437438416527584,-5.813243914246559,3.4226530641317368,4.820835177898407,8.29149025304847
6.447463416494429,-2.7389048087596897,3.784393399357796,4.194404838681221,6.278237404184574
6.457488416694105,0.05135083258152008,1.874465310573578,3.3204104053974155,3.8133164527510623
6.46751341666095,1.3297468864917756,-0.8510148757696152,1.0610983175039292,1.9022047051580475
6.477539416635409,1.4030528444051744,-3.0852973723411563,-0.6956958711147309,3.4600014313660012
6.487564416602254,0.8701779556274415,-4.812550258040428,-0.8425501540303231,4.962634423638463
6.497589416569099,0.4372927933931351,-5.902733210921288,-0.912284778803587,5.988801872169709
6.507614416535944,0.02060909628868103,-6.846283782720566,-0.9387751507759095,6.910378075916454
6.517639416502789,0.1546717178821564,-7.316981134414673,-0.928940134048462,7.377334615858145
6.527664416702464,1.0355728822946548,-6.990143998861313,-0.9541498196125031,7.130562824744444
6.537690416676924,1.8379266446828844,-6.814314131140709,-1.4089292961359026,7.197078100910762
6.5477154166437685,1.99941446185112,-6.480721707344055,-2.671118037700653,7.289189502930325
6.5577404166106135,1.6522687768936157,-5.485966483354569,-3.4867753851413728,6.7069682386317435
6.567765416577458,1.3376318567991257,-4.28307610988617,-3.7320248588919642,5.836266742943566
6.577790416544303,0.9964830762147904,-3.424846354722977,-3.7703442943096164,5.19018758546113
6.587816416518763,0.6992632573843003,-2.8540809237957,-3.5620232033729553,4.617657016720661
6.597841416485608,0.14677739202976228,-2.487597327232361,-3.344162087738514,4.170504062380501
6.607866416685283,-0.4797061568498612,-2.1694526624679566,-3.150189479291439,3.85491071323934
6.617891416652128,-0.899076064825058,-1.9069027394056322,-2.925258787572384,3.605794614528602
6.627916416618973,-1.0071852350234987,-1.4160436034202577,-2.630594494342804,3.1527177130379815
6.637942416593432,-0.7196308636665345,-0.7159412705898285,-2.2745139715075493,2.49075375929823
6.647967416560277,-0.1555306738615036,0.11040771067142487,-2.0370000717043877,2.0459102974498173
6.657992416527122,0.44518185675144195,0.9070645308494568,-1.771532972753048,2.039431789067008
6.668017416493967,0.8255385571718217,1.5247287243604661,-1.5098896604776384,2.2991473156551985
6.678042416693643,1.106797231435776,2.1493551975488665,-1.45206946849823,2.820147800752464
6.688068416668102,1.4125551545619965,2.8560122591257096,-1.537409288585186,3.5377599423341337
6.69809295819141,1.525525699853897,3.3852665519714358,-1.5428860831260682,4.020914790730512
6.708117958158255,1.6472530353069306,3.5988998383283617,-1.4504813647270203,4.215378843955566
6.71814295835793,1.6614144068956376,3.572142394781113,-1.3590809056162836,4.1674452639529305
6.728167958324775,1.4719248586893083,3.424825889468193,-1.229063387811184,3.925123179475651
6.7381939582992345,1.1331453698873521,3.287699911594391,-1.1674550771713257,3.6682339749814235
6.748218958266079,0.766934838294983,3.1426059329509735,-1.1639619505405427,3.437872673371624
6.758243958232924,0.3707093793153763,2.925216979980469,-1.2347679314017297,3.196712634613339
6.768268958199769,-0.09182350516319275,2.6869827032089235,-1.3163143703341484,2.9934914606513536
6.778293958166614,-0.5237117171287536,2.4358138006925585,-1.3732516327500344,2.8448695719053463
6.78831895836629,-0.9947575628757477,2.201079082489014,-1.352583771944046,2.7683523251919286
6.798344958340749,-1.2907558983564378,2.039629272222519,-1.3201717785000802,2.751180088979448
6.808369958307594,-1.4810242956876756,1.8858048158884049,-1.2325500825047493,2.696084656298378
6.818394958274439,-1.7003054076433182,1.7400664740800857,-1.0915620186924935,2.6665291024345943
6.828419958241284,-1.9676512169837952,1.6107728415727616,-0.9357383993268014,2.709584250548575
6.838444958208129,-2.285500012636185,1.4304195678234102,-0.7093768939375877,2.787978842355991
6.848470958182588,-2.5796956515312197,1.21837730884552,-0.4746968472003937,2.8921635531174115
6.858495958149433,-2.880774047970772,0.9707231676578523,-0.45628396511077884,3.0739807482329513
6.868520958349109,-3.187866890430451,0.7764921122789383,-0.6842794749140739,3.35166730319744
6.878545958315954,-3.488224909901619,0.7451674085855484,-0.7626836201548577,3.6475572364705644
6.8885709582827985,-3.790469241142273,0.8259905469417572,-0.7083176708221436,3.943555676604773
6.8985959582496434,-3.781669181585312,1.038048593401909,-0.5804770714044571,3.9642805541033677
6.908621958224103,-3.515706238746643,1.3795984929800034,-0.38242398351430895,3.7960150766510026
6.918646958190948,-3.2542012131214144,1.7093533891439439,-0.11792225986719132,3.677719429732366
6.928671958157793,-2.8847828990221025,2.0248071652650834,0.07221223622560502,3.5251994323810805
6.938696958357468,-2.6861868971586227,2.0934558159112933,0.29512125313282017,3.4183700580379206
6.948721958324313,-2.9349145871400832,1.7143369710445404,0.6001509055495262,3.4515005423047134
6.958747958298773,-3.8381024140119555,1.087761036157608,1.0038426741957664,4.113630309928638
6.9687729582656175,-4.612079054117203,0.6125806242227555,1.2269692075252534,4.8116506168689055
6.978797958232462,-4.463069779872894,0.13236342072486879,1.0341865074634553,4.5832361566234106
6.988822958199307,-3.742151359319687,-0.4662312483787537,0.6963291245698929,3.8348328024500975
6.998847958166152,-3.606488939523697,-1.1898189228773117,0.5953906872868538,3.84407617128636
7.008873958373442,-3.3638651579618455,-1.9296092319488527,0.31581951946020126,3.8908511354000663
7.018898958340287,-3.0402223563194277,-2.7246481275558474,-0.03567854046821595,4.082637915993528
7.028923958307132,-2.9139113885164263,-3.5939367216825486,-0.26857811003923415,4.634586814461056
7.038948958273977,-2.910275589823723,-4.6768281966447836,-0.2606928473711014,5.514561337978386
7.048973958240822,-2.565032004117966,-5.439808562994004,-0.3479338896274567,6.024281233120147
7.058998958207667,-1.652136045098305,-5.758534440994263,-0.552728817164898,6.016293008568872
7.069024958182126,-0.6260473465919495,-5.7666556388139725,-0.7344216880202293,5.8468476765411195
7.079049958148971,0.3159730088710785,-5.575586172938348,-0.8881958582997322,5.654722981446318
7.089074958348647,1.2209179240465164,-5.234083051085473,-0.9440025615692139,5.456867856121083
7.099099958315492,2.0840377056598665,-4.841614428162575,-0.966570036560297,5.3589832118770655
7.109124958282337,2.9016480231285096,-4.084847313165665,-1.125870264172554,5.1354768691671
7.119150958256796,3.8757660841941837,-3.061103348135948,-1.4490705777704715,5.147010975966447
7.129175958223641,4.742214685678483,-2.028756374716759,-1.5031330566108227,5.3725097988644706
7.139200958190486,5.261985964179039,-1.1367525172233581,-1.2990197682380678,5.537883614784996
7.149225958157331,5.540182451605797,-0.390215106010437,-1.0275160038471223,5.6481570945045
7.159250958357006,5.80625181376934,0.20197393834590913,-0.12067615225911141,5.811016806927577
7.169276958331466,5.753570739626885,0.43134909868240356,1.4434394167363644,5.9475335770900015
7.179301958298311,4.99785963177681,0.7966685146093369,2.9309542679786684,5.8483993145215765
7.1893269582651556,4.024825644493103,1.3524071860313416,4.275185877084732,6.02539965056454
7.1993519582320005,3.4004172724485398,1.9597843730449678,4.460553138256073,5.941390974746883
7.209376958198845,3.5778989785909654,2.5445790284872056,3.991048910915852,5.933356128073029
7.21940195816569,3.827261676192284,2.997790281772614,3.7546158689260483,6.142623123286322
7.22942795837298,3.941094101071358,3.2189062500000003,3.3862722730636596,6.112317078417009
7.239452958339825,4.241502991318703,3.1625244730710986,2.8282952874898912,5.999263529915707
7.24947795830667,4.743530309200287,2.896436984539032,1.6443367365002632,5.796056444058466
7.259502958273515,5.083206760883331,2.6389443182945254,0.9453320722281934,5.804883359356346
7.26952795824036,4.98334684252739,2.32616798222065,0.5522528538107873,5.527186123967453
7.279553958214819,4.452251261472703,2.0668001139163974,0.37231268584728244,4.92268430251351
7.289578958181664,3.892040054798126,1.8371127122640611,0.3284214386343956,4.3163433073690864
7.299603958148509,3.2925168478488924,1.5622298419475555,0.3974111281335354,3.6659466549862207
7.309628958348185,2.4909355026483535,1.1784010648727417,0.5700566022098065,2.813956872052272
7.31965395831503,1.5715555661916734,0.7254383182525636,0.7550763925909997,1.888435333779099
7.329678958281875,0.74451895236969,0.1340281230211258,0.9204540699720383,1.1914309476953822
7.339704958256334,-0.3457879614830017,-0.4708090335130692,1.1563523840904237,1.2955235607798443
7.349729958223179,-2.216332129240036,-1.251348003745079,1.648245746344328,3.0322786768238563
7.359754958190024,-4.853881886601449,-1.7451804488897324,2.5093314278125765,5.736076044028052
7.369779958156869,-7.007124897837639,-1.6919415503740312,3.3604427826404573,7.95330379397006
7.379804958356544,-7.477739219069481,-0.9081328171491624,3.570638490915299,8.336111100195284
7.389830958331004,-7.395518596172333,0.2375010359287262,3.29274839758873,8.098906966882701
7.399855958297849,-7.37649175643921,1.6473729032278062,3.729168201684952,8.428117440541689
7.409880958264694,-5.985787646770477,3.147832759022713,4.01241551399231,7.863713059867633
7.4199059582315385,-1.9522800564765932,4.389958534240723,4.152156074345112,6.350081370895197
7.4299309581983835,1.9646188509464264,4.349154324531556,4.072307374477386,6.273639925936815
7.439955958165228,2.5411356031894683,2.244846076369286,3.4287961488962173,4.822172445182069
7.449981958372518,1.615620768070221,-0.020269957780838014,2.2316085648536683,2.7551257909824187
7.460006958339363,0.877622630596161,-1.8740706235170366,0.7412980136275292,2.1981548918745877
7.470031958306208,0.33170201897621154,-3.7203523546457293,0.07410059452056886,3.7358451212836994
7.480056958273053,-0.3408195823431015,-5.49212301671505,0.08859379559755326,5.50340095568714
7.490081958239898,-1.1413250398635866,-6.648345007896424,-0.007936425805091858,6.745604285569639
7.5001079582143575,-1.2972071313858033,-7.147155187726021,-0.4735469922423363,7.279342028852534
7.510132958181202,-0.49154676854610446,-7.076474044919014,-1.1538395431637765,7.186755097083035
7.520157958148047,0.864914876818657,-6.446248278021812,-1.5500459986925126,6.686167602154771
7.530182958347723,1.6667955994606019,-5.672806658148766,-2.1821364426612857,6.302433054424985
7.540207958314568,1.7049153524637224,-4.767387533783913,-3.210016143321991,5.9949081641616955
7.550232958281413,1.5329844081401827,-3.626405140757561,-3.765956251323223,5.448236588786709
7.560258958255872,1.5644979768991472,-2.5284565007686615,-3.8674247387051586,4.878290715563136
7.570283958222717,1.4890460908412935,-1.808842009305954,-3.6644795778393746,4.349434245011825
7.580308958189562,0.9418121945858002,-1.6804739910364153,-3.2970148184895516,3.8185481217028117
7.590333958156407,0.25432522952556613,-1.8018779754638672,-2.9876605653762818,3.4982225793593407
7.600358958356082,-0.43182447731494905,-2.0436305218935016,-2.688763472735882,3.4047536036461956
7.610383958322927,-1.049933643937111,-2.1836847853660584,-2.240069778263569,3.2998109809502822
7.620409958297387,-1.411892080307007,-2.061668012738228,-1.7289187574386597,3.0385974249651566
7.630434958264232,-1.143519499897957,-1.3649892246723176,-1.380166257619858,2.252929499294377
7.640459958231077,-0.1398385012149811,-0.32240260720252994,-1.288363802433014,1.3354323400954071
7.6504849581979215,1.1547882539033891,0.8238376021385193,-1.4595363628864289,2.035310959199682
7.660509958164766,2.1183363032341003,1.818189952969551,-1.6799530041217805,3.2581291402792383
7.6705359583720565,2.6351073753833774,2.6661379641294483,-1.9073769485950471,4.205968300832039
7.680560958338901,2.7224864119291308,3.2930699944496156,-2.2145352798700335,4.812526234450281
7.690585958305746,2.4268523579835892,3.6134675914049152,-2.3939155769348144,4.967654596595389
7.700610416708514,1.8332044333219528,3.673030838370323,-2.387278110086918,4.748777822647721
7.710635416675359,1.2376900774240494,3.4920454806089403,-2.2592963004112243,4.339432928326825
7.720660416642204,0.9248201858997346,3.252568085789681,-2.054294966161251,3.956591884051301
7.730686416616663,0.8535087132453919,3.1140142178535464,-1.9210655727982522,3.757133828807608
7.740711416583508,0.9506309652328492,3.0619196194410327,-1.836198500096798,3.694682113488952
7.750736416550353,1.0162817484140396,2.989598917365074,-1.741204049885273,3.605873239897209
7.760761416517198,0.8688553154468537,2.823988228440285,-1.694880068600178,3.4062350947178754
7.770786416484043,0.5726955968141556,2.606039112210274,-1.7881487131118776,3.2119925157421676
7.780812416691333,0.30242793381214145,2.434518057703972,-2.133815929591656,3.2513860505660817
7.790837416658178,0.043809093832969666,2.2040734416246415,-2.424834776222706,3.277145505582042
7.800862416625023,-0.41211936056613924,1.8896873670816423,-2.400975212752819,3.083089795142989
7.810887416591868,-0.9345791888237,1.4543802881240846,-2.1276748913526538,2.7414705407789426
7.820912416558713,-1.4612922817468643,0.9946002727746964,-1.6867284652590753,2.4432883069363087
7.830937416525558,-2.0546952080726624,0.4941908794641495,-1.1349808108806612,2.3987868735028615
7.840963416500017,-2.6657187187671663,0.005094094276428223,-0.6480738079547882,2.7433705360266556
7.850988416699693,-3.2838004034757615,-0.3803613781929016,-0.2518632593750954,3.315336328234501
7.8610134166665375,-3.8199169886112214,-0.5687323540449143,0.01942211151123047,3.86207191916899
7.871038416633382,-4.291874415278435,-0.5421544200181961,0.23720692098140717,4.332480182877742
7.881063416600227,-4.670479289889336,-0.3713730382919312,0.5148476305603982,4.713423682796724
7.891088416567072,-4.946792973876,-0.017539308071136475,0.7819876179099083,5.008250491766659
7.901114416541532,-5.036934819817543,0.5132317525148392,1.1039858901500703,5.181978778085672
7.911139416508377,-4.832737185359002,1.021188731789589,1.3284216150641441,5.11496618914097
7.921164416708052,-4.620777372121811,1.2353441745042801,1.5621944662928582,5.031710474849546
7.931189416674897,-4.704683747291565,1.0457025986909867,1.8492556250095369,5.16210126339729
7.941214416641742,-4.998947798609734,0.5831001323461533,1.9964437839388849,5.414358008110972
7.951240416616201,-5.234015223383904,0.042768289446830754,1.779998571574688,5.528574807308353
7.961265416583046,-5.2427386844158175,-0.6963484203815461,1.3422657752037048,5.4564537427638085
7.971290416549891,-5.535842063426972,-1.754761696457863,1.1281486317515375,5.915864712608457
7.981315416516736,-5.865719166398049,-2.893934376239777,1.1850983195006848,6.6472532327206455
7.991340416483581,-5.25026171207428,-3.566757693886757,0.9528029134869576,6.4183207994087335
8.001365416683257,-3.6707545173168183,-3.4185307770967484,0.5098326198756695,5.041896538074618
8.011391416657716,-1.9952103137969972,-3.0569091403484348,0.04530188798904419,3.6506999259981763
8.021416416624561,-0.707175709605217,-2.9573591244220734,-0.19699415713548662,3.04710964243226
8.031441416591406,-0.12995904564857483,-3.2926963573694232,-0.1517147809267044,3.298750677170282
8.04146641655825,-0.0877772319316864,-3.924120218753815,0.0648701798915863,3.9256378429393157
8.051491416525096,0.19532974720001223,-4.342173333764077,0.200348120033741,4.35117941939816
8.06151641649194,0.7320614594221115,-4.405113932490349,0.1133954916894436,4.466967794391103
8.07154241669923,1.5470867228507996,-4.246288937330246,0.15593705534934998,4.522030896903015
8.081567416666076,2.557417759895325,-3.8404734599590302,0.11986090421676636,4.61562440322405
8.09159241663292,3.4041881418228153,-3.03910144507885,-0.005445511937141418,4.563404885828967
8.101617416599765,4.274911642670632,-2.1412392622232437,-0.009850804209709168,4.781199867090983
8.11164241656661,5.08429200410843,-1.2054660719633103,-0.06472283005714417,5.225644714140655
8.121667416533455,5.718632456660271,-0.142676739692688,-0.13039539411664008,5.721898005489478
8.131693416507915,6.087127495408058,0.9192349255084992,0.20369243502616882,6.159513341305
8.14171841670759,5.6791579037904745,1.8712458336353304,1.2594515137374402,6.110696652717997
8.151743416674435,4.558189360499382,2.5089238768815996,2.3667353796958923,5.716049826904995
8.16176841664128,3.436262458562851,2.6910681527853013,2.668415746986866,5.11568080374755
8.171793416608125,3.075808510780335,3.0616412919759752,1.7965597866475582,4.697006755660479
8.181819416582584,3.4954748725891114,3.6371967619657517,0.8064970993995667,5.108618447437226
8.19184441654943,3.5793356394767764,3.660293848514557,0.12263833165168762,5.120979870873585
8.201869416516274,4.091862802505493,3.53019300788641,-0.3189091882109642,5.413622349017668
8.21189441648312,4.881367893218995,3.399230580031872,-0.5736647728085518,5.975919369999444
8.221919416682795,5.447585359811783,3.2224055162072185,-0.8112359753251076,6.381080423484731
8.23194441664964,5.807642281651497,3.111784966886044,-0.9128985902667046,6.651713943629501
8.241970416624099,5.987771022319794,2.864772557616234,-1.012797684967518,6.714617098039118
8.251995416590944,5.728193238973618,2.3788113418221477,-1.0284907346963883,6.287188113486113
8.262020416557789,4.6491539096832275,1.8654986053705216,-0.8651291772723199,5.083617375051951
8.272045416524634,3.221808807849884,1.4108030363917352,-0.36338808059692385,3.5358829306060384
8.282070416491479,1.8002027481794358,0.8323920786380768,0.5150005352497101,2.0491051848159723
8.292095416691154,-0.056595200300216676,0.46839647233486176,1.7695650923252106,1.8313816882257765
8.302121416665614,-2.0895153772830963,0.24463990151882173,3.1286147153377533,3.7701662072573923
8.312146416632459,-4.10762455701828,-0.12476028621196747,4.134386093616486,5.829347562251259
8.322171416599303,-5.868294280171394,-0.7091731184720993,5.003858290314675,7.744572425912656
8.332196416566148,-7.196838394403458,-1.570001376271248,5.544952610135079,9.219863699930556
8.342221416532993,-7.532583178281785,-2.677550559639931,5.496342952251434,9.701488142853437
8.352246416499838,-7.085950627326966,-3.5452720999717715,5.00608783364296,9.372329803944254
8.362272416707128,-7.011357697248459,-3.138503526449204,4.595620311498642,8.95148407761295
8.372297416673973,-6.2020825856924064,-1.4031329512596131,4.377723527848721,7.720043637502302
8.382322416640818,-3.625667806863785,0.7474536699056625,3.8523623111844065,5.342738006960285
8.392347416607663,0.35333437800407413,1.5906552037596704,3.2693688905239107,3.6529169306531992
8.402372416574508,2.3926970171928406,-0.10532267957925798,2.69736706584692,3.6071984934063295
8.412398416548967,2.0873764657974245,-2.1732317179441454,1.8898469960689546,3.5569085282579675
8.422423416515812,1.5176775670051577,-4.007878659367561,1.0868539868295193,4.421276753867805
8.432448416482657,1.554685179591179,-6.195938331484795,0.02579966962337494,6.3880641385442996
8.442473416682333,2.665269652605057,-7.620909463763238,-0.41616285637021067,8.084251041314573
8.452498416649178,4.023275547623634,-8.785450288653374,-0.5370077008008958,9.677771446837612
8.462523416616023,4.6283512705564505,-9.957404798269271,-0.9666470736265182,11.02297384398639
8.472549416590482,5.029692458510399,-9.28198005437851,-1.7263331186771393,10.697344810452657
8.482574416557327,4.690048166513443,-6.87836570084095,-2.1111263939738274,8.588674005342982
8.492599416524172,3.734126640558243,-3.359520092010498,-2.4608556711673737,5.593378911772887
8.502624416491017,2.81075656414032,-1.1432867807149887,-3.0124045202136043,4.2757500066326255
8.512649416690692,2.45496635556221,-0.7185432815551758,-2.8640445792675018,3.8400410943689183
8.522674416657537,2.254760615229607,-0.9467612779140473,-2.620225042104721,3.584115179597431
8.532700416631997,1.7583179730176925,-1.295961089730263,-2.6925895982980728,3.4671654107058223
8.542725416598842,0.45174009382724767,-1.5103732252120972,-2.8387635576725008,3.2471333400675246
8.552750416565686,-1.3702505493164063,-1.516765401363373,-2.8532558816671374,3.509876490268998
8.562775416532531,-3.4322044909000398,-1.3237967598438263,-2.5445527160167694,4.472942437961362
8.572800416499376,-4.544852446317673,-0.8271611595153809,-2.071136555224657,5.062557256268657
8.582825416699052,-3.9605214750766757,-0.34101546406745914,-1.3481118214130403,4.197550164597232
8.592851416673511,-2.72350499689579,0.25768094658851626,-0.7160810190439224,2.827835031289144
8.602876416640356,-1.6857809239625932,1.01692260324955,-0.22139137208461762,1.981162043909969
8.612901416607201,-0.71362109541893,1.8696466201543809,0.16807470560073853,2.0082536340672683
8.622926416574046,0.4597279751300812,2.688431058526039,0.011062932014465333,2.727477544550899
8.632951416540891,1.5356869912147524,3.334677611589432,-0.42119628578424456,3.695377601731718
8.642976416507736,2.257670774459839,3.748399693965912,-0.9664412516355515,4.481248295334317
8.653002416482195,2.6236070716381072,4.047565466165543,-1.3529480534791947,5.009647562918825
8.66302741668187,2.3974291688203815,4.140953686237335,-1.658260126411915,5.0640883382817306
8.673052416648716,1.4922696608304977,3.926956703066826,-2.0344340211153034,4.667631034547186
8.68307741661556,0.6448631018400193,3.6394420927762985,-2.090481629669666,4.24635144692158
8.693102416582406,0.36504518151283266,3.417595222592354,-2.217179683148861,4.0901223499303665
8.703127958346158,-0.04180408358573914,3.3104812484979633,-2.84743527084589,4.366797602330371
8.713153958320618,-0.42813488423824314,3.1139177387952808,-3.6679899537563325,4.830521034416783
8.723178958287463,-0.6132612401247025,2.7473329854011537,-2.98466796040535,4.1027028548485855
8.733203958254308,-0.6166929709911346,2.4399992376565933,-1.6425202989578247,3.005291904744551
8.743228958221152,-0.9013786983489991,2.4209788298606876,-1.266211041212082,2.876962365648592
8.753253958187997,-1.3986919909715654,2.5293125331401827,-1.855437009036541,3.434589883874125
8.763278958154842,-1.9481478291749956,2.474595458507538,-2.1560917747020723,3.81675705128363
8.773304958362132,-2.705252328515053,2.3093051970005036,-2.11753494232893,4.13947277872601
8.783329958328977,-3.477800493836403,2.1618694084882737,-2.01386146992445,4.563377437198509
8.793354958295822,-4.185318850278855,1.9289455729722977,-1.8534705904126167,4.967200230664497
8.803379958262667,-4.886612845659256,1.5634975183010102,-1.767003719508648,5.426399518820271
8.813404958229512,-5.510369837880135,1.1297867292165757,-1.6818852165341378,5.871058821484342
8.823429958196357,-6.011154037714005,0.8434579342603684,-1.6888205990195275,6.30059593750185
8.833454958163202,-6.266104919314385,0.8030156672000885,-1.65219568669796,6.5298281454237435
8.843480958370492,-6.125437867641449,1.08177758038044,-1.4422578406333924,6.38524388591525
8.853505958337337,-5.515401951670647,1.5293088483810426,-1.2064074736833572,5.849261768359148
8.863530958304182,-5.2900286257267,1.7445869565010073,-0.9455728313326837,5.649964113970626
8.873555958271027,-5.569923729300499,1.4775241523981095,-0.48393369376659395,5.782847031619211
8.883580958237872,-5.720118234157563,1.0269423919916154,0.010162168443202974,5.811580383929897
8.893605958204716,-5.4196672439575195,0.585027374625206,0.39425611674785616,5.465390008945387
8.903631958179176,-5.217757624983788,0.11779449820518494,0.7608081257343292,5.274248684037117
8.91365695814602,-4.8107908308506016,-0.44967251837253575,0.9815720915794373,4.93045612118629
8.923681958345696,-4.385983597040177,-1.1943481761217118,1.2210550412535668,4.7068349336981745
8.933706958312541,-4.010690000653267,-1.687763130068779,1.2836892458796503,4.5367429665506425
8.943731958279386,-3.0318345254659653,-2.032923685312271,1.0798611554503441,3.8066914000430363
8.953756958246231,-2.402351939678192,-2.8827065527439117,1.0827248293161393,3.9055838190116883
8.96378295822069,-2.296086396574974,-4.042458508014679,1.3610826998949053,4.84417481574624
8.973807958187535,-1.7378299140930176,-5.1379214966297155,1.5141376626491547,5.631243466349056
8.98383295815438,-0.8052972507476807,-5.996497406959534,1.318295406997204,6.192284521389833
8.993857958354056,0.32251838207244876,-6.50696050286293,0.7264612886309624,6.555326009930565
9.0038829583209,1.347954531311989,-6.825432026982308,0.052258905172348026,6.957458930285551
9.013907958287746,2.37967760682106,-6.786911154985428,-0.6840729220211507,7.224471212532706
9.023933958262205,3.7113821411132815,-6.678395018577576,-1.5494329181313515,7.795900191082837
9.03395895822905,5.050977492928506,-6.377803695201874,-2.356655510812998,8.470099102445396
9.043983958195895,6.404740648269653,-5.181222467422486,-2.9284311944246295,8.743081738666314
9.05400895816274,7.405325546264649,-3.3423269391059875,-2.992379268407822,8.658194355639653
9.064033958362415,7.862140438556671,-1.5771104210615159,-2.3485945393145085,8.355622410443573
9.07405895832926,8.013479243516922,-0.4376301777362824,-1.5900130333006384,8.181412543369753
9.08408495830372,7.946359639763832,0.11435224235057831,-1.1015576876699924,8.023162549709625
9.094109958270565,7.7597498452663425,0.39649735450744633,-0.7078282588720322,7.8020477220599105
9.10413495823741,7.538637970089913,0.6674620056152344,-0.15144288539886475,7.569643513439666
9.114159958204255,7.286342309117318,0.8618117594718934,0.5826282620429993,7.360228219704085
9.1241849581711,6.2631128990650184,1.1231442922353745,1.6002430294454097,6.561159504302889
9.134209958370775,4.551905357837677,1.4554240161180496,3.3263172626495363,5.822584304688499
9.14423495833762,3.400868092775345,2.0188924142718316,4.681880775690079,6.128771325693111
9.15426095831208,2.924016546607018,2.556473434567452,5.446886032819748,6.689842796434576
9.164285958278924,3.4624375194311146,2.964028458595276,5.70080955862999,7.298847025598908
9.17431095824577,4.521736063957214,3.509772484302521,6.013760726451874,8.302404350468203
9.184335958212614,5.5132729804515845,3.4571700552105904,5.868760303258896,8.763021810125188
9.194360958179459,5.969970928430557,2.3239276215434077,5.000601975917816,8.126943619715323
9.204385958146304,6.234386698007584,1.1936602512001993,4.108183550834656,7.561056432995172
9.214411958353594,6.20962257027626,0.4776529070734978,3.5120941212773324,7.149990900807561
9.224436958320439,5.709289775490761,-0.13141909539699556,3.143225737810135,6.518675383694941
9.234461958287284,4.322366475462914,-0.45893333852291107,2.9004660084843636,5.225531056628283
9.244486958254129,2.131024176478386,-0.9670788905024529,2.8046047085523607,3.652713127584058
9.254511958220974,-0.13013855516910552,-1.600855671465397,2.9747002118825914,3.380608861577861
9.264536958187819,-1.893860524892807,-2.137243859767914,3.2166118025779724,4.301291723697292
9.274562958162278,-3.573039942383766,-2.4160706770420077,3.548468480408192,5.585305766274791
9.284587958361953,-5.019550462961197,-2.365184113383293,3.787822206616402,6.71845070007595
9.294612958328798,-6.578747938871384,-2.2297544127702715,3.8280247378349306,7.9312989212328375
9.304637958295643,-7.8176045358181,-1.2120310333371163,4.435137630701066,9.06942146487176
9.314662958262488,-8.404726967811586,0.9234016513824463,5.325508360862732,9.99265456797412
9.324687958229333,-7.117604529261589,3.142974307537079,5.068065395951272,9.285680836128387
9.334712958196178,-4.370928186178207,4.082297050058842,4.0341545847058295,7.214191959391522
9.344738958170637,-0.631097002029419,2.416914722621441,2.289735735654831,3.3886058994119646
9.354763958370313,2.652030971646309,-0.17907975018024447,-0.3440566009283066,2.680244909730867
9.364788958337158,3.8055948185920716,-2.841237514615059,-2.1576401174068454,5.2163774225025366
9.374813958304003,3.6610627573728562,-6.071354046463966,-1.878325642347336,7.3343593919057755
9.384838958270848,3.206642299890518,-8.939594002962114,-0.6283990967273713,9.518076549493134
9.394863958237693,2.7276781547069553,-12.562338201999665,0.20890084236860276,12.856757319753221
9.404889958212152,2.0619849318265917,-14.792897776365281,-0.10307676404714584,14.936272336174085
9.414914958178997,0.9192963212728501,-13.187591496706009,-0.9596270526945592,13.25437887230336
9.424939958145842,0.6574153196811676,-8.893832523822784,-1.7194926072657108,9.082351385560948
9.434964958345518,1.4046935731172563,-5.311399029493332,-2.6047790372371673,6.080213607899792
9.444989958312362,2.035014649629593,-3.6433337071537975,-3.25045607149601,5.2896719934808205
9.455014958279207,1.9001737636327745,-3.0184265676140787,-3.303761043548584,4.861727708227404
9.465040958253667,1.0898449838161468,-2.5725217026472094,-3.314983604550362,4.33529079737194
9.475065958220512,-0.4581082963943482,-2.300550745725632,-3.629405347108841,4.32145578694337
9.485090958187357,-2.6607772368192673,-2.076275526881218,-3.5307025927305222,4.884313295215151
9.495115958154202,-4.563857651352882,-1.8880220800638199,-3.5031964132189755,6.055229900359775
9.505140958353877,-5.0587273925542835,-1.5305162984132767,-3.401574436426163,6.285213728938397
9.515165958320722,-3.978760110139847,-0.8946883141994477,-2.9623742812871936,5.0405020162714855
9.525190958287567,-1.936619458794594,0.22160538017749787,-2.4969847396016123,3.167733679226966
9.535216958262026,-0.27832863450050355,1.4677651494741442,-2.0014466616511344,2.497516787176463
9.545241958228871,1.2738311326503755,2.5434797519445422,-2.0329304096102714,3.496389717033757
9.555266958195716,2.542832465171814,3.283232638835907,-2.5452456110715866,4.870717475621876
9.565291958162561,3.2636380344629288,3.8233650916814805,-2.870339399278164,5.788635600150533
9.575316958362237,3.608044883608818,4.338490172624589,-2.9184277778863907,6.35277148611807
9.585341958329082,3.706825405955315,4.709619966745377,-2.8071301209926607,6.618236497556338
9.595367958303541,3.7273391926288606,4.814184554815292,-2.6843195888400078,6.653946350832675
9.605392958270386,3.4236283797025684,4.624220797419548,-2.4998203468322755,6.273256812217156
9.61541795823723,2.929113564491272,4.211162374019623,-2.280207113027573,5.61363868558949
9.625442958204076,2.5344054579734805,3.8299525648355486,-2.086651118695736,5.044389018052665
9.63546795817092,1.9616981667280198,3.587494259476662,-1.9337856057286265,4.523041181334226
9.645492958370596,1.299869368672371,3.470354649424553,-1.6931533858180048,4.074284005356315
9.655517958337441,0.6745470768213272,3.2222011560201644,-1.636718691587448,3.676471422994827
9.6655439583119,-0.07568635940551759,2.864132872223854,-1.9637256887555123,3.473500268523329
9.675568958278745,-0.9774872267246247,2.5123035675287246,-2.2457667204737666,3.508649121330723
9.68559395824559,-2.033288551568985,2.2617129546403887,-2.358874090611935,3.8488822791155797
9.695618958212435,-3.0625674909353258,2.1690234768390657,-2.519529848992825,4.520178441121405
9.705644416622818,-4.030787465572358,2.1010577809810638,-2.5471845477819444,5.210550883744963
9.715669416589662,-4.960304719805718,1.9734241729974749,-2.3896120262146,5.848869251037083
9.725695416564122,-5.763543750643731,1.8215702283382416,-2.102243596315384,6.399686148601482
9.735720416530967,-6.338269500732422,1.686266827583313,-1.8372787731885911,6.811222310872851
9.745745416497812,-6.51491447031498,1.577971715927124,-1.5936703205108644,6.8901299249188845
9.755770416697487,-6.499821637272835,1.6073492968082428,-1.3736442732810974,6.835067788093109
9.765795416664332,-6.382092043161393,1.778719493150711,-1.0242959421873092,6.704037892187041
9.775820416631177,-6.136748136878014,1.9924644613265992,-0.6132349276542663,6.48117654454964
9.785845416598022,-5.77255314052105,2.205371523499489,-0.27753867566585544,6.185714270259519
9.795871416572481,-5.551313211321831,2.276294741034508,-0.004449438750743866,5.999884658538266
9.805896416539326,-5.92641618847847,1.9113495469093325,0.38008802086114885,6.238600230270595
9.815921416506171,-6.338672958612443,1.3415576773881912,0.6694921588897705,6.513583624151815
9.825946416705847,-5.981929069161415,1.041041783094406,0.5618978360295296,6.097784233700091
9.835971416672692,-4.8373459607362745,0.9504111099243164,0.2530750948190689,4.936318894210219
9.845996416639537,-3.906530624628067,0.7564238834381104,0.30382658779621124,3.9906727763679695
9.856022416613996,-3.3140620833635333,0.3938848185539246,0.5691156390309334,3.3855642592136235
9.866047416580841,-2.8869674187898635,-0.08845317006111146,0.7947979903221131,2.995681672986657
9.876072416547686,-3.0311691123247146,-0.8639886778593063,1.3255532634258271,3.419291458352056
9.88609741651453,-2.9287065982818605,-1.6737619721889496,1.8271271297335625,3.836299652865239
9.896122416481376,-2.5690391010046008,-2.5298592478036883,2.1205000653862953,4.182902131713298
9.906147416681051,-2.1556204891204835,-3.3737750190496447,1.9590862154960633,4.457249866456462
9.916172416647896,-1.7827224969863893,-4.127847737073899,1.55342481225729,4.757137278770089
9.926198416622356,-1.1622656732797623,-4.782208178937435,0.978255258500576,5.017704645828069
9.9362234165892,-0.4298364239931107,-5.3066452431678774,0.44397177547216415,5.342504471279678
9.946248416556045,0.3048352324962616,-5.837215744256974,-0.04863129258155823,5.845372286398079
9.95627341652289,1.004127141237259,-6.509145022630692,-0.7332937601208687,6.626836347763496
9.966298416489735,2.0101739233732223,-6.804621786475182,-1.498232943713665,7.251784526088134
9.97632341668941,3.346972551941872,-6.388798799514771,-2.116520888954401,7.516557459203914
9.986348416656256,5.038868494033814,-5.4072734856605535,-2.923563679754734,7.948334846901914
9.996374416630715,6.051843641996384,-3.2288947561383248,-2.666242629289627,7.359308566137915
10.00639941659756,6.3966872781515125,-1.2987411484122278,-1.592033100128174,6.718549404220247
10.016424416564405,6.646787309646607,-0.3757973340153694,-0.8148991097509861,6.707090705738605
10.02644941653125,6.833994689583779,0.0936718100309372,0.014395114034414291,6.834651786635646
10.036474416498095,6.630281789302826,0.5966884768009186,0.9716755329072476,6.727616746304612
10.04649941669777,5.827321670651436,1.1804081216454507,2.043473085612059,6.2870361410215585
10.05652541667223,5.004446520209313,1.7795772796869278,2.8195174473524096,6.013406597257305
10.066550416639075,5.09465677857399,2.2781684812903404,2.664935191869736,6.18445299905177
10.07657541660592,6.140216120481491,2.4611901319026948,1.6822778570652008,6.825669905582005
10.086600416572765,7.045652786493302,2.5289114141464233,0.7669570577144623,7.524947790968315
10.09662541653961,7.456562942862511,2.687932875752449,0.3533291155099869,7.934113405371033
10.106650416506454,7.604283490777016,2.7819274520874027,0.3500102359056473,8.10473657326505
10.11667541670613,7.563741821050645,2.771215353012085,0.875002493262291,8.102805330963816
10.12670141668059,7.349655960202218,2.594213118553162,1.6584922608733177,7.968562041998919
10.136726416647434,6.88845390200615,2.351255753338337,2.4788311815261843,7.689200530885957
10.14675141661428,5.903826055526734,2.0401759868860245,3.539682454168797,7.179612247728505
10.156776416581124,4.494219651818276,1.5794434601068497,4.580902869701386,6.608882131200576
10.166801416547969,2.533614914417267,0.7433068245649338,4.584106851518154,5.290155498294744
10.176826416514814,0.6502945804595948,-0.4146281084418297,3.7716947087645534,3.8497377164954627
10.186852416489273,-1.3094927161931993,-1.7255025216937065,3.0756611609458924,3.7618907085514084
10.196877416688949,-4.239635390639306,-2.884544332623482,2.868557752668858,5.875689562326124
10.206902416655794,-7.616324661970139,-4.088967553675175,3.4510746252536775,9.30795214215311
10.216927416622639,-9.116375212669373,-5.008165934085846,4.356189986765385,11.276808690507503
10.226952416589484,-10.107970601320266,-4.562247328162194,5.176852258443833,12.238666988942581
10.236977416556329,-9.851650886535644,-2.003340867161751,6.510248976945878,11.977134113052411
10.247002416523173,-6.74892530322075,1.243239377439022,6.450564107894897,9.418248999051265
10.257027416490018,-2.018126721382141,2.9027446684241296,4.608194164037704,5.80811634930745
10.267053416697308,1.9734130632877351,1.6239194288849832,1.8268195661902429,3.1414555793899614
10.277078416664153,4.079864315986634,-0.37494159400463106,-0.9413043639063836,4.203799227042726
10.287103416630998,4.529792942404748,-2.624977951347828,-2.0328295451402667,5.61622019740299
10.297128416597843,3.784958240389824,-5.285913355350495,-1.655897558927536,6.708858741054974
10.307153416564688,3.052186344265938,-8.144860332012177,-0.5584897863864899,8.715876441850643
10.317178416531533,2.3586013180017473,-11.13961240053177,0.4380964931845665,11.39499421450934
10.327204416505992,0.37079007089138033,-12.827039315700532,0.06707984268665314,12.832572719002751
10.337229416705668,-1.5266501194238664,-11.730605689287186,-0.7482494759559631,11.853170365051799
10.347254416672513,-2.7165684449672702,-8.445439960956573,-1.5622627325356007,9.008099971458112
10.357279416639358,-1.715393562912941,-5.149476764202118,-2.860710496902466,6.135417717468684
10.367304416606203,0.18338622450828554,-3.5482427778840067,-3.7208715873956684,5.144758758973425
10.377329416573048,0.5911295288801194,-2.8663957446813586,-4.523612143099308,5.38783124329604
10.387354416539893,-0.26361587047576907,-2.2516580826044086,-4.391267141103745,4.941931257379236
10.397380416514352,-1.4324748641252518,-1.8202508041262628,-3.442123707532883,4.148917068854581
10.407405416481197,-1.8903223747015,-1.399539837241173,-2.463903239965439,3.406295584977081
10.417430416680872,-1.8524867963790894,-0.9217936670780182,-1.9628262408077717,2.8520339666679235
10.427455416647717,-1.5416458886861801,-0.4229098123311997,-1.9670372593402863,2.5347110949972103
10.437480416614562,-0.8020959001779556,0.037187706828117374,-2.085510765463114,2.2347473932156094
10.447505416581407,-0.09722633242607118,0.6143043833971024,-1.9808904826641083,2.0762345579166057
10.457530416548252,0.6122198510169983,1.44914059817791,-1.962923889309168,2.5155301259351552
10.467556416522712,1.4442850703001022,2.265232978463173,-2.0682008144259454,3.3903826361933036
10.477581416489556,2.2366225522756578,2.8253126227855683,-2.1945459884405136,4.219111749314054
10.487606416689232,2.8417245876789092,3.1631384307146075,-2.4895549750328065,4.927344856795913
10.497631416656077,3.1436888372898104,3.272720514535904,-2.551236083507538,5.205985461539016
10.507656416622922,3.1401752454042438,3.2068773579597476,-2.3686196449398995,5.074950441456519
10.517681416589767,2.921122759580612,3.2515179258584976,-2.1588137997686863,4.875018361072162
10.527706416556612,2.566777397990227,3.362799795269966,-2.053565526008606,4.702541870468801
10.537732416531071,2.2912355464696885,3.403520974516869,-1.9066869771480561,4.524286748450909
10.547757416497916,2.1190642815828324,3.24708924472332,-2.2058710218966007,4.460929158585818
10.557782416697592,1.9425257313251496,2.978545340895653,-2.5724053430557254,4.388895967508589
10.567807416664436,1.6611273086071014,2.6355839234590532,-2.5176169323921207,4.005501413214531
10.577832416631281,1.357731660604477,2.429410514831543,-2.3527419693768024,3.644292179045046
10.587857416598126,1.0433923637866975,2.5233039343357087,-2.132761968970299,3.4647372174709763
10.597882416564971,0.421186637878418,2.60602975666523,-2.0083023758232597,3.316936494612056
10.607907416531816,-0.4610260570049286,2.5172959202528,-2.035028682947159,3.2696583178944785
10.617933416506276,-1.3996024024486542,2.42737626850605,-2.1544219560921194,3.534483894253614
10.627958416705951,-2.458385222554207,2.403420225977898,-2.225028108358383,4.0952212111310216
10.637983416672796,-3.5961955010890962,2.3326297402381897,-2.1311463832855226,4.7870208370225535
10.648008416639641,-4.667475575208664,2.161146692633629,-1.9270262244343759,5.4926599514177585
10.658033416606486,-5.425218005776405,1.8653459930419922,-1.7023645046353342,5.984191757505823
10.66805841657333,-5.899231313467026,1.6860785472393036,-1.694921876192093,6.365261276934752
10.678083416540176,-6.146777865886689,1.7702696818113328,-1.8322969454526903,6.653874433381665
10.688109416514635,-6.225617628693581,2.004075862169266,-1.5657481116056442,6.725042904623465
10.698133833240718,-6.052428948283196,2.2562545788288118,-0.8045505613088608,6.509215198793539
10.708158833207563,-5.668469193577767,2.4843024212121967,-0.14274339795112612,6.190612021136489
10.718183833174407,-5.14208237528801,2.664776147603989,0.15807538211345673,5.793706145250814
10.728208833374083,-5.3184782534837725,2.3306679993867876,0.6031288924813271,5.837978136057994
10.738233833340928,-5.774351159334183,1.6131321930885316,0.9718937802314759,6.073705977715358
10.748258833307773,-5.984697725772858,0.9070464044809342,1.230582202076912,6.176865920903664
10.758284833282232,-5.686053525209427,0.3534530764818192,1.4525875318050385,5.879297943324226
10.768309833249077,-5.4248531395196915,-0.28252225756645205,1.6857294684648514,5.687753005557457
10.778334833215922,-4.916931243538857,-0.8884651225805283,1.806290284395218,5.313028112030949
10.788359833182767,-3.977650308609009,-1.415902100801468,1.8904042357206345,4.626025174062704
10.798384833149612,-3.40679658472538,-2.1199752777814864,2.226148142516613,4.588713730505682
10.808409833349288,-3.1553511089086532,-2.6887342366576195,2.361344831585884,4.770899478035904
10.818434833316132,-2.314657738208771,-3.2072995269298556,2.11516331166029,4.48534575428561
10.828460833290592,-1.5076110005378724,-4.044365869760513,1.6565863609313967,4.623209338614297
10.838485833257437,-0.7788812845945359,-5.003451908826828,1.2339206698536873,5.211885194334832
10.848510833224282,0.251522074341774,-5.696377369165421,0.7370394864678383,5.749365677223352
10.858535833191127,1.3094073468446732,-6.096110572814942,0.27889522969722746,6.241385604583712
10.868560833157972,1.914239240884781,-6.511581557393074,-0.3649022170901299,6.796922824187579
10.878585833357647,2.903332605957985,-6.699426283836365,-1.0420062813162805,7.375461330905267
10.888610833324492,4.1880261111259465,-6.3665238314867025,-1.7461003620922566,7.817995579357893
10.898636833298951,5.832024001479149,-5.769996737837792,-2.86539177775383,8.689984830165521
10.908661833265796,7.00117360174656,-4.058910818696022,-3.239889568090439,8.717113814178507
10.918686833232641,7.55063060939312,-1.8373907473683357,-2.690554767251015,8.22357053314412
10.928711833199486,7.7841952997446064,-0.2065464609861374,-1.8069977974891664,7.993847568301676
10.938736833166331,7.843333454132081,0.5142874673008919,-1.2733874751627445,7.962655771388815
10.948761833366007,7.961528486609459,0.83510284781456,-0.8675366221368314,8.052077520756397
10.958786833332852,7.974558421969414,1.0696908009052277,-0.5769514927268029,8.066640779153628
10.968812833307311,7.465257167816162,1.503886908888817,0.013766392171382905,7.6152432613745935
10.978837833274156,6.2352175873518,2.212108977735043,1.2600445675849916,6.73491475842847
10.988862833241,5.05470041513443,2.7575200045108796,2.4595929649472237,6.261270670978514
10.998887833207846,4.454415900707245,3.2132265570759775,3.0689798399806025,6.291683652392199
11.00891283317469,4.710771283507348,3.6708018797636033,3.1540170666575436,6.753811974193575
11.018937833374366,5.333465836644173,3.9184893500804905,3.426822421252728,7.452753083535316
11.028962833341211,5.649202033281327,4.2216361990571025,4.661930952966213,8.453951503305637
11.038987833308056,5.630745297074318,4.299609989225865,6.184708753824235,9.404390518773958
11.049013833282515,4.959805952310562,3.758627935945988,7.1174998641014104,9.454404442424307
11.05903883324936,3.570857176780701,2.842258730828762,7.670839422941208,8.925874361791543
11.069063833216205,2.027488113641739,1.6735912334918976,7.515955451130868,7.96248717494498
11.07908883318305,0.7047280651330948,0.39165293633937837,6.614434665441514,6.663390999462952
11.089113833149895,-0.7316363668441773,-0.8921909683942795,5.445303776264191,5.566204246447513
11.09913883334957,-2.8690334236621857,-2.342705662250519,4.039779313802719,5.480824710776634
11.109163833316416,-5.652595757246018,-4.221779748201371,2.42607672482729,7.460637460157652
11.119189833290875,-7.317481071352959,-5.591702268719674,2.3048426020145416,9.493416819653225
11.12921483325772,-7.597467976212502,-5.226010969877243,2.5743779012560846,9.57392980365573
11.139239833224565,-7.370961459875107,-2.6788626748323443,2.6692366960644724,8.284455480789987
11.14926483319141,-5.822035787701607,0.022816420197486878,2.596590011715889,6.37486478219355
11.159289833158255,-2.2092780482769014,1.5757626378536225,1.8902063074707987,3.3070859181847685
11.16931483335793,1.0487419813871384,1.8001007142663004,0.9564942607283593,2.2924012728648
11.179339833324775,3.2312374430894852,0.7863648435473443,-0.3389996364712715,3.342781152621028
11.189365833299235,4.801187948584557,-0.7085386955738068,-1.631777502000332,5.1201690027569855
11.19939083326608,5.050005685687065,-2.3845217326283454,-2.089724707603455,5.962839145274415
11.209415833232924,4.7279352003335955,-4.664699024856091,-1.6807739531993866,6.851115918797487
11.21944083319977,4.681368559598923,-7.512627800703049,-1.0357728570699691,8.912217090833263
11.229465833166614,4.065882453918457,-10.329495874643326,-0.602005934715271,11.117207216688366
11.23949083336629,2.4776424425840378,-12.024768583774568,-1.0176336246728899,12.319470352279374
11.249515833333135,0.2631720668077469,-11.786002210378648,-2.1476695914566517,11.98297093019364
11.25954083329998,-1.4070084857940675,-9.81858605146408,-2.5420968854427337,10.239460996755598
11.269566833274439,-1.8535509896278382,-6.741639672517777,-2.3602041859924796,7.379425488802794
11.279591833241284,-1.6756418520212175,-4.367909853458404,-2.497265698313713,5.303088540856016
11.289616833208129,-1.5387228655815126,-3.410256966948509,-2.703054360151291,4.6156281816906715
11.299641833174974,-1.936259270310402,-2.7316180086135864,-2.9230406463146212,4.44466011376038
11.30966683337465,-2.7923454362154008,-2.262207629084587,-3.26489752471447,4.85534058940546
11.319691833341494,-3.168496819138527,-1.7527122473716736,-3.567827149629593,5.083381048535674
11.32971683330834,-3.3579085993766786,-1.0713145726919175,-4.196235601902008,5.480114807383128
11.339742833282799,-2.999346225857735,-0.20324161469936372,-3.9831616017222404,4.990286693362129
11.349767833249643,-1.6664178693294527,0.7763932943344116,-3.109466545879841,3.6122731434172946
11.359792833216488,-0.23956978082656863,1.6450398641824724,-2.595865834057331,3.0825426620017673
11.369817833183333,0.5912546592950821,2.2688810563087465,-2.215306527614594,3.225676104494477
11.379842833150178,1.3057545912265778,2.6636879807710647,-1.7619479244947434,3.4503172607812247
11.389867833349854,2.073211585879326,3.1397717875242237,-1.4278850921988488,4.024329632880617
11.399892833316699,2.914854544401169,3.709984071850777,-1.5442253878712655,4.9643721533491805
11.409917833283544,3.5520659798383716,4.120854467153549,-2.0275527253746986,5.805995549323032
11.419943833258003,3.8949660015106202,4.26676354765892,-2.5149573263525964,6.30087626270578
11.429968833224848,3.809263946413994,4.2534845209121706,-2.425989601314068,6.203873622888602
11.439993833191693,3.455419691205025,4.190448612570763,-1.807115911245346,5.724111523515223
11.450018833158538,3.121388141512871,4.221646431684494,-1.12050135076046,5.368508712965604
11.460043833358213,2.7549472296237947,4.1161234849691395,-0.8150495293736458,5.019612785550148
11.470068833325058,2.224526417255402,3.835858252644539,-0.8141190911829472,4.508338519906965
11.480093833291903,1.6211615896224976,3.546516387462616,-1.2484705889225007,4.094462381999953
11.490119833266363,0.7540165847539902,3.0778731626272204,-2.2322657918930053,3.876190756523815
11.500144833233207,-0.31981872260570526,2.6754987716674807,-3.103106237053871,4.109725782940509
11.510169833200052,-1.3640665340423586,2.602589254975319,-3.2900078076124193,4.41115627852358
11.520194833166897,-2.3597970736026763,2.647861906886101,-2.864569951593876,4.559120081122759
11.530219833366573,-3.414210854172707,2.4768372809886934,-2.4362004478275776,4.870999003822674
11.540244833333418,-4.61575987637043,2.148465251326561,-2.2211271384358406,5.554687024267439
11.550269833300263,-5.804544426798821,1.8138700300455095,-2.030854063332081,6.411491925841518
11.560295833274722,-6.619244585037232,1.6801330983638765,-1.6872614389657976,7.034493391011428
11.570320833241567,-6.81763534963131,1.6609858059883118,-1.3296042144298554,7.141909616850854
11.580345833208412,-6.378893031477928,1.8834320157766342,-1.2150166216492653,6.761202397205257
11.590370833175257,-5.754270066618919,2.1297711181640624,-1.2156732639670373,6.255030815277936
11.600395833374932,-5.19811741232872,2.235135605335236,-1.0711707311868668,5.758790024123448
11.610420833341777,-5.172793121337891,2.090353283286095,-0.6251158851385117,5.614101477080554
11.620445833308622,-5.137682345509529,1.8222274553775788,-0.09429044544696809,5.45208065518062
11.630470833275467,-5.757563218474388,1.2183293616771698,0.6700417971611023,5.923074932684605
11.640496833249927,-6.382494916319847,0.5240473473072053,1.4582543608546257,6.567904746570244
11.650521833216771,-6.8092878645658494,-0.21497639179229738,2.267975030243397,7.1802734494836145
11.660546833183616,-7.106139308810234,-0.9618014860153199,3.0282735711336137,7.7841325012069005
11.670571833150461,-6.515766409635544,-1.0772758090496064,3.193192826807499,7.33568098426269
11.680596833350137,-4.307365443706512,-0.59983369410038,2.462367468774319,4.997644552936229
11.690621833316982,-2.451826400756836,-0.31886855006217957,1.6711216619610787,2.9842549255622477
11.700647083343938,-0.9830081677436829,-0.17471363425254824,0.9321751061081887,1.3659357013755584
11.710673083318397,0.15833441376686097,-0.3502640050649643,0.5053271940350533,0.6349096257408493
11.720698083285242,0.5579880952835083,-1.1485445970296861,0.5188626211881637,1.3783046925518514
11.730723083252087,0.23118896663188934,-2.529415444135666,0.7454536297917367,2.6470912227375214
11.740748083218932,-0.1652826601266861,-3.9623633480072025,0.8689950639009476,4.059900747611155
11.750773083185777,-0.0422806316614151,-5.192095949649811,0.6811800120770931,5.236759896256178
11.760798083152622,0.3260120934247971,-6.279131931066513,0.157345649600029,6.289557961116691
11.770823083352298,0.7499843448400498,-7.388107835054398,-0.4193339475989342,7.437906618095326
11.780848083319142,1.366045816540718,-8.271337945461273,-1.11711332783103,8.457485132599029
11.790874083293602,2.6668191647529604,-8.455601252317429,-1.9590628266334535,9.080035470987038
11.800899083260447,4.470750097632409,-7.628862261772156,-2.590888976454735,9.21411154332778
11.810924083227292,5.81981267631054,-5.437273210287095,-2.500212110280991,8.347767374995922
11.820949083194137,6.366183523535729,-2.661253492534161,-1.7725910264253617,7.124088836744441
11.830974083160982,6.6197053456306465,-0.7256347846984864,-0.9214165216684342,6.722800986950226
11.840999083360657,6.5978543007373815,0.5304415699839592,-0.20218399956822397,6.622229836135802
11.851024083327502,5.56530092060566,1.4736024248600006,0.8852531008422375,5.82475334207366
11.861049083294347,2.777491754293442,2.535156240463257,3.602455530166626,5.207606307657671
11.871075083268806,1.1023673808574677,3.2505867567658426,5.718661108016968,6.669678625989853
11.881100083235651,2.434384741187096,3.246827874183655,4.484260089397431,6.047868125386264
11.891125083202496,4.3951695728302,3.432294245660305,3.2055152490735055,6.432222584361336
11.901150083169341,5.61649914085865,4.262646815478802,3.054836594760418,7.684220656219143
11.911175083369017,6.148736098408699,4.189359861016274,3.0361409997940063,8.035909645061889
11.921200083335862,6.616504579782486,3.1912535977363587,2.0565204164385795,7.628335899957249
11.931225083302706,6.957507764697075,2.4713710114359855,0.9149576872587204,7.439874766517246
11.941250083269551,7.039642433524132,2.115950931608677,0.2768454882502556,7.355981060417006
11.95127608324401,7.237598749995232,1.891604376733303,-0.0945415833592415,7.481306095528588
11.961301083210856,7.4279998791217805,1.769182099699974,-0.15186008423566819,7.637293302690166
11.9713260831777,7.239593819975854,1.5283855730295182,0.12019068717956544,7.400143710723599
11.981351083144546,6.050347924232483,1.284240345954895,0.9307533556222917,6.254780977735737
11.991376083344221,3.8404050475358966,1.0834542694687843,2.235393759906292,4.573791572098287
12.001401083311066,0.887964016199112,0.5565175205469132,3.4920264771580696,3.6458799708593177
12.011426083277911,-2.345726333856583,-0.4959508913755417,4.149149143695832,4.792059884500223
12.021451083244756,-5.017558316588402,-1.775127840936184,4.3624450457096104,6.881707425404579
12.031477083219215,-6.3809886735677726,-3.3151303696632386,4.826594685316086,8.660434289132688
12.04150208318606,-8.027573372125627,-4.673483881652356,5.029004825949669,10.56287249645426
12.051527083152905,-8.270731004476549,-4.3166057986021045,4.936770846247673,10.555083294664042
12.06155208335258,-5.936560522913933,-2.0425438168644905,3.8522450745105745,7.365767319167942
12.071577083319426,-3.1717566418647767,0.5153203779459,2.570837704539299,4.115191586089343
12.08160208328627,-0.8389140629768372,1.6415897145867349,1.4370535263419153,2.337459397223617
12.091627083253115,1.0094855296611787,0.6395462286472321,0.22175419181585312,1.2154239321159142
12.10165208321996,2.2220296561717987,-1.324483807682991,-0.482751679122448,2.6314867154171497
12.11167808319442,2.1808436232805253,-3.8394969749450687,-0.3782312375307083,4.431802657932738
12.121703083161265,1.9304617559909822,-7.207731757164002,0.10694352775812149,7.462540893871444
12.13172808336094,2.148934198021889,-11.035344851017,0.5605782656371594,11.256598161087574
12.141753083327785,1.7401869267225267,-13.203443298339844,0.4606436491012573,13.325590345041704
12.15177808329463,0.1026256513595581,-12.735649673938752,-0.8264590550959111,12.762849964305122
12.161803083261475,-1.0774067866802217,-10.06178344488144,-2.016608784198761,10.318284860585234
12.17182808322832,-0.8473843395709992,-6.608794441223145,-2.43088240519166,7.092489933243649
12.18185408320278,-0.11091174066066742,-3.725430661439896,-2.556407361030579,4.5195523697534705
12.191879083169624,0.38295344889163974,-2.2401121705770493,-2.451511235833168,3.342852557353029
12.2019040833693,-0.27701418042182924,-1.8005798935890198,-2.054343205690384,2.7457514119304514
12.211929083336145,-1.5992596739530565,-2.1812938588857653,-1.5002170501649381,3.092947720403754
12.22195408330299,-2.193436186909676,-2.3726340508461,-1.4536008542776109,3.543093293837439
12.231979083269835,-2.0886143213510513,-2.0275296288728715,-1.724010166078806,3.3831046735289094
12.24200408323668,-1.9112220776081086,-1.4060460340976715,-1.7705193579196932,2.96048544612312
12.252029083203524,-1.403488461971283,-0.7293898665904999,-2.288069571554661,2.781555644714978
12.26205408317037,-0.43333247423172,0.12493804156780243,-4.541533859074116,4.563870762912904
12.272080083144829,-0.28045351266860963,0.8766034609079362,-5.491790310144425,5.568379352292742
12.282105083344504,-0.041731578111648564,1.4757167780399323,-4.995341820716858,5.208927091004736
12.29213008331135,0.5325047600269318,1.8664446848630907,-3.570423021018505,4.063877167204236
12.302155083278194,1.2886327743530275,2.19567567050457,-2.3458084872365,3.4618468388958616
12.312180083245039,2.1076674735546113,2.545367233157158,-1.8580366811156275,3.7912342105284633
12.322205083211884,2.5686952847242357,2.7956315714120867,-1.76281126588583,4.185839809163095
12.332230083178729,2.6420322328805925,2.921826764345169,-1.6865100717544557,4.285058013907512
12.342255083145574,2.561122555732727,3.0403644436597825,-1.6098033732175827,4.28889631445857
12.352281083352864,2.3726521772146225,3.1061655002832413,-1.4474943146109582,4.168090961102238
12.362306083319709,2.1293536269664766,3.1759105038642885,-1.2948621055483818,4.036981826763157
12.372331083286554,1.9078967660665513,3.1976223850250247,-1.2544196923077107,3.9291764724468288
12.382356083253399,1.5888112843036652,3.2164510041475296,-1.292302486896515,3.813125237498925
12.392381083220243,1.3830015724897384,3.4522902613878252,-1.471746518611908,3.999629884555392
12.402406083187088,1.215680572986603,3.5797817820310596,-1.9516766238212586,4.254616140907292
12.412431083153933,0.774793496131897,3.562719606757164,-2.3371227407455444,4.330752667069568
12.422456083353609,-0.0046713405847549445,3.5031008112430575,-2.5203008043766024,4.3155130934450865
12.432481083320454,-0.8135424095392227,3.5570595020055773,-2.702340122759342,4.540612920300741
12.442507083294913,-1.5465043401718142,3.727242713570595,-2.8333855810761452,4.930728928980537
12.452532083261758,-2.319272945523262,3.673868744373322,-2.867475725412369,5.205646509565219
12.462557083228603,-3.0941120499372485,3.375597011446953,-2.6557901465892795,5.293524899722036
12.472582083195448,-3.903271386623383,2.9954543191194536,-2.226156036257744,5.400374504914543
12.482607083162293,-4.638093901276589,2.6899846637248994,-1.7952469405531883,5.654276620903848
12.492632083361968,-5.195328875184059,2.4628489869832992,-1.291620409190655,5.892821950088409
12.502657083328813,-5.551577505469322,2.2262191861867904,-0.8201325139403344,6.037274385399528
12.512682083295658,-5.554040937423706,2.046522554755211,-0.4892868196964264,5.939278314208624
12.522708083270118,-5.2413306748867035,1.9850794279575348,-0.3381669929623604,5.614841448690935
12.532733083236963,-4.906871109008789,1.8647244340181353,-0.24118361234664917,5.254783614014375
12.542758083203807,-4.795153622031212,1.5083886802196504,-0.03134195297956467,5.026899341294831
12.552783083170652,-5.084145823717118,1.020449059009552,0.4060891270637512,5.201419365709046
12.562808083370328,-5.686737649440766,0.27355496764183046,1.2335122418403626,5.8254072702823665
12.572833083337173,-6.518228087425232,-0.5258003425598144,2.267864810228348,6.921486415316242
12.582858083304018,-6.966394363045692,-1.140166706442833,3.1820632365345958,7.743136120543182
12.592883083270863,-6.60712213754654,-1.4896220415830612,3.7155418503284454,7.725172361104299
12.602909083245322,-5.627750353217126,-1.7222815829515459,3.724901196062565,6.965107092467272
12.612934083212167,-4.920217963457108,-1.9646282064914704,3.2559819826483727,6.218498811529896
12.622959083179012,-3.6974242526292804,-1.8756253981590272,2.274185357987881,4.728724540575066
12.632984083145857,-1.7322873383760453,-1.7431280761957169,1.2634941324591638,2.7632828909611264
12.643009083345532,-0.36884879529476167,-2.0357087141275407,0.7514832785725594,2.201110292679439
12.653034083312377,0.3189030486345291,-2.7441193556785586,0.47828031331300735,2.803683693061843
12.663059083279222,0.6430896413326264,-3.6833745628595356,0.43772461026906967,3.764626846255178
12.673084083246067,0.7597579658031464,-4.828802009224892,0.5364928534626962,4.917558905871106
12.683109083212912,1.0322925943136216,-5.934791740179062,0.3578747409582138,6.034521963651161
12.693135083187371,1.5529889023303987,-6.586079177856446,-0.15441560983657837,6.768460507997134
12.703160083154216,2.3019961774349214,-6.907701766490937,-0.8242363822460175,7.327680104202489
12.713185083353892,3.5102361685037615,-7.0575395911931995,-1.4255244250595571,8.010164974978531
12.723210083320737,4.994444273114205,-6.254606369733811,-2.0680642819404604,8.26688963950747
12.733235083287582,6.077883632183076,-4.206181715726853,-2.092800927758217,7.681956117767107
12.743260083254427,6.71385721206665,-1.981169394850731,-1.7944129814207554,7.226398050412385
12.753285083221272,7.0906383401155475,-0.22990725696086883,-1.2724558675289155,7.207576107952562
12.763310083188117,7.180525832176209,0.7528839790821076,-0.7483022470772267,7.258563340323564
