Time (s),Linear Acceleration x (m/s^2),Linear Acceleration y (m/s^2),Linear Acceleration z (m/s^2),Absolute acceleration (m/s^2)
0.001627500168979168,-0.926713514328003,-0.7913174352049828,-1.6515916693210602,2.0524951310705406
0.011653500143438578,-1.0115896502137185,-1.8068729594349862,-1.486059333086014,2.548818521081661
0.021678500110283494,-0.6880512213706971,-2.551096042692661,-0.6623281502723695,2.724001483280632
0.031704500084742904,-0.5043457388877869,-2.7403423467278483,0.44399136364459996,2.821518940676307
0.04172950005158782,-0.5720243364572525,-2.3355708897113803,1.1017388051748276,2.644982347236863
0.05175550002604723,-1.506679246723652,-1.8899446445703507,1.6313643962144853,2.9160457652931573
0.06178150000050664,-3.268183659911156,-1.6886407971382142,2.662388144731522,4.541017816511714
0.0718065002001822,-2.501082760691643,-1.975294404923916,2.9233809542655944,4.324738045906997
0.08183250017464161,-3.0479149532318117,-2.873298675119877,3.5816224855184555,5.511229487814051
0.09185750014148653,-5.0630935084819795,-3.506299238204956,5.527662978172303,8.275512565619467
0.10188350011594594,-4.749051250219345,-4.2245440194010735,5.939173058867455,8.699082513244964
0.11190950009040534,-4.225127863883972,-4.947240870594978,3.9029603147506715,7.5868304921339025
0.12193450005725026,-3.91769471347332,-5.845378457307816,0.8385047578811646,7.086598013583418
0.13196050003170967,-3.5710238224267963,-6.509391775131226,-0.8440034794807435,7.472398162294441
0.1419854999985546,-3.0320859557390216,-6.359478521347047,-0.8550061851739884,7.0970097846311315
0.15201150020584464,-2.5419799411296844,-5.864095979332924,-1.0329474824666978,6.474277116209078
0.16203650017268956,-3.067659831047058,-5.361258237361908,-1.591957086324692,6.378711005477515
0.17206250014714897,-3.2391744536161426,-4.439274535775185,-1.9736411046981812,5.8390640307412
0.18208850012160838,-2.6555632746219637,-3.744386749863625,-2.2533847653865817,5.113725778622818
0.1921135000884533,-2.0851638793945315,-3.388390719294548,-2.393114508390427,4.642854415206429
0.2021395000629127,-1.3267098426818849,-3.0069891214370728,-2.3455976951122284,4.0378176197576945
0.21216450002975762,-0.6947819513082505,-2.595853554904461,-2.231715861260891,3.4930979550790253
0.22219050000421703,0.08718257009983063,-2.373868105709553,-2.1605324426293375,3.2110358172228732
0.2322155002038926,1.7636085337400438,-2.1974748587608337,-2.2304964244365695,3.593650666744192
0.242241500178352,3.368770971894264,-2.0465479901432992,-2.249719438254833,4.5385255411750896
0.2522675001528114,4.517538932561875,-1.355961416065693,-1.434749431014061,4.930040090999904
0.2622925001196563,6.36036495923996,5.862583304643631,0.9476591178774835,8.7018494139068
0.27231850009411573,6.520448859930039,13.29909088253975,7.4446925103664405,16.577259068100524
0.28234350006096065,5.425983406305313,9.005593864917756,16.948086740970613,19.944414279813003
0.29236950003542006,4.702800359129906,2.2541908040642737,18.319726588726045,19.047574377978847
0.302394500002265,3.281560335159302,-0.263324094414711,16.872105681896212,17.190285860132303
0.31242050020955503,0.5558585393428803,-0.18486732423305513,13.014209858179093,13.027387031790196
0.32244650018401444,-1.420590398311615,1.3150066405534746,7.289794505238533,7.5424414795927195
0.33247150015085936,-0.431112871170044,0.2615190589427948,3.7757471215724947,3.8092672329388737
0.34249750012531877,0.6609645795822144,-1.390169089436531,2.951524772644043,3.3288050042347863
0.3525225000921637,2.749169011116028,-1.3414611983299256,1.924359601736069,3.6139463575292923
0.3625485000666231,2.762422310113907,-1.262220316529274,-0.3645809125900269,3.0589371338259457
0.372573500033468,0.2997727131843567,-1.4236981934309005,-0.22225266695022583,1.4717936246345167
0.3825995000079274,2.923789674639702,-1.6529125553369524,-1.4551965594291687,3.660363780240259
0.39262550021521747,4.929492816925049,-1.8264245867729187,-1.876684913635254,5.58190580969891
0.4026505001820624,4.5226897448301315,-2.393184090256691,0.13614423036575318,5.118650981392585
0.4126765001565218,3.8741844123601914,-2.1327847731113434,0.9479845154285431,4.522913926981429
0.4227015001233667,3.5423344588279724,-1.7638968014717102,0.9066762757301331,4.059744722690585
0.4327275000978261,3.295738663673401,-1.416641773581505,0.5730481839179993,3.6327883884118
0.44275350007228553,2.655499539971352,-1.6191454696655274,0.42149306852370505,3.1386249004205635
0.45277850003913045,1.828186937570572,-2.4750456941127776,0.22336950341239573,3.0851276475544034
0.46280450001358986,1.9628331112861634,-3.1195278498530388,0.3750427508354187,3.7047030776736
0.4728295002132654,3.1123267114162445,-3.4089609315991405,0.6780828881263733,4.665553407146267
0.48285550018772483,5.058597584366798,-3.859184257686138,2.250767551660538,6.748975272361137
0.49288050015456975,5.971999912261963,-4.9404446518421175,3.905144834518433,8.678878527121938
0.5029065001290292,6.437935291528702,-6.299592508077621,4.5879639673233035,10.108476143870323
0.5129325001034886,6.7675428378582,-6.989110211133958,3.489958609342575,10.33572003783709
0.5229575000703335,6.63932509303093,-6.34502303481102,0.9675130462646485,9.234502504083526
0.5329835000447929,7.5135504913330085,-5.865706302523614,-0.9535978424549103,9.579629442646015
0.5430085000116378,8.965335785150529,-5.764046026468277,-0.9667879915237427,10.702156388144395
0.5530345002189279,9.056023176312447,-5.35621209025383,-1.992186718583107,10.708378572285742
0.5630595001857728,9.209845878481865,-5.503902232646943,-1.2884433245658875,10.806215206655093
0.5730855001602322,9.476535630226136,-7.032109465599061,-0.2981169278919697,11.804412937109966
0.5831115001346916,9.24942041873932,-8.059594479203225,-0.126421480178833,12.268855840804617
0.5931365001015365,7.404102308750153,-7.162549152374268,-0.8913156402111054,10.340081475941165
0.6031625000759959,7.272442892789841,-7.726133033037186,1.0891515040397644,10.666199335837952
0.6131875000428408,7.588705923557282,-8.827308751344681,-2.6302261197566987,11.934317191479794
0.6232135000173002,7.561335691809655,-6.670976071357727,-2.0525872868299486,10.290230014869342
0.6332394999917597,6.779037294387818,-7.978371976017953,-1.6848320670425894,10.604170175951747
0.6432645001914352,5.613118280768394,-8.433853118419648,-1.7035185988247394,10.273215215964035
0.6532905001658946,3.385722050070763,-8.108551461696624,-1.100641428977251,8.855683607858792
0.6633155001327395,-0.7412410032749176,-7.058794403672219,-1.0880313237011434,7.18051730863488
0.673341500107199,-5.170459497570992,-5.907474718093872,-0.35066819384694103,7.858427141808736
0.6833665000740439,-7.553153098225594,-5.85010534644127,-1.3622862030565739,9.65037190934805
0.6933925000485033,-10.293836045265198,-4.956039760708809,-2.5775567400455475,11.711925093027274
0.7034185000229627,-12.872368100881577,-3.6705045488476755,-2.4352472054958345,13.605178908032793
0.7134434999898076,-13.692568734884263,-3.1574657544493676,-2.5548268586397174,14.282267636047067
0.7234695001970977,-14.87098383307457,-1.6074700418114662,-0.8291072590649128,14.98057205002268
0.7334945001639426,-20.519879472255706,1.3752911415696145,4.703789123296738,21.096978726737763
0.743520500138402,-24.036944603919984,6.076185016036034,10.783785939216614,27.036730006120653
0.7535455001052469,-25.459703149795534,8.216605668067933,16.774792810678484,31.57693409787317
0.7635715000797063,-21.476694452762604,6.908671234846116,16.917999308109284,28.199234802343494
0.7735975000541657,-18.20466274023056,3.1765957975387575,13.489859801530839,22.879615901746195
0.7836225000210106,-14.628615574836731,-0.3793229126930237,6.006316051483155,15.818220886646953
0.79364849999547,-9.848056018352509,-0.9938100215792657,0.30258873224258426,9.902697897062225
0.8036735001951456,-6.324136780500412,-1.123958809375763,-0.829445081949234,6.476570741343082
0.813699500169605,-4.313248912096023,-1.3458083108067513,-1.470230920314789,4.751515036931244
0.8237255001440644,-2.8024044013023377,-1.5248827984929085,-2.5193289971351627,4.065188381045132
0.8337505001109093,-1.6027656644582748,-1.781757998764515,-4.108878200054169,4.756721497440027
0.8437765000853688,-0.9974040126800537,-1.9406803500652314,-4.907185689210892,5.370430743807778
0.8538015000522137,-0.6112275785207749,-1.6962980183959009,-3.9965625429153446,4.384465563713803
0.8638275000266731,-0.4467378008365631,-1.3417249077558517,-2.2563481342792513,2.662875756368328
0.873852499993518,0.03950963616371155,-0.7535692727565766,-1.0330954901129008,1.2793412179259602
0.883878500200808,0.7707519006729127,0.14469139784574508,1.4327982151508332,1.6333722228386511
0.8939045001752675,0.030186250805854797,1.3906044146418572,5.535140397548676,5.707229719253856
0.9039295001421124,-1.3621661889553072,3.2012078976631164,9.719348276853562,10.323224285908452
0.9139555001165718,-1.037384934425354,3.804794334769249,9.79453528404236,10.55867173760107
0.9239805000834167,-0.7569045245647431,3.631479939222336,8.424007576704026,9.20458878281087
0.9340065000578761,-0.9009705626964569,2.668030123114586,2.8883935546875,4.033974469360546
0.944031500024721,-0.9758511757850648,2.338254761695862,-1.9489073824882508,3.1965545253274925
0.9540574999991804,0.21391570687294006,2.3838671368360522,-5.223886091709137,5.746091572093681
0.9640835002064705,2.0826174169778824,2.4871777895092966,-7.343062055110932,8.027696369902012
0.9741085001733154,3.1358313488960268,2.357982390224934,-8.454898416996002,9.320881205285875
0.9841345001477748,3.5294536274671557,1.995172306895256,-9.287050759792328,10.133462747629856
0.9941595001146197,2.9964237874746322,1.386885585486889,-8.972133758068086,9.560397027008873
1.0041855000890791,1.9049123471975327,0.7531469576060772,-7.806835134029389,8.071096344374324
1.014210500055924,1.0934433603286744,0.42395975299179556,-6.368043522834778,6.475132320124563
1.0242365000303835,0.9151518148183823,0.20533031322062018,-4.452852355241776,4.550555733014912
1.0342625000048429,1.2831574416160585,0.05236349724233151,-2.7095693278312685,2.9984997745776316
1.0442875002045184,1.1043022245168685,-0.05306984089314938,-1.6480272066593171,1.984513412646697
1.0543135001789778,0.5096327912807465,-0.5263619676232338,-0.7264861392974854,1.031777405015332
1.0643385001458228,1.0378597283363342,-0.22641032963991167,0.3848976480960846,1.1298498362968066
1.0743645001202822,2.394261147379875,-0.3865663703531027,1.7125255036354066,2.968949915566524
1.084389500087127,2.430453073382378,-0.59367730692029,2.306524261236191,3.4028824626097696
1.0944155000615865,2.150062710642815,-0.9713230919837952,2.256632308959961,3.2647553639682796
1.104441500036046,2.1400031608343126,-1.8462422624230386,2.46018324136734,3.74709562208419
1.1144665000028908,1.7941245675086976,-2.424513033181429,3.1826722240447998,4.384808878105312
1.1244925002101809,2.9254719185829163,-2.382244826853275,1.8115872770547867,4.185131398638898
1.1345175001770258,3.392317124605179,-2.5609179031848908,0.2194039034843445,4.256084356965521
1.1445435001514852,2.812673281431198,-2.1482905657589435,-0.39572610676288605,3.5613034825158523
1.1545695001259446,2.2214788484573367,-1.759717357903719,-0.7391991555690766,2.92882038463355
1.1645945000927895,1.8409993565082552,-1.48114737957716,-1.28204647064209,2.6882558181054748
1.174620500067249,1.288707618713379,-1.287872636318207,-1.7693779814243318,2.5397011034876447
1.1846455000340939,1.1322788125276566,-1.0503347629308701,-1.7716911399364472,2.350350594879282
1.1946715000085533,2.249374160170555,-0.888691336736083,-1.8344949138164521,3.035593515813866
1.2046965002082288,2.965837587118149,-0.8763184091448785,-2.06936821103096,3.721076637237466
1.2147225001826882,2.6056081724166873,-0.9967060013115406,-2.073994528055191,3.476214910447561
1.2247485001571476,1.8270484846830368,-0.9581229295581579,-1.6217205834388733,2.6241347839387
1.2347735001239926,1.3526059913635256,-0.6362495684623719,-1.027124240398407,1.8136539599535149
1.244799500098452,1.4220428466796875,-0.4845439969003201,-0.23537147998809815,1.520653963371284
1.2548245000652969,1.5709538877010347,-0.2299367853999138,0.8601979279518128,1.8057429268352774
1.2648505000397563,1.2403564077615739,0.03472471341490746,1.7305571472644807,2.129440739711984
1.2748755000066012,0.8848497891426087,0.3807964110374451,2.7265765392780303,2.8917442280647987
1.2849015002138913,0.8814174735546112,0.5871535684168339,3.325903279781342,3.490455371731932
1.2949275001883507,1.3097991102933884,0.5007447311282158,3.5299734449386597,3.7982932373699283
1.3049525001551956,1.7107438570261002,0.2664152249693871,3.3856641626358033,3.8026758261261797
1.314978500129655,0.9443925708532334,-0.09732266530394555,2.2228611302375794,2.4171182497730084
1.3250035000965,-0.4177011126279831,-0.41919770747423174,0.6440743124485017,0.8746614530195765
1.3350295000709593,-1.9681254261732102,-0.2671414491534233,-0.13403104662895204,1.9906899729655854
1.3450545000378042,-3.3865593713521958,0.4857755666971207,-0.21906944274902346,3.428228944752619
1.3550805000122637,-4.3496010518074035,0.8525418761372566,0.11025859753601254,4.4337358873507915
1.3651065002195537,-4.487677786946297,0.5922957560420037,0.01001452624797821,4.526606507397408
1.3751315001863986,-4.808941941261292,0.6222672678530217,-0.38885855197906494,4.864601743258172
1.385157500160858,-4.7774043989181525,1.3003456243872644,0.35758764266967774,4.964107216394069
1.395182500127703,-4.243596879243851,1.095441938638687,1.1755815374851228,4.537631481922317
1.4052085001021624,-3.3930749237537388,0.3292850723862648,2.0221800112724306,3.9636596845708936
1.4152335000690073,-2.719621860980988,-1.1206989866495134,1.4885502469539642,3.296678801932279
1.4252595000434667,-2.5327167820930483,-2.002518163919449,1.4296348714828493,3.531088948310828
1.435285500017926,-2.853613146543503,-2.3994292089343072,2.0078075551986694,4.234579046083079
1.4453105002176017,-2.495031477212906,-2.4859545519948005,1.6016353976726532,3.8691585718273322
1.455336500192061,-2.476115734577179,-2.22232508674264,0.35398462492972615,3.345920357222061
1.465361500158906,-2.2225816333293915,-2.9000423777103426,-2.375088711977005,4.35788495707374
1.4753875001333654,-1.3602576577663423,-3.3690323424339295,-5.32185151219368,6.443817450682165
1.4854125001002103,-0.8536069464683533,-2.1347476834058763,-5.735812160968781,6.17942826131861
1.4954385000746697,-0.7847659224271775,-1.4336127322912218,-4.02432044506073,4.34353059891654
1.5054645000491291,0.15083419024944306,-1.6824529811739923,-3.6157708096504213,3.9908893162714403
1.515489500015974,1.031447086930275,-2.1049479335546493,-3.5075353395938875,4.218707509962376
1.5255154999904335,0.9991915065050125,-1.7366221717000008,-1.7701381194591523,2.6735050394330973
1.535540500190109,1.2262184250354768,-1.6268295881152153,0.3280837253853679,2.0634497971907018
1.5455665001645684,1.8867380315065385,-0.6468172413110733,2.7657294952869416,3.4098992044180125
1.5555915001314133,2.0673035591840745,0.4517120271921158,4.344976488947869,4.832867518444397
1.5656175001058728,1.0277042841911317,0.46473991602659226,3.425610585808754,3.606517318813013
1.5756435000803322,-0.5565754079818725,-0.23343985229730607,0.12697469986975193,0.61676002125445
1.585668500047177,-0.8424335020780563,-0.3522096660733223,-0.600538941398263,1.0928828274040756
1.5956945000216365,-0.20581497430801393,-0.44575488388538365,0.10737373664975167,0.502579684706028
1.6057194999884814,1.1826449739933014,-1.1395118182897568,-1.067123727053404,1.958542664169967
1.6157455001957715,2.408430705070496,-1.2440875160694123,-2.6724207973480225,3.8065896977300255
1.6257705001626164,2.4374814265966416,-0.9501716664433479,-1.49429937556386,3.0128180370752347
1.6357965001370758,1.598042283654213,-0.2429564881324768,-2.1995055967569352,2.72957723203384
1.6458225001115352,0.44298739671707155,0.08583478689193726,-3.887414907217026,3.913515057482737
1.65584750007838,0.36051125049591065,0.5986347225308418,-4.06825993180275,4.127840932674783
1.6658735000528395,0.4954018378257752,1.2763992297649385,1.3553892660140991,1.9265767664673843
1.6758985000196844,1.3916244614124298,2.2692348128557205,1.3590554702281952,2.9888253626859753
1.6859244999941438,1.4879298573732376,2.520333548784256,0.476357456445694,2.9652879934167604
1.6959495001938194,1.2456487226486206,2.804996472001076,-1.0504639863967895,3.2439359634387452
1.7059755001682788,0.008925774693489074,3.389203482270241,1.8693916815519334,3.8705820198959966
1.7160015001427382,-0.4679596853256226,4.409124537706376,3.280638813972473,5.515610254889048
1.7260265001095831,-0.20425084412097932,5.714964498281479,3.2161487030982974,6.5609564931024105
1.7360525000840425,-0.20018410563468933,6.727797558903695,2.808508894443512,7.293219856819593
1.7460775000508875,-0.7650298154354096,7.088278988599778,4.740132199823857,8.561414772719353
1.7561035000253469,-0.5287660503387451,7.220375191569329,6.999768515825272,10.070261700579552
1.7661284999921918,0.8420551872253419,7.609421439170838,7.533225202560425,10.740662620608537
1.7761540417559445,2.893339714407921,7.411991956830025,5.921332619190216,9.918226628695734
1.786180041730404,4.390298842191696,7.0224130278825765,4.8703225028514865,9.607759881455523
1.7962050416972488,4.5839024913311,6.599618990421296,4.845161933898926,9.383108601868788
1.8062310416717082,3.5059039664268496,6.430809874534607,5.079776784181595,8.913518409771173
1.8162560418713838,1.63999547123909,6.00398067355156,4.804420874118805,7.862558680845178
1.8262820418458432,-0.3741843795776367,4.656023218631745,3.8127939105033875,6.029590663248172
1.8363070418126881,-2.6060127997398377,2.5792284590005874,2.62114773273468,4.5071207652942435
1.8463330417871475,-4.718384358286857,1.307395904660225,2.4712508511543274,5.484479535323238
1.856359041761607,-5.986930777430534,0.600678032040596,2.315976870059967,6.447317511537174
1.8663840417284518,-6.581742882728577,-0.6428677394986153,5.322363728284836,8.488826418357156
1.8764100417029113,-6.355501245260239,1.615048033297062,2.5647829127311708,7.041227706714145
1.8864350416697562,-7.263801292777062,-0.3145185139775276,0.006787466201931239,7.270610509873417
1.8964610418770462,-5.543121846914292,-1.921101533174515,1.2206998229026795,5.992239895743379
1.9064860418438911,-2.628590653538704,0.40420106112957005,2.1276310372352603,3.405830464408951
1.9165120418183506,-2.7663972473144534,2.195217248797417,2.2662346065044403,4.1961591713238215
1.92653804179281,-5.287746457457542,2.240282324552536,2.4763659954071047,6.253920053475733
1.9365630417596549,-7.780529680252076,0.5827723959088326,2.1210201752185824,8.08548034160006
1.9465890417341143,-9.054742636084557,-0.5967870023846626,0.3655556068941951,9.081748170571267
1.9566140417009592,-7.57317104101181,0.5388101050257683,-2.803338786363602,8.09332714628714
1.9666400416754186,-5.286759447455406,-2.363544554114342,-4.985188715457917,7.641222077866309
1.9766650418750942,-4.534011123776436,-3.08604669302702,-9.154539989233017,10.67176384092798
1.9866910418495536,-2.961711207032204,-3.3008333426713947,-10.532549793720246,11.428116169655775
1.996717041824013,2.373592994213104,-3.8989067324996,-9.600539286732674,10.63041730163994
2.006742041790858,3.5970778459310533,-4.982800712585449,-8.351401530504226,10.368856228858531
2.0167680417653173,3.3979339599609375,-5.850409401655197,-3.4058744788169864,7.574511623113943
2.0267930417321622,2.5565441858768465,-5.165123913288117,-0.6638449911028147,5.801302731815825
2.0368190417066216,3.710681059956551,-3.7887165382504464,2.570600307583809,5.893344795384255
2.0468440416734666,6.288588632941246,0.08525181949138642,2.386249877214432,6.726648745370189
2.0568700418807566,6.7167603546381,1.102880181670189,-0.12978245973587038,6.8079407931924685
2.066896041855216,4.315439279079437,-2.4622303515672685,-2.9066017842292786,5.7562078148452525
2.076921041822061,4.40566123187542,-2.60620254188776,-4.158841488361359,6.595309325930664
2.0869470417965204,3.320307494401932,-2.2584376367926597,-8.364587001800537,9.278539654889327
2.0969720417633653,3.1282808393239976,-7.563065298199654,-10.574350368976594,13.371723278634992
2.1069980417378247,3.416919284462929,-4.7371314087510115,-10.406496688127518,11.933604849345357
2.117024041712284,5.190526556968689,-2.6423418429493903,-6.479338256120682,8.712368253857697
2.127049041679129,4.874402689933777,-3.532964295744896,-3.889383080005646,7.167212780549778
2.1370750416535884,5.2838177132606505,-5.769330739974976,-1.7417469638586045,8.014835575375072
2.147100041853264,5.037300270795822,-5.710907115340233,0.21560087442398074,7.618092795132896
2.1571260418277234,-2.8480489361286163,-4.262450641393662,-2.244751936197281,5.596318385149475
2.1671510417945683,-7.221991946697235,-3.1076910388469696,-3.3731710016727448,8.555302091546235
2.1771770417690277,-4.8544712859392165,-2.049856637120247,-2.0728660154342653,5.662559246197483
2.187203041743487,-0.6615165567398071,-0.6035712343454361,-1.5498816919326783,1.789982024702557
2.197228041710332,1.8400181937217714,-0.6477142041921616,-0.9487105934321881,2.1691593841001797
2.2072540416847914,4.361180292963982,-0.737381256222725,-0.05575429759919644,4.42343002730537
2.217279041884467,8.6618594455719,0.9037263554334641,0.027885225266218186,8.708921171197746
2.2273050418589264,5.670524489879608,3.8618397706747056,-4.042231636047363,7.962932311915718
2.2373300418257713,-4.769745715856552,-0.1333036530017853,-6.8039265525341035,8.310334565474134
2.2473560418002307,-7.781189246177674,-0.813740045428276,-3.272934230268002,8.480635437396462
2.25738204177469,-9.883968447446824,1.3416295981407167,2.500093996524811,10.283154780522901
2.267407041741535,-10.022140492200853,3.553274014592171,3.0356498336791993,11.058219846833596
2.2774330417159945,-6.105264388918877,4.502306351065636,1.5620892164111138,7.745007324559147
2.2874580416828394,-2.1598120656609536,3.9550864881277086,1.899624710083008,4.890406049266559
2.297484041657299,-0.26261190354824065,2.4714894175529483,3.815135135650635,4.553293429621841
2.307510041864589,-0.5879787567257881,1.529011225104332,5.67657518863678,5.9082231015003615
2.3175350418314338,-1.1346621376276016,1.9330421322584153,4.222735475599766,4.780753596300544
2.327561041805893,-1.03520567715168,2.4322312116622924,1.4958507880568506,3.037263413193132
2.337586041772738,-0.9713134440779686,2.14322146832943,-0.3393183097243309,2.3773903727131014
2.3476120417471975,-0.24578332453966142,2.096051979660988,-0.6138719817996026,2.1978812875360414
2.3576370417140424,-0.018300615549087525,1.994519757628441,0.2699311557412148,2.0127858318607768
2.367663041688502,-0.7268787798285484,1.6448439824581147,2.0916399630904197,2.7584093645415653
2.3776890416629612,-1.2789167484641075,1.3820595860481264,3.2475997066497806,3.754013932249222
2.387714041862637,-2.1112988868355753,1.1473769080638887,2.0705081257224083,3.1719175048216353
2.397740041837096,-3.0773901826143266,1.1957392287254334,-0.1059682121872902,3.3032335523178045
2.407765041803941,-4.052581207752228,1.6927367717027666,-1.6915763917565347,4.706400207467409
2.4177910417784005,-4.515045679807663,2.6447260451316836,-1.492132251262665,5.44120133792216
2.42781704175286,-3.913313979506493,2.787205148935318,-0.1327490445971489,4.8062627012361645
2.437842041719705,-3.062114916443825,2.3658781778812408,1.830757373571396,4.280841024257788
2.4478680416941643,-2.3412666624784473,1.6478552985191346,3.4192657721042634,4.459633963676203
2.457893041661009,-1.6753765346109868,0.9262036371231079,4.513464300334454,4.902662511384888
2.4679190418682992,-1.0247594802081585,0.38256811738014224,5.169526866674423,5.283985085329156
2.477944041835144,-1.112842082977295,-0.3518696504831314,4.512332571744919,4.66083415180228
2.4879700418096036,-1.5369458967447283,-0.4591508549451828,3.1365920716524127,3.5229578511628725
2.497996041784063,-2.1903459334373476,-0.016203219294548037,3.7026955175399783,4.302072982650536
2.508021041750908,-2.6139199894666674,0.8413827574253083,4.972685029506684,5.680501655532364
2.5180470417253673,-3.00127931535244,1.5280376636981965,5.781709295511246,6.691094006830558
2.5280720416922122,-3.581708439588547,1.9572969675064087,6.335701403617859,7.536627829542528
2.5380980416666716,-4.066863031983376,2.4053544849157333,5.192502915859222,7.020483719105385
2.548123041866347,-4.2420231011509895,2.1448522567749024,4.068767470121384,6.256997676202942
2.5581490418408066,-4.401246876418591,1.747349181175232,2.305499829053879,5.266833269613309
2.568175041815266,-3.952358177304268,1.9579881083965303,0.377703160867095,4.426907755087645
2.578200041782111,-4.105612530112267,0.739380419254303,0.9435815620422364,4.277041479342652
2.5882260417565703,-4.676097294688225,-1.012179926633835,1.1395895862579346,4.918237340590483
2.5982510417234153,-5.212859412431717,-1.2356178241968157,0.7616898858547211,5.411176040701706
2.6082770416978747,-4.226364257633686,-7.389655008316041,-1.0744545274972916,8.580420066161873
2.618303041672334,-1.3787506467103958,-34.609821474552156,-1.6732532644271851,34.677665324140435
2.6283280418720096,6.58795204102993,-45.90335597991944,-2.8678341597318653,46.46228228447071
2.638354041846469,11.868140387535096,-39.65099844932556,4.382034387588501,41.62038754817966
2.648379041813314,9.966162757873535,-20.955382432937622,5.645264518260956,23.881404156963473
2.6584050417877734,4.918045138120651,-5.025697056055069,-0.9029287952184678,7.089434341967449
2.6684300417546183,2.3266373674571517,2.458870541453362,-5.445402009487152,6.411839737875691
2.6784560417290777,1.1775288064777851,5.6513859683275225,-6.421477133631707,8.634819397697273
2.688482041703537,0.8332972276210785,6.720393229722977,-3.491599338054657,7.61901144303978
2.698507041670382,2.1405299949645995,6.373436994552613,-1.646006408929825,6.921842592916502
2.708533041877672,2.6421857222914698,6.207766664028168,-2.472759432792664,7.18554462504864
2.718558041844517,2.2861110466718677,5.997573294639587,-1.8026843065023423,6.666847819712022
2.7285840418189764,2.1023672649264338,5.826308348178864,-0.28742807149887084,6.2006799611799455
2.7386090417858213,2.7327292719483376,5.620864087343216,-0.07486541032791139,6.250402162406156
2.7486350417602807,2.6837948012351993,6.221568431854249,-0.10145862020552159,6.776500729653648
2.75866104173474,3.5067567828297617,6.300046836733818,-2.7780577647686004,7.726935888394147
2.768686041701585,4.592218401432038,5.830614822506905,-2.32589608669281,7.777810209884346
2.7787120416760445,4.163936752080917,4.827154848575592,-2.91160817027092,7.008370377245012
2.78873704187572,4.17361740231514,4.280773476362229,-3.620562018156052,6.989461574695747
2.7987630418501794,3.9571759906411175,4.511790534853936,-3.3158133244514465,6.856392174745682
2.808789041824639,4.124355487525463,4.893030164837837,-2.6149286341667177,6.91302424003268
2.8188140417914838,4.872200920879841,5.12249654173851,-2.281567175388336,7.428584078366138
2.828840041765943,5.3954188406467445,5.26401553273201,-2.3469419699907306,7.894842658682546
2.838865041732788,5.625489234924316,5.563076055049897,-2.356443110704422,8.255105599597453
2.8488910417072475,5.49643826186657,5.827411133050919,-2.162756431102753,8.29741341987929
2.8589160416740924,4.856119323670864,6.047033722400665,-1.3477732676267624,7.871785344285611
2.8689420418813825,3.7932908150553706,5.827021123766899,0.49803842045366764,6.970744053015939
2.878968041855842,1.6670609168708326,4.271162407994271,3.0445662528276447,5.503753635826971
2.888993041822687,-1.8264732648432256,1.1643788570165634,7.437368288040162,7.746368811372185
2.899019041797146,-7.09463958978653,-3.3191345429420474,10.772437663078309,13.319008154814892
2.909044041763991,-14.181781879663468,-7.340070034861565,6.16250336766243,17.116542091073025
2.9190700417384505,-19.127315948009493,-9.778481168746948,-1.4180644011497499,21.528674273822
2.9290950417052954,-16.089647655487063,-10.841103855371475,-1.5630531299114228,19.464054807968367
2.939121041679755,-11.14411709547043,-9.62112323999405,3.3152905833721165,15.091338903122734
2.9491470416542143,-8.344780143499374,-7.727267392873764,5.054340226650238,12.445576408147849
2.95917204185389,-5.17186692237854,-4.025554792284966,4.258198546171188,7.81572477170839
2.9691980418283492,-1.21197460770607,0.2854955667257309,2.434553579539061,2.734491049535687
2.979223041795194,2.823195638358593,3.386016165018082,-0.27041150450706486,4.416861041959609
2.9892490417696536,5.258223280906678,6.244293050765991,-2.3708570820093158,8.500651214996834
2.9992740417364985,6.255163024663926,8.025777692198753,-3.4701856648921967,10.750923708153696
3.009300041710958,6.8369434404373175,6.966723561286926,-3.799479800462723,10.47449662471918
3.0193260416854173,7.165386806130409,3.970944721698761,-3.826783373951912,9.041871546057806
3.029351041885093,6.509624494314194,1.3468768894672394,-3.9959029769897465,7.756064015586243
3.0393770418595523,4.953098026514054,-1.7489390391111375,-4.146781021356583,6.692365849374013
3.049402041826397,3.735675860345364,-7.653187848329544,-2.988708386421204,9.025460442240634
3.0594280418008566,3.5616545364260674,-17.95790790081024,-0.2448591721057892,18.309336285758466
3.0694530417677015,1.9092511273920536,-24.76188473939896,5.01948731303215,25.337549774996347
3.079479041742161,1.3022361753880978,-13.054021210670472,3.907087864279747,13.688265938544813
3.0895050417166203,3.3497444245219232,-0.7067564642429353,0.09756547093391418,3.424881228668148
3.0995300416834652,3.9951770451664927,5.2662766510248185,-1.0262249386310578,6.689413054373513
3.1095560416579247,4.399407050013543,7.937137411236764,-1.5267395818233491,9.202383736145176
3.1195810418576,4.718018030226231,8.280114616155625,-2.2938223546743393,9.802122891752457
3.1296070418320596,4.556058050394059,7.527056974768639,-4.213048685789109,9.755205322739398
3.1396320417989045,4.3164303821325305,5.8250944662094115,-3.5387021684646607,8.067571494641792
3.149658041773364,4.317850086092949,3.442775672078133,-1.9132393670082093,5.844400616803737
3.1596840417478234,3.443641644716263,1.0825546753406525,-2.0856673246622086,4.169004748316995
3.1697090417146683,3.983565644323826,-0.627656500339508,-3.686354303956032,5.463694352665667
3.1797350416891277,4.856147682666779,-2.101998597979546,-4.053119151592255,6.6654589698521
3.1897600416559726,5.001660906672478,-2.574628454446793,-5.192440935373306,7.655505624785554
3.1997860418632627,3.9427383381128314,-2.0771450078487397,-6.038297397494317,7.504715347502683
3.2098110418301076,1.7596403208374978,-0.6147066718339921,-6.450369980335236,6.714273693730716
3.219837041804567,0.8952613413333893,0.8183774721622468,-5.90104395031929,6.0244131880066645
3.2298630417790264,0.24318803787231447,1.8546952897310258,-3.0657232332229616,3.591335960647192
3.2398880417458713,-0.7461140727996827,2.050470594763756,1.0896649626642465,2.438951742138133
3.2499140417203307,-1.3594106885790826,1.8849996542930605,4.5661503446102145,5.123568101088537
3.2599390416871756,-0.848093022108078,1.9946846491098404,4.796623027324677,5.263612931229291
3.269965041661635,-1.1073609761148693,1.7861752778291704,3.1243494638800624,3.7653990528226653
3.2799900418613106,-1.9766910123825074,1.7146907275915146,0.49472136810421946,2.6631223933159758
3.29001604183577,-1.9918388092517854,1.5567971938848497,-1.08980741545558,2.7529474291586618
3.3000420418102294,-1.7276966893672945,0.9134625542163849,-0.9124113710224628,2.1568134361546716
3.3100670417770743,-1.3108229577541353,0.35480670690536503,-0.4174129910767079,1.4206963894372129
3.3200930417515337,-0.9519834262132645,-0.23209294617176057,0.285297199934721,1.020555766108852
3.3301180417183787,-0.548381119966507,-0.5614537400007248,1.548403515815735,1.7359451611980865
3.340144041692838,-0.9202111181616783,-0.3231416952610016,2.7552524542808534,2.9227769576252625
3.350169041659683,-1.3695447903871536,0.14590615689754488,2.909915986061096,3.2194025199454517
3.360195041866973,-1.525148554444313,0.41248598098754885,2.014307466298342,2.5600112043544034
3.3702210418414325,-1.9105090096592905,0.6197305995225907,1.20103709846735,2.3402138372099297
3.3802460418082774,-2.2182098163664343,0.796950935125351,1.0317023178935052,2.5729351439879733
3.390272041782737,-2.75181166023016,0.7007484501600266,1.4133961303532123,3.171940167323114
3.4002970417495817,-3.6357922607660296,-0.14579272091388704,2.0911435344815255,4.196799037685926
3.410323041724041,-4.606210788488388,-1.210464271903038,2.575738840699196,5.414502022995929
3.420348041690886,-5.6278450781106955,-1.8347977995872498,2.263891042470932,6.337533103721441
3.4303740416653454,-6.881157161593437,-1.957107517719269,0.9568380770087243,7.217765085126814
3.4404000418726355,-8.070208929777145,-1.919218729734421,-0.8380045285820962,8.337501082023456
3.4504250418394804,-8.602891445159912,-1.8920946657657625,-1.9222464179992678,9.015808046588829
3.46045104181394,-8.28773704648018,-2.205507178902626,-1.429620691984892,8.69451911210404
3.4704760417807847,-7.286894286274911,-3.026723474264145,1.0790919542312623,7.96393889822707
3.480502041755244,-6.227320922613144,-3.880313463807106,4.16368064403534,8.436385183011303
3.490527041722089,-5.998009496927262,-4.373761162161827,5.490865280628205,9.233390826715452
3.5005530416965485,-6.545594810843468,-4.640557333230973,5.985857813358307,10.010498366839055
3.5105780416633934,-7.883968679308892,-4.416853387355805,6.111975238323212,10.909711146295127
3.5206040418706834,-8.185100870132446,-3.733275870680809,6.176505110263824,10.912490108035179
3.530630041845143,-8.23704928815365,-3.160507768392563,4.700833940505982,9.996780985184945
3.5406550418119878,-8.739820371866227,-2.400753310918808,1.6302192190289497,9.209000558935095
3.550681041786447,-9.009855900406837,-2.0908520507812502,1.7288580925762653,9.409469482846442
3.560706041753292,-9.426837805509567,-2.292668699026108,3.227067793607712,10.22426365658763
3.5707320417277515,-8.918548119664193,-3.174673817753792,2.481672928333283,9.786611003566016
3.5807570416945964,-6.078636753559113,-3.9930226385593417,0.6704674744606018,7.303669023722027
3.590783041669056,-1.2467409825325013,-5.628261399865151,-1.246104805469513,5.897835759747159
3.600809041876346,4.662394637167454,-7.480112603902817,-4.2855448043346405,9.800811323034091
3.610834041843191,8.236639983057977,-9.098137162327767,-4.115396676063538,12.944297116351805
3.62086004181765,9.234699468612671,-10.919099864959717,-3.4264484918117524,14.705337990117654
3.630885041784495,9.283646510839462,-10.777806576490402,-1.1231460464000702,14.269150786925113
3.6409110417589545,7.066923787593842,-8.171376870274544,1.9530144667625429,10.978482467222019
3.6509360417257994,6.041201709508896,-5.4448950558900835,2.3492913812398912,8.465351159792341
3.660962041700259,7.642086324691773,-3.4318314385414124,0.6355689525604248,8.401362884083808
3.6709880416747183,9.133760154247284,-1.0523397731781006,-4.990918402075768,10.461465482890361
3.681013041874394,8.052636877298356,0.3343198174238205,-9.088407395482063,12.147258102312668
3.6910390418488532,3.3078184264898303,0.9409286803007126,-5.100650759339333,6.1517190843525205
3.701064041815698,-0.5421757623553276,1.5065935850143433,-0.6512500154972076,1.728555862671804
3.7110900417901576,-1.7034225583076479,2.037278691530228,-0.12903865735977887,2.6587222220848314
3.7211150417570025,-0.3947475752234459,2.7235003191232683,-0.9790291374921799,2.920920691916851
3.731141041731462,1.5756436470150947,3.5701163345575333,-1.2359212946891784,4.0933952889160015
3.741166041698307,1.5800556635856629,4.344745523929596,-0.7084690406173468,4.677105723548341
3.751192041672766,0.6225410637259484,5.09283010840416,-0.32022568881511687,5.14072177625575
3.7612180418800563,0.9757061648368835,5.046617808938026,-0.8966260083764792,5.217690296336904
3.771243000170216,2.230874739289284,5.04841699719429,-1.4371906435489654,5.70340540605908
3.7812690001446754,3.3455756521224975,5.298595966100693,-2.14200115442276,6.622398704518012
3.7912940001115203,4.5841407653689386,5.572697648406029,-2.787320923805237,7.735532533028989
3.8013200000859797,5.870954178571702,5.487681471705437,-3.564578436613083,8.79141458085982
3.8113450000528246,6.6265939503908164,5.0918290650844575,-4.385104175806045,9.437563734569778
3.821371000027284,6.8127020537853245,5.0073210114240645,-4.341364079117775,9.504399773397257
3.8313970000017434,7.22832272708416,5.2555856019258504,-3.6777980732917785,9.66416205027422
3.841422000201419,7.616243970394135,5.412292150855064,-3.0704419362545017,9.835023753234287
3.8514480001758784,7.340583420395851,5.653694449067116,-2.9003171968460086,9.708772616429094
3.8614730001427233,6.615563178062439,6.027902802228928,-2.763882944583893,9.366981225956241
3.8714990001171827,5.812604813575745,6.046548988223076,-2.13140132188797,8.653900911192085
3.8815240000840276,4.833168417513371,5.583120895028115,-0.9196572406589986,7.441540520674786
3.891550000058487,3.1571742707490924,4.278205379247666,1.241859726905823,5.460128773592646
3.901575000025332,1.1880005849897861,2.3045268523693085,4.5468030774593355,5.234081354776687
3.9116009999997914,-2.4690838730335236,-1.3232804507017137,9.408102741837501,9.816304983253826
3.9216270002070814,-9.865004757642746,-6.595351692438126,10.684110792875291,15.967692577504577
3.9316520001739264,-16.253373202085495,-10.2989827644825,3.2681105697155,19.517216326240394
3.9416780001483858,-18.141150283813477,-12.261473228931427,-2.0202539384365084,21.989235669742506
3.9517030001152307,-13.302913792133332,-11.858904125690461,1.4931607764959336,17.88380975988381
3.96172900008969,-9.680568373203277,-8.791988060474397,4.817695223093033,13.936378487483802
3.971754000056535,-6.161919815540314,-3.3427491080760956,5.365212709307671,8.82772534851467
3.9817800000309944,-2.5979266852140426,0.5172090286016464,4.6889371955394745,5.385430369499533
3.991806000005454,0.2016271984577179,3.099195034503937,2.081328105926514,3.738661535037829
4.001831000205129,3.391870104968548,5.233347471356392,-0.57978417634964,6.263294520943202
4.011857000179589,5.742501960396767,6.1199461627006535,-2.552658126354218,8.771894510854391
4.021882000146434,6.616321561932564,5.205660905241967,-3.7847945183515552,9.230345931621542
4.031908000120893,6.890737239718438,3.4124742311239245,-3.882160014510155,8.613849688913128
4.041933000087738,6.908789348602295,1.1260912889242172,-2.489770152568817,7.429563060299985
4.0519590000621974,7.411341161727906,-3.5116623044013977,-0.8755877995491028,8.247812070506658
4.061984000029042,9.94570685863495,-12.554814004898072,1.1004027163982393,16.054635646869713
4.072010000003502,9.845489090681076,-19.29249862074852,-0.6072614486888052,21.668016174384015
4.082036000210792,5.580818846225739,-14.656612043380738,-2.662494564056397,15.907567158060077
4.092061000177637,4.380284315943718,-4.500712984800339,-2.3910369926691057,6.720146275220876
4.102087000152096,4.16330729931593,2.621488625407219,-2.5825888538360595,5.556536283480472
4.112112000118941,3.113216072916985,6.052511978745461,-2.123850227594376,7.129919730177797
4.1221380000934005,2.8513374102115634,7.431166146397591,-0.6231658387184144,7.983776736907366
4.132163000060245,3.6477100557088855,6.715710779428482,0.7635025227069855,7.680461966941284
4.142189000034705,3.1406807371973993,5.039947890043259,0.4238517987728119,5.953536812238356
4.15221400000155,2.5686280417442324,2.9935697615146637,0.004899966716766358,3.9445321577550354
4.16224000020884,2.224368980973959,0.6263514018058777,-0.7338512921333313,2.4245971131363406
4.172266000183299,1.410419751405716,-1.7547634506225587,-2.379646031856537,3.275850100313919
4.182291000150144,0.2264509677886963,-3.277384838461876,-4.184529476165772,5.320039319130302
4.1923170001246035,-0.6207652643322945,-3.92279231607914,-5.570587388277054,6.841424772583738
4.202342000091448,-1.6574884401261807,-3.357016314268112,-6.691568795442581,7.667719309387574
4.212368000065908,-2.1458456987142562,-1.5532941269874574,-8.293539823293687,8.70632983571048
4.222393000032753,-1.4630128249526024,0.9749700003862382,-7.32299791932106,7.531087010120751
4.232419000007212,-0.9717265498638153,2.9167151284217834,-5.373052071332932,6.190409371707968
4.242445000214502,-1.080763088464737,3.780414369106293,-3.2500227928161625,5.1011988600090605
4.252470000181347,-0.9431175854802132,3.629257997274399,-0.8389595981687308,3.8425040791366305
4.2624960001558065,-0.0030291500687599183,4.057568882703781,0.9439160227775574,4.16591549022449
4.2725210001226515,1.9091071397066117,3.690146223306656,4.457038961648942,6.0931983002295125
4.282547000097111,3.2079374581575397,2.7867443883419036,6.342832667827606,7.634679644455713
4.292572000063956,3.3440229240059853,0.9510162967443466,6.331359261274338,7.223090156454868
4.302598000038415,2.9373809427022937,-0.5545762449502946,5.003464772701264,5.828414994291012
4.31262300000526,1.749867576956749,-0.6493403148651123,2.2791487669944765,2.945878219391638
4.32264900021255,-1.0273724547028542,-0.45874856650829315,0.9277404315769673,1.4583026833748196
4.33267500018701,-3.862312225699425,0.016280402541160584,2.1081972312927246,4.400251850329076
4.3427000001538545,-5.191422935128212,0.6087863659858704,3.448208320140839,6.261919318377873
4.352726000128314,-5.343302607536316,0.8731319689750672,3.6729530704021456,6.5424633318290155
4.362751000095159,-5.942725242376328,0.6498408365249634,2.97348749935627,6.67681842856463
4.372777000069618,-6.144053063392639,0.392529433965683,0.9568009471893311,6.230484367595853
4.382802000036463,-6.214839456081391,-0.01395262598991394,-1.5857821342349052,6.413979195312116
4.3928280000109226,-6.1774026578664785,-0.2071212422847748,-2.844906934797764,6.804167713547472
4.402853000210598,-6.316709647178651,-0.3283650130033493,-1.8987172222137452,6.604072337463878
4.4128790001850575,-6.959134460091591,-1.071735572218895,-0.20010019809007645,7.044019424992334
4.422905000159517,-7.663687108755112,-2.129368829727173,0.5104644115269185,7.970375501151026
4.432930000126362,-8.190938145518304,-2.979245252609253,0.2476784071326256,8.71944462521905
4.442956000100821,-7.693082816004753,-3.4973839884996414,0.16453304708004,8.452354056740804
4.452981000067666,-6.051097537279129,-3.6945561933517457,1.0530076713860035,7.1675903920004425
4.463007000042126,-4.769836347699165,-3.906245865225792,2.7276024332642557,6.741654884179017
4.4730320000089705,-5.348656318187714,-4.224599275588989,3.9477678206562996,7.876562334877174
4.4830580002162606,-7.597549837231637,-4.415565830469132,4.54429929971695,9.892959175991427
4.4930830001831055,-9.962774881124497,-4.3133255106210715,5.054633756875992,11.975432464370131
4.503109000157565,-10.274282956123352,-3.6563282668590547,6.1679541420936586,12.52889799449615
4.513135000132024,-9.732357746958733,-3.140247166156769,6.2385826599597936,11.979142422748563
4.523160000098869,-9.814595911502838,-2.9909864616394044,3.5455211913585662,10.855552194069682
4.533186000073329,-9.020643428564073,-3.123148153424263,3.704711929857731,10.23967542145569
4.5432110000401735,-7.041886010169983,-4.353628613948822,4.61150251865387,9.476718639274495
4.553237000014633,-4.481933482289315,-5.607607864737511,3.647103699445725,8.051978582860409
4.5632620002143085,-2.2297006183862687,-6.568807672262192,2.3686520969867706,7.330164516527755
4.573288000188768,0.5577208775281907,-6.920876712799073,-0.20946129798889163,6.946471124704291
4.583314000163227,4.420914278626443,-7.50959309577942,-2.888047399520874,9.180375226809652
4.593339000130072,8.206009343862535,-9.581925845146179,-4.118914361000061,13.270921134823011
4.603365000104532,10.03655153989792,-10.6497946536541,-4.000182554125786,15.170759817634682
4.613390000071377,10.582439407110215,-9.896910674571991,-0.7520326244831086,14.508701450298824
4.623416000045836,7.622566564679146,-8.106789695620538,3.500328061580658,11.665155667228483
4.633441000012681,5.148100329637527,-6.084940052032471,3.8017298090457916,8.830774710172959
4.64346699998714,6.008038056492806,-4.661403826475143,0.3684834174066782,7.6132113428333685
4.653492000186816,8.46561168551445,-2.521059772968292,-4.1903860473632815,9.776587278531021
4.663518000161275,8.879657703638077,-0.7004555046558381,-7.449434017539025,11.611762399801734
4.673544000135735,5.513791043758393,0.8263986825942994,-8.467163536548615,10.137932965426547
4.68356900010258,-0.6521275363862514,2.3044514232873916,-5.1164686471223835,5.649249339778767
4.693595000077039,-4.7028886520862585,3.6184225219488146,-1.251518742442131,6.064358365396298
4.703620000043884,-2.7266516759991646,3.9904153650999072,0.8528835728019476,4.907693402914438
4.713646000018343,1.3590081077814102,4.678380632400513,0.010963529348373413,4.871782895163905
4.723671000218019,1.3984964016079904,4.89838329076767,-0.352665456533432,5.106302377730322
4.733697000192478,0.3274850070476532,5.384267615675927,-0.5657485929876567,5.423804537179142
4.743722000159323,0.561517182290554,5.906640320420266,-1.0525398941338062,6.02590587792119
4.753748000133783,1.602598726451397,5.87322640657425,-2.2877568916976454,6.503609974192393
4.763774000108242,3.625217571258545,6.45820641875267,-3.146267459392548,8.046715572965924
4.773798791691661,5.517360184192658,6.853294594287872,-4.263637626171112,9.776886825851665
4.78382479166612,6.756859974861145,6.721929877996445,-5.540065507292748,11.024147306239913
4.793849791865796,7.767191011905671,6.525343564152718,-5.830338833928108,11.700522029553541
4.803875791840255,8.694834233522416,6.6287141507864,-5.416855902671815,12.20173436489992
4.8139007918071,9.485681260228157,6.637531751990319,-4.760552723407746,12.517900741005587
4.82392679178156,9.591526973247529,6.744146373867989,-4.160186347961426,12.441384586952381
4.8339517917484045,8.699637721180917,6.904157184362412,-3.5443786454200747,11.65820324442351
4.843977791722864,7.409251366853715,6.537447300553322,-3.0930496108531953,10.353848507677455
4.854003791697323,5.831204806566238,5.710289064645767,-1.9390747046470642,8.38870439389399
4.864028791664168,3.9961745801568034,4.585246181488038,0.5144760400056839,6.103980620519855
4.874054791871458,2.0958696927130225,3.06051394879818,3.8531031534075737,5.348440829851312
4.884079791838303,-0.40831486970186237,0.02872853994369507,9.041287608146668,9.050548490287948
4.894105791812763,-7.661544688940048,-5.371620672941209,13.895209840536118,16.752027703747586
4.9041307917796075,-16.52066112399101,-10.318268051147461,8.90200108408928,21.41598755253199
4.914156791754067,-22.992348883152008,-13.8384228515625,0.19434492990374566,26.836315397889628
4.924181791720912,-20.050593638420107,-15.333675177097321,1.347241609543562,25.277716661998348
4.934207791695371,-10.400253031253815,-12.133805122375488,6.563778482079506,17.276506528337833
4.944233791669831,-5.853868614435196,-5.665666038393975,7.0750058090686805,10.789960918003175
4.954258791869506,-2.739547710120678,-0.6021696567535401,5.130253458023072,5.846984735322969
4.964284791843966,1.609370533078909,2.990250297188759,1.841470642089844,3.8629890600749746
4.974309791810811,5.672412555813789,5.789117133021355,-1.2468672823905946,8.200293860776663
4.98433579178527,7.7475098687410355,8.072903911471368,-4.248928955197335,11.968670936925443
4.994360791752115,8.334003140330315,8.552428804636001,-5.965308358669281,13.348578599064872
5.004386791726574,8.248227410316467,7.1928786599636085,-6.893591850399972,12.934155072101024
5.014411791693419,8.415876438617707,5.031207472085953,-6.387168595790864,11.701963404844129
5.024437791667879,8.136273111104966,-0.13025082170963287,-4.397972728013992,9.249760512110601
5.034463791875169,8.861709675192833,-9.66405525147915,-3.9269105100631716,13.687384279879506
5.044488791842014,10.872399322986602,-24.046363298892977,-4.619938296675683,26.791425583681008
5.054514791816473,6.589302163124085,-28.96350679636002,-0.2862703227996826,29.704975671383078
5.064539791783318,2.727230550348759,-16.202387820482254,3.7900833249092103,16.861787840256504
5.074565791757777,3.0347575485706333,-2.2810859495401385,5.081792904138565,6.343321338884619
5.084590791724622,3.0356632822752,5.2490694648027425,3.3372609114646914,6.92136490880726
5.094616791699082,4.019635655879974,8.738600642681122,-0.48514231324195867,9.630990346915851
5.104641791665927,5.25769644677639,9.134408025741578,-2.888901093006134,10.928244663821783
5.114667791873217,5.732790904641152,8.418446289896966,-3.135945954322815,10.656889157753774
5.124693791847676,4.499825085103512,6.012474339008332,-1.577143750190735,7.673698970022619
5.134718791814521,2.739952922165394,3.0003677344322206,-0.6802510356903076,4.119743927607923
5.14474479178898,1.826173741221428,0.3288403916358948,-1.368786406517029,2.3057802937321927
5.154769791755825,1.6482347828149797,-2.4457002729177475,-2.4176038169860843,3.813520150744817
5.164795791730285,2.5489059680700303,-3.489517729282379,-2.9044289588928223,5.206665266203918
5.17482079169713,2.8639176946878435,-2.8279807072877885,-4.452390425205231,6.001939681569392
5.184846791671589,2.3674773913621903,-1.4606356394290925,-6.969308030605316,7.503976285626262
5.194872791878879,2.0855873639881612,0.2735707551240921,-7.183622517585754,7.485248699011366
5.204897791845724,2.0875548058748246,1.7743902146816255,-6.295377835035325,6.865721213925237
5.214923791820183,0.9454696279764175,2.9103054106235504,-5.0873477590084075,5.936741330192722
5.224948791787028,-0.9635560892522336,2.702700603604317,-3.4666562855243686,4.500081853902639
5.234974791761488,-1.507310161292553,2.1079411232471466,-2.206363649815321,3.4034453509111335
5.244999791728333,-1.3386665216088296,2.14616261780262,-0.683092782497406,2.6200491956506706
5.255025791702792,-2.217960286438465,2.3898464995622635,0.5255478890240193,3.3025618400486927
5.265050791669637,-3.8945444172620776,1.6642707717418672,3.8952747344970704,5.754167070646516
5.275076791876927,-4.977927643060684,0.41576743841171265,5.128036193847657,7.158867325757805
5.285102791851386,-4.705328695178032,0.2222345405817032,4.760994772911072,6.6975053227586105
5.295127791818231,-2.981738797724247,0.5701356858015061,3.678313797712326,4.769257106984196
5.305153791792691,-0.8070473223924637,0.5011338633298874,1.875010417252779,2.1019335370946495
5.315178791759536,-0.24352396041154864,0.05847040235996247,1.0030594396591188,1.0338524782269116
5.325204791733995,-1.3102578243613243,-0.11279629826545716,3.043711974620819,3.315672051885202
5.33522979170084,-2.5126111310720445,0.6990779006481171,4.542037304341793,5.2375593057448215
5.345255791675299,-3.9524853542447094,1.5549477195739747,4.083521164655686,5.891956210658575
5.355280791874975,-5.559651925563813,1.7033664250373841,2.740435609817505,6.428154793012213
5.365306791849434,-7.032383115291596,1.1948738408088684,0.8287562799453736,7.181153998295578
5.375331791816279,-7.297265492677689,0.5689674121141434,-0.5041141891479493,7.3367525992344
5.385357791790739,-6.6658983492851265,0.08994830310344697,-0.7669664132595063,6.710479042460495
5.395383791765198,-6.385131425857544,-0.4864672923088074,-0.674131339788437,6.439022194032632
5.405408791732043,-6.882635922431946,-1.3053031861782074,-0.23011395603418353,7.009097379931266
5.415434791706502,-7.560228813886643,-2.4032910025119785,0.6847604084014893,7.962522475823289
5.425459791673347,-7.717986107468605,-3.7329729849100115,1.912545010149479,8.784089325422073
5.435485791880637,-7.242833177447319,-4.6023492872715,3.8001335191726686,9.385162021079859
5.445510791847482,-6.7533645093441015,-4.542615886330605,5.083672199249268,9.596197909392634
5.455536791821942,-7.29716199696064,-3.974894515872002,5.256962621212006,9.83280303997879
5.465562791796401,-8.519071608781815,-3.3399050223827365,5.670599918961525,10.765001164654663
5.475587791763246,-8.636238116025925,-2.6625612223148347,6.885133268237114,11.361289591444239
5.4856137917377055,-8.262183544635773,-2.538445883989334,7.011576383113861,11.129671504920196
5.49563879170455,-8.988659158945085,-3.036270223259926,5.705604275465012,11.071081721880065
5.50566479167901,-9.93895098567009,-4.098651419878006,5.514430729150773,12.082658499842772
5.515689791878685,-9.465135898590088,-5.622076215147972,5.294939117431641,12.21609261609534
5.525715791853145,-7.927014711499215,-7.251378298401833,4.340991611480713,11.587245472233853
5.53574079181999,-5.24638559281826,-9.048747485876083,2.195409622192383,10.68757298271664
5.545766791794449,-0.9248051293194295,-10.249500117301942,-2.863788471221924,10.682172138179183
5.5557927917689085,6.1721448415517814,-10.620632250308992,-5.013642436265946,13.267622689092589
5.565817791735753,10.861797151565552,-10.84765624523163,-3.7709582519531253,15.807289758666528
5.575843791710213,11.75525170326233,-12.22199633717537,-2.9749335157871246,17.216659562654236
5.585868791677058,10.68235311985016,-12.585316590070725,1.8319326639175415,16.60899873967753
5.595894791884348,7.071417372822762,-9.792494021058083,6.578578954339028,13.754111526070677
5.605919791851193,6.194894603490829,-6.8773436075448995,4.526785719394684,10.303706284338375
5.615945791825652,9.320566999912263,-4.4017652320861815,-1.180232412815094,10.375039995417634
5.625970791792497,11.527922483682634,-1.810189207792282,-6.8766518819332125,13.544671382617551
5.6359967917669564,10.476089079380037,0.7177012825012208,-8.930232610702515,13.784505504778334
5.646021791733801,5.507547386884689,2.6162799257040024,-4.7966019773483275,7.757924296970421
5.656047791708261,0.8088432946801186,4.416039454936981,-2.6743129563331607,5.225665673511893
5.66607379168272,-2.2761856904625892,5.393226719498634,-2.4145439690351487,6.332293291042721
5.676098791882396,-2.2255330154299737,5.673059257864953,-0.9783860168606043,6.172020556025752
5.686124791856855,0.26073728621006015,5.242722312211991,-0.4602600717544556,5.269341563140223
5.6961497918237,1.3148183602094652,5.0127285164594655,-0.38902819432318214,5.196877662216822
5.7061757917981595,0.030750799477100375,5.060330114364624,-0.9279788517951966,5.144806238080605
5.716200791765004,-0.4100114393234253,5.392163695693016,-1.8837176522612573,5.72642391855218
5.726226791739464,1.3744181522727013,5.692041658759117,-3.1254911327362063,6.637549120206841
5.736251791706309,3.3740738117694855,6.126775710582733,-4.367607552409172,8.246074849703758
5.746277791680768,5.439125608205796,6.308746324181557,-5.549553784132004,10.009091605519865
5.7563037916552275,7.5438074934482575,6.08362267434597,-6.096781833171844,11.449464837419988
5.766328791854903,8.642899264097213,6.06558810710907,-5.513325605392456,11.911667641665932
5.776355250040069,9.168680895566942,6.292057785987854,-4.770155020952225,12.099961961546008
5.786380250006914,9.638920994997026,6.604957498311997,-4.023311215639114,12.358045745189237
5.796406250214204,9.743282099962235,7.182156620621681,-3.5382522252202038,12.610874220761225
5.806431250181049,8.567332772612572,7.489855819344521,-3.288119741678238,11.845204196925629
5.8164572501555085,7.1600243246555335,7.2192753303051,-2.5387955474853516,10.479950737305122
5.826482250122353,5.861040224432945,6.860565022230149,-0.7134113265573979,9.051414290459206
5.836508250096813,3.839178301692009,6.314950219988823,2.260808682739735,7.72846312102678
5.846534250071272,1.3671301826834679,4.0821833217144015,6.4687553805112845,7.770332153864534
5.856559250038117,-3.2222274684906007,-0.8866659343242645,14.468612365722658,14.849568011471886
5.866585250012577,-12.519793860912324,-7.068075689077378,15.863025949001313,21.408842204214444
5.876610250212252,-22.30033324956894,-11.826353845596314,2.471939653158188,25.362925579907703
5.8866362501867115,-26.556984622478485,-17.248202100992202,-5.825357006192208,32.19796099452298
5.8966612501535565,-15.539539268016815,-17.17238359451294,4.029316306114197,23.507518560538276
5.906687250128016,-6.418813726902008,-10.913802287578584,10.383938130140304,16.374932705925936
5.916712250094861,-2.9995973637700084,-3.7944184505939487,8.081524461507797,9.418398661391047
5.92673825006932,0.22235470086336137,0.4835349136590958,4.14430881857872,4.178342160411554
5.93676425004378,4.822540518343449,3.040946826338768,0.16495813965797426,5.703636194527448
5.9467892500106245,8.23950453400612,4.955961992740631,-3.162180072069168,10.121777366035495
5.956815250217915,10.022027056217194,5.676237804293633,-3.836406136751175,12.139963507875292
5.9668402501847595,11.037542234659195,4.645281883478165,-3.551841446757317,12.490859058597973
5.976866250159219,10.450257250070573,3.1687657910585405,-3.798469986319542,11.561891171785254
5.986891250126064,9.277101137638093,1.3239324152469636,-4.200126923918725,10.269297382739222
5.996917250100523,8.699030195474625,-2.699314481019974,-4.790860011577607,10.291344161952646
6.006942250067368,9.104693060517311,-11.529544501304628,-4.071754227876664,15.244835670679672
6.016968250041828,6.394071233868599,-23.00826266527176,0.5514391772076488,23.886573278393946
6.026994250016287,-0.17589360237121582,-20.9987219953537,1.9286730927228928,21.087841138819776
6.0370192502159625,0.5379005706310273,-7.599665359854699,1.0842041748762132,7.695436914073147
6.047045250190422,2.9145785558223727,1.9992472314834595,-1.2297904890775682,3.74221088364613
6.057070250157267,2.9651970246434214,6.9217561340332034,-1.5303145694732667,7.684072101140295
6.067096250131726,3.909995976984501,9.633975419998169,-2.423189662098885,10.67583247675172
6.077121250098571,4.323650231659412,9.287685767412187,-3.2195283937454224,10.73873462369065
6.087147250073031,3.8339789575338368,6.8770904231071475,-2.1443540740013125,8.16039347881524
6.0971722500398755,2.969111735522747,3.8486958146095276,-1.5076250338554382,5.089304197443832
6.107198250014335,2.1935581013560297,1.2257202422618867,-1.1963730669021606,2.783055114711904
6.1172232502140105,1.8274877567589285,-1.15479059278965,-1.788638709783554,2.8057942277429095
6.12724925018847,1.3871539726853372,-2.894006296992302,-3.238013781309128,4.558969383415033
6.137275250162929,1.0155720426142216,-3.0893407219648363,-3.340152944326401,4.661763010023371
6.147300250129774,0.5835832585394383,-2.0539625519514084,-4.137190418243408,4.655714353487692
6.157326250104234,0.017116554379463196,-0.6731256186962128,-5.603771506547928,5.6440806312966
6.1673512500710785,-0.682729231864214,0.8649762725830079,-6.128883047103882,6.227159108393719
6.177377250045538,-0.7343090560287238,1.921658772826195,-4.9749701213836675,5.38352207551951
6.187402250012383,-1.4805129566788675,2.3732170182466508,-2.7461705589294434,3.9198890761500356
6.197428249986842,-2.1520533952116967,1.7874628347158432,-1.1832553502172232,3.0375072716209703
6.207453250186518,-1.5518560042977334,1.9238403689861299,-0.3349624264240265,2.494317271425487
6.217479250160977,-0.9900078696012498,2.5346837854385376,-0.581223760843277,2.782545333719874
6.227505250135437,-1.4725519725680352,3.027305856943131,-0.17251376554369927,3.370867998409054
6.237530250102282,-1.108503741323948,2.762300688028336,0.5901524591445924,3.034364111415342
6.247556250076741,0.3355450649186969,1.7431771928071977,2.051026518791914,2.7125572799301683
6.257581250043586,-0.012437310917302966,0.4979670113325119,2.7521008050441744,2.7968168821363832
6.267607250018045,-0.44919538557529454,-0.7583575576543808,3.4032166269421578,3.5155036750897035
6.277632250217721,-0.4706643149256706,-0.8419587081670762,4.826901079416276,4.922336172395465
6.28765825019218,-1.7558001619577408,-0.5921048444509507,4.839193096160889,5.181815529086723
6.297683250159025,-3.3181104031205177,-0.010205730199813844,3.808487728536129,5.051191897229385
6.307709250133485,-4.204692137539387,0.39975542306900025,2.714490052163601,5.020726701689085
6.317735250107944,-4.92496707201004,0.599404508471489,1.8847295129299164,5.30723956139801
6.327760250074789,-5.304901603460312,0.932959510087967,1.4752713663876058,5.584695163958595
6.337786250049248,-5.52260747551918,1.2061040031909944,1.3343074223399163,5.808119875870768
6.347811250016093,-5.7492829763889315,0.9641742861270906,1.1421936437487603,5.94041186420978
6.357837249990553,-5.761449862718583,0.22499267220497132,0.9175895190238953,5.838398474632269
6.367862250190228,-6.1055877399444585,-0.8434123259782792,0.7343683321774006,6.20716061086526
6.377888250164688,-6.7172614610195165,-1.8662300920486452,0.677424199283123,7.004521385358198
6.3879132501315325,-7.250430464744568,-2.6465924763679505,0.8941211342811585,7.769983671979742
6.397939250105992,-7.790395687222481,-3.39281764626503,1.2911283659934998,8.594677946367453
6.407964250072837,-7.998539022803307,-4.000953801870346,2.557281812131405,9.301824987101517
6.417990250047296,-8.018498493432999,-4.448990269303322,4.319983442723752,10.13667053084741
6.428016250021756,-8.50226144850254,-4.6649203419685366,5.720106539726258,11.259198477752468
6.438041249988601,-9.609074467420578,-4.676531742811203,7.242322715520859,12.909511980617404
6.448067250195891,-10.546355069875718,-4.52727571606636,7.79218201160431,13.872272026281319
6.458092250162736,-10.543154304027558,-4.152683200836182,6.055171877145767,12.847878692874511
6.468118250137195,-10.411416535377503,-3.499394261240959,3.582215977907181,11.553165184533274
6.47814325010404,-10.137013721466065,-3.4212362837791446,2.747053488492966,11.045823091435041
6.488169250078499,-9.173282069563866,-4.097215343713761,1.2127524335682394,10.119636651860139
6.498194250045344,-7.41617622435093,-4.651036713123322,-0.32900871835649015,8.76014035470914
6.508220250019804,-5.37375958442688,-5.992075157761574,-2.729505994319916,8.498968157400727
6.518246249994263,-2.7955245673656464,-7.220071136355401,-5.589280936717987,9.549054728628187
6.528271250193939,3.156093120574951,-7.981624197363854,-4.967338335514069,9.916738312225064
6.538297250168398,7.771682842969895,-9.978179955482483,-4.183452419042587,13.321576617581655
6.548322250135243,9.836397839784622,-12.10236347436905,-4.245208371877671,16.163035551805297
6.558348250109702,10.055601768493652,-11.746273888349533,-2.2169379007816317,15.620655903084762
6.568373250076547,6.96774039208889,-7.951092960834504,1.5328048986196519,10.682639013867847
6.578399250051007,5.210968422889709,-5.175807945728303,4.306617584824562,8.514113859782357
6.588424250017852,7.045057539939881,-3.502528368830681,2.8060840541124343,8.353122077060263
6.598450249992311,10.207589614391328,-1.2557953959703445,-4.622448506355286,11.275590361762715
6.608476250199601,10.135091156959534,-0.045031161904335024,-10.608529683351517,14.671843872123642
6.618501250166446,5.281954790353775,1.0685184341669083,-5.905015379190445,7.994372062893456
6.628527250140905,0.456512006521225,2.4369849979877474,-0.7925281012058258,2.6029598313681848
6.63855225010775,-0.9449930799007417,3.043551760911942,-1.8082309752702714,3.664139530959124
6.64857825008221,-0.15332568883895875,3.4166193222999572,-2.1661676967144015,4.048342728902821
6.658603250049055,0.9003788244724275,4.539738471508026,-0.48090549387037757,4.653082581610077
6.668629250023514,1.452471464574337,5.52445519566536,-0.9591937740147114,5.792178455505777
6.678654249990359,1.0707058775424958,6.263412276506425,-2.2063585335016254,6.726422704532543
6.688680250197649,1.4421280324459076,6.9841377389431,-2.466273116469383,7.54588737681097
6.698705250164494,2.381272142529488,7.021085709929467,-2.9932037258148196,7.995334271135539
6.708731250138953,4.195889739096165,7.070062572956085,-3.6149486911296846,8.981042786206238
6.718757250113413,6.500512193441391,7.163938450813294,-4.424932485222817,10.637607832727317
6.728782250080258,7.5621566408872605,6.310675905346871,-4.863950791954994,10.984937903793561
6.738808250054717,8.00818517446518,4.87621181845665,-4.741324739456177,10.506599439017336
6.748833250021562,8.225475309491157,4.162014187574387,-4.698556742370129,10.346846941261427
6.758859249996021,8.360783972740174,4.183630174398423,-4.523491105735302,10.385925180677566
6.768884250195697,8.743539201021195,4.7748819100856785,-4.004924061298371,10.737243210052776
6.778910541674122,8.663195534348489,5.597654734253884,-3.4346076965332033,10.871118866949972
6.788935541873798,8.167769722938537,6.151045748591423,-2.8239449590444567,10.607661909201703
6.798961541848257,6.995464965105057,5.863883140683175,-2.0444134640693665,9.354211991272637
6.808986541815102,5.743763204813003,5.404401918053627,-0.392581035643816,7.896359649507653
6.8190125417895615,3.072559797763825,4.705399446487427,2.4049093656241896,6.112691446384776
6.829038541764021,0.38509747669100763,1.88718066573143,7.918383636474609,8.14926685942074
6.839063541730866,-5.769095681905747,-4.740544720888138,17.551773165464404,19.074065389676118
6.849089541705325,-17.304359929561617,-10.923762434720993,9.892429368495941,22.729487832169035
6.85911454167217,-24.095182871818544,-14.372212829589845,-4.374815415143967,28.39502331680652
6.86914054187946,-19.23847619533539,-14.268510121107102,-1.295359411239624,23.987232091237818
6.879165541846305,-10.973888275623322,-9.562768027782441,6.327061557769776,15.871498486118101
6.8891915418207645,-6.617393356561661,-3.050671330690384,7.526303268671036,10.475768768704803
6.8992165417876095,-3.437484818994999,1.888261815905571,5.474411215782165,6.734316054783117
6.909242541762069,0.08946196094155312,4.621865538954735,1.550965473353863,4.875975635928529
6.919268541736528,4.009704452455044,5.541040822863579,-1.4833766305446625,6.998661973886475
6.929293541703373,6.890739578604698,4.264354494810105,-1.9349081249535085,8.331319262251778
6.939319541677833,7.226084412932396,1.8871701407432557,-2.9703855514526367,8.037468345643175
6.949344541877508,7.403084893226624,-0.06812941789627075,-4.325543267726898,8.574417304684944
6.959370541851968,6.980972056388856,-2.7719871854782108,-4.665748307704926,8.842346469087763
6.9693955418188125,6.485449765920639,-9.555993443727493,-5.30809769153595,12.710388289337669
6.979421541793272,4.498841291069985,-20.961524348258973,-3.380246717333794,21.703712673985894
6.989446541760117,2.9431085827946664,-21.533681416511538,-0.5307541036605835,21.740354721036326
6.999472541734576,4.833336817324162,-7.616591879725457,1.058740720152855,9.08265096568787
7.009497541701421,5.2400191444158555,2.1548808163404467,0.7672459101676942,5.71751504179445
7.0195235416758806,5.284753267765045,6.7160692137479785,-0.44671792030334473,8.557672562404269
7.029549541883171,5.394756935834885,8.216065385341645,-2.579826629161835,10.16182258502284
7.0395745418500155,5.463721920847893,7.770895223021507,-3.005396339893341,9.963507261771658
7.049600541824475,5.729980732798577,6.190686947107316,-2.2903859460353853,8.740889649064574
7.05962554179132,5.27972407758236,3.4561938625574116,-1.0944280314445496,6.404571419462353
7.069651541765779,4.210356627702713,0.574802348613739,-0.22572004755958916,4.255402473595457
7.079676541732624,4.214208188652992,-1.788062174320221,-1.2502832257747651,4.745516319769477
7.089702541707084,4.735650893747807,-3.2199792140722274,-2.972960665225983,6.452375581403528
7.0997275416739285,4.62192518055439,-3.2600232857465747,-3.76075018286705,6.792141498539851
7.1097535418812186,3.8389397352933887,-1.9595259261131288,-5.151657775640488,6.716902409864319
7.1197785418480635,2.1958043092489246,-0.5657765865325928,-6.610389561653138,6.988484089357104
7.129804541822523,2.2206649160385132,1.1104622662067414,-6.8295455431938175,7.266854301591018
7.139830541796982,1.0757333866506815,2.4057099956274035,-5.31369464635849,5.9312725191948
7.149855541763827,-1.1026962867379189,2.6277685350179674,-2.417043653726578,3.736737427012499
7.159881541738287,-2.844033068418503,2.268778145313263,0.7933830372244121,3.723618537211416
7.1699065417051315,-3.4786571109294893,2.0797505271434784,1.7448149979114533,4.41257259742099
7.179932541679591,-3.7040634736418725,2.3491264897584916,0.9908633172512055,4.496697854551383
7.1899575418792665,-2.856335610151291,2.567690733075142,1.2421978421509265,4.036674906105609
7.199983541853726,-1.9178282618522644,2.4839983659982683,2.065214641392231,3.756783815880571
7.210008541820571,-1.3326254707574845,1.4423724460601808,1.8427862656116487,2.6929890714951226
7.22003454179503,-1.0900013968348503,0.6272243911027908,1.61336271956563,2.0455934949985535
7.23006054176949,-1.84047164529562,0.693699631690979,2.392852553129196,3.097466448109209
7.240085541736335,-2.9948087865114212,0.6901205509901047,3.7871573781967167,4.877264299778589
7.250111541710794,-3.9340189701318744,0.3548078763484955,3.6986083137989048,5.411293500206652
7.260136541677639,-4.129766793251038,-0.023202336430549624,3.0951917383074763,5.160980915673071
7.270162541884929,-4.109079051911831,-0.48370272874832154,2.444032062292099,4.805391940952473
7.280187541851774,-3.905540398657322,-0.5692796534299851,1.1780772753059865,4.118882275077322
7.290213541826233,-4.023427282869816,-0.10872429728507996,0.0928534922003746,4.025966945266085
7.300238541793078,-4.675462287068367,0.7513765668869019,-0.22142820954322817,4.740627046609639
7.310264541767538,-5.40714718580246,1.0330848920345308,0.203686880171299,5.508719763087915
7.3202895417343825,-6.245270120501519,0.17074746787548067,1.095874340236187,6.342987793256664
7.330315541708842,-7.044471064209938,-1.3732969486713411,2.0556085431575775,7.4656576111166215
7.340341541683301,-8.251690131425859,-2.566173380613327,2.3551368427276613,8.956690537939364
7.350366541882977,-9.162105701565743,-3.142545121908188,1.822495842576027,9.856026675395077
7.360392541857436,-8.782108020186424,-3.3300074404478073,1.4050464525818827,9.496763994412698
7.370417541824281,-7.7407060486078265,-3.484990230202675,2.432401657998562,8.830643513436382
7.380443541798741,-6.993630693554879,-3.6912092471122744,4.487673401534558,9.092585360756356
7.3904685417655855,-7.896077678203583,-3.9577276754379276,5.840443407297134,10.58878794985492
7.400494541740045,-9.94708680152893,-4.031994915604591,6.041526814699173,12.316718925482608
7.41051954170689,-11.016415075063707,-4.022178025245667,6.903485924005508,13.608726431073638
7.420545541681349,-10.465341897010804,-3.808856395483017,6.105108268260956,12.700516329265117
7.430570541881025,-10.265558910369874,-3.3563976788520815,2.5132759594917298,11.088898104385171
7.440596541855484,-10.14596697807312,-3.3257296174764637,2.28781200170517,10.919487495475993
7.450622541829944,-8.934407522678375,-4.383506131768227,2.0844411635398865,10.167775506609157
7.460647541796789,-6.779916715621948,-5.518161837458611,-0.20320828557014467,8.744065092534413
7.470673541771248,-4.597990188002586,-6.5982179975509645,-2.9438403618335727,8.564122289419618
7.480698541738093,-1.422622890472412,-7.750783724784852,-4.899443975687027,9.279173212511001
7.490724541712552,3.4207109114527703,-8.052557939887047,-3.7491481375694278,9.518459133305678
7.500749541679397,7.130540324449539,-10.215456458330156,-2.881725389957428,12.786887705527311
7.510775541653857,8.618243894577027,-12.918342418670655,-3.821819672584534,15.992623433389342
7.520800541853532,10.146164613962174,-13.062354662418366,-1.8143185114860536,16.63915614932266
7.530826541827992,8.452281203269958,-9.705393311977387,2.264417291879654,13.067643343429971
7.5408515417948365,6.531371458768845,-6.523446142673492,4.099884012937546,10.100654019830737
7.550877541769296,8.009334737062455,-4.2829030323028565,1.84606187582016,9.268260126031258
7.560903541743755,10.806601774692536,-1.8614880001544953,-3.232925534248352,11.432392006990577
7.5709285417106,12.67560344696045,0.2712611049413681,-6.742503890991212,14.359869917644842
7.58095454168506,8.61199205160141,1.5995567125082018,-7.41188436806202,11.474363540471343
7.590979541884735,3.2603136000037196,1.8486673951148989,-3.910751729607582,5.416751332557072
7.601005541859195,-0.8770534041523934,2.9360009998083116,-0.6911923456192017,3.1411894885939753
7.6110305418260396,-2.4141343715786934,3.4360104435682297,-0.8199041801691056,4.278604374910862
7.621056541800499,-0.8196635672450066,3.0352323424816134,-0.9271895507723094,3.277829190085504
7.631081541767344,1.9180191734433174,3.8653820139169697,-0.8681197357177735,4.401546039603777
7.641107541741803,1.5210660284757616,5.095147944688797,-1.846837216615677,5.628941476505706
7.651132541708648,0.8645117112994194,5.702906954884529,-2.0632007141411304,6.125955062019036
7.661158541683108,1.713419250547886,5.684652532339096,-1.6994312489032746,6.175689962370709
7.671184541657567,2.847488188147545,5.9111140251159675,-2.304152630567551,6.954033171082364
7.681209541857243,4.565694554150105,6.499446830749512,-4.186029871702194,8.97837524022687
7.691235541831702,6.480002499818802,6.823335800170899,-5.34594321012497,10.822543723424408
7.701260541798547,7.776926625967026,7.115678456425667,-5.596601650714875,11.934631023944549
7.711286541773006,8.301983202695848,7.13892464697361,-4.976669322252274,12.027236081330498
7.721311541739851,8.237755047082901,7.148218211531639,-4.328510437309742,11.734293094230765
7.731337541714311,8.1899926507473,7.2134655368328096,-3.985103169679642,11.618567551267246
7.741362541681156,8.39728287756443,7.126756006479264,-4.256991680860519,11.807920607483805
7.751388541655615,7.984906239509583,6.784806742072106,-4.621904715299607,11.452263242623046
7.7614135418552905,7.108588707447052,6.251089269518853,-3.9263269579410554,10.248131236854462
7.771439125062898,6.06028760612011,5.710787832140923,-1.8263732774555683,8.525011605929087
7.781465125037357,4.719534797966481,4.12636897623539,1.426277254074812,6.429245402280551
7.791490125004202,1.773248838186264,0.31974855601787566,6.790396095514298,7.0253917837498765
7.801516125211492,-6.690013436079026,-5.728467473387719,15.311299052238466,17.66373397771993
7.811541125178337,-17.08792056441307,-10.850189259052277,9.41845933020115,22.32556857792423
7.8215671251527965,-22.964460003376008,-14.742608213424683,-4.157643393874169,27.604291673068133
7.831592125119641,-17.225831823349,-14.972337130308151,-1.3160081224143505,22.86114692066362
7.841618125094101,-10.342507098913194,-9.664665700793266,7.698039500713349,16.113132170801016
7.851643125060946,-5.731418563127518,-3.519534995555878,9.339707275629044,11.509405602599264
7.861669125035405,-1.7717423030734063,0.9697934603691102,6.210268102884293,6.530467062467785
7.87169412500225,1.410662703216076,3.5683563226461414,2.5277846556901933,4.594870114938655
7.88172012520954,3.5261739242076877,4.971685740351677,0.23192396163940432,6.099618870762415
7.8917461251839995,5.599186120033265,5.67746455013752,-1.6760917952656746,8.148237394123855
7.9017711251508445,7.399741455316544,4.595458928346634,-2.50019866168499,9.062307085700771
7.911797125125304,7.504490815401078,2.5527388179302215,-2.9224348747730255,8.448342054409052
7.921822125092149,6.387746300697327,1.5057831609249115,-3.830444315671921,7.598880798200531
7.931848125066608,4.965174865722656,0.2713213312625885,-3.9196190321445465,6.331665663089915
7.941873125033453,4.2222638976573945,-5.463771037459374,-3.4235202062129977,7.707191250617152
7.9518991250079125,3.7073671504855157,-18.64012593984604,3.6377154099941253,19.35024133301518
7.961924125207588,2.0773476138710976,-23.25243537425995,2.177766818404198,23.446402544064917
7.9719501251820475,3.5134764030575756,-11.837098689079285,-2.146850835084915,12.532772650852234
7.981975125148892,4.470634322762489,-1.263837071657181,-3.7135520428419113,5.947631811608075
7.992001125123352,3.880980046391487,3.9478985059261325,-3.58413503408432,6.59499300046128
8.002027125097811,3.0883168745040894,6.803654072284699,-3.7704565608501435,8.369214570670342
8.012052125064656,3.777556834816933,7.543567757606507,-2.947621171474457,8.936656014662143
8.022078125039116,3.9066738814115527,5.562637513875962,-2.393211572170258,7.206420647981423
8.03210312500596,3.9893292447924615,3.77719430744648,-2.3245547354221343,5.965358277382504
8.04212912521325,3.6461120116710664,1.967631921172142,-1.8482282692193985,4.536700994556434
8.052154125180095,3.2663757008314134,-0.11923992991447449,-2.2407980489730837,3.9629035158768997
8.062180125154555,3.789894752204418,-1.675899714231491,-3.2330272758007053,5.255892640743256
8.0722051251214,3.082301843762398,-1.9178095507621766,-4.232431036233902,5.576024623827596
8.08223112509586,1.72780208542943,-1.1767252528667451,-4.98864617407322,5.408934554719993
8.092256125062704,1.2862438943982124,-0.24960126399993898,-5.956977830529214,6.0993695592482
8.102282125037163,0.8375117544829845,0.7007127821445466,-6.448567868471146,6.54037092956022
8.112308125011623,-0.9048004158586264,1.4669313365221024,-5.463913124799729,5.72930170037913
8.122333125211298,-2.9348584538698197,1.7276943504810334,-1.4389810609817506,3.697159505187651
8.132359125185758,-3.4448356461524967,1.8925805693864823,1.7731856882572175,4.31195330745387
8.142384125152603,-2.895846415758133,2.4803245604038238,2.986370669603348,4.843175215173285
8.152410125127062,-2.0980499732494353,2.9911735725402835,2.8732399106025697,4.648057725028253
8.162435125093907,-0.7692292857170105,2.5823748457431797,1.1228396522998811,2.9190995910911863
8.172461125068367,0.9884949025511742,1.8498304063081743,1.6637024223804475,2.6771067320348827
8.182486125035211,1.7968324130773545,0.6202983641624451,3.924568115472794,4.360689357688033
8.19251212500967,2.193230364918709,-0.4411712515354157,4.129523549079895,4.696579207166445
8.202537125209346,0.9252803617715836,-0.8043786531686783,2.9336030566692353,3.1794961329828175
8.212563125183806,-0.6922167778015137,-0.4538474303483963,2.172175272256136,2.324540163323656
8.222589125158265,-1.8804046198725701,-0.17199467897415163,2.362564268410206,3.0244360840332165
8.23261412512511,-2.624090928733349,-0.016341798305511475,2.413601690232754,3.565332155035056
8.24264012509957,-3.147539813518524,0.5405973064899445,2.2772823357582093,3.9224057875524267
8.252665125066414,-4.094412188529969,1.0451055979728698,2.0396687409281733,4.692196229189112
8.262691125040874,-5.349706478118897,1.1158335185050965,1.8360175287723541,5.7650155428243295
8.272716125007719,-6.413851779699326,0.7840619176626206,1.258336888253689,6.582982566209709
8.282742125215009,-6.995474905371666,0.24878031492233277,0.6222639057040215,7.02750120349471
8.292767125181854,-7.0137538862228395,-0.29078846633434297,0.42006017178297045,7.032336173461661
8.302793125156313,-7.0508550542593005,-0.8730898690223694,0.41191616982221607,7.116636694852732
8.312818125123158,-7.526426644921303,-1.5375627779960632,0.09920386075973511,7.6825151313648545
8.322844125097618,-7.789867098927498,-2.498165584802628,-0.4602517394721508,8.193576287051492
8.332870125072077,-7.395304588079453,-3.8315003228187563,-0.13878600239753724,8.330077204245512
8.342895125038922,-6.30276637673378,-5.277734854817391,1.7651223778724672,8.408032243415004
8.352921125013381,-5.319309142827988,-5.804325740933418,4.878942468166351,9.262252785986401
8.362946125213057,-6.136504307985306,-5.253494052886963,7.290186853408814,10.881300898479722
8.372972125187516,-8.285571822524071,-4.047881215810776,7.605747048854829,11.953385751940013
8.382997125154361,-8.769226019382478,-2.5602232539653778,7.649685366153718,11.915190065219525
8.39302312512882,-7.809323124289513,-1.9880410426855089,8.010444538593292,11.362440607230653
8.403048125095665,-7.812848410606384,-2.1260786014795303,5.825924770832062,9.975079445406863
8.413074125070125,-8.182321103811265,-2.2262829208374026,3.9785858631134037,9.366742216995904
8.42309912503697,-8.24066696047783,-2.984054002761841,3.6725589680671695,9.502676445025394
8.43312512501143,-7.233298122882843,-4.328235910534859,2.184966495037079,8.707945016832536
8.443150125211105,-6.16835993885994,-5.808801199793816,0.2660027039051056,8.47712174930519
8.453176125185564,-3.6183774983882904,-7.139105325937272,-3.029360568523407,8.557833021845722
8.463202125160024,0.7075945164263249,-7.140593442320824,-4.731867452859879,8.595308854231266
8.473227125126868,5.350814525485039,-7.756882370710374,-3.5556661105155944,10.071901592482334
8.483253125101328,7.372849525809288,-9.986062002182008,-4.068159359693527,13.062552010136136
8.493278125068173,8.534731037020684,-11.2054391849041,-4.04803207397461,14.655717821819428
8.503304125042632,8.25795717716217,-10.22845949649811,-0.7303546571731567,13.166193768003001
8.513329125009477,6.6277271407842635,-7.2697268611192705,1.5917957031726837,9.965415658596806
8.523355125216767,5.326649152636528,-5.608061608672142,1.6556589925289156,7.909788423307394
8.533380125183612,7.767313803434372,-4.345633715987206,0.23867749571800234,8.90351970074246
8.543406125158072,10.519005303382874,-2.4197058910131455,-4.681948603391648,11.76541932514102
8.553431125124916,10.293937786817551,0.27447999715805055,-7.7184953999519355,12.869175018888713
8.563457125099376,6.094812490940094,1.6227520322799684,-8.404381397366524,10.507791877001974
8.573483125073835,0.708232447654009,2.16833409011364,-4.991450498700142,5.487972668229392
8.58350812504068,-4.062986328005791,3.1668660306930545,-0.8880190531164408,5.227377564000651
8.59353412501514,-2.949571510255337,3.34467985868454,0.24989238224923613,4.46646411089423
8.603559125214815,0.04006921470165253,3.9845681494474414,-0.12673262514173986,3.986784423295688
8.613585125189275,0.40300004303455356,4.849314626455307,-0.3325101041793823,4.87737884015796
8.62361012515612,1.5229994103312494,5.928298991918564,-0.4542175590991974,6.137635516422105
8.633636125130579,1.5983223652839662,6.226556106805802,-1.0489320158958435,6.513439468402149
8.643661125097424,2.100519252419472,6.018489369750023,-2.2202273981273177,6.750096675083557
8.653687125071883,3.7795121437311177,6.382241731882096,-3.2504589951038363,8.098345834035479
8.663712125038728,5.230856557488441,6.667360737919807,-4.424900325536728,9.560089038576443
8.673738125013188,6.954906338453293,6.537792870998383,-5.340345085859299,10.937675412846948
8.683763125212863,7.4474909877777105,5.9405266892910005,-5.6969995129108435,11.10003526162486
8.693789125187322,7.554082220792771,5.560959947705269,-5.40685190141201,10.826933140196365
8.703815125161782,7.91815851867199,5.461092427968979,-4.699372136592865,10.705366098916155
8.713840125128627,8.387740221619607,5.443162525892258,-4.173419181704522,10.835111073490312
8.723866125103086,8.382204662561417,6.020555775761605,-3.8432657977938653,11.012680820155232
8.733891125069931,7.96820425271988,6.594665229320526,-3.681551985740662,10.978875785962028
8.74391712504439,7.267702555060387,6.464198060631753,-2.8010244584083557,10.121812832319536
8.753942125011235,5.962236231565476,5.857905532121658,-0.7649292433261872,8.39335659027717
8.763968125218526,4.2435188189148905,4.467153475284577,2.3483270291984084,6.593750979093442
8.773993041832,2.287399480640888,1.1611856925487518,6.398885246515275,6.89393073613936
8.78401904180646,-3.529582850933075,-4.745616595745087,12.600948536396027,13.919868389906322
8.794044041773304,-13.669853471517564,-11.018301386833192,11.55838881611824,21.020566391237374
8.804070041747764,-20.713656198978423,-15.185217880010606,1.2501072245836258,25.71398769669588
8.814096041722223,-19.081656210422516,-17.01596940636635,-1.8098132318258286,25.63061143447896
8.824121041689068,-11.26495799303055,-12.369267818927765,4.8808252716064455,17.42757930101186
8.834147041663527,-7.486802988052369,-4.880157519578934,8.330951478481293,12.217729287172078
8.844172041863203,-4.1482495495677,0.5865704548358918,7.080615043044091,8.227219980756397
8.854198041837662,-0.5374860030412674,3.834829142689705,3.2003237986564637,5.023631970331274
8.864223041804507,3.741355260908604,5.89801918566227,0.07354328177869321,6.984968011169665
8.874249041778967,7.0840917974710464,6.073743803501129,-1.1962813387066127,9.407752623602654
8.884274041745812,8.851515054702759,3.3964019894599917,-1.912894381284714,9.671816279871532
8.894300041720271,9.100055633783342,-0.6614493137598038,-2.646322919726372,9.50008172217978
8.904325041687116,7.98569385945797,-4.471183961033821,-2.215900604724884,9.41663463878741
8.914351041661575,7.020805628299714,-9.14102941274643,-1.0192223131656648,11.571039042312279
8.924376041861251,4.221426284015179,-16.482600427865982,2.4830528712272644,17.194827951956135
8.93440204183571,0.5111913666129112,-17.615960390567782,-3.321289826631546,17.93360931903667
8.94442804181017,0.6013668340444566,-8.800420914888383,-5.838284615278244,10.578025222000946
8.954453041777015,3.7111649170517924,1.413298335671425,-6.003350343704224,7.19794224597706
8.964479041751474,4.339888826608658,6.556260132193565,-4.59898246049881,9.108777174807228
8.974504041718319,4.40436841249466,9.01961782693863,-2.4188978058099746,10.324874500542958
8.984530041692778,4.725679636895657,9.02186900496483,-0.2502152216434479,10.187677656387516
8.994555041659623,5.430250704288483,6.511136584281922,0.4401491582393646,8.489773472366553
9.004581041866913,5.262841411828995,4.00558596611023,0.02130845982581377,6.613824363287974
9.014606041833758,5.398388056755066,1.5696780252456666,0.30964982986450196,5.630485390389534
9.024632041808218,5.394399086236954,-0.8455980151891709,0.7232258049398661,5.507960881289633
9.034657041775063,4.6192132419347764,-2.8352938199043276,0.3018976644426584,5.4283666253716865
9.044683041749522,4.51226357460022,-3.196997902393341,-1.4628973424434664,5.720261077005099
9.054708041716367,3.7652040070295336,-1.8151704508066178,-2.523563550710678,4.882619990794721
9.064734041690826,2.6031330460309983,-0.4703862798213959,-2.830350583791733,3.8740739970673044
9.074760041665286,1.200449307113886,0.39134888112545013,-4.521669405698776,4.69464873021834
9.084785041864961,0.13176598146557808,1.016171236038208,-6.568212425708771,6.647659793044324
9.09481104183942,-0.22589928299188616,1.6641737079620362,-6.680578368902207,6.888441910865797
9.104836041806266,-0.8714187347888946,1.6963982981443406,-5.986754776239396,6.283181562561543
9.114862041780725,-3.113044457137585,1.3945305275917055,-4.313574017286301,5.499334685860438
9.12488704174757,-4.275522091984749,1.7787697792053223,-1.9056368172168732,5.007550575440677
9.13491304172203,-4.329795362949372,1.9814535695314408,1.2884879095852375,4.932898460983574
9.144938041688874,-3.3348068350553515,1.2494289475679399,4.06012645483017,5.400614423504462
9.154964041663334,-2.5288275066018104,0.5264306724071502,4.759483852386475,5.415236315445945
9.16498904186301,-1.1221391558647156,0.32803756892681124,4.794286772310734,4.934773610501891
9.175015041837469,0.5150961737707258,0.17812782347202302,4.135426020920277,4.171187116904807
9.185041041811928,1.8317043301463127,0.17097433984279634,3.5249749526381495,3.9761566109357105
9.195066041778773,0.5094199526309967,-0.21639960408210757,4.411335662305356,4.4459217044739425
9.205092041753232,-2.147363343536854,-0.44787800788879395,4.523492567539216,5.027300373729298
9.215117041720077,-3.542605769634247,-0.3306752479076386,3.4150429129600526,4.93172584963756
9.225143041694537,-4.409146757125855,0.27229957044124603,2.4180927903950216,5.036059463995269
9.235168041661382,-5.198821417093277,1.1382926738262178,2.2867255890369416,5.792457877073474
9.245194041868672,-6.238370406031609,1.5451781916618348,2.4723550978302957,6.886027933185122
9.255219041835517,-7.074402376413346,1.4028791821002962,1.6572587907314302,7.400117950575504
9.265245041809976,-7.091870348453522,0.8928569662570954,0.22440912008285524,7.151375955342053
9.275270041776821,-6.564998795986176,0.044045906066894534,-0.8922617197036744,6.625502260930091
9.28529604175128,-6.1720010000467305,-0.8281838375329972,-1.42193277284503,6.387595605845714
9.295321041718125,-5.938264986276627,-1.3154592150449753,-1.2144326309859754,6.202279468783167
9.305347041692585,-5.515342894792557,-2.3278841400146484,-0.28724710017442706,5.993376570267306
9.31537204165943,-5.128046718835831,-3.9824532115459443,1.2606795752048494,6.614084193904264
9.32539804186672,-4.799069502353668,-5.208277534246445,3.151195785105229,7.751597115319028
9.33542404184118,-4.821318157911301,-5.298129358291626,4.996146397590637,8.733656868869693
9.345449041808024,-5.811457589864731,-4.561436904072762,6.2696477472782135,9.689593842034045
9.355475041782483,-7.146585668921471,-3.484133613109589,6.3149016880989075,10.153366785829627
9.365500041749328,-7.871885408163071,-2.667496857047081,6.796131044626236,10.736364214078211
9.375526041723788,-7.537715279459953,-2.503491813540459,7.776030832529068,11.11536227043954
9.385551041690633,-7.713871421813965,-2.447381932139397,6.36714539051056,10.297282702632788
9.395577041665092,-8.43664399445057,-2.12112133204937,4.500508332252503,9.794421516508669
9.405602041864768,-9.153714362382889,-2.0610622411966326,4.961513339281082,10.613909685221813
9.415628041839227,-9.121221385002137,-2.8433238011598587,3.865379090309143,10.30642155669278
9.425653041806072,-8.079652183055877,-4.2418427145481115,1.320198383331299,9.220462720789834
9.435679041780531,-6.085475656986237,-5.736070023179055,-1.3545952141284943,8.47174370933902
9.44570504175499,-3.3451754102110867,-7.878634264469147,-4.79153127193451,9.809273588205935
9.455730041721836,3.0523769634962084,-9.589281057715416,-5.908145978450776,11.669511782153789
9.465756041696295,8.903666371107102,-11.950352239608765,-5.897377746105194,16.027016496496238
9.47578104166314,10.660858755111695,-14.012626608610153,-4.237387136220932,18.109750512113127
9.48580704187043,9.881811994314194,-13.205397437810898,1.0604744195938112,16.52747215324011
9.495832041837275,6.318413525819778,-8.972756486535072,6.913999217748643,12.970585708939607
9.505858041811734,5.09498773097992,-6.455827771425247,6.965692112445832,10.777637904407971
9.51588304177858,8.879184079170228,-4.083717631101608,0.8853023636341095,9.813277733632953
9.525909041753039,11.771938487291337,-1.8397170621156693,-8.735544303059578,14.774059323284417
9.535934041719884,9.015204348564149,-0.46369764983654027,-7.916735306382179,12.00681568394185
9.545960041694343,4.933047924041748,1.0134715765714646,-1.562266094684601,5.272832427454141
9.555985041661188,0.9381667479872704,2.946333029866219,-0.27424091912806037,3.1042298967109168
9.566011041868478,0.6104151079058647,3.9954141497612,-2.007033383846283,4.512662610471251
9.576037041842937,1.177397390305996,4.714619920849801,-1.607501324415207,5.118394877378043
9.586062041809782,1.6104106065630914,5.272307469248772,-0.4771807444095612,5.533385024997137
9.596088041784242,2.7360510751605034,5.699759398698807,-0.17489029325544836,6.3248572555922005
9.606113041751087,1.7034322062134744,6.308945129513741,-1.4193162900209428,6.687221295837253
9.616139041725546,0.4381552577018738,6.675375516414642,-1.7307362182438375,6.909997552252883
9.626164041692391,1.128650322854519,6.820968262553215,-2.403969279527664,7.319735506625263
9.63619004166685,2.978546802699566,7.1273296183347705,-3.8923417711257935,8.649907109762195
9.646215041866526,4.839731624722481,7.21451978981495,-5.325204890370369,10.18970584076866
9.656241041840985,6.425125796198845,6.566299216747284,-5.700403177142143,10.811712319647063
9.66626604180783,7.837923610210419,6.395707284808159,-5.231485133171081,11.388878561607028
9.67629204178229,8.583017343878746,6.707229977846146,-4.6182771027088165,11.831466692614486
9.686317041749135,8.928400093317032,6.860632849931717,-4.288690606355667,12.048961716469563
9.696343041723594,9.24337439775467,7.017854538559914,-3.925725864171982,12.251594840757726
9.706369041698053,8.863974301815034,7.001026836633683,-3.9866035652160647,11.97820625873072
9.716394041664898,8.09883689761162,6.41711101770401,-3.6633729922771456,10.963155320809753
9.726420041872188,7.019214016199112,5.806823086738587,-2.0006505632400513,9.326905298226151
9.736445041839033,5.549546767473221,5.0962296795845035,0.992576551437378,7.599620680133566
9.746471041813493,3.131980372667313,3.10179879963398,4.286109645366669,6.148267458421866
9.756496041780338,0.07747005254030229,-2.0388591939210894,12.275518240928651,12.443926088861554
9.766522041754797,-8.873064383268357,-10.623037794828415,19.037335485219955,23.53721194017663
9.776546875014901,-24.519723472595217,-17.852882552146912,4.015309301018715,30.595178760323265
9.78657287498936,-31.36953780412674,-22.51954068660736,-7.935081530213356,39.42262210547941
9.796597875189036,-16.63106240272522,-18.821883130073548,3.9798190408945087,25.430188375310042
9.806623875163496,-6.755135046243668,-7.924925501346588,11.402113791704178,15.441647988924418
9.81664887513034,-3.078483319580555,-0.8003189313411713,9.286438556313515,9.816084300829177
9.8266748751048,1.3493166401982308,3.875507052540779,4.571685318946838,6.1433310968303845
9.83670087507926,6.218940693140031,6.833362605571748,1.4926432979106903,9.359383091786391
9.846725875046104,9.305632041692734,8.718198537826538,-1.2940081197023392,12.817028924606312
9.856751875020564,9.988610218763352,9.728053026795388,-3.4073006147146225,14.353293952036278
9.866776874987409,10.445944343805314,8.706518139839172,-3.7010530346632007,14.093225497330852
9.876802875194699,10.889442787170411,5.313001166582108,-2.2329358828067782,12.32046867078873
9.886827875161543,10.580844286680222,0.718716943860054,-2.0927231597900393,10.809732193162171
9.896853875136003,10.105024774074556,-4.3955280071496965,-1.0689377526193857,11.071351320650649
9.906878875102848,10.205574663877488,-13.804133609533311,1.5323517394065858,17.235311450133057
9.916904875077307,5.7500466227531435,-21.874807977676394,-2.0175922858715056,22.707728615078565
9.926929875044152,-0.5877127084136009,-20.784919724464416,-3.7909943211078647,21.135986660734172
9.936955875018612,-0.8142202480137348,-9.57359180867672,-3.19203946352005,10.124511379227489
9.946980875218287,1.6755503430962564,-0.27907415449619294,-3.8981234979629518,4.252142770572111
9.957006875192747,2.154600149989128,4.6730731147527695,-3.212616984844208,6.066368108965019
9.967032875167206,3.3918563640117645,8.04235747218132,-2.3341441690921783,9.035066812511396
9.97705787513405,4.090232014060021,9.1096111536026,-1.5112912380695345,10.09945614896902
9.98708387510851,3.3373974439501763,7.465333181619645,-0.9748828768730164,8.235278855940257
9.997108875075355,2.460830528140068,4.2099204254150395,-0.7167796882241965,4.928781796550101
10.007134875049815,1.5678810296952725,1.0684365731477738,-0.8846720337867737,2.093430734818445
10.01715987501666,0.7742244158685208,-1.2142825037240983,-1.9125809705257417,2.3941327059698687
10.027185874991119,0.7956727337837219,-2.860131622552872,-2.7333078539371494,4.035395869305549
10.037210875190794,1.032451346218586,-2.897598241567612,-3.3723067831993103,4.564480736278375
10.047236875165254,1.1137978103756905,-1.4396663546562196,-4.566035739183426,4.915472220105322
10.057261875132099,-0.21235238067805767,0.22842966556549074,-5.2033740592002875,5.212712848953842
10.067287875106558,-0.49210927069187166,1.490871006846428,-5.79528302192688,6.004179644013837
10.077312875073403,-0.6013527276366949,2.358168624043465,-5.067049734592438,5.621172242094388
10.087338875047863,-0.9237386702746153,2.3028200501203537,-2.866199862957001,3.7909596369008933
10.097364875022322,-1.444744661450386,2.280205943584442,-1.504233502596617,3.0902014031906226
10.107389874989167,-0.2901657378673554,2.5176356434822083,-0.8802328276634217,2.682814794140759
10.117415875196457,0.22285588033497333,2.4790849506855013,1.5151318354904653,2.9139580324760885
10.127440875163302,0.4833920223265887,1.4856652307510376,2.9943863251805305,3.377457400107318
10.137466875137761,-0.08881244491785766,0.14387015640735626,4.57632946997881,4.5794516800675495
10.147491875104606,-0.9418864542245865,-0.23105097234249117,4.689174884855747,4.788412654025766
10.157517875079066,-1.6630603981018066,-0.4995229554176331,3.9367946434021,4.30274855587021
10.16754287504591,-2.579486613571644,-0.36650873959064484,3.116746914088726,4.062288908026265
10.17756887502037,-3.9561088737845425,-0.14644059240818025,2.965593173503876,4.946411339453529
10.187593874987215,-4.673842900693417,0.2409994250535965,3.341251051425934,5.750377967742063
10.197619875194505,-4.981644133329392,0.6776390844583512,3.288351291418076,6.007430999661305
10.20764487516135,-5.252043943405152,1.0202245259284974,2.6248314785957336,5.959409698769822
10.21767087513581,-5.401420422792435,1.1139811205863954,2.1252629148960116,5.910417834486359
10.227696875110269,-5.780417645573617,0.8421317857503892,1.4249556371569634,6.012729219721722
10.237721875077114,-6.087871261239052,0.5030236834287644,0.5018163795769215,6.129194808318815
10.247747875051573,-6.520555863976479,-0.15264565765857696,-0.49336452171206474,6.540975311322023
10.257772875018418,-6.799608968496323,-1.0903373193740846,-1.6590831220149995,7.083507210431181
10.267798874992877,-6.988349488377572,-1.684952958226204,-2.0067021390795707,7.463440796183006
10.277823875192553,-7.041525821685791,-2.2149171030521395,-0.6708107060194016,7.412080050442715
10.287849875167012,-6.922061358690263,-3.050028721690178,1.8378537006676199,7.784299254375154
10.297874875133857,-6.587796505093575,-3.879775519967079,4.464868968129158,8.853630655297389
10.307900875108317,-6.256142433285714,-4.393475634455681,6.576403205394745,10.084196815614028
10.317925875075161,-6.783369496464729,-4.361228824853898,7.292506443858147,10.872675329559751
10.32795187504962,-8.286091639995576,-3.8136856108903885,6.771742308139801,11.360458023027396
10.337976875016466,-9.217066605091096,-2.9599389159679412,6.940938509702683,11.911850510496707
10.348002874990925,-8.465791779756547,-2.527214552164078,7.5376609003543855,11.613473885947938
10.3580278751906,-7.792455661296845,-2.2112222474813463,5.825494415760041,9.977387145394585
10.36805387516506,-8.063703317642211,-1.4983057415485384,3.8919847986102107,9.07831355278745
10.37807987513952,-8.479997005462646,-1.0704795902967454,3.809156942367554,9.357668105756064
10.388104875106364,-8.28092211663723,-1.6497626602649689,2.8713875126838686,8.918534306993108
10.398130875080824,-7.794577031135559,-3.356412881612778,-0.4142156604677439,8.496617747053174
10.408155875047669,-6.262020639181137,-5.806232517957688,-4.218328721523285,9.524680348491916
10.418181875022128,-3.4344398814439776,-8.309583998322488,-5.887433971166611,10.74739234834556
10.428206874988973,1.891504389345646,-10.838281989097595,-4.558975811004639,11.909257146247057
10.438232875196263,6.913059570193291,-14.119028391838075,-4.400627363920212,16.32491582050744
10.448257875163108,8.928532240390778,-15.445569834709168,-3.904466557502747,18.262781129533167
10.458283875137568,8.089781899452209,-13.14085236310959,-0.460192244052887,15.438210677122978
10.468308875104412,5.713422002792359,-8.560366984605789,3.741332749128342,10.950828490704295
10.478334875078872,5.700861014127732,-6.174329946041108,3.6770507991313934,9.172942230515478
10.488359875045717,8.433661914467812,-3.716541724205017,-0.3965850261971355,9.224782672686954
10.498385875020176,9.107907859683037,-2.039970164895058,-9.174287205934524,13.087513499175918
10.508411874994636,5.74216691493988,-1.205849649310112,-4.95472472190857,7.679573642179848
10.518436875194311,4.009352742433548,-0.31682553291320803,1.3447993737459183,4.240727907705535
10.52846287516877,2.541219803094864,2.0747301077842715,-1.4840958380699159,3.6006726544306242
10.538487875135615,2.342379095256329,4.339977704286576,-3.3400968110561373,5.956374149331606
10.548513875110075,2.475043939948082,5.866709684729576,-2.0879933470487595,6.701032849262374
10.55853887507692,2.309305781722069,5.9961237698793415,-0.6416688410192728,6.457409105728244
10.56856487505138,1.9007277873158457,5.888348475694657,-1.087566981688142,6.282373423503926
10.578589875018224,0.7762284028530121,5.52246480345726,-2.9225553274154663,6.296147844565318
10.588615874992684,0.42555684685707096,5.7555359888076785,-3.072605406045914,6.538210544914403
10.598640875192359,1.822702249288559,6.7021393918991095,-3.1687991201877597,7.634278209635149
10.608666875166818,4.002896246910096,7.9367257672548295,-3.7154202282428743,9.634269133700284
10.618691875133663,6.662691736221314,8.652039046883583,-4.387078195810318,11.76841943239891
10.628717875108123,8.334158091545106,7.681626951098442,-4.920667029619217,12.356316106635113
10.638742875074968,8.877020609378816,6.480807076692582,-5.293376741409302,12.199270166331175
10.648768875049427,9.570843617320062,6.4971699249744415,-5.026574138402939,12.6127202517954
10.658794875023887,10.39338840007782,7.111285443305969,-4.533725779652595,13.384602068650906
10.668819874990731,10.409547765254976,7.529030410051346,-3.8204081547260285,13.403003471658877
10.678845875198022,9.680363720655441,7.144709297418594,-3.5107337665557865,12.53321843296592
10.688870875164866,8.371911224126816,6.232783391475678,-2.5752751564979555,10.750280390826612
10.698896875139326,7.014304693937302,5.604506501555443,-0.9063688583672047,9.023994014447593
10.70892187510617,5.431894941329956,4.592052340507507,1.5087605631351473,7.271092475582905
10.71894787508063,2.7187947723269463,0.9937319612503053,7.697654753923416,8.223942906869095
10.728972875047475,-2.741233462393284,-7.6455946540832525,22.153203270435334,23.595209124971063
10.738998875021935,-17.04426525235176,-16.48045917749405,10.504104259014131,25.931616204506273
10.74902387498878,-26.774697511196138,-20.405716094970703,-6.938864502310754,34.3718710102611
10.75904987519607,-18.372606468200683,-18.695223083496096,-0.04938456013798714,26.211952872913436
10.769074875162914,-9.190650638937951,-11.931458716392518,8.631237577199936,17.358745011724142
10.779100875137374,-4.735926005244255,-2.7890440982580187,9.387007741928102,10.877668705021073
10.789125875104219,-2.1179835699498653,3.8441022419929505,5.571388456821442,7.0924851629225145
10.799151875078678,1.0019440832734108,7.127324940562248,2.5081362569332124,7.6219026651952335
10.809176875045523,4.308034365177154,8.200799474716186,1.0937391563504935,9.32783669765862
10.819202875019982,6.092673579454423,8.302520561814308,-1.0728297324478626,10.353911466685211
10.829228874994442,6.435870639681816,8.011659590005875,-3.0637117910385134,10.723499905133583
10.839253875194117,7.165251150727272,6.490702319741249,-3.6060392886400225,10.318602618945473
10.849279875168577,7.864601531624794,2.997945817708969,-2.981023975610733,8.928949564216374
10.859304875135422,7.502951828241349,-2.3819165056943894,-2.8011893498897553,8.355505619108
10.869330875109881,7.274685884714127,-12.472081750631332,-3.8703854763507843,14.948369866016733
10.879355875076726,8.18435008764267,-25.710193190574646,-6.7511454910039905,27.813226811976904
10.889381875051185,5.6909909141063695,-27.43238765001297,-5.731679933667183,28.596772975757744
10.89940687501803,2.8188780543208125,-14.367974767684938,-1.5679870104789735,14.72560204796372
10.90943287499249,2.6032558375597,-2.0945211786031726,-0.5712279456853867,3.3897287928885738
10.919457875192165,2.9186058256030085,4.830680719614029,0.29099136471748355,5.651407979825441
10.929483875166625,3.4576387095451357,8.723106105923653,1.142272288799286,9.452652091487671
10.93950887513347,3.648356757760048,9.534022530913353,0.08225397029891611,10.20856789013458
10.949534875107929,3.2099000760912895,8.354796423912049,-1.0709421050548553,9.014044529282279
10.959559875074774,1.9340538467466832,5.680692797899247,-0.8229909253120423,6.057074294522562
10.969585875049233,0.761622789055109,2.821529474258423,0.0657835515215993,2.9232559454430076
10.979611875023693,0.6458990822732449,0.8096750611066819,-0.5975807253643871,1.1957683941242785
10.989636874990538,1.089699680507183,-0.6946422028541566,-2.6900805580616,2.9843770861847436
10.999662875197828,1.1236879371106625,-1.3367068272829057,-5.029709415435791,5.324231073670281
11.009687875164673,1.7459144206345083,-0.9681790441274644,-6.757236535549164,7.045979947674246
11.019713875139132,2.062673587650061,-0.33968112945556644,-7.695388373136521,7.9742716164112535
11.029738875105977,1.4177382726967336,0.7642182219028474,-8.34329728960991,8.497330225627902
11.039764875080436,1.1166474509239197,1.9475011271238327,-6.190562986135483,6.585038515841358
11.049789875047281,0.6365838830173016,2.280053915977478,-2.2267037741839886,3.2499376298395077
11.05981587502174,1.1939387979358436,2.651328136324883,0.3492610614001751,2.92865396192429
11.069840874988586,1.7422910472750666,3.0134906405210495,2.3163217096030713,4.181154170357906
11.079866875195876,1.0417984858900309,2.2902023434638976,4.831881737709046,5.447701532427826
11.08989187516272,-0.9780508252233268,0.5699585151672364,5.810747737884522,5.919985253280768
11.09991787513718,-1.7320821011066438,-0.3363107943534851,4.476990830898285,4.812136766065569
11.109942875104025,-2.685090836584568,-0.8437362617254258,2.56022237688303,3.8047788765121955
11.119968875078484,-3.1147182226181034,-0.33752409160137176,1.343339470177889,3.4088052233676276
11.12999387504533,-2.935615083575249,0.5726534968614578,1.8072261312603952,3.49454349463454
11.140019875019789,-3.320627044737339,0.7902716606855393,2.9537876451015475,4.51397327420957
11.150045874994248,-3.997181470692158,0.7987501233816148,3.7981264623999595,5.57146534527764
11.160070875193924,-4.429718723595142,0.803960577249527,2.875924074947834,5.342256065072632
11.170096875168383,-5.096791597008705,0.9312749272584916,1.7499586473405362,5.468721316805308
11.180121875135228,-5.675770611763001,1.1087969791889192,0.9351568937301636,5.858184120894637
11.190147875109687,-5.8699730157852175,1.1818696331977845,0.10564749240875244,5.988702733361702
11.200172875076532,-6.1669156765937805,0.9845880854129792,-0.37565056890249254,6.2563068986481225
11.210198875050992,-6.919419586658478,0.28331163167953494,-1.0609445357322693,7.006014288079782
11.220223875017837,-7.352541561126709,-0.4946715205907822,-2.0716799077391626,7.654830171957398
11.230249874992296,-7.863160192966461,-1.0439975506067276,-2.502531116008759,8.317564613065368
11.240274875191972,-8.091611493229866,-1.843354030251503,-1.6840774838626387,8.468072248739215
11.250300875166431,-7.003227143883706,-2.9457015305757523,1.2259311805665494,7.6957946435407925
11.260325875133276,-5.41364344239235,-4.376519293785096,5.553925162553788,8.905478154567502
11.270351875107735,-5.250172834396363,-5.452445565462113,7.798294690847397,10.867698814406834
11.28037687507458,-6.989332405328751,-5.481652992367745,6.919355267286301,11.25951883145259
11.29040287504904,-9.115314527750016,-4.600305685400963,5.430177614092827,11.564540641959704
11.3004288750235,-9.5457654941082,-3.595518393516541,6.049801794290543,11.859573901992585
11.310453874990344,-8.7937293612957,-2.966568489074707,6.272518730163575,11.201548817031417
11.320479875197634,-9.01528153181076,-2.766559799909592,4.220875768661499,10.33174459995783
11.330504875164479,-9.078652485609055,-2.946009678840637,3.4592864549160005,10.152219794677592
11.340530875138938,-8.809051989912987,-4.024084802269936,3.119649764299393,10.174717200430836
11.350555875105783,-7.677466072440148,-5.301717794537544,1.9599225135147573,9.533781680181667
11.360581875080243,-5.511522908806801,-6.282456657886505,1.040901449918747,8.421972587284264
11.370606875047088,-2.5937348163127902,-7.359291586875916,-0.4163743793964386,7.814089875464291
11.380632875021547,2.3647106350958347,-8.19065806388855,-1.9689399433135988,8.749597728333208
11.390657874988392,7.348789987564087,-10.103182901144029,-2.1608970165252686,12.678662978852268
11.400683875195682,9.830777496099472,-12.997415485382081,-2.171445393562317,16.44056478879873
11.410708875162527,11.209444527626038,-14.020101689100267,0.2107979714870453,17.951583043715686
11.420734875136986,9.227315604686737,-11.010395951271057,3.6134056109189987,14.813131754672352
11.430759875103831,6.621391682624817,-7.151397342681885,3.5683072060346603,10.378734416309607
11.44078587507829,8.396226870417596,-4.177816872596741,-0.19893630981445312,9.380317432573328
11.450810875045136,11.74906301021576,-1.8551636517047883,-6.395299733877183,13.504886985041985
11.460836875019595,9.661235724091531,-0.3142369705438614,-9.262142790555954,13.387513199349856
11.47086187521927,3.225215103328228,0.6522884809970856,-4.213588968515396,5.3461972205271895
11.48088787519373,0.23796735137701036,1.774147555232048,-1.9171593403816225,2.622923549108845
11.49091387516819,-0.7913952031731606,2.998553928136826,-2.821448782682419,4.192637029466107
11.500938875135034,-0.3950197631120682,3.9289301383495334,-1.7966950035095215,4.338276798559132
11.510964875109494,0.8999627950787544,4.633365842700004,-1.1219848624616862,4.851480402559435
11.520989875076339,1.285176485180855,5.291897395849229,-0.9273123423010111,5.524107604531383
11.531015875050798,1.4401864644885063,6.15975166797638,-1.063247242346406,6.41460617356911
11.541040875017643,0.434118632376194,6.5832152116298674,-1.2313886792957784,6.711445417278521
11.551066874992102,0.8764686825871468,6.712855584025383,-1.4807208251953126,6.929874573591062
11.561091875191778,2.3731521141529086,7.252148961424828,-3.102187639474869,8.23705552161173
11.571117875166237,4.33567298412323,7.781167026758195,-4.77738627254963,10.107820740432166
11.581142875133082,6.597982939481736,7.567211558818817,-5.760414905548096,11.574906026818267
11.591168875107542,8.236314293146133,7.002275217175484,-6.311138420104981,12.517955085008031
11.601193875074387,9.203375934362413,6.67593684911728,-5.9294286739826205,12.822963222377675
11.611219875048846,9.937514909505845,6.579755414128304,-5.5292288625240325,13.138483767184496
11.621244875015691,10.378057000637055,6.7679486346244815,-5.332183542251587,13.488564681152916
11.63127087499015,9.799689019918443,6.902376707196236,-4.99793096780777,12.986763378691673
11.641295875189826,8.582571201324463,6.343143739700317,-4.014699436426163,11.402359952796786
11.651321875164285,7.266686308979988,5.66381773352623,-2.6258483093976976,9.580116939562384
11.66134687513113,5.6961423110961915,5.282613186836243,-0.6078100271522999,7.792398368865859
11.67137287510559,3.2851291832327845,4.561764932870865,1.6636006808280945,5.86253701724345
11.681398875080049,0.8856371167302132,1.2966194862127305,7.550134765505791,7.711686597097677
11.691423875046894,-5.369659516811371,-6.31954262316227,17.60453025341034,19.459942130841178
11.701449875021353,-16.776982008218766,-13.985042953491211,10.584770107269287,24.27109206316914
11.711474874988198,-25.763777074813845,-19.105641489028933,-1.9566385710239411,32.13450140216316
11.721500875195488,-20.91453612327576,-19.669670927524567,0.613282801732421,28.717414428249153
11.731525875162333,-11.660616856813432,-14.307461932897569,8.168379002809525,20.18404984080881
11.741551875136793,-6.637655128240586,-5.1368298214673995,9.431576973795892,12.625376447013855
11.751576875103638,-2.2228120136260987,1.6296932619810105,7.065445611476899,7.584017079675189
11.761602875078097,2.4473728689551355,5.481080549955369,3.572147072553635,6.9851351212950945
11.771627875044942,6.063940361738205,7.013733420968056,1.0915745171159505,9.335703730171543
11.781654166756198,7.948438909649849,6.947621877193451,-1.3394187659025194,10.64148361269915
11.791679166723043,8.319496198296548,6.262659739851952,-3.09979495882988,10.864789588271849
11.801705166697502,8.519028924107552,4.431778990030289,-3.6255479389429093,10.264458908477744
11.811730166664347,8.864019910097122,1.2598118484020233,-3.7570395398139955,9.70944493592183
11.821756166871637,8.678637446165085,-4.48986581504345,-3.409632484316826,10.349069360922417
11.831781166838482,9.127108361721039,-13.709482390880586,-4.044192207455636,16.959053779126588
11.841807166812941,8.95443306684494,-21.69252453804016,-6.16854821920395,24.265170090372845
11.8518331667874,5.684411627054215,-17.388948090076447,-4.967154732942581,18.956810843761573
11.861858166754246,4.379080374240876,-5.867596122622491,-2.7184383845329285,7.8099255075050555
11.871884166728705,3.8272657692432404,1.5226974016427994,-2.5689940774440765,4.854513489046408
11.88190916669555,2.925995244383812,5.482723617553711,-1.7626010584831238,6.459757652420389
11.89193516667001,3.165118590295315,7.472930468916894,-0.4078210357949138,8.125822018795162
11.901960166869685,4.025536665916443,7.454608803391457,0.03433605629950762,8.472149480798912
11.911986166844144,3.7044031968712807,5.572134561538697,-0.0009167703241109848,6.691134990220421
11.92201116681099,2.989695981144905,3.045023505091667,0.9998950727283955,4.382948820451964
11.932037166785449,2.4785505151748657,0.7036597788333894,0.7730649860948324,2.689977548855613
11.942062166752294,1.7458812376856805,-1.3251240777969362,-0.6322512423992157,2.28118319106016
11.952088166726753,0.711455871462822,-1.6850377428531647,-2.2901731073856353,2.930940892217205
11.962113166693598,-0.6354230645298958,-0.8983866780996324,-4.72677218914032,4.853167668889447
11.972139166668057,-1.3549182727932931,-0.2822795981168747,-7.395641387701035,7.52402796598595
11.982164166867733,-1.3894066125154496,0.6120081818103791,-7.740621263980866,7.88810638251648
11.992190166842192,-0.10286480247974396,2.198803346157074,-6.5462268948555,6.906403107377256
12.002216166816652,-0.49768524862825875,2.587665991187096,-4.364752357006073,5.098506548651137
12.012241166783497,0.059705699756741525,2.207351975440979,-1.4842594139277936,2.6606378035914457
12.022267166757956,0.4955676063895226,2.271978911161423,0.6085770356655121,2.403714091485156
12.032292166724801,0.4449561907723546,2.567166822552681,2.55783291220665,3.6511423846913207
12.04231816669926,1.145021941959858,2.1976520293951034,4.490938779115677,5.1292573349013155
12.052343166666105,0.6423803740739823,0.7330332666635514,5.530592433214188,5.615820775038756
12.062369166873395,-0.5482343548536301,-0.5503247344493867,4.902385125160218,4.963546931034372
12.07239416684024,-1.7878966981172562,-0.9467402279376984,3.8495892691612243,4.348819288447769
12.0824201668147,-3.319314637184143,-0.6996848416328431,2.7997775396704676,4.398427310969103
12.092445166781545,-4.446225705742836,-0.25833700418472294,2.785091965198517,5.252846684299176
12.102471166756004,-4.642805587649345,0.07498410880565644,3.63907781124115,5.899504526445338
12.112496166722849,-4.978431088328362,0.4254030650854111,2.814234195649624,5.7346018150332
12.122522166697308,-5.1953376460075384,1.029865415096283,1.4553061947226524,5.492729025687751
12.132547166664153,-5.499792224764824,1.5191142278909684,0.8904658935964108,5.774803205358849
12.142573166871443,-5.864303555488586,1.5350063753128051,0.9252109260857105,6.132072734476933
12.152598166838288,-6.231379474997521,0.9671446716785431,0.8695531806349754,6.365656424229082
12.162624166812748,-6.484309558868408,-0.22049440920352936,0.39389899805188183,6.500003435413592
12.172649166779593,-6.62710031926632,-1.5997245275974274,-0.5352726857364178,6.8384277472173425
12.182675166754052,-6.78570662856102,-2.07497510612011,-1.3667647317051888,7.226297943743275
12.192700166720897,-6.944585418105126,-2.2950672268867494,-1.3001146593689918,7.428653870843231
12.202726166695356,-6.7181531614065175,-2.889498678445816,0.4686145734786988,7.32819105450541
12.212752166669816,-6.201785547137261,-3.681917436718941,3.441260366141796,7.991303578958439
12.222777166869491,-5.751816574931145,-4.678754269480706,6.197997136116028,9.663814149968896
12.23280316684395,-6.387918208837509,-5.159219394922257,7.097312936782838,10.853335649944897
12.242828166810796,-7.829420004487038,-4.6537574225664144,6.517059229016304,11.199523951903508
12.252854166785255,-8.01074742436409,-3.7071680527925492,6.60622166633606,11.025304257632511
12.2628791667521,-7.23084697008133,-3.1475772356987,7.226256905794144,10.696316152206823
12.27290516672656,-7.430390805602074,-3.018770091533661,6.417291111946106,10.271577561649256
12.282930166693404,-7.9659086358547215,-2.9212326872348786,5.8235543096065525,10.290922485603096
12.292956166667864,-8.710528160333634,-3.3692638921737674,5.180519632101059,10.68002919779041
12.30298116686754,-8.092815434932708,-4.234930136203766,3.2289973747730256,9.687864520558852
12.313007166841999,-6.40114051759243,-5.288470342755318,0.7645387224107981,8.338287471071716
12.323032166808844,-3.1337462317943574,-7.175896006822587,-3.0684527134895325,8.410068430217375
12.333058166783303,1.7834028205275536,-9.434466083049776,-5.99990282535553,11.322036469036455
12.343083166750148,7.648845121264458,-11.711322741508484,-5.538412499427796,15.0443984611776
12.353109166724607,10.243409657478333,-13.407726302146912,-4.489030247926713,17.45983844630309
12.363134166691452,10.212967883348465,-12.142553726434707,-1.9097228515148164,15.981031423386243
12.373160166665912,6.835381649136544,-7.9764745545387274,2.4875628286600113,10.795117296031915
12.383185166865587,4.646745441555977,-4.9153735452890395,4.51435103058815,8.132189466295094
12.393211166840047,6.880905146598816,-2.980975443720818,1.4660068917274476,7.640827601716254
12.403237166814506,10.539407408237459,-1.6524248975515365,-6.008065538406372,12.24362969354452
12.413262166781351,6.057796692252159,-1.0489647603034973,-6.795200167894364,9.163622272593484
12.42328816675581,2.8860035052895547,0.1770957899093628,0.3281714701652527,2.909995818756041
12.433313166722655,2.9579441383481027,1.5293556261062622,-1.0905571746826173,3.503951641781392
12.443339166697115,2.594049981236458,3.4805545324087146,-3.4389287889003755,5.538012854206057
12.45336416666396,3.0450071328878403,4.897842423319817,-1.7158513998985292,6.017065303745914
12.46339016687125,2.6514711007475853,5.453005144000054,0.1288007487729192,6.06482924174087
12.473415166838095,1.6335269889235497,5.874105243086815,0.11473932802677154,6.098088876344595
12.483441166812554,1.2964850002527237,5.892123438119889,-1.331229740381241,6.178200756498413
12.493466166779399,1.5839928862452508,6.037751852273941,-2.3732449387013914,6.67800662116958
12.503492166753858,1.3995515316724778,6.374959609508514,-3.122367550134659,7.235194097659415
12.513517166720703,2.7127250701189043,6.8683622843027115,-3.3480841076374057,8.108202326428328
12.523543166695163,4.782600819468499,7.197656419873238,-3.684144641160965,9.394277528044306
12.533568166662008,6.459389895200729,6.602696964740754,-4.834566779136658,10.425562860985005
12.543594166869298,7.691830342411995,6.0530136698484425,-5.388681678771973,11.173232242236562
12.553619166836143,8.351239562630655,6.326855735778809,-5.156332039833069,11.67733128068283
12.563645166810602,8.794222866296769,6.873259912133217,-4.753577579855919,12.131634574513994
12.573670166777447,9.117841694355011,7.433745937943459,-4.322103350758553,12.533004157337851
12.583696166751906,8.712147839069367,7.533915174007416,-3.747945950031281,12.112328292417445
12.593721166718751,7.718574922084809,6.8927603763341905,-2.919886658191681,10.752315217202524
12.60374716669321,6.547629057168961,6.166827383637429,-1.9405827015638353,9.20147094064164
12.61377316666767,4.717743211090565,5.756446985006333,-0.1621606855094433,7.444466333116465
12.623798166867346,2.3094887995719913,4.158915748000145,3.4989551353454593,5.90533705672017
12.633824166841805,-0.7481278538703919,-2.07919679582119,18.063819687366486,18.198470713199473
12.64384916680865,-12.839000380039217,-12.851783562898637,18.788565695285797,26.13462210157838
12.65387516678311,-27.17882431268692,-19.372187983989715,-4.208251630067825,33.640445004323375
12.663900166749954,-28.36708144426346,-21.849632205963136,-8.193353045582771,36.731849549551654
12.673926166724414,-15.4478490793705,-16.61109533071518,5.2543459922075275,23.28460180185487
12.683951166691259,-7.645249668359757,-6.580086366534234,10.331582161188127,14.439147102096625
12.693977166665718,-3.0720858809351923,0.4975009882450104,7.870314846038819,8.463278009667718
12.704002166865394,1.8265836310386658,4.603988261818886,3.9720890218019487,6.349063464264949
12.714028166839853,5.750276418328285,6.446364052891732,1.1457174682617188,8.714009232648145
12.724053166806698,7.952782221436501,6.552723151445389,-0.37387564659118655,10.311387334408444
12.734079166781157,9.744457975029945,5.237618862390518,-1.9434618705511093,11.232281897151607
12.744104166748002,11.692812795639039,2.0166128772497176,-1.822026311159134,12.004514919358698
12.754130166722462,12.897149770259858,-3.0577043616771697,-0.10827521285042167,13.255102854435016
12.764155166689306,16.879873123168945,-11.240882667303087,4.4988898229599,20.773241668875094
12.774181166663766,16.11679978609085,-16.87120638012886,1.9547429037094117,23.413881777386703
12.784206625074148,9.367376884818077,-15.014693191051483,-5.363567887544632,18.492069159721737
12.794232625048608,4.787659830451012,-6.558845770955086,-6.684469690918923,10.517712657612554
12.804258625023067,3.7856052348017695,0.667705249786377,-6.103769255876541,7.213365124775989
12.814283624989912,1.6394271218776704,4.209484223127365,-6.017417575120926,7.524413132336667
12.824309625197202,0.4389757682383061,5.979063348770142,-4.9136293208599096,7.751493492000174
12.834334625164047,1.5443711297214031,6.0788829213380815,-1.567893455028534,6.464997265581331
