Time (s),Linear Acceleration x (m/s^2),Linear Acceleration y (m/s^2),Linear Acceleration z (m/s^2),Absolute acceleration (m/s^2)
0.006076291669160128,-1.2301486310362817,0.3683196222782135,-1.971817358136177,2.3530806812437897
0.016102291643619537,-1.0495962595939636,-0.1413125842809677,-2.035163753628731,2.2942347435940356
0.026128291618078947,-1.1013517194986344,-0.2907829114794731,-1.2717045003175735,1.7072675970037758
0.03615429159253836,-1.214003299176693,0.243759603202343,-0.2239869511127472,1.2583294118926265
0.046180291566997766,-1.3323939210176468,0.6752733010053635,0.6923448318243027,1.6463927107374114
0.056206291541457176,-1.3768432849645615,0.5902626791596413,1.6413643044233324,2.2222025653832307
0.06623329152353108,-1.2663618993759156,0.2068288815021515,1.7861945736408233,2.199304822283244
0.07625929149799049,-1.1689309144020081,-0.4813308057188988,0.8516533917188644,1.524267800225723
0.08628529170528054,-1.3355125334858895,-0.7796583795547486,-0.5723020792007446,1.6489361982094186
0.09631129167973995,-1.6093885132670402,-0.8438304018974304,-1.1006173092126847,2.124509259838809
0.10633729165419936,-1.6472995206713676,-0.9256230086088181,-1.3819648611545563,2.3409828154721875
0.11636329162865877,-1.4369874528050424,-0.8941737592220307,-1.6968678295612336,2.3966309858216044
0.12638929160311818,-1.1294952455163003,-0.779201712012291,-1.5496214908361436,2.0698409558485515
0.1364152915775776,-0.7054773858189584,-0.6558049964904785,-1.3681975919008256,1.673243313390807
0.146441291552037,-0.07010870039463044,-0.6740149801969528,-1.0728751945495607,1.2689651715002586
0.1564672915264964,0.462391674220562,-0.7770128068327904,-0.6702634066343308,1.125525653480952
0.16649329150095582,0.4355058842897415,-0.8742253983020782,-0.3696422624588013,1.0443039904563605
0.17652029148302972,0.1865688639879227,-0.680091699063778,-0.11510068595409394,0.7145493881127485
0.18654629169031978,0.10196988612413407,-0.5342349511384964,-0.07734287559986115,0.5493512183477671
0.1965722916647792,0.0011042466759681702,-0.7337694311141968,-0.20568984389305114,0.7620545316964668
0.2065982916392386,0.11356842309236527,-1.189592927992344,-0.554017835855484,1.3171806571230382
0.216624291613698,0.5568750777840614,-1.6316933020949365,-1.0257741183042526,2.006176818264369
0.22665029158815742,1.2603056457638742,-2.2072794699668887,-1.5842639046907425,2.995053438419349
0.23667629156261683,2.1394909447431565,-2.9636308479309084,-2.3295412409305576,4.334430954420882
0.24670229153707623,2.8690521347522737,-3.607103189527989,-3.427538412809372,5.743750790477713
0.25672891666181386,3.212797079086304,-4.251918344199658,-4.719025213122368,7.118291483158839
0.26675491663627326,3.1964503106474877,-5.104433323144913,-5.788148834109307,8.353155156267096
0.2767809166107327,3.279971061944962,-5.732093331813813,-6.766582725048066,9.455249648038896
0.2868079165928066,3.3328073796629907,-6.209555912017823,-7.397508988380433,10.217109615129951
0.296833916567266,3.152134555578232,-6.979720752239228,-7.767909049987793,10.908385079588617
0.3068599165417254,2.102096246480942,-7.8798820602893835,-9.527337409257889,12.541192448223756
0.3168859165161848,1.7700293612480165,-8.646141545176507,-11.1645110142231,14.231481783202202
0.3269119164906442,1.585305878520012,-9.424866124391556,-9.897640407085419,13.758800159139737
0.33693791669793427,1.0774278366565704,-9.222900956869125,-8.599880713820458,12.656251463026521
0.3469639166723937,1.0878645318746567,-8.900313577651978,-6.544584996700287,11.100928961095171
0.3569899166468531,1.0985871559381486,-8.659841571450233,-4.218050978779793,9.694931863679862
0.3670159166213125,1.17795843064785,-8.48638567328453,-1.8887290084362032,8.773461410832768
0.3770419165957719,1.1908141189813615,-8.672187967300415,0.3665297895669937,8.761234301900359
0.3870689165778458,1.2309657794237137,-8.441591908335687,2.0980119663476944,8.785067154434785
0.3970949165523052,0.8226728367805481,-7.227476634979248,3.087485985159874,7.902264157449189
0.40712091652676463,0.04978962600231171,-5.863887818455696,3.5289577835798265,6.8440632954831155
0.41714691650122404,-1.1123123252391816,-4.819019909799099,3.3979605647921565,6.000527276815076
0.4271729167085141,-2.459025492668152,-4.186535948216916,3.4703511410951617,5.9680169790144575
0.4371989166829735,-4.133230683803559,-4.64031408905983,3.8899034821987155,7.3312659092058645
0.4472249166574329,-5.064216173887253,-4.013638459146023,4.323102639913559,7.774625108120962
0.4572509166318923,-6.635210992097855,-3.212470219731331,4.910153735876084,8.85751655557328
0.46727691660635173,-7.458135259151459,-2.0790096849203112,4.985306829214096,9.20865609061384
0.47730291658081114,-7.067278128862381,-1.8075021198391916,4.9954406386613845,8.841261857806803
0.48732891655527055,-7.197196244001389,-1.7698656392097474,4.9966890192031865,8.93862177911946
0.49735591653734446,-7.794955930709839,-1.1402900826931,4.526806769371033,9.085900008343705
0.5073819165118039,-8.72225299715996,-0.4644390767812729,3.613685692548752,9.452625311892929
0.5174079164862633,-9.896992535591126,-0.2211224001646042,1.4632287333905698,10.00701727247539
0.5274339166935533,-10.752852998971939,-0.25679626286029816,-0.410099220648408,10.763734171229578
0.5374599166680127,-11.369436042308807,-0.5448213350772858,-1.5256638403236866,11.484274307111319
0.5474859166424721,-11.713444111347199,-0.49109010100364686,-2.187351720482111,11.926040834495502
0.5575119166169316,-9.74464684009552,-0.7948061764240265,-2.986252555847168,10.22289407279412
0.567537916591391,-9.010378641486168,-0.1551915353536606,-3.168747664690018,9.552589671815387
0.5775639165658504,-9.42182966530323,0.813931834101677,-1.0792270249128342,9.518302907759045
0.5875899165403098,-9.318871892094613,1.2248899376392366,0.33368886630982164,9.404949599019659
0.5976159165147692,-8.98493974506855,1.9407709819078447,2.0811415797472,9.424801562986922
0.6076429164968431,-8.603723503947258,3.3956973999738693,5.507579546570778,10.765140566958173
0.6176689167041332,-8.013663430809975,4.275457187891007,8.654860328435898,12.546112666978706
0.6276949166785926,-6.323106501102448,3.7664588195085527,3.1142153620719912,7.991634700404103
0.637720916653052,-6.663818494677544,2.783915505409241,-0.01660609245300293,7.221976061547909
0.6477469166275114,-7.360570957660675,2.1738053297996522,-0.8288662075996399,7.719485321232483
0.6577729166019708,-6.785466892719269,2.0879261040687562,-1.7661280989646913,7.315818807911638
0.6677989165764302,-4.474328593611718,1.9539804267883303,-6.207079031467438,7.89718215408294
0.6778249165508896,-3.6358220815658573,2.086233335137367,-5.057629870176315,6.568956663058446
0.687850916525349,-1.3512488526105881,4.892912635803223,13.451189825534822,14.377098985743118
0.6978769164998084,1.196262554526329,8.938336851596834,14.918775465488435,17.432577869082802
0.707903916714713,-0.648926916718483,8.969346390366555,7.86116395354271,11.944378573961165
0.7179299166891724,-3.821680508852005,5.9984193867445,5.223317742347717,8.82435976649502
0.7279559166636318,-3.497149515151978,3.869701352119446,3.665535292625427,6.3750131189986865
0.7379819166380912,-0.4754780352115631,2.5914953327178956,0.660286375656724,2.716230019594286
0.7480079166125506,-0.688608461022377,2.4523994278907777,0.3680156036093831,2.573689967927489
0.75803391658701,-1.563314500451088,3.7928835564851764,1.2787310993671417,4.297100315895007
0.7680599165614694,-2.207337357401848,5.333045421838761,2.23322473526001,6.188780525996562
0.7780859165359288,-2.9635250133275988,6.605465036630631,2.8904190301895145,7.795458358868306
0.7881119165103883,-3.689391347765923,7.503205597400665,3.3158332049846653,8.994690244645094
0.7981379164848477,-3.8497886592149735,7.899190735816956,3.1610164761543276,9.338635455137746
0.8081639166921377,-4.6517184984684,8.023414832353593,2.488929907679558,9.602522723033074
0.8181909166742116,-5.634193400144578,7.601400813460351,0.7075224494934083,9.488204130057781
0.828216916648671,-3.6103621351718904,5.9125261276960375,-0.6272518730163574,6.956013576034319
0.8382429166231304,-1.8109750735759735,4.597092640399933,-0.7226679074764252,4.993509824364931
0.8482689165975899,-0.4686566734313965,3.9759663105010987,-1.9988911360502244,4.474764010936404
0.8582949165720493,0.9892547482252122,3.1875505560636523,-3.385222113132477,4.753822909994538
0.8683209165465087,2.6458574813604354,2.7139813444018364,-4.187743690609932,5.648314241229456
0.8783469165209681,4.615993764996529,1.6955273553729058,-4.925265864729882,6.959917764570071
0.8883729164954275,8.270633940696717,-1.4738839682936669,-4.89374703347683,9.72237006910665
0.8983989167027175,11.986986215114595,-4.847088883817196,-3.574590039253235,13.41490973199969
0.908424916677177,11.786963492631912,-4.679308000802994,0.5398624576628208,12.693300721885153
0.9184509166516364,7.736389049291611,-4.041054591536522,2.6508293688297275,9.121882156464627
0.9284779166337103,5.720024093985558,-4.26479420542717,2.141536300778389,7.449384067020041
0.9385039166081697,5.184441359639168,-4.347391096651554,2.474291988015175,7.204190613853753
0.9485299165826291,3.6814157456159595,-5.543713585138321,3.2654910171031952,7.412760200417787
0.9585559165570885,2.800389450788498,-5.9631717860698705,3.581228967905045,7.498453156940401
0.9685819165315479,2.164651513695717,-5.309205154180527,3.483216184973717,6.708663841346136
0.9786079165060073,0.5992255836725235,-4.832845358848572,1.1410291707515716,5.001741010006204
0.9886339167132974,-0.6825150775909424,-6.054773681759834,-2.8317889988422396,6.719013328044114
0.9986599166877568,-4.989712121486664,-9.68912109553814,-3.4084010607004167,11.41899699841877
1.0086859166622162,-6.905171091556549,-10.612075434923172,-4.463138777017593,13.424497777685621
1.0187119166366756,-5.315776839852333,-9.464673968553544,-3.5871481043100357,11.432636103033309
1.028737916611135,-3.3545651614665988,-8.256703534126283,-2.8442956084012985,9.355013531842154
1.038764916593209,-1.9979514884948733,-6.358661665320397,-2.086525257378817,6.984123135660896
1.0487909165676683,-3.179670263528824,-4.002869349718094,0.5535659922659397,5.141955009864963
1.0588169165421277,-3.08519972383976,-2.3657232266664505,-1.691984235048294,4.240037072104679
1.0688429165165871,-1.5719982004165651,-0.8480181777477265,-5.112442254424096,5.415475877217479
1.0788689164910465,-0.009813966751098633,0.8920863032341004,-5.935064220428467,6.001741546165699
1.0888949166983366,0.7441850763559342,2.7999468165636063,-5.301101498007775,6.041124952824252
1.098920916672796,1.0581700319051743,4.009121777415276,-3.6711252307891846,5.5380449350564644
1.1089469166472554,1.09045718729496,4.504120742082596,-2.1475799828767776,5.107670733263346
1.1189729166217148,1.150908626317978,4.764839901924134,-1.0663824462890625,5.016518860609912
1.1289989165961742,1.3931570166349412,5.106430732011796,-1.5177886641025544,5.506378457998679
1.1390249165706336,0.7759240552783013,5.060121368765831,-3.808345933556557,6.380469038858889
1.1490519165527076,0.4897347164154053,4.639826431274415,-5.2134640145301825,6.996287332265329
1.159077916527167,0.575240889787674,4.36115222632885,-3.703183175325394,5.75014055936982
1.1691039165016264,0.5396866026520729,4.1575936925411225,-0.9714973390102387,4.303562944938047
1.1791299167089164,0.9326230028271676,3.749124748706818,0.6550215426832438,3.918516973058489
1.1891559166833758,1.4052876502275469,3.423208549618721,0.8947200353443623,3.8070610837904066
1.1991819166578352,1.5528137782216074,2.9029998993873596,1.5361383962631225,3.632954750358408
1.2092079166322947,1.1818974074721338,1.938222180604935,2.1132517106831075,3.101518901422879
1.219233916606754,0.7330247882008553,1.2663934743404388,1.1528944869339466,1.862858950637875
1.2292599165812135,0.697173462510109,1.4715126299858095,-0.8027478647232056,1.8154350418987053
1.2392859165556729,0.08080764323472978,1.5351870542764665,-1.5985517223179342,2.2178135123920675
1.2493119165301323,-0.6189394712448121,0.8917892646789551,-1.3165694551169873,1.7063790000490746
1.259339083218947,-1.0881808662414552,0.2828532099723816,-0.8411767892539501,1.404180161811606
1.2693650831934065,-0.7707606714963914,-0.1426802480220795,-0.17574961468577385,0.803316620619422
1.2793910831678659,0.2503040993213654,-0.7934964001178741,1.2175234691798689,1.4746701587612359
1.289417083375156,0.9256978529691696,-2.967324534058571,2.2797709107398987,3.854774547346897
1.2994430833496153,0.7738763603568077,-6.430104115605355,2.0439866173267367,6.791391967075293
1.3094690833240747,0.2577821034193039,-9.157339636087418,1.060389050245285,9.222133471240861
1.3194950832985342,-0.4230530691146851,-10.105979039669037,-0.15898930191993715,10.11607947021188
1.3295210832729936,-0.22325049430131913,-8.409754988551141,-0.46293429583311085,8.425445264965234
1.339547083247453,-0.513934295475483,-5.345402927398682,0.21785687640309334,5.374469511952263
1.3495730832219124,-2.6938572746515277,-2.093993175029755,1.2578976161777973,3.6364791826779284
1.3595990831963718,-5.142400463819504,0.5630435979366303,2.4130969293415547,5.708269213506501
1.3696260831784457,-6.137755612134934,1.7275896853208543,3.5700619554519655,7.307663952378106
1.379652083152905,-6.713607535958291,2.291506857275963,3.9783016884326936,8.133290487127896
1.3896780833601952,-7.530678155422211,2.3586516040563583,3.5751385080814364,8.663484646597906
1.3997040833346546,-7.8059247225523,2.1918089067935944,2.6210471606254577,8.520937464638248
1.409730083309114,-7.489845879077912,2.037464632987976,1.5571499271690847,7.9166766587185995
1.4197560832835734,-6.448967818021774,0.28088971495628356,1.1740954676270485,6.560989644630689
1.4297820832580328,-5.423430511951447,-1.44514519572258,-0.08074171587824822,5.613248825713052
1.4398080832324922,-6.0321478807926185,0.8229084795713425,1.3683350014686586,6.239898003793454
1.4498340832069516,-6.212399997711182,2.6223224383592605,2.8383402192592624,7.316191898969645
1.459860083181411,-7.222459723949433,0.9145980834960938,1.2431616094708444,7.385517240225534
1.4698860831558704,-7.585473582744599,0.14544656574726106,-0.29057723566889765,7.592430395327495
1.479913083370775,-7.511554251909256,-0.4963514256477356,0.7268299555778504,7.562942139236811
1.4899390833452344,-7.050434054732323,-0.6247697299718857,2.261885447502136,7.430685254620891
1.4999650833196938,-6.742556515932083,-0.8691874372959137,4.53229964375496,8.170636158370568
1.5099910832941532,-6.123179672956467,-1.4201746612787247,5.645710076093674,8.448921093201843
1.5200170832686126,-4.94561943769455,-2.9392444503307344,4.306256811618805,7.186247789278876
1.530043083243072,-2.6154917210340503,-5.748557336926461,0.256437828540802,6.320796528811493
1.5400690832175314,0.9462777131795884,-7.538341516256333,-2.5291967582702637,8.007425963954898
1.5500950831919909,3.011684435606003,-8.091206281185151,-2.66030945956707,9.034108071360643
1.5601210831664503,3.835893335938454,-8.322222754955293,-0.7049017274379731,9.190775577345894
1.5701470833737403,4.1280284160375595,-8.074766834378243,2.0334429180622102,9.293942550618965
1.5801730833481997,3.8218570947647095,-7.448061091303826,3.4904328185319904,9.069913281464297
1.5902000833302736,3.3728160756826404,-6.52795726954937,2.679454997777939,7.8210992500135745
1.600226083304733,2.6401470905542377,-4.860578702688217,0.4854434448480606,5.5525901454127
1.6102520832791924,1.726028478741646,-3.764525145292282,-0.9557825814932586,4.250216961762187
1.6202780832536519,1.3795084458589555,-3.3630605810880665,-1.844133610278368,4.076033463653473
1.6303040832281113,1.9385081094503405,-2.3019365358352664,-2.983765150308609,4.237874464588841
1.6403300832025707,3.1000405418872834,-0.745489005446434,-2.4159092938899995,4.000327853425315
1.65035608317703,4.084785332679749,0.6553594386577607,-1.9918448026478293,4.591558877521728
1.6603820831514895,3.96439700961113,1.5273248881101609,-2.1991859002411367,4.783887915438008
1.6704080833587795,3.857761922478676,2.4833569264411928,-2.0662621700763704,5.031781794764011
1.680434083333239,3.8587085866928104,3.432539536356926,-1.8686309587955476,5.492152700520936
1.6904600833076984,3.775109775066376,3.9528499281406404,-1.7790845055878164,5.748183891128207
1.7004870832897723,3.5038995409011844,4.2375771707296375,-2.2132509389519694,5.92729719091158
1.7105130832642317,3.1225564152002336,4.487788299322128,-2.087127666771412,5.852068376483943
1.720539083238691,3.01970506131649,4.517596235275269,-2.113042234182358,5.830286604083206
1.7305650832131505,3.036502357721329,4.030258877277374,-2.6895841294527054,5.71814620097494
1.74059108318761,3.409032559990883,3.3943121945858,-3.245266375243664,5.802983035963401
1.7506170831620693,4.115306044220924,2.923106719851494,-3.8428450906276703,6.3441118467286985
1.7606430833693594,5.346225045919419,2.6517538136243823,-4.29195861518383,7.350838678962983
1.7706690833438188,6.473541326522827,2.843297488689423,-3.9060295182466507,8.077632358110925
1.7806950833182782,7.369893173575401,2.9976037555933,-3.6626754194498066,8.758775307867086
1.7907210832927376,8.221886288523674,3.6328990584611893,-3.3030661019682888,9.576409315831993
1.800747083267197,8.558305841088295,3.8903987413644794,-2.5832478350400927,9.749511301273294
1.8107730832416564,8.54481456041336,3.807969957590103,-1.310067205131054,9.44620384872785
1.8208000832237303,7.496599997878075,3.9967905843257907,0.04873654246330261,8.495629567825572
1.8308260831981897,4.419389324784279,3.1437590038776397,1.3662475454807281,5.592929021005996
1.8408520831726491,-0.03432257115840912,1.2329362910985948,2.3851165406405928,2.6851612333780315
1.8508780833799392,-4.296290232539177,-1.1079274982213974,3.9707751524448396,5.9542143406834125
1.8609040833543986,-10.091758611202241,-3.799761636257172,9.062572057843209,14.085879193814877
1.870930083328858,-18.12877640604973,-5.113901134729385,10.269602844715118,21.453886859599887
1.8809560833033174,-21.766924510002138,-5.238929223418236,3.6998835915327075,22.692168706913193
1.8909820832777768,-17.050068029165267,-5.680054866671562,0.8597921311855317,17.991861648990398
1.9010080832522362,-8.242587186098099,-7.018480775356293,3.302826073765755,11.318479402641564
1.9110340832266957,-2.42530109167099,-8.771240969896317,4.615962190032006,10.204109979662766
1.921060083201155,1.9968954813480377,-5.8286250150203704,5.53005098104477,8.279005071994076
1.931087083183229,4.892719092965126,-0.6105381917953492,5.162216092944146,7.1386225559667835
1.9411130831576884,4.613026303052902,-0.2172761017084122,3.268662546873093,5.657859614939419
1.9511390833649784,3.1088306611776355,-5.978534175753594,1.163708766102791,6.838268572002445
1.9611650833394378,2.9267980670928955,-9.601386548280717,-3.3916856253147127,10.59510745372651
1.9711910833138973,3.053490858078003,-6.977923902869225,-12.422946428060532,14.572056353482221
1.9812170832883567,3.907801224589348,-4.838480320572853,-15.272831389904024,16.4906391897922
1.991243083262816,6.16777931034565,-4.425157018303872,-8.988585484027864,11.765125807293701
2.0012690832372755,7.4826491260528565,-2.3620570224523547,-1.1392720824480058,7.928889720432582
2.011295083211735,6.424404249787331,-1.7267418390512468,3.4743442046642303,7.505043304065576
2.0213210831861943,5.430566453933716,-2.73756638109684,2.6820242643356327,6.646696612302006
2.0313470831606537,4.880437016487122,-3.857773032188416,0.7539739000797272,6.266542498202606
2.0413740833755583,3.486865432262421,-3.2939897614717486,-0.8135722303390504,4.8652336907250575
2.0514000833500177,1.3698389053344728,-2.489191278219223,-2.3664933049678805,3.6976779752418136
2.061426083324477,-0.3983175927400589,-2.1158670240640642,-2.794029434323311,3.5273432846935946
2.0714520832989365,-0.8481748831272126,-1.010349748134613,-3.2837331604957583,3.538800745346225
2.081478083273396,-1.3370541518926622,1.2848104494810104,-4.488730870485306,4.856661046834211
2.0915040832478553,-2.077755457162857,3.5207079470157625,-3.8619456052780152,5.623795519582496
2.1015300832223147,-0.9240232104063034,5.057180804014206,-2.4445302450656894,5.692506012021442
2.111556083196774,0.1690757489204407,5.354710525274277,-1.4097286105155946,5.539751454141455
2.1215820831712335,0.9468027931451798,4.8229904615879065,0.028454926796257496,4.915127892998759
2.1316080833785236,2.0426783028244975,4.077114955186844,1.21210331954062,4.718537428470774
2.141634083352983,1.8322709253430367,2.9462394744157794,-0.4719439780712128,3.5014675356057317
2.1516600833274424,1.7442136117815972,2.460555124282837,-2.6252127170562747,3.9985440416422477
2.1616870833095163,1.381709045469761,2.424280752539635,-2.1375771510601043,3.515038140646745
2.1717130832839757,0.37495358079671864,2.2422136598825455,-0.08888345204293728,2.2750851747491194
2.181739083258435,-0.9954042649269105,1.5108234608173372,1.1515157134830953,2.144622488642055
2.1917650832328945,-1.9047547647356988,0.6098616689443589,1.7956249630451204,2.687804118037945
2.201791083207354,-2.247760621011257,0.10810449242591859,1.967994010001421,2.989500763347126
2.2118170831818134,-2.243895026743412,-0.052262413501739505,1.9587719276547433,2.9790239534916676
2.2218430831562728,-1.9172219055891038,0.1773542368412018,1.7875815331935883,2.627287974016358
2.231869083363563,-1.446584195494652,0.6824028110504151,1.5100855422019959,2.1996903818382973
2.2418950833380222,-1.2797090461850167,1.1391171312332153,1.6612897150218489,2.386446437445042
2.2519210833124816,-1.4556190207600594,1.4933473026752473,1.7009491860866548,2.691122634451051
2.261946166632697,-2.0283508703112605,1.7150362980365754,1.6799531503021718,3.1428966486166297
2.271973166614771,-2.267989648282528,1.5694482296705248,1.626571433544159,3.201980546279841
2.2819991665892303,-1.888648316860199,1.3766626060009004,1.201505606621504,2.6278904311791544
2.2920251665636897,-1.383688035607338,0.9879706996679306,0.41517555400729184,1.7501569712258656
2.302051166538149,-0.89248859167099,0.4075363129377365,-0.0426333649456501,0.9820587235152187
2.3120771665126085,-0.8584458097815514,-0.3072893089056015,0.13899182438850405,0.922320256172459
2.322103166487068,-1.6817124313116074,-0.5940554755926133,0.945287779569626,2.0185706814261515
2.332129166694358,-3.142420283854008,-0.23695139765739442,1.9359850358963013,3.698511763458824
2.3421551666688174,-4.93454598069191,0.20325681746006014,2.3634998229146005,5.4751428093086325
2.352181166643277,-6.479326561689377,0.859724303483963,1.863127705603838,6.796472866009478
2.362207166617736,-7.572667595744133,1.5220518690347673,0.8069790561497212,7.76615423518808
2.3722331665921956,-8.154829834699632,1.9477999198436737,0.3445540527999401,8.391298567918502
2.3822601665742695,-8.260117138624192,2.2806210958957673,1.092003629654646,8.638474382321037
2.392286166548729,-8.045516722798348,2.198611557483673,1.4757004058361054,8.470060436933936
2.4023121665231884,-7.468172589540482,1.8647209256887436,0.5777388203144074,7.719104099723203
2.4123381664976478,-6.935066735744477,1.5449185752868653,0.6240312997251749,7.132414675026449
2.422364166704938,-7.14736451804638,1.1145559018850326,4.41530153632164,8.474782715143755
2.4323901666793972,-7.164751213788986,0.12044913411140443,6.787920384407044,9.870361244374372
2.4424161666538566,-5.338069934248924,-1.5733541697263718,5.452781195640564,7.7912294751123214
2.452442166628316,-2.997172231078148,-3.285499604344368,2.243180204629898,4.980904181304474
2.4624681666027755,-1.5950207349658012,-5.005948085188866,-1.875842914581299,5.578744842414087
2.472494166577235,-1.0603872960805893,-6.594598571062089,-4.012001531124115,7.791617792017617
2.4825201665516943,-0.6670895379781724,-7.352484843134881,-3.155321872830391,8.028704624120255
2.4925461665261537,-0.11380962073802948,-7.758910769820214,-0.37356928903609515,7.768732391935996
2.5025731665082276,0.8401875865459443,-7.702824862003327,1.6843068408966064,7.929458718574274
2.5125991667155176,2.0714220455288888,-7.204628639817238,1.9450107979774476,7.744709815908323
2.522625166689977,2.92706937789917,-6.597982939481736,1.5379101026058197,7.380127471556581
2.5326511666644365,3.2036643129587175,-5.8118031603097915,2.1044251924753192,6.961977190068703
2.542677166638896,2.4850111037492755,-5.421546539068222,1.5091213363409044,6.1519016790614565
2.5527031666133553,2.0250983566045764,-5.551872205138206,0.47263394951820376,5.928548826344091
2.5627291665878147,2.3133269119262696,-4.664099392890931,-1.1689693598449231,5.335896729928732
2.572755166562274,1.9037727248668672,-3.8189329022169116,-2.1738392436504363,4.788963996191306
2.5827811665367335,1.1642104572057725,-2.463796235918999,-2.2656756126880646,3.5438628447959633
2.592807166511193,1.5079308432340623,-0.23647718846797944,-1.3974693381786347,2.0694679122401833
2.6028331664856523,1.9679511791467668,1.647320278286934,-0.7234099191427231,2.6664241699089386
2.612860166700557,1.9693697136640549,2.4219021052122116,-0.7468170543015004,3.2096358966281757
2.6228861666750163,2.582629784345627,2.6165576684474945,-0.9874263238906861,3.806752077613251
2.6329121666494757,3.4872583651542666,2.8257587653398515,-1.4745449960231782,4.724422340406328
2.642938166623935,3.876295841932297,3.386659943461418,-1.6925539000332357,5.418475221992385
2.6529641665983945,4.061730930805206,3.904664778113365,-1.8867679984867574,5.941713445110976
2.662990166572854,4.129522379636764,4.364941222071648,-2.028000329732895,6.3418019752636505
2.6730161665473133,4.302940855622292,4.239539496302605,-2.312873167991638,6.468259227868725
2.6830421665217727,4.601658146381379,3.752843577861786,-2.6477186501026155,6.50150033962606
2.693068166496232,4.930403813123704,3.2278940051794054,-2.7781022036075593,6.515062035224767
2.703094166703522,5.341202872395516,2.825451786518097,-3.1072878733277323,6.794620213798119
2.7131201666779816,5.995079457163811,2.6043188613653183,-3.398486229479313,7.367032175939725
2.723146166652441,6.605366218686104,2.5303527528047565,-3.396838776469231,7.846786706028855
2.733173166634515,6.843264280557633,2.548793116807938,-3.1254613119363786,7.9432437189258245
2.7431991666089743,7.067652935385705,2.557199658751488,-2.562222416996956,7.9407790438940316
2.7532251665834337,7.4897722041606904,2.5482686215639117,-1.6564887124300003,8.08296452375447
2.763251166557893,7.379856244325638,2.3056237900257113,-0.8220490850508213,7.775213434130122
2.7732771665323526,5.8500188076496125,1.8438457810878754,0.060863667726516725,6.134019212583123
2.783303166506812,3.121502162218094,1.5350666016340258,1.4846982474625112,3.782133538917251
2.793329166714102,0.21476296842098236,1.0656848734617235,3.24070993244648,3.4181878603124476
2.8033551666885614,-3.9485773676633835,0.16733444809913636,4.9104940438270575,6.303349569903698
2.813381166663021,-9.701742310523988,-1.119974516630173,5.903883942961693,11.412010882823116
2.8234071666374803,-14.77676764726639,-2.0530597418546677,5.247147485017777,15.814565221164045
2.8334331666119397,-17.261453061103822,-2.2515849924087528,2.513674739599228,17.588233494448215
2.8434601665940136,-16.544676808118822,-2.1830667346715926,0.8588313605636358,16.71016763407902
2.853486166568473,-12.687421839237214,-1.0113969844579698,2.238582392781973,12.923035553467983
2.8635121665429324,-7.482630414962769,1.1683602261543276,3.4681362158060076,8.32963338667258
2.873538166517392,-2.629406340122223,1.821742136478424,3.5656344437599183,4.7902266230130515
2.883564166491851,1.7559135979413987,1.9879591816663742,2.670854912996292,3.764130741311144
2.8935901666991413,4.959382029175758,1.8229642045497896,0.9075316502898932,5.361182919716432
2.9036161666736007,7.016603234410287,0.2349867331981659,-0.21393207907676698,7.023795743639913
2.91364216664806,7.94945983350277,-2.472025607228279,-0.39726100087165833,8.334424908179315
2.9236681666225195,7.493237264156342,-4.966925522089005,-2.1256710505485534,9.237826110836929
2.933694166596979,6.054380748867989,-7.57555378139019,-5.0680724126100545,10.942115852359526
2.9437201665714383,4.627330931425095,-10.59430808544159,-5.6037533801794055,12.847319070687416
2.9537461665458977,2.6899887567758562,-14.267346525192261,-0.7428806356340647,14.53771261307281
2.9637731665279716,-0.27751996457576755,-14.74634575366974,3.3288023293018343,15.119942306936128
2.973799166502431,-0.9794665092229844,-9.026151505708695,2.776806460618973,9.494283530969152
2.983825166709721,1.011298166513443,-3.0846389758586885,-1.1587345397472382,3.4467937748846005
2.9938511666841805,3.5818587130308153,0.45102614879608155,-2.709127278327942,4.513591367989925
3.00387716665864,5.467448936104775,3.3728119826316836,-2.138876402378082,6.770793956675016
3.0139031666330993,6.663068881630898,4.562204643487931,-2.36270957171917,8.413833528821108
3.0239291666075587,6.4455653232336045,4.167438649535179,-3.052177573442459,8.260063266920914
3.033955166582018,4.952299881577492,2.952084351181984,-3.197204309105873,6.592586103171589
3.0439811665564775,3.428261713385582,1.3062855184078217,-3.1452494591474536,4.8323859936200035
3.054007166530937,2.429601718783379,-0.2928537029027939,-3.249682484865189,4.068066377980897
3.0640331665053964,0.9794840508699417,-1.3998713743686677,-3.4988873076438907,3.8937438619247837
3.0740591667126864,-0.864660230576992,-1.6208212816715242,-4.319380887150765,4.693799121153792
3.0840861666947603,-0.9284556922316551,-0.9354667961597443,-5.415605767965317,5.573680465650498
3.0941121666692197,-0.8206593480706216,0.31782131373882294,-5.181403731107712,5.255610029081238
3.104138166643679,-0.7567250150442124,1.5487327140569687,-3.4013686144351962,3.8132026197474396
3.1141641666181386,0.1594708201289177,2.6321194481849672,-0.06188919626176358,2.6376720805665084
3.124190166592598,1.4148896554112436,2.7903667384386064,2.6337391269207,4.0895771249173505
3.1342161665670574,0.7498969289660454,2.007457891702652,1.5720157420635223,2.6577182101057084
3.144242166541517,-0.05533073991537094,1.5694786351919174,0.46725670382380485,1.6384912280423576
3.154268166515976,-0.38852526068687443,1.9192894810438157,-0.15164636850357058,1.9640826386172154
3.1642941664904356,-0.8452670627832413,2.3079182374477387,-0.5203986847400666,2.5123251758578697
3.1743201666977257,-1.4857500153779983,2.4360336560010913,-0.1555581557750702,2.8576058897605012
3.184346166672185,-2.018043690919876,2.1429103964567187,0.9064915037155152,3.0799824921600156
3.194373166654259,-2.1352558064460756,1.5648686903715134,2.219124905616045,3.4543663273880143
3.2043991666287184,-1.887112545669079,1.075202386379242,3.0395779931545257,3.7358115996616506
3.214425166603178,-1.82435847312212,0.6833442127704621,3.065640495121479,3.632271300014362
3.224451166577637,-1.8981909728050232,0.6189377170801164,2.53677591919899,3.2282262825103674
3.2344771665520966,-2.1028175005316734,0.9534580940008164,1.9130268207192422,2.9984321560357365
3.244503166526556,-2.379821448326111,1.3738465869426728,1.3422074492275715,3.0581898906263167
3.2545291665010154,-2.505944720506668,1.6719943588972093,0.7310447748005391,3.0999597644457424
3.264556291513145,-2.431900259256363,1.7253133642673493,0.3845947623252869,3.0064527614946375
3.2745822914876044,-2.3036295971274376,1.4101273906230927,0.667060740441084,2.782110459702278
3.2846082916948944,-2.3195799243450166,0.6944960224628449,1.6139658598601818,2.909924663532608
3.294634291669354,-2.6630915647745135,-0.3940391850471497,2.7345556497573855,3.8373321674499103
3.3046602916438133,-3.306746631860733,-1.500225967168808,3.4414255499839785,5.002865284611651
3.314687291625887,-4.214429798126221,-2.0265122133493425,3.5703893995285036,5.8835236668559245
3.3247132916003466,-5.4377374792099005,-1.4521068906784058,2.843250710964203,6.305686157759375
3.334739291574806,-6.445178822278977,0.047510966062545776,1.4061525996029378,6.596957819815109
3.3447652915492654,-7.152769684195519,1.288039281964302,0.31545509174466135,7.274659528935854
3.354791291523725,-7.579123506546021,1.9541213446855545,0.12005050018429757,7.82790620024465
3.364817291498184,-7.290734152793885,2.2195697325468062,0.6453573377430439,7.648384167765885
3.3748432917054743,-6.806427991390229,2.1563724410533904,1.9231330020725728,7.39431164140217
3.3848692916799337,-6.934326478242874,1.5740745466947557,4.262483385801316,8.290437805064625
3.394895291654393,-7.957514373064042,0.46447474479675294,7.5415913987159735,10.973302721207574
3.4049212916288525,-8.101347692012787,-0.5018331903219223,6.907049217224121,10.657907855998095
3.414947291603312,-6.381205020546913,-1.1876981377601623,4.729943718910217,8.031361775237766
3.4249732915777713,-4.023314431607724,-2.5198605090379718,2.9953625178337098,5.613283585730833
3.435000291559845,-2.2885145446658135,-4.5869687712192535,0.5892461407184602,5.159921738131233
3.4450262915343046,-0.7033560159802437,-6.188049852848053,-1.9426245492696763,6.523837889308227
3.455052291508764,0.5868990683555604,-7.203283195495606,-3.7130591225624086,8.125179835461486
3.4650782914832234,1.0293070060014726,-8.038162094950676,-4.3903421115875245,9.216649425582181
3.4751042916905135,1.2380438339710236,-8.930994502902031,-3.470793190598488,9.661357084675258
3.485130291664973,1.82803958773613,-9.626679264307022,-0.9831655309349299,9.847908247612171
3.4951562916394323,2.3218246704339984,-9.002331703305245,1.686375585794449,9.448635272510746
3.5051822916138917,2.407109819054604,-7.071123257875443,2.6069653111696245,7.911461934604618
3.515208291588351,1.7641868233680726,-5.310980368852616,1.8442499698698522,5.892378600993689
3.5252342915628105,1.2322188377380372,-4.094077727794647,-0.2470367483049631,4.2826233619492795
3.53526029153727,1.8440276294946671,-3.050607011318207,-2.6591441094875337,4.447211309446153
3.5452862915117294,1.6291699361801149,-1.897697467803955,-2.8232356917858126,3.771751599938148
3.5553132914938033,2.342579947113991,-0.632434260249138,-1.017102258950472,2.6309980819680607
3.5653392917010933,3.538061898350716,0.5392267191410065,-0.0700278626382351,3.5796021221278664
3.5753652916755527,2.9718783456087112,1.5941954004764558,-0.7109348845481873,3.4465850179657256
3.585391291650012,2.3770299875736236,2.6162015730142594,-1.7662229700386525,3.9514966547320656
3.5954172916244715,2.8633089995384218,3.2942084473371507,-2.380843687802553,4.971796897208737
3.605443291598931,3.397573771476746,3.6785301446914676,-2.6019098085165027,5.643139747488532
3.6154692915733904,3.735253399014473,3.452469770908356,-2.3349167324602607,5.596740267459986
3.6254952915478498,4.994580513238907,3.14396073281765,-2.1687452955543995,6.287589343278905
3.635521291522309,6.176529083848,3.739476258158684,-2.604460948705673,7.675702641601324
3.6455472914967686,5.838302156925201,4.0000439751148225,-3.0866071486473086,7.720962865374403
3.6555732917040586,5.513751282691956,3.761154810190201,-3.2408344781398775,7.419619048731832
3.6656002916861326,5.5409642243385315,3.317012003660202,-3.7685234713554383,7.47707311198588
3.675626291660592,5.743253912329674,3.0899061477184295,-3.9540334045886993,7.626720505420502
3.6856522916350514,5.802471004128456,3.0156009006500244,-3.7821556699275973,7.554284880603737
3.695678291609511,6.054043949246407,2.9477737838029863,-3.613773400783539,7.64200082518275
3.70570429158397,6.9434060347080235,2.8967492258548737,-3.3303451171517375,8.227590293618603
3.7157302915584296,7.361510605216027,2.6965885090827943,-2.686723086833954,8.287454912296777
3.725756291532889,7.101277348995209,2.347337241768837,-1.8246917644143106,7.698547405132268
3.7357822915073484,5.643678168654442,2.01232569873333,-0.7061857759952546,6.0331796210080935
3.7458082917146385,3.343311025500298,1.6361690533161164,0.9219011096656323,3.8346681004050316
3.755834291689098,0.6193148624897004,0.6150867408514024,2.953476573228836,3.0797575336840053
3.7658602916635573,-3.870853838324547,-1.233880616426468,5.352159385085106,6.719492607081238
3.7758862916380167,-10.147825223207475,-2.6299711811542514,7.312329089641572,12.781442089595604
3.7859132916200906,-14.816364991664887,-2.75303869843483,5.557195510268212,16.061952421192693
3.79593929159455,-16.091240437030795,-1.7885732209682466,1.5962569825351238,16.26883675384912
3.8059652915690094,-13.230611801147461,-0.949663251042366,0.5595481324195862,13.276446928133184
3.815991291543469,-7.7501791226863865,0.07024727940559387,2.87646523475647,8.267058930523623
3.8260172915179282,-3.092909277677536,1.5274044102430344,4.946742103099823,6.030697262087869
3.8360432914923877,0.18050413191318512,1.7183879220485687,5.074946984052659,5.36101908998889
3.8460692916996777,1.326297613978386,-0.6880015200376511,3.421508179306984,3.73351438640371
3.856095291674137,1.0271353501081468,-5.289101842045785,2.0919068884849548,5.779764679730889
3.8661212916485965,0.24127658307552338,-9.781761456727983,0.236138561591506,9.787585657665543
3.876147291623056,0.23531008422374727,-13.825032727718353,-2.2815893948078156,14.014012663213931
3.8861732915975153,2.017115153074265,-15.629897460937501,-6.987595782279969,17.239168860380687
3.8961992915719748,3.918668859601021,-13.444769582748414,-10.091054606437684,17.26114648088333
3.9062262915540487,5.148637688755989,-6.160883688926697,-4.164132633805275,9.044609359750353
3.916252291528508,6.8456756722927095,1.2606626182794571,4.347252810001374,8.206774801431576
3.9262782915029675,7.2296862977743155,4.654278409481049,5.822556774616242,10.384259187386293
3.9363042917102575,6.055122760534287,5.715788370966911,1.8164474827051165,8.522571783461064
3.946330291684717,5.14368275821209,5.1194068729877475,-1.468689594268799,7.404245280420954
3.9563562916591763,4.322408575415611,3.0565980684757235,-2.9894527369737625,6.079706844218384
3.9663822916336358,3.392563877105713,1.1973244088888169,-3.627589201927185,5.109058506055907
3.976408291608095,2.3902517116069797,-0.19075605511665344,-4.216358209848404,4.850501795810389
3.9864342915825546,1.5140476155281068,-1.6858499211072924,-4.746938651204109,5.260024400787443
3.996460291557014,1.3637753427028656,-2.912955368757248,-4.237662540078164,5.320054132179268
4.006486291531473,2.1524787801504135,-3.2977863585948946,-3.2287465292215347,5.092481115909267
4.016512291505933,2.5524113738536838,-2.7367547875642777,-2.568615177869797,4.538988270596954
4.026539291488007,1.729117270410061,-1.0976001459360123,-2.4064332962036135,3.159983199997507
4.036565291695297,1.3874825862050058,0.9491761779785157,-2.596395299434662,3.0931071586336034
4.046591291669756,1.3227425068616867,2.1368538504838943,-2.0870232939720155,3.266719814641039
4.056617291644216,0.7240838107466698,2.594519512653351,-1.6257130622863771,3.14623136902119
4.066643291618675,0.3392665618658066,2.495075916051865,-1.2585441720485688,2.8150380210327026
4.076669291593134,0.27338510602712635,1.6572622990608217,-0.622116848230362,1.7911692038827327
4.086695291567594,-0.24078951001167298,0.581738315820694,-0.3925948862358928,0.7419769544427459
4.096721291542053,-0.7496004751324654,0.13007131218910217,-0.5791257798671723,0.9561412487076234
4.106747291516513,-0.5961879551410675,0.3326054137945175,-0.3355062174797058,0.7606778957668281
4.116773291490972,-0.3469819629192352,0.805656269788742,0.793454373255372,1.1828137427673349
4.126799291698262,-0.14987583160400392,1.3182389813661577,1.4498931348323822,1.9653007096437811
4.1368252916727215,0.0418362432718277,1.4575155651569367,0.8880925087630749,1.7072815227861327
4.146852291654795,0.3158130875229836,1.3249328738451005,0.027483156099915505,1.362329016910177
4.156878291629255,0.535682721734047,1.0550388479232788,-0.2502817337214947,1.2094229596077268
4.166904291603714,0.6892235881090164,0.7881380116939545,-0.0007517326623201371,1.0469915209708065
4.176930291578174,0.6925307732820511,0.6801533871889115,0.8929554918408394,1.3189302530671971
4.186956291552633,0.30116698175668716,0.6466710609197617,2.2179272496700286,2.3298253790274455
4.1969822915270925,-0.2753044545650482,0.7546217715740204,3.339958816766739,3.4351959854620735
4.207008291501552,-1.1539117562770844,0.8685471671819688,3.5931397461891175,3.8725366051902315
4.217034291708842,-2.0998529621958735,0.9432050013542176,2.931781064271927,3.7275136949776355
4.227060291683301,-2.8426233047246936,0.9902920442819596,1.7038739633560183,3.4589553435299836
4.237086291657761,-2.938570558726788,1.0520433193445207,0.261798702031374,3.1321766608508232
4.24711229163222,-2.6744380867481232,0.972562701702118,-0.3640264503657818,2.8689741276555627
4.25713829160668,-2.6889231017231943,0.8194083362817765,0.21432164981961252,2.819161442367243
4.267163916490972,-3.136881216466427,0.627288710474968,1.2207151718437672,3.4239831225166393
4.277189916698262,-3.8071370217204095,0.3015806722640991,1.8123993091285229,4.22729635343525
4.2872159166727215,-4.572727877497673,-0.051128053665161134,1.9210701043903828,4.960137565178857
4.297241916647181,-5.3562109208107,-0.2828643196821213,1.7978575761616231,5.65696911037375
4.30726791662164,-6.018851897120476,-0.1950408947467804,1.3111119563877582,6.1630863755327425
4.3172939165961,-6.289124822616578,0.19826914250850677,0.6693845701217652,6.3277545298502345
4.327319916570559,-6.044271497726441,0.5623121112585068,0.381158938407898,6.08232644512151
4.3373459165450186,-5.619813342690468,0.6758094906806946,0.6139202213287354,5.6934979153884155
4.347371916519478,-5.356357101202011,0.6264087045192719,1.3162174527347088,5.551160026839271
4.357397916493937,-5.400318222641945,0.5909646373987198,2.3487573842704297,5.918558723086164
4.367423916701227,-5.769761095046998,0.7108664721250535,3.2290675413608554,6.649988828695856
4.377449916675687,-6.324542577266693,1.1103488302230835,3.6398613381385805,7.381145161647545
4.387476916657761,-6.601354444026947,1.5594921755790712,3.7267603182792666,7.739421090189347
4.39750291663222,-6.638531041145325,1.763779857158661,3.2704401004314425,7.607679818399213
4.40752891660668,-6.728484022021294,1.248419133424759,3.199474782943726,7.554315750217863
4.417554916581139,-6.478833056688309,0.10938327848911286,4.118051311969757,7.677603082086624
4.427580916555598,-5.655055096149445,-0.8537168741226197,4.4789975953102115,7.264289373396558
4.437606916530058,-4.5942731130123144,-1.3133390146493913,3.7917217147350315,6.099947406850428
4.447632916504517,-2.971433372497559,-1.549036769270897,0.9896161061525345,3.4940336628747497
4.457658916711807,-1.1850432094931602,-2.4070864301919936,-1.8949030834436418,3.2846689614669704
4.467684916686267,-0.4066677090525627,-4.199498932957649,-2.564308703541756,4.937291670598213
4.477710916660726,-0.2187525236606598,-6.331287925243378,-2.4487367320060733,6.791860646510371
4.4877369166351855,0.6768394777178764,-8.220219247341156,-1.5370622563362122,8.390034358261518
4.497762916609645,1.3853296414017677,-9.847887618541717,0.08334087632596493,9.94519856334907
4.507788916584104,1.2016086637973786,-10.471304887533188,0.6098982871323825,10.557654348823718
4.517815916566178,-0.240701801776886,-9.138722101449966,-0.24120232343673706,9.14507285732268
4.527841916540638,-0.8875991499423981,-6.962242255210877,-1.525501287728548,7.182465012103001
4.537867916515097,-0.4090793931484223,-5.341875302195549,-3.0364427161216736,6.158162230925217
4.547893916489556,0.07742181301116943,-3.793033829927445,-3.1062420988082886,4.903247877531068
4.5579199166968465,1.2875966477394105,-2.3717692476511,-1.7418839348852635,3.212063843385527
4.567945916671306,3.5158892565965654,-1.0614286851882935,-0.49991749629378324,3.7064842669964677
4.577971916645765,4.48975998044014,0.03630126893520355,-0.18336283564567568,4.4936493403006175
4.587997916620225,3.8028858035802844,1.325745052099228,-0.38324990272521975,4.045543333864679
4.598023916594684,2.727862342000008,2.5060020232200624,-1.2880515611171723,3.921779688021906
4.6080499165691435,1.8931126660108568,3.2851727449893953,-1.4816120870411398,4.070799664328655
4.618075916543603,1.485578107237816,3.699258524179459,-1.8426589424908162,4.391679396285668
4.628101916518062,1.947570124268532,4.028971320390702,-2.666193805038929,5.209052571773691
4.638128916500136,3.12457545876503,4.458101400732994,-2.8970661449432376,6.1668980974968655
4.648154916707426,4.541120753288269,4.873534378409386,-2.7427054989337925,7.203856501025353
4.658180916681886,5.777306926846505,4.7706724995374685,-3.238605227172375,8.162423368234455
4.668206916656345,6.557754095792771,4.396612080931663,-3.80644383430481,8.764893110289378
4.6782329166308045,7.314113075137139,4.103080101013184,-3.9674685519933703,9.277517076366864
4.688258916605264,7.960668945908547,3.8469539290666583,-3.868534832596779,9.650744341745288
4.698284916579723,8.504631325006486,3.577782034277916,-3.804984076917172,9.98033977801741
4.708310916554183,8.709293228387834,3.1490571659803392,-3.7376317539811135,9.98690345908191
4.718336916528642,8.430323154330255,2.655286701321602,-3.334984005689621,9.446852082617667
4.728362916503102,7.584087792634964,2.3921462094783785,-2.664000222086907,8.386754337477374
4.738388916710392,5.878559651970864,2.4657217240333558,-1.8768451273441316,6.645283653403009
4.748414916684851,3.7727983707189563,2.4767215061187744,-0.1827455158531666,4.516807820633429
4.758441916666925,1.191683599948883,2.028197965621948,2.273900306224823,3.271745618594068
4.768467916641384,-2.665497694015503,0.9502146434783936,4.950433450341225,5.702155484704013
4.778493916615844,-8.438952475190163,-0.6602985817193985,7.15650663971901,11.084561352614775
4.788519916590303,-13.534795653820039,-2.078900926709175,6.44636054456234,15.134995431919632
4.798545916564763,-14.955465574264528,-3.6168905514478684,3.4421447575092317,15.766934018248843
4.808571916539222,-12.656341549158096,-5.270746847391129,3.382305521965027,14.121039068784711
4.818597916513681,-8.571172054409981,-4.473199496269226,5.294716923236847,11.023090828662012
4.828623916488141,-4.884063459634781,-1.7254455113410951,5.958136748671532,7.894975085851568
4.838649916695431,-2.9270945209264756,-0.31811776757240295,4.729803970456124,5.571366694755027
4.84867591666989,-1.8913421291112902,-1.4067769360542297,3.1745165276527407,3.953953917473719
4.85870191664435,-0.6329534929990769,-3.406153391003609,1.0439905339479447,3.618345931819957
4.868727916618809,0.36896047711372376,-4.236068004369736,-4.7611807143688205,6.383513590977509
4.878754916600883,0.877954752445221,-3.913459575176239,-13.215609015226365,13.810803453717387
4.888780916575342,1.571156786084175,-4.12411545932293,-14.169418526887894,14.840797935367176
4.898806916549802,3.599389250278473,-5.106138371229172,-4.455777132511139,7.673473913148355
4.908832916524261,7.95449954867363,-5.902513355612755,10.623385119438172,14.524807688191135
4.918858916498721,9.489286653399468,-4.819283326864243,4.855734869241715,11.698299624105497
4.928884916706011,9.5576236474514,-2.852329682707787,2.0374658024311065,10.18013856984542
4.93891091668047,9.737133167982101,-0.9263205814361573,-0.9526786601543427,9.827381583113725
4.9489369166549295,8.457402779459954,-0.13311478793621065,-5.751546433568001,10.228668911362467
4.958962916629389,7.036237599849701,-0.4750669759511948,-5.913288604617119,9.203331479126065
4.968988916603848,5.247275539040566,-1.4567256063222886,-5.024474403262139,7.409540681025034
4.979014916578308,3.3822002720832827,-2.967929136157036,-4.054654045701027,6.057070370075768
4.989040916552767,1.6452994805574417,-4.681215362548828,-3.2936693340539933,5.955589419475911
4.999067916534841,0.24918026447296143,-5.559270687103272,-3.0084070712327957,6.32598565307668
5.0090939165093005,-0.6959645506739617,-5.177707121372223,-2.7745120131969454,5.91531356750237
5.01911991648376,-1.3220332396030428,-3.833200108408928,-2.1246179670095446,4.577684618173396
5.02914591669105,-1.766929167509079,-1.8708224952220918,-0.5686007916927338,2.635397949444627
5.039171916665509,-2.4878785783052444,0.13522212445735932,0.30150173485279086,2.5097267061280055
5.049197916639969,-3.297053117752075,1.6441224360466005,-0.8000452816486359,3.770115422461059
5.059223916614428,-2.9297596818208698,2.949196411371231,-1.6983588695526124,4.490620682695889
5.069249916588888,-1.8526259601116182,4.107956094145775,-1.1750482714176178,4.657066099989396
5.079275916563347,-0.5303760811686516,4.9629558473825455,0.1592675928398967,4.993755670502256
5.089301916537806,0.047633757591247564,4.683426779508591,0.08899930000305176,4.684514515857701
5.099327916512266,0.10947303324937821,3.8544336873292924,-0.5745883405208588,3.8985632168903224
5.109353916486725,0.11539158493280412,3.057652321457863,-0.8433662060648204,3.173928085877519
5.119379916694015,0.7151668068766595,2.7007815474271775,-1.237553837299347,3.0556871614737715
5.129406916676089,1.1330532762408256,2.2585186207294465,-1.1554624378681184,2.7784545222669825
5.139432916650549,1.6891980367898942,1.5645348143577575,-0.7331426095962524,2.4163313677635148
5.149458916625008,1.9842470768094065,1.0988023334741592,0.18513117983937263,2.275714521556614
5.159484916599467,1.6908639085292818,0.9466952043771745,1.1594876611232758,2.2582436102986727
5.169510916573927,1.2189708012342453,1.092524762749672,1.7535869908332826,2.398867963415788
5.179536916548386,-0.13095307230949402,1.28261598944664,1.8360068576037885,2.2434735712059584
5.189562916522846,-1.426116894185543,1.273645191192627,2.4126781225204468,3.078473191667959
5.199588916497305,-2.5796965286135674,1.2956313067674639,3.575220369100571,4.595181753799133
5.209614916704595,-3.025516024231911,1.1953661763668062,4.334719887971878,5.419635044508514
5.2196409166790545,-2.8599161526560786,0.7809014976024629,4.102829840183258,5.06183170864847
5.229666916653514,-2.587097934186459,0.4334903490543366,3.00793052315712,3.9910694852301627
5.239692916627973,-2.5966215866804125,0.1913828766345978,1.8383271789550781,3.1872429914847364
5.249718916602433,-3.21250910371542,0.12762074410915375,0.9056623685359956,3.3401685768181903
5.259746541501954,-4.405591942369938,0.24206478774547577,0.42332657262682916,4.432498292298956
5.269772541709244,-5.801109187602997,0.45089809477329257,0.6632635585963726,5.856286830964141
5.279798541683704,-6.964068925380707,0.590035514831543,1.2953078095614912,7.108039126772355
5.289824541658163,-7.4889454078674325,0.643878430724144,1.752224589586258,7.718106877202545
5.2998505416326225,-7.415076947808266,0.689606580734253,1.7222388982772827,7.643626770116977
5.309876541607082,-7.015558336973191,0.8094277238845825,1.2312227645516396,7.168622009536924
5.319902541581541,-6.635696895718575,0.9321444082260132,0.9439604616165161,6.767010258801994
5.329928541556001,-6.855435844659806,1.0044855755567552,1.2733903987705708,7.044679907520935
5.33995454153046,-7.886725641489029,0.9013313359022141,1.9168332119286062,8.166216326032048
5.3499805415049195,-9.029897232055664,0.48059844195842744,1.5952093076705933,9.182304265225493
5.36000654171221,-9.48814001441002,0.09744677245616913,-0.14798966601490976,9.489794399656818
5.370032541686669,-9.354674978256226,-0.14914551436901094,-0.3093539607524872,9.360976883119772
5.380059541668743,-8.725467796325685,-0.46226449728012087,2.0906602621078494,8.984338432056035
5.390085541643202,-7.445635666251183,-1.4779702949523927,4.900107049942017,9.035094674003412
5.400111541617662,-5.411470617055893,-3.6711012572050095,4.849244459867478,8.141017781055814
5.410137541592121,-2.661973577141762,-5.73406793653965,1.656534905433655,6.5352694144291466
5.4201635415665805,-0.02426799148321152,-7.089087073802949,-1.4587692081928254,7.237662058851754
5.43018954154104,1.4178506854176522,-8.19710637331009,-3.4894417154788973,9.021034139566513
5.440215541515499,2.178332244157791,-9.237654651403428,-4.235148822069168,10.393068861967901
5.450241541489959,3.396580914258957,-10.397292001247406,-2.286143206357956,11.174385603973407
5.460267541697249,4.561926316022873,-11.441887722015382,1.8290418004989626,12.452845468566647
5.470293541671708,4.626293050646782,-11.068993238210679,4.572805060744286,12.838837362533456
5.480319541646168,3.7334036323428155,-8.863415307998658,3.9691437792778017,10.404447892350422
5.490345541620627,2.463154211640358,-5.8986109238863,1.7453330612182618,6.626230225120006
5.500372541602701,1.9064887565374375,-3.053192065358162,-0.27481387317180633,3.6100143810873377
5.51039854157716,2.9232388669252396,-1.3883558678627015,-2.166856498718262,3.894627655497855
5.52042454155162,3.1379123729467393,-0.20328956186771394,-3.301405200362206,4.559286896350702
5.530450541526079,2.2678121852874757,0.9395803123712541,-2.2159953296184542,3.3070256382472785
5.540476541500539,2.5949258941411975,2.0747897493839265,-0.917989468574524,3.4468968021463664
5.550502541707829,2.685618547797203,2.801292260885239,-0.7261711205542087,3.9480513942316966
5.560528541682288,2.5341160207986833,3.1933276051282884,-1.2085289897024631,4.252014524845156
5.5705545416567475,2.6689791262149813,3.4382662993669513,-1.5677865971624851,4.626346240368972
5.580580541631207,3.1798877799510956,3.441097521185875,-1.6567500829696655,4.96967396121857
5.590606541605666,3.5064132589101793,3.513398342728615,-1.8650103628635408,5.302562164702803
5.600632541580126,3.926743279695511,3.6927061343193057,-2.0670860427618027,5.773061240559807
5.610658541554585,4.237018761634827,3.661649817824364,-2.4436340130865575,6.109938998446076
5.6206845415290445,4.504773291349411,3.310362550020218,-2.895488566160202,6.29566014455957
5.630711541511118,4.935393826961517,2.87653657078743,-3.3204659539461137,6.607425294439781
5.640737541485578,5.463871024847031,2.6107192236185077,-3.5381034135818483,7.013409813060528
5.650763541692868,5.865507497191429,2.5015610629320144,-3.6447329458594324,7.344798445009883
5.660789541667327,6.305293543338776,2.51045409321785,-3.5992331296205524,7.6820300405024495
5.670815541641787,6.7858247423172005,2.6477607500553133,-3.5327333307266238,8.095570344886431
5.680841541616246,7.1498753124475485,2.876254734992981,-3.3142217123508453,8.38913725258648
5.6908675415907055,7.631675357222558,3.085906067490578,-2.5672480988502504,8.622995292615174
5.700893541565165,7.9845741176605225,3.3085130757093433,-1.575985709130764,8.785409129228896
5.710919541539624,6.657765457034111,3.6229418349266056,-0.6630494043231011,7.608625561342286
5.720945541514084,3.9977887040376667,3.9128561425209045,0.6232376132905484,5.6286039864974375
5.730971541488543,1.4618670630455017,3.746685875058174,1.8731197200715544,4.436585155510785
5.740997541695833,-1.776923813223839,2.6398038589954376,3.121748914718628,4.457728001854317
5.751024541677907,-6.853947728276253,0.8132605737447739,5.736619076728821,8.974786384880696
5.7610505416523665,-12.081269059181214,-0.9916263788938523,7.950479003190995,14.496568605564157
5.771076541626826,-15.341029804944993,-2.6575349557399752,6.545964939594269,16.88962239091176
5.781102541601285,-15.685884550809861,-4.308714981079102,3.5693696451187136,16.653900401797948
5.791128541575745,-12.457926810979844,-5.060369875431061,2.930729734897614,13.7621386594858
5.801154541550204,-7.574877843260765,-3.6336890172958376,3.163779870271683,8.977303229939132
5.811180541524664,-3.124195974469185,-1.0888579738140107,2.0167678284645083,3.874734139003251
5.821206541499123,0.8356027847528458,0.741137507557869,0.2648462708294392,1.1478938827993037
5.831232541706413,4.603324018120766,0.8065573257207871,-0.8328132243454457,4.747073266985253
5.841258541680872,6.818114236593247,-1.3752972811460495,-0.5249397785961628,6.975219432097877
5.851284541655332,7.458184960484505,-4.175583236217499,-0.016890851855278017,8.547532016216978
5.861310541629791,6.810706399083138,-6.699539719820023,-1.0501192199438811,9.611051164573711
5.871336541604251,4.813356589078904,-8.06732859134674,-5.690984482169152,10.983510214438732
5.881363541586325,1.8639678043127061,-8.955468608736993,-6.5797694474458694,11.26801490765477
5.891389541560784,-1.52254478931427,-10.045151624679566,0.29973119795322417,10.164302858007382
5.901415541535243,-0.8240276366472244,-6.848741367459297,4.467910689711571,8.21866812783833
5.911441541509703,3.3190099972486498,-1.7147047609090806,1.9767793053388596,4.2265466046095765
5.921467541484162,6.220958567261696,1.239747712612152,0.13989748500287533,6.344830272972152
5.931493541691452,8.384625994563104,3.20976412832737,-1.2561988538503648,9.06546051718364
5.941519541665912,8.978190888762475,3.598760674595833,-2.8363235145807266,10.07986711754865
5.951545541640371,7.6497912007570275,1.895313557982445,-4.122289958596229,8.89408755303179
5.9615715416148305,5.181097337007523,-0.977260354757309,-5.041168788671494,7.294668612925637
5.97159754158929,3.2268181174993518,-3.489130058884621,-5.680695721507073,7.406530065528865
5.981623541563749,1.045366968512535,-5.307919351458549,-6.552257713079453,8.496992472578425
5.991649541538209,-1.1837009811401369,-5.937483798265458,-7.310005406141282,9.49163004468841
6.001675541512668,-2.401647642552853,-4.61842796087265,-7.02940571308136,8.747018515348579
6.011702541494742,-2.366378114819527,-2.197437436580658,-4.968879076838493,5.926064119651959
6.021728541702032,-2.329530131220818,-0.09279882073402405,-2.27104686498642,3.2546852561130937
6.0317545416764915,-2.4691733354330063,1.6360737437009811,0.3864296185970307,2.9871193657720054
6.041780541650951,-1.9599431249499322,3.6576935917139055,5.1717148947715765,6.630741618907018
6.05180654162541,-0.3759797671437264,4.862593068480492,6.154468123912811,7.852620583168071
6.06183254159987,-0.028039445579051973,4.190671976208687,1.205882978439331,4.360810885647178
6.071858541574329,-0.07478471875190736,2.9429545086622237,-2.2377574968338014,3.697855136271565
6.0818845415487885,0.781547907292843,2.527401663064957,-3.579681794643402,4.451145700688615
6.091910541523248,2.225714863836765,2.9685261368751528,-3.659267077445984,5.211160103517728
6.101936541497707,3.0232432115077974,2.9635384619235996,-2.4601715469360355,4.896427654074154
6.111962541704997,2.974096486866474,2.511434086561203,-1.244752929210663,4.086803266504461
6.121988541679457,1.723703333437443,1.192188214659691,-0.45426784515380864,2.1444871638733347
6.132014541653916,-0.24070911079645158,-0.16549549877643585,0.8061649775505066,0.8574564753762657
6.14204154163599,-1.8947618731856346,-0.512683283686638,2.943490698337555,3.537951977719505
6.1520675416104496,-3.273353183269501,-0.20731770873069763,4.283255034685135,5.394821163572476
6.162093541584909,-4.214152055382729,0.40997694075107577,4.2649205052852635,6.009717593551032
6.172119541559368,-4.575014723539352,1.0170249295234681,3.710500673353672,5.97770145414039
6.182145541533828,-4.311136897802353,1.6849248915910722,2.492168680429459,5.25697422226984
6.192171541508287,-3.7098630344867707,2.1936782616376878,1.071067235469818,4.441001359280371
6.202197541715577,-3.077067123949528,2.1224410486221315,-0.2469441430270672,3.746208683448188
6.212223541690037,-2.7206597417593006,1.5933341056108477,-1.0311753375828268,3.317231613766449
6.222249541664496,-2.8216461262106898,0.9317900669574738,-0.7404586458206177,3.0623844625733896
6.2322755416389555,-3.3086779671907425,0.2904247695207596,0.5944698970019817,3.3741800330993303
6.242301541613415,-3.8954092204570774,-0.3707532334327698,2.138912655115128,4.459441478608562
6.252327541587874,-4.512705624103546,-1.0509007734060287,3.334718542098999,5.708699697862906
6.262353541562334,-5.178226938843728,-1.636429254412651,3.992504575252533,6.740328457744239
6.272380541544408,-5.777738451361657,-1.8489948391914368,4.157158659696579,7.354115286667039
6.282406541518867,-6.139638415575027,-1.2738323020935058,3.872798037528992,7.369964263641303
6.292432541493326,-6.362445983290673,-0.3165477901697159,3.199084481298924,7.128468482938011
6.3024585417006165,-6.380598664283752,0.19944618701934816,2.156064877510071,6.737984405755825
6.312484541675076,-6.0362923872470855,0.11543982446193696,1.371070328950882,6.191121544949541
6.322510541649535,-5.842876433730126,-0.25533621311187743,2.254542660266161,6.267963322206441
6.332536541623995,-6.158158301711083,-0.5638388192653656,4.033581265211105,7.383129804229755
6.342562541598454,-6.466856789588928,-0.676645057797432,4.301943905353546,7.796461161071902
6.3525885415729135,-5.819976398348809,-0.16114107728004456,0.35090997621417047,5.832772028421029
6.362614541547373,-5.157503821849823,0.5660636848211289,-1.2739071464538574,5.342575519864461
6.372640541521832,-4.866830545663833,0.7151179826259614,-0.47417527556419375,4.941889869395911
6.382666541496292,-5.080653866529465,-0.02623762607574463,0.5684007803723217,5.112417390201113
6.392692541703582,-5.591554334163666,-1.4427554386854173,1.574582669734955,5.985510313381014
6.402719541685656,-4.471409663558006,-3.1395057392120362,0.33350296139717106,5.473684763590786
6.412745541660115,-1.851870792210102,-4.147706050872803,-2.234469022750855,5.062187543851067
6.4227715416345745,-0.3544158205389977,-4.487129318118096,-3.7346879732608795,5.848746391234856
6.432797541609034,-0.027514950335025788,-4.893417835235596,-3.0539346617460255,5.768259018188033
6.442823541583493,0.330726118683815,-5.226472315192223,-1.3188652181625367,5.400444249386279
6.452849541557953,0.8301186811923981,-5.386255668997765,0.2871053051948548,5.457405666884788
6.462875541532412,0.9508242157101632,-5.311282669901848,0.5629541355371476,5.42500761727566
6.472901541506872,1.220378226041794,-5.165778801441193,0.5383450321108103,5.335204683385119
6.482927541714162,2.1238250845670703,-5.229626303315163,0.22839509390294552,5.64905200729123
6.492953541688621,3.313862985670567,-5.042643456459046,-0.8541464982926846,6.094219158949925
6.5029795416630805,4.1265198343992235,-4.188898515701294,-1.5835153149068357,6.0895449313622105
6.51300554163754,4.569690248966217,-2.86175188601017,-1.7592488497495653,5.671564981900927
6.523031541611999,5.108357389569282,-1.514690809249878,-1.6040983910858633,5.564416871108544
6.533058541594073,4.59910057425499,-0.14463146388530732,-1.3391318137943746,4.7922769501745615
6.543084541568533,3.8103322327136997,0.7225106173753739,-1.2637949717044832,4.078949747959963
6.553110541542992,3.4153639250993733,1.1217386215925218,-1.0586607594788076,3.7475019519278083
6.563136541517451,2.8566478514671325,1.420019125342369,-0.7764793945848942,3.283262327905709
6.573162541491911,2.2435088181495666,1.528451061844826,-0.7341537393629551,2.812201304777105
6.583188541699201,1.9348688024282457,1.3578795951604843,-0.6660127732157708,2.4558353551591923
6.59321454167366,1.8019919961690904,1.1935903769731522,-0.6874170908331871,2.268121557375163
6.60324054164812,2.0785553562641144,1.181149840950966,-1.0634034360945226,2.6165500537406827
6.613266541622579,2.8284221720695495,1.3723783510923386,-1.6779833695292474,3.5635687885065837
6.6232925415970385,3.848482975959778,1.6723943084478379,-2.2166654205322267,4.745664287090298
6.633318541571498,4.797776682972908,2.137294145822525,-2.736430267095566,5.922392926184691
6.643344541545957,5.577446756958961,2.7210257774591446,-3.208644386529923,6.986221611681035
6.653370541520417,6.327234635353089,3.353233165740967,-3.4754393881559373,7.959695329306433
6.663397541502491,6.860626417994499,3.8537343603372576,-3.4767383471131326,8.602742173377917
6.673423541709781,7.085847716331482,4.197270559072495,-3.0674639493227005,8.788381710274722
6.68344954168424,7.180567347407341,4.529583612084389,-2.300567702651024,8.796038135660678
6.6934755416586995,6.900482794046402,4.949695531725884,-1.4265816016495227,8.611113964748261
6.703501541633159,5.596431496739388,5.41994030892849,-0.5010786071419716,7.806848161747471
6.713527541607618,3.2887249284982683,5.69901972591877,0.6240158776938916,6.60938221828268
6.723553541582078,0.6921004182100297,5.400200693607331,1.7166608007252218,5.708598324008281
6.733579541556537,-2.3422501641511917,4.25339973628521,3.2506016671657565,5.843283011003161
6.743605541530997,-6.3273100644350055,2.1935168784856796,5.423190776109696,8.61727144412797
6.753631541505456,-10.570201184749603,-0.5803648048639298,6.013929126262665,12.175110674179397
6.763657541712746,-12.697058050632478,-3.674479778409004,3.4207094496488573,13.65351009528263
6.773683541687205,-11.560837630033493,-6.153224421143532,1.240930604338646,13.155038815972375
6.783709541661665,-8.515692502856256,-5.855284810066223,1.1973654855787754,10.403608177754956
6.793736541643739,-4.478885328769684,-2.923068712949753,1.3846867400407792,5.524681154323642
6.803762541618198,-0.6616294080018997,0.11577603936195374,1.0080446295440197,1.2113263556844724
6.813788541592658,2.3026890724897386,2.2272482961416245,-0.17842033043503763,3.2085582044809424
6.823814541567117,4.91516187608242,2.437359219789505,-1.199330150038004,5.615864051343937
6.833840541541576,6.675185481905937,-1.1966923248767853,-0.5937427957355976,6.807547594086635
6.843866541516036,6.192184419035912,-6.230496545433998,-0.6343207181990147,8.807076578272305
6.853892541490495,4.606320716142655,-10.177971128225327,-3.051199918985367,11.580980432267799
6.863918541697785,1.6386143589019777,-13.09555983066559,-5.749282391667366,14.395589335448491
6.873944541672245,-2.6568818217515946,-15.296407363414765,-4.494862260818482,16.163009805912196
6.883970541646704,-4.430574463605881,-13.188369176387788,0.510404623746872,13.9220538890709
6.8939965416211635,-0.4976179325580597,-5.936404402256012,2.4831382405757907,6.454029466599742
6.904022541595623,4.469673625230789,-1.4237461405992509,1.1250030490010978,4.823967998361595
6.914048541570082,8.323053059577942,1.5889913785457612,0.33703058660030366,8.480076382317948
6.924075541552156,10.352892923355103,3.2558214765787126,-2.4930060017108917,11.135431931199342
6.934101541526616,10.105413029193878,3.088398735523224,-4.605635422468185,11.52690144335747
6.944127541501075,8.078248851299286,1.9701941710710527,-4.4992266225814825,9.454248239632093
6.954153541708365,6.061141884326935,0.8435058814287186,-4.3286516475677494,7.4957433387181895
6.9641795416828245,4.560741962492466,-0.40890514612197876,-4.418295895457268,6.363089602290637
6.974205541657284,3.016232984662056,-1.9505264765024186,-4.530964724421501,5.782028734557822
6.984231541631743,1.521220102608204,-3.2459677487611773,-4.568484553098679,5.807018885665713
6.994257541606203,-0.3151859736442566,-4.087341735363006,-4.443447108864785,6.045653551842114
7.004283541580662,-3.15485029488802,-3.785908997654915,-4.119223093986512,6.422942177827174
7.0143095415551215,-5.437125860452652,-1.5836973094940185,-2.8997956252098085,6.362330505285585
7.024335541529581,-5.753042151331901,1.6489265084266664,-1.5931464099884034,6.193106499072391
7.03436154150404,-4.413191860914231,4.391618558764458,0.27131548404693606,6.23186874531289
7.04438754171133,-2.552009670138359,6.07636511027813,1.0606159222126008,6.67531815304229
7.05441354168579,-0.5273928317427635,6.630065442323685,0.09521839857101441,6.651689823788752
7.064440541667864,-0.2924443978071213,5.382157355546951,-1.1383897376060486,5.508999248535408
7.074466541642323,-0.48596706300973896,3.3403932648897174,-1.2571899569034577,3.6020713122021633
7.0844925416167825,0.18198552399873735,2.4702381134033202,-0.5504955462366343,2.537368797451774
7.094518541591242,0.7370254531502725,1.752847902774811,0.324843271560967,1.9290426226322346
7.104544541565701,0.9608054128289223,0.7380759054422379,0.6283032754808665,1.364795988232571
7.114570541540161,0.9956983798742295,-0.08969862699508667,0.9108408088982106,1.352439309737526
7.12459654151462,0.7087585508823395,-0.7294436609745026,1.7999929793179037,2.0674625664273734
7.13462254148908,-0.1579368031024933,-1.0138036984205248,2.933813556432724,3.108054690093757
7.14464854169637,-1.1085376551747324,-0.6918612670898437,3.6100393688678745,3.8392593023414583
7.154674541670829,-1.9496210351586343,0.10831733107566834,3.630041816532612,4.121887724662059
7.1647005416452885,-2.6302869307994845,1.1797359842061996,2.910491352081299,4.096479737690102
7.174726541619748,-3.0538443222641947,2.2494840878248215,1.9687797296047211,4.273433915448415
7.184752541594207,-3.359568623900414,2.823896427154541,1.3801650881767273,4.600646480725745
7.194779541576281,-3.724223796129227,2.5819573545455934,1.1835396710783244,4.683707166055907
7.204805541550741,-4.091675399243832,1.8881705993413926,0.8097435466200114,4.578501981684311
7.2148315415252,-4.228921537399292,1.2273089307546616,0.32698214650154117,4.415538687988194
7.224857541499659,-4.203928198814392,0.9585159355401993,-0.15159491300582886,4.314480978880376
7.2348835417069495,-4.30724703758955,1.0591991418600082,-0.6867578172683716,4.488420230383977
7.244909541681409,-4.904318507015705,1.0267459255456926,-0.7135475666821003,5.061195248535604
7.254935541655868,-5.811433031558991,0.4720644307136536,0.19407844305038452,5.833803660485738
7.264961416600272,-6.807673448324204,-0.31626244604587556,1.3098849181830883,6.939757792076089
7.2749874165747315,-7.516183492541313,-0.5506790757179261,2.004831176251173,7.798436367840207
7.285013416549191,-7.41381804227829,-0.14191952526569368,1.8144879345595837,7.63395085000716
7.29503941652365,-6.859457559585572,0.29076390802860264,1.1310972364246845,6.958166613427367
7.30506541649811,-6.603260636329651,0.3980948138237,1.4104676985740663,6.763944828339067
7.3150914167054,-6.377341180443764,0.5394202619791031,1.8574241852760316,6.664193826327818
7.325117416679859,-5.997645215392113,0.7355540013313294,0.07053971327841282,6.042992939739367
7.335144416661933,-6.206715334653855,0.5735872972011566,0.17902303218841553,6.235733066688453
7.3451704166363925,-6.5205915319919585,0.18731146037578583,2.5708149003982546,7.011582472051729
7.355196416610852,-5.818430979251862,-0.7027154535055161,2.9230242741107944,6.549199872958084
7.365222416585311,-4.407189694046974,-1.800836586356163,2.805508103370667,5.526048237950087
7.375248416559771,-2.515332425236702,-2.9546325677633285,2.269897302389145,4.4954626662145
7.38527441653423,-0.6502916568517685,-3.817143654227257,0.09880508065223695,3.873399974175289
7.3953004165086895,0.49420286625623705,-4.019497076869011,-2.1399060970544816,4.580370217371665
7.405326416483149,0.9443536868691444,-3.9084075808525087,-3.212169088125229,5.146404954400301
7.415352416690439,0.9797293415665627,-4.290424305796623,-2.8381472611427307,5.236667851069884
7.425378416664898,0.9485291835665703,-5.434830243587494,-1.3089424932003022,5.670133846673832
7.435404416639358,0.9374051481485367,-6.804407778382302,0.3027337431907654,6.875342998392971
7.445430416613817,1.1676685005426408,-7.726976201534272,1.228076085448265,7.910611974928768
7.455456416588277,1.5669114151597023,-7.850534884929657,1.569081609249115,8.157703503985609
7.4654834165703505,1.6854596194624902,-6.87031350016594,1.330063220858574,7.197989294996325
7.47550941654481,1.7940193176269532,-5.059285801649094,0.7158291502296925,5.415467616661128
7.485535416519269,2.317620522379875,-3.1877879530191424,-0.35949383497238163,3.9575993653417583
7.495561416493729,2.5268315595388415,-1.5779705464839937,-1.5072671842575074,3.3386708643698384
7.505587416701019,2.102793234586716,-0.21236677944660187,-1.7423965895175935,2.739121193302466
7.515613416675478,1.8610541367530824,0.8223155719041825,-2.3487867665290834,3.107494919439774
7.525639416649938,1.2268405687808992,1.5334814214706423,-2.1355437818169594,2.9012497816043594
7.535665416624397,0.8328621947765351,1.857379746437073,-0.949539874792099,2.24614000716403
7.5456914165988564,1.17864606320858,1.8253013366460802,-0.7090193367004395,2.2855283703542564
7.555717416573316,1.8258193999528887,1.5510967433452607,-0.7642861957848073,2.514687053596891
7.565743416547775,2.5672627168893816,1.136401099562645,-0.39183946251869206,2.834745752444895
7.575769416522235,3.076359318494797,0.6800697720050812,-0.33634397730231286,3.168534175664254
7.585795416496694,3.56972924888134,0.3416680133342743,-0.49482296347618104,3.620021230164
7.595821416703984,4.428112785816193,0.14932385444641114,-0.7085680778324605,4.486930930863408
7.605848416686058,5.631201964616776,0.20581029653549196,-1.0973165559768678,5.740809792048922
7.6158744166605175,6.583450854420662,0.6742716729640961,-1.665372533351183,6.824216666869135
7.625900416634977,7.019703428149223,1.5092429584264757,-2.0434054040908816,7.465223116035962
7.635926416609436,6.981572565436363,2.490430887937546,-1.993605984002352,7.6758756056554915
7.645952416583896,6.748414841294289,3.3480700743198395,-1.7948402667045593,7.744167332627903
7.655978416558355,6.694780671000481,3.847876034975052,-1.5865001723170282,7.883097171169396
7.6660044165328145,6.5686714321374895,3.83755686879158,-1.2941901142895222,7.716813795635692
7.676030416507274,6.033405032157899,3.5467900371551515,-1.0976489701867105,7.084245133497516
7.686056416714564,5.435944722890854,3.3120874786376953,-1.090383512377739,6.458200577601995
7.696082416689023,4.889910675287247,3.2204902607202532,-0.8889552654325963,5.922248339576999
7.706108416663483,4.050341724157334,3.1241942203044895,-0.1451746702194214,5.11731700146738
7.716134416637942,2.7235108441114426,3.0022511225938797,1.309573261588812,4.2598128184906425
7.726160416612402,0.9092525589466095,2.571413655281067,3.4199253380298615,4.374333974471492
7.7361874165944755,-1.8661248421669008,1.6495387119054794,5.169781805276871,5.7384705107545
7.746213416568935,-6.099256374835968,0.22387234568595887,6.0786168730258945,8.613978769545188
7.756239416543394,-10.625008306503297,-1.2601837313175202,5.8842723816633224,12.210795470056288
7.766265416517854,-13.161790072917938,-2.297814248800278,4.3728975284099585,14.058268066853921
7.776291416492313,-13.484889668226243,-2.61705643594265,2.964445949792862,14.052728330910941
7.786317416699603,-11.732971472740173,-1.9616683459281923,2.6627693831920625,12.19020521023401
7.796343416674063,-8.260019490122795,-0.2692373836040497,2.870570656657219,8.748747718433757
7.806369416648522,-4.341893252134323,0.9854610747098923,2.2397432112693787,4.983936214993649
7.816395416622981,-0.8213922965526581,1.7591091012954714,0.8389492924511434,2.114943509978667
7.826421416597441,2.0929114401340487,2.742668661475182,-0.7401306170225144,3.5284986911059173
7.8364474165719,4.775740866065026,3.8096153640747072,-1.803183220177889,6.3696420439086445
7.84647341654636,6.94070637524128,4.008409586548805,-3.1188019180297855,8.600446372413328
7.856499416520819,8.48554192006588,1.829815971851349,-3.5331695330142976,9.37208275235863
7.8665254164952785,8.437346245050431,-2.251398466229439,-3.628214269280434,9.456296605776336
7.876552416710183,6.486885842084885,-5.718385119438172,-6.2124917989969255,10.647754254069602
7.886578416684642,4.872225771546364,-9.156774210333825,-5.19864892423153,11.602200159683889
7.896604416659102,3.337193960845471,-15.554402890205385,6.113225957751275,17.04253045805279
7.906630416633561,-2.7027427035570146,-20.857921042442324,10.968211798667909,23.720441783297943
7.916656416608021,-6.653070727586747,-15.856703939437867,0.9863784297555686,17.22415026455422
7.92668241658248,-2.912585824728012,-6.46150074005127,-6.757031298279762,9.792426663806166
7.9367084165569395,1.4656203907728196,-1.7574847447872162,-7.441618044376374,7.785529839156543
7.946734416531399,4.107975389957428,2.0416717046499255,-5.76119433939457,7.364458253689544
7.956760416505858,5.984569087028504,4.42668372631073,-3.9648753118515017,8.433909663301533
7.966786416713148,6.567193256020547,4.992644500136375,-3.542740840315819,8.978058756117905
7.976812416687608,6.155975536108017,4.244438878297806,-3.263874846696854,8.158687100732982
7.986838416662067,4.887225341498852,2.7117532628774645,-3.0273502957820893,6.356369019392051
7.996864416636527,3.7057655981183055,0.9857218605279923,-2.6505709218978883,4.661531128988684
8.006890416610986,2.6615414679050446,-1.1397223180532456,-1.9497411954402926,3.4905960346112446
8.01691741659306,1.1385666158795358,-3.054448632001877,-1.1521815651655198,3.457385246604836
8.02694341656752,-1.3102221563458443,-3.7024470108747485,-0.7776989775896073,4.003699747366032
8.036969416541979,-3.0009366685152057,-2.4306846231222154,-0.9758149230480194,3.983222739135378
8.046995416516438,-2.9389327937364578,0.11166427731513978,-1.603036390542984,3.3495552759035
8.057021416490898,-1.2034619387984276,2.6727260220050812,-1.416677441596985,3.2555736822209007
8.067047416698188,0.6794382727146149,4.147430062294006,-1.2625951230525971,4.388275166031146
8.077073416672647,2.0278982958197593,4.930615482330323,-2.171367040872574,5.756576704863046
8.087099416647106,2.835268676877022,4.737562056183815,-2.5130713069438935,6.066198982893431
8.097125416621566,2.4504066967964175,3.7377945989370347,-2.081978316307068,4.9305410608898095
8.107151416596025,1.823959400653839,2.3959562551975253,-1.5709936487674714,3.3963885697195177
8.117177416570485,1.3281798326969148,1.1401175898313523,-1.1278156328201294,2.0822818945231996
8.127203416544944,0.47007696211338046,0.029353607296943664,-0.15424472495913508,0.4956061135103228
8.137229416519403,-0.39061944097280504,-0.7431933885812759,0.9780592305958271,1.2889995419124585
8.147255416493863,-0.9779450637102127,-0.8663246405124665,1.8247803497314454,2.2442634103777217
8.157282416708767,-1.080643512904644,-0.420676760673523,2.7195072555541993,2.9564301195809772
8.167308416683227,-1.3141169866919518,0.28048508763313296,3.841246461868286,4.069490105641311
8.177334416657686,-2.179713064134121,0.9656261497735977,4.399496512413025,5.003913714865386
8.187360416632146,-3.4612034645676615,1.5771449196338654,4.208487857580185,5.672625985208433
8.197386416606605,-4.541881768405438,2.191800135970116,3.2353720092773437,5.991686730181047
8.207412416581064,-5.140847443342209,2.52028267800808,1.7076604740321637,5.974633169271353
8.217438416555524,-4.987422351837158,2.4107491260766984,0.2540182507038117,5.54532400641974
8.227464416529983,-4.381409612596035,1.9732241982221603,-0.4385340110957623,4.825212535079275
8.237490416504443,-3.9193488907814027,1.489633151292801,-0.03894245624542236,4.193067989908863
8.247516416711733,-3.7436324590444565,1.116698321700096,0.9137000973522663,4.012062686200279
8.257542416686192,-3.866025207638741,0.8404290765523911,1.7409767393767834,4.322438194568419
8.267568541690707,-4.5471036243438725,0.4775058495998383,2.0278424549102785,5.001630557014361
8.277594541665167,-5.715093721747398,-0.04318578064441681,1.5452121055126191,5.920459586132578
8.287620541639626,-6.724433655738831,-0.5546323782205582,0.786431794166565,6.792944871871089
8.2976475416217,-7.182581713199616,-0.9805301177501679,0.8684028871357441,7.301030266543919
8.30767354159616,-6.928290982246399,-1.2174201196432115,2.368953813314438,7.422618800127478
8.317699541570619,-6.242806103825569,-1.2015852749347686,4.054275730848312,7.540131757777676
8.327725541545078,-6.043555213809014,-1.026057123541832,4.800785075426102,7.786198699208944
8.337751541519538,-6.458086550831795,-0.6997895067930222,4.471368148326874,7.886045927441979
8.347777541493997,-6.395297394990921,-0.1855637276172638,1.5418848936259748,6.581160360648937
8.357803541701287,-6.059505833387375,0.5181071609258652,0.9838932900130749,6.160689245627557
8.367829541675746,-6.01308595776558,0.7313638865947724,3.273893465995789,6.885526435704283
8.377855541650206,-5.498212307095528,0.16049671411514282,3.8243749058246617,6.699398569232904
8.387881541624665,-4.537575878798962,-1.3535877388715745,4.099860624074936,6.263437695029924
8.397907541599125,-3.321150370538235,-3.5396593576669693,2.127697695493698,5.2996533504989545
8.407933541573584,-2.243104775547981,-5.2990117031335835,-1.802123558521271,6.029817027423817
8.417959541548043,-1.6778810432553293,-6.207629254460335,-4.099239649772644,7.625858080400889
8.427985541522503,-1.5185733604431153,-6.7124796080589295,-3.935225250720978,7.927764206481323
8.438012541504577,-0.955478599369526,-7.343180168867112,-2.2648780524730685,7.743701113735639
8.448038541711867,0.3021273869276047,-7.923267230987549,-0.9453871822357178,7.9851863782825
8.458064541686326,1.4249670392274858,-7.562893390059472,0.01778262533247471,7.695986208021277
8.468090541660786,1.7830414626002313,-6.035597738027573,0.34470571495592595,6.30289607581772
8.478116541635245,1.3489620065689087,-4.621297774314881,0.1487501695007086,4.816452867721283
8.488142541609704,1.541403813958168,-3.823511272072792,-0.6749195444583893,4.177401172600545
8.498168541584164,1.7909027516841889,-3.1767548418045046,-1.9025044637918473,4.113225890425454
8.508194541558623,1.6026341021060944,-2.3769019335508346,-1.8968852895498276,3.437480569932234
8.518220541533083,2.1472922998666766,-1.5570392686128618,-1.5783096849918365,3.086469984757381
8.528246541507542,2.701125948429108,-0.612259612083435,-1.45646832883358,3.1292560161739544
8.538272541714832,2.3521752279996875,0.5823633831739427,-0.8163245878368617,2.5570023945988405
8.548298541689292,2.1195835143327715,1.5535221683979035,-0.2808389903604984,2.6429029381423925
8.558324541663751,2.4578461092710495,2.1817546194791797,-0.7248980355262756,3.365492219332475
8.56835054163821,3.1331147325038913,2.213775141835213,-0.9242424809932709,3.946065441590274
8.578377541620284,4.23102770447731,1.9775119614601135,-0.738142563700676,4.728319303739857
8.588403541594744,4.766539687514306,1.6341266208887102,-0.8134605485200882,5.1041148566372145
8.598429541569203,4.820524690747261,1.1978997749090194,-1.0412861967086793,5.0751058223732715
8.608455541543663,4.92222765147686,0.9155938643217088,-1.3709506072103979,5.1909674189651325
8.618481541518122,5.160174829959869,0.9333313930034638,-1.7383468079566957,5.524523634635876
8.628507541492581,5.263861166238785,1.203363997936249,-2.3741236290335657,5.898540691976394
8.638533541699871,5.287715467214585,1.79064430475235,-3.0552719199657443,6.364041828373973
8.64855954167433,5.3983798706531525,2.6414089196920396,-3.2110844296216965,6.814000992299657
8.65858554164879,5.705108431577683,3.5163845157623292,-2.875809177160263,7.292701879426515
8.66861154162325,6.301322699189186,4.144399450421334,-2.38677232593298,7.9107140448766735
8.678637541597709,6.960766417980194,4.414096425175667,-1.944879235625267,8.46871133157789
8.688663541572168,7.195969498157502,4.361031188964844,-1.583717190027237,8.562051751042214
8.698689541546628,7.249075080156326,4.243016835451126,-1.1270820996165276,8.474821263185504
8.708715541521087,6.9655131876468666,4.198151149749756,-0.4843821752071381,8.147237147345473
8.718742541503161,5.691387355327606,4.0099672847986225,0.7323666840791703,7.000577734265031
8.728768541710451,3.042704499363899,3.3939742255210876,2.477931879758835,5.1881844719203976
8.73879454168491,-0.5154168570041657,2.16127942442894,3.995700663328171,4.571915033972649
8.74882054165937,-5.15290732562542,0.16771100878715517,5.34405982196331,7.425601407945019
8.75884654163383,-10.415168108940126,-2.3163212710618972,6.519610953927041,12.50385532381204
8.768872541608289,-14.03312577724457,-4.523720608949661,6.251223170757294,16.01469507541167
8.778898541582748,-14.748817956447603,-5.774501432776451,4.455431269705295,16.453673319615785
8.788924541557208,-12.353446422815324,-4.9219890850782395,3.3908693540096286,13.723396447343484
8.798950541531667,-8.029688894748688,-2.1008478659391403,2.8505714249610903,8.775831752664596
8.808976541506127,-3.719832537174225,0.04956918597221375,1.6538592195510866,4.07122359087684
8.819002541713417,-0.07018237531185151,0.2587077176570892,-0.5717255437374116,0.6314470257603505
8.829028541687876,2.1646269553899766,-1.1892002874612808,-1.8813540615141393,3.104722255609126
8.839054541662335,2.8181182086467746,-3.180417537689209,-2.1834947508573532,4.777498851801978
8.849080541636795,2.5214176225662235,-4.7559170508384705,-3.8093721199035646,6.59451361130919
8.859107541618869,1.516682955622673,-5.381461536884308,-7.957614360451699,9.725434785679695
8.869133541593328,0.583578434586525,-4.87060375392437,-12.038518896102905,12.999587759959288
8.879159541567788,0.4189717125892639,-4.636725652813912,-6.075534805655479,7.654207029480176
8.889185541542247,2.6113764506578447,-3.7537879031896595,8.478322947621345,9.632869281441852
8.899211541516706,8.083803706169128,-2.1051303666830066,9.529104437828064,12.672146132665894
8.909237541491166,10.591964521408082,-0.6300643837451935,2.192913884371519,10.83492338942464
8.919263541698456,12.032950007915497,-0.5458808505535127,0.2791900755465031,12.048560864031781
8.929289541672915,11.761034599542619,-1.8019545739889147,-2.072179552316666,12.077371536696115
8.939315541647375,8.937576128840448,-2.5783858752250675,-4.842602607607842,10.48709401100176
8.949341541621834,5.62338657617569,-3.7433213871717457,-5.883432721495629,8.95822036908759
8.959367541596293,2.887601256966591,-5.5735624516010285,-5.49068752527237,8.3396935747852
8.969393541570753,0.6056721389293671,-6.710359407663345,-5.44117564201355,8.66037842632369
8.979419541545212,-0.810367956161499,-5.881786145567895,-5.546862895488739,8.125256455516805
8.989445541519672,-1.1619899770617486,-3.2381623005867004,-5.930854225158692,6.8564529920225965
8.999472541501746,-1.372640306353569,-0.7081843543052674,-5.908324903249741,6.106878879810067
9.009498541709036,-2.073667961061001,1.3778776574134828,-3.0082901269197464,3.9049270337937148
9.019524541683495,-2.861529399454594,2.6618560481071474,-0.6247650521993637,3.957797303455199
9.029550541657954,-3.396002332270146,2.8890782636404038,-0.26972681382671,4.4668061977570535
9.039576541632414,-3.386422546505928,3.344205649495125,1.469453240633011,4.9810502824209335
9.049602541606873,-2.5659769141674045,4.05295250594616,2.342041418552399,5.33814757623937
9.059628541581333,-2.0285090374946595,4.052899296283722,0.6915221285820008,4.584653146676767
9.069654541555792,-1.2798739376664163,3.4644015991687778,-0.7397908937931061,3.7666226653568744
9.079680541530252,-0.22149662196636202,2.854024205803871,-1.2909728300571441,3.1402429474170748
9.089706541504711,1.1695352241396904,2.6688387930393223,-1.3147674894332886,3.196736882354532
9.099732541712001,2.5457408702373505,2.747210778594017,-0.8531356608867646,3.8413284285903835
9.10975854168646,3.3131174656748774,2.180729602575302,-0.19803459607064725,3.9713406605514243
9.11978454166092,2.814560762643814,1.091545354127884,0.284160647392273,3.032156133885373
9.12981054163538,1.571835940182209,-0.0022067391872406007,0.0842806700617075,1.5740953985995831
9.139837541617453,0.13040372639894487,-0.43495624601840976,-0.19384097300469877,0.4937270406049952
9.149863541591913,-1.3460036078095436,-0.030057027339935306,-0.11476797938346864,1.3512219751841612
9.159889541566372,-2.4339014688134193,0.6331967371702194,0.7477898848056793,2.6237385882882505
9.169915541540831,-2.774359985589981,1.1686677896976472,2.109536097496748,3.676003302359974
9.17994154151529,-2.8686425372958184,1.480588678121567,2.822293120622635,4.287958873319404
9.18996754148975,-2.731673557162285,1.5866022062301637,2.282430078238249,3.8972854714224785
9.19999354169704,-2.618103379905224,1.466327903866768,1.539734433889389,3.372738495115526
9.2100195416715,-2.7670220223069193,1.1737402492761613,1.2762834548950195,3.2654213360516136
9.220045541645959,-3.3186638420820236,0.8796375811100007,1.1204713837802411,3.6114745039545935
9.230071541620418,-4.123808480501175,0.6960174679756165,1.0073113887012006,4.3017337125149595
9.240097541594878,-4.877893477678299,0.6405765080451966,1.2097210907936098,5.066320968883312
9.250123541569337,-5.560858206152917,0.6307794982194901,1.6518173718452454,5.835197288373547
9.260149541543797,-6.188288419246674,0.4378868705034256,2.054876471757889,6.535225763914047
9.27017516666092,-6.58388413310051,-0.15274330615997314,1.6991505825519562,6.801321452324981
9.28020116663538,-6.594145996570587,-1.1437481260299682,0.6317273318767548,6.722350825546454
9.290228166617453,-6.1300764638185505,-2.233750984668732,0.779810553342104,6.570813147006571
9.300254166591913,-5.474081432819367,-2.9302865159511566,2.934400616884232,6.867521647514004
9.310280166566372,-4.841286984086037,-2.5945370543003086,4.891727989912034,7.355180821414727
9.320306166540831,-4.722059625685215,-0.7621009451150894,1.4311387753486633,4.99267494970163
9.33033216651529,-5.632011803984643,0.8069397336244584,-2.458942462205887,6.198153493288417
9.34035816648975,-6.37116652071476,0.8921769350767136,-1.7059310138225556,6.655669999487741
9.35038416669704,-6.53662342786789,-0.2496655833721161,1.8519394969940186,6.798489438235406
9.3604101666715,-5.259956395626069,-1.7575262600183488,4.0060022878646855,6.841351779357554
9.370436166645959,-3.022694742679596,-2.366762276887894,2.797937128543854,4.750442017118687
9.380462166620418,-2.480423670709133,-1.9199016845226289,-0.5506919395923615,3.18461703769527
9.390488166594878,-2.8322725635766983,-1.2720939248800278,-3.151043465137482,4.42369367692787
9.400514166569337,-2.852753313481808,-0.8926090443134308,-3.7981735324859622,4.833329551815028
9.410540166543797,-2.482585971057415,-0.6853077077865601,-3.0072370433807376,3.959337620502207
9.420566166518256,-1.8527043128013612,-0.8801328402757645,-1.380373249053955,2.4723627148758776
9.430592166492715,-1.4595141434669496,-2.0403940880298617,0.3967382597923279,2.5398407068614204
9.44061916670762,-0.623435395359993,-3.841926493048668,1.3283529102802278,4.112613806866244
9.45064516668208,0.8909282621741296,-5.194897350668907,1.2412539553642274,5.414925949081371
9.460671166656539,2.152801254093647,-5.950134834051132,0.49112280886620285,6.34664158405093
9.470697166630998,2.9663626670837404,-6.1685137206316,0.2550596398115158,6.849447015208545
9.480723166605458,3.4036981451511386,-5.6783281838893895,0.314264452457428,6.627769924592753
9.490749166579917,3.7857411825656895,-4.622845532298088,0.29780629456043245,5.982576844967566
9.500775166554376,4.169434011876583,-3.2547303861379624,-0.30885585106909275,5.298381054867859
9.510801166528836,4.032070929408073,-1.8805189329385759,-1.0413453266769648,4.5692830429193245
9.520827166503295,4.149564296007156,-0.7975268858671188,-1.0305426688492298,4.349362156994651
9.530853166710585,4.589766956269742,0.1531333154439926,-0.4477348241955042,4.61409546909921
9.540879166685045,4.374386521875858,0.8726858264207841,0.2540930950641632,4.467818404474849
9.550905166659504,4.052167517244816,1.2055134344100953,0.41775658808648586,4.248275508397131
9.560931166633964,3.7019558447599414,1.2228609538078308,0.5292488841712475,3.9344593491732254
9.570957166608423,2.9359846276044848,1.0387438273429872,0.7337026266753673,3.199580287594505
9.580983166582882,1.993450301885605,0.71253000497818,0.6790592269599438,2.2232104146484764
9.591010166564956,0.9330594974756241,0.3684751582145691,0.4476790563762188,1.0985401702116393
9.601036166539416,0.11214491844177246,0.14046649217605592,0.04667072117328644,0.18570265041563735
9.611062166513875,-0.330519711971283,0.2736303967237473,-0.5022642762959004,0.660595396029839
9.621088166488335,0.11359678208827972,0.7224293410778047,-0.9372713930904866,1.1888170784677954
9.631114166695625,1.7106070321798326,1.3804241198301317,-1.6587091925740243,2.753736253652746
9.641140166670084,3.4676614218950275,2.1395599418878555,-2.5314836043119433,4.796957548356082
9.651166166644543,4.768707250356674,2.6383385467529297,-3.0839367252588272,6.261953756798817
9.661192166619003,5.6115208214521415,2.4544529700279236,-3.1446852028369907,6.884951004663122
9.671218166593462,6.2169228190183645,2.2263396388292316,-2.6232354810833933,7.105496598709224
9.681244166567922,6.523637931346894,2.4053942459821704,-2.0628234225511553,7.25251775665098
9.691270166542381,6.189205847382546,2.8284625178575515,-1.7874488013982774,7.035726149717562
9.70129616651684,5.393552409410477,3.1799912756681445,-1.8527686321735384,6.529586794794084
9.7113221664913,4.549123837351799,3.596918801665306,-1.6292842492461206,6.023862524840457
9.72134816669859,3.734276914000511,4.286958661079407,-0.6570986929535866,5.723164974428243
9.73137416667305,2.506724154353142,4.819452311396599,0.8011800800263882,5.491145243797016
9.741401166655123,0.5069553512334823,4.727389070391655,2.3878371039032937,5.320430169241957
9.751427166629583,-2.366151242852211,3.696614997982979,3.7523810631036763,5.774426187085851
9.761453166604042,-6.0233320337533955,2.0859491604566576,4.3900918507575994,7.739807436037278
9.771479166578501,-9.550092433691026,0.3900981616973877,4.78571153819561,10.689222469133144
9.78150516655296,-12.06511203289032,-0.8934884655475617,4.437754844427109,12.886384988176383
9.79153116652742,-12.7866046500206,-1.6290793043375016,2.050751407295466,13.052077964457364
9.80155716650188,-10.852635734081268,-1.8384850537776949,0.28427978441119195,11.010928419776715
9.81158316670917,-6.792302872538567,-0.936080169081688,-0.27285227850079535,6.861929230262197
9.82160916668363,-2.209059362411499,1.0383105486631394,-0.44079352140426636,2.4803892820755014
9.831635166658089,1.912344743013382,3.2194763535261157,-1.1113118666410446,3.9060343664619666
9.841661166632548,4.971037284135819,5.2396367365121845,-1.7825694461166859,7.439257936185921
9.851687166607007,6.594248322844505,6.251833035349846,-2.542796797156334,9.43585411061753
9.861713166581467,8.000446384549141,5.031944221258164,-3.1911629658937457,9.975526355676207
9.871739166555926,10.079811580181122,0.14722821235656738,-1.8243266057968142,10.244630066678118
9.881765166530386,9.180902161002159,-6.648307585716248,-2.496809615492821,11.607024446437759
9.891791166504845,6.509104092121125,-13.16326240181923,-3.4445315909385683,15.083259297054783
9.901818166486919,2.773162475824356,-21.711876482963564,4.333382045030594,22.31309504477091
9.911844166694209,-5.628682399392129,-28.490195739269257,8.549738500714302,30.273277775055995
9.921870166668668,-8.982973326444625,-23.942041954994203,2.72389617562294,25.71643041197381
9.931896166643128,-2.5144541734457015,-10.547177188396454,-5.285290042161942,12.062326362006841
9.941922166617587,3.8588404414057735,-2.4456423854827882,-5.710360400676728,7.313004316661896
9.951948166592047,8.087726018428803,3.6554675567150117,-2.664896015524864,9.266899480458745
9.961974166566506,10.455898643732072,7.055797120928765,-1.8840448039770128,12.753811755043964
9.972000166540965,10.373311400413513,7.9240630370378495,-3.1366107827425003,13.42515145640134
9.982026166515425,9.116090453267098,7.368278757333756,-3.3516140717267993,12.191306487974147
9.992052166489884,6.9852142113447195,5.502101874947548,-3.1376311218738557,9.429266762459578
10.002078166697174,5.202746652960777,3.492106291651726,-3.129870697259903,7.004246545393325
10.012104166671634,3.49706063747406,1.2480829185247422,-3.301738491654396,4.968764548754143
10.022130166646093,1.4707808509469034,-1.2331269103288651,-3.61676366686821,4.094481372587656
10.032156166620553,-1.4497244426608087,-3.326188623905182,-3.7297435677051545,5.203481411736033
10.042182166595012,-4.9687486839294435,-4.413638003468514,-3.211118343472481,7.3810531040968375
10.052209166577086,-6.935160291194916,-3.313705987930298,-1.2659467470645904,7.789718660222285
10.062235166551545,-5.321145168542862,0.09782801091670991,0.21504538893699648,5.326387213086373
10.072261166526005,-2.3147933936119083,3.2641941046714784,0.4285834387689829,4.024539150271546
10.082287166500464,-0.28461702257394794,5.482462831735611,0.10440558034926653,5.4908383764329995
10.092313166707754,-0.40539155423641204,6.266704843640328,-0.9939635109901429,6.357978874668523
10.102339166682214,-0.947013000547886,5.390791354179383,-1.9066086244583131,5.7959142069530944
10.112365166656673,-1.0906355273723602,4.223598232269287,-1.9875352585315704,4.793596174595978
10.122391166631132,-1.143884950876236,2.8933338671922684,-0.9746712076663971,3.2603431737988515
10.132417166605592,-0.8829088059067727,1.3955771791934968,0.09709301590919495,1.6542643913146846
10.142443166580051,-1.0199520456790925,0.33236450850963595,1.0873634985834362,1.527457927424984
10.15246916655451,-1.5244299316406251,-0.3040242236852646,2.0581240153312685,2.5791843298904737
10.16249516652897,-1.9924170988798142,-0.7123107343912125,3.2740571880340577,3.898276920481033
10.17252116650343,-2.7262064105272295,-0.8468855720758438,4.165526025295258,5.049853822874688
10.18254716671072,-3.1664184263348583,-0.4457934755086899,3.8807081508636476,5.028402651500633
10.192573166685179,-3.1460736241936686,0.4466974550485611,2.903126199245453,4.304121233647967
10.202599166659638,-2.6572335317730906,1.6487721419334413,1.8981032645702363,3.6581601415694296
10.212626166641712,-2.1562578356266022,2.479024724364281,1.1546227777004243,3.4825515353681644
10.222652166616172,-1.6890255439281465,2.7065919256210327,0.7075728817284107,3.2678902250284034
10.232678166590631,-1.3397745689749718,2.4083324718475345,0.7929105091094971,2.8677113289317684
10.24270416656509,-1.6494065648317338,1.6673084002733232,0.9550059981644154,2.532290618049599
10.25273016653955,-2.2012267246842385,0.5855173712968826,0.48172183826565745,2.328150685633676
10.26275616651401,-2.5646782475709915,-0.39939348042011263,-0.375458926409483,2.6226053975362866
10.272782791638747,-2.6871253752708437,-1.0788837933540345,-0.6513763153553009,2.967983174849937
10.282808791613206,-3.017620528936386,-1.670511505007744,0.28528930619359016,3.460929403101134
10.292834791587666,-3.873865154385567,-2.1956347399950027,1.9901993961632252,4.87734936029029
10.302860791562125,-5.058529171943665,-1.9871943658590319,3.216458605527878,6.3153198487631075
10.312886791536584,-5.763754835128784,-0.6072280830144883,3.0674610257148744,6.557355632307251
10.322912791511044,-5.846795822381973,1.0072068697214127,1.952500935047865,6.245938437768987
10.332938791485503,-5.58864592909813,1.751131160259247,0.95091747879982,5.933267878053628
10.342964791692793,-5.167391463518143,1.4945500749349594,0.6572960364818573,5.419192978968643
10.352990791667253,-4.79106320232153,0.7874065250158311,1.3470020198822021,5.038721076408543
10.363016791641712,-4.913205397725106,-0.0681311720609665,2.643333238363266,5.579555515081605
10.373043791623786,-5.737418975830078,-0.7280602097511292,3.9682386302948,7.013912317687032
10.383069791598246,-6.411328121423722,-1.0006521409749984,4.632786383628845,7.973025941518898
10.393095791572705,-6.0916795527935035,-0.7079247379302979,2.9548436522483827,6.807409067900114
10.403121791547164,-5.420903930068016,0.19427607893943788,0.5354669594764709,5.4507492584566695
10.413147791521624,-4.528095203340054,1.1732923525571823,0.325808025598526,4.688967048788547
10.423173791496083,-2.8580117145180703,1.5607645297050476,1.5049364840984345,3.5873459128830185
10.433199791703373,-1.369582504928112,0.7112611591815949,1.3703031742572784,2.0638264131813706
10.443225791677833,-1.1368685844540596,-1.2802414351701736,-1.1353012382984162,2.0543605361102224
10.453251791652292,-1.748442610502243,-3.338640269637108,-3.7805745828151704,5.338193944443246
10.463277791626751,-2.545731222331524,-4.907822450995446,-4.843183236122131,7.350094729015603
10.47330379160121,-3.0420680299401286,-5.9543559390306475,-4.10790873169899,7.847512134136664
10.48332979157567,-2.6346726348996166,-6.800759700536728,-2.298426452279091,7.64686841485255
10.49335579155013,-1.3935835710167885,-7.270427942276001,-0.3488179886341095,7.410996668629011
10.503381791524589,-0.4814623680710793,-6.994570925831795,0.9530528819561005,7.075601617118143
10.513407791499048,-0.3344458249211312,-6.32306557059288,1.4426747471094132,6.49417605595748
10.523433791706339,-0.7251202297210694,-5.887550330758095,0.7606525897979737,5.980605371292011
10.533460791688412,-0.3791027650237084,-5.630701442956925,-0.7833660989999771,5.697559134509116
10.543486791662872,0.7530354219675065,-5.158120703101158,-2.205478527545929,5.660159632904776
10.553512791637331,1.0344274127483368,-3.8277417325973513,-1.6720002061128618,4.303165292311468
10.56353879161179,2.140248159170151,-2.2966108918190002,-0.3038195711374283,3.153948335508845
10.57356479158625,3.40939216375351,-0.8000183844566345,0.10629602171480657,3.503610021958043
10.58359079156071,3.810719903111458,0.6199481159448624,0.23634752646088603,3.8680462768298884
10.593616791535169,4.176435175538063,1.3790219575166702,0.20658322535455229,4.403065859578147
10.603642791509628,4.730317940711975,1.524908818602562,-0.1536005810648203,4.972408658163254
10.613668791484088,5.136305910944939,1.1418115282058716,-0.08766145706176759,5.262419263780295
10.623694791691378,5.116940517425538,0.4671182709932328,0.27282099589705466,5.145455376715368
10.633720791665837,4.850669426321984,-0.22300052583217622,0.1886351238191128,4.8594553530117475
10.643746791640297,4.223475440740586,-0.6673158252239227,-0.07343781262636186,4.276499540682369
10.653772791614756,3.4369752341508866,-0.21064068138599396,-0.6110002680122852,3.4972116870919296
10.663798791589215,3.6210286259651188,0.37319912374019626,-1.3745137542486192,3.8910684852155866
10.673824791563675,4.37597257912159,0.995049923658371,-2.223109052181244,5.008140794914493
10.683850791538134,5.193050215244294,1.9182247030735018,-2.877853363752365,6.23934263627115
10.693877791520208,5.960415408611298,2.902037447690964,-2.931610325574875,7.248635202024509
10.703903791494668,6.785225402712823,3.675763826966286,-2.801378507316113,8.209643416038597
10.713929791701958,7.6731882494688035,3.78765263736248,-2.7011686331033706,8.97331836042646
10.723955791676417,8.342829512357712,3.3978649628162385,-2.375754417479038,9.31624922541106
10.733981791650876,8.505485018491745,3.1561784899234775,-2.0329245623946193,9.297178084581931
10.744007791625336,8.144827002882957,3.0669154804944996,-1.8811632961034777,8.90409752967672
10.754033791599795,7.532710647583008,3.0027978372573854,-1.562618389427662,8.258347339669454
10.764059791574255,6.456551072001457,3.209479368925095,-0.730172808766365,7.247134736955065
10.774085791548714,4.537711241841317,3.4411074614524844,0.6323936221003533,5.729918460926842
10.784111791523173,2.173948586583138,3.3285164004564285,2.569407475590706,4.73359574328392
10.794137791497633,-0.2777310490608215,2.675049120783806,4.73424025297165,5.44481892325867
10.804163791704923,-4.296127387583256,1.0405798530578614,6.956908425092697,8.242456660247514
10.814189791679382,-10.529418025016785,-1.4828556436300278,7.805051148533821,13.190387721239391
10.824215791653842,-15.160950765609742,-3.688336510062218,5.376216584444046,16.503392351015346
10.834241791628301,-16.357182329893114,-4.9433238208293915,1.6541837400197983,17.167707710020366
10.84426779160276,-13.32450872898102,-5.048950263261795,0.14228965401649477,14.249725540347185
10.854294791584834,-8.381101292967797,-4.18949200809002,0.053676708787679675,9.370036465131975
10.864320791559294,-3.6292410403490067,-3.935862597227097,-0.21295193955302238,5.357961687224365
10.874346791533753,0.08929166078567505,-4.788263847827912,-0.10754315972328186,4.790303665562852
10.884372791508213,2.268671141266823,-5.5972658944129945,-0.4085793100297451,6.053361982614305
10.894398791715503,3.183556323051453,-5.898986315131188,-1.6723241418600083,6.908671250218361
10.904424791689962,3.287944325208664,-5.626926480531693,-3.905885092020035,7.59794826614692
10.914450791664422,2.910453929901123,-4.363148465752602,-7.994370542764664,9.561263880225228
10.924476791638881,2.7484354779124263,-2.663065252304077,-7.918440354466439,8.794743416468707
10.93450279161334,4.020686692893506,-1.1840775418281555,-2.190304418206215,4.729206545699435
10.9445287915878,7.570332802534104,0.583542766571045,5.030587082505226,9.108088015396518
10.95455479156226,10.17404062986374,2.1876655697822573,7.059517119526864,12.57512486396146
10.964580791536719,9.90679363846779,3.347340926527977,2.355023991465569,10.718926694122572
10.974606791511178,9.353003844022751,3.21993711411953,-0.24893658176064493,9.894879754040847
10.984632791485637,8.274307161569595,2.259116790890694,-2.2543068712949754,8.868464757152385
10.994658791692927,6.288758786916733,0.8702451986074448,-3.7502743113040924,7.373626732873662
11.004684791667387,4.218662889897823,-0.897956907749176,-4.247550181746483,6.053521762844344
11.01471179164946,1.9402213436365128,-2.695767560005188,-4.4043251430988315,5.516312315851192
11.02473779162392,-0.3565325126051903,-4.001084194779397,-4.723097798824311,6.200277653743993
11.03476379159838,-2.478452574312687,-4.418502886891365,-5.54480233669281,7.510707548399057
11.044789791572839,-4.63723143696785,-4.064532331824303,-5.4121284288167955,8.204600697563226
11.054815791547298,-6.6871208184957505,-2.8048415207862853,-1.8649413657188416,7.487504730913714
11.064841791521758,-6.66330978691578,-0.4431148660182953,0.9340125936269761,6.743028075423371
11.074867791496217,-4.860980114042759,1.9373661482334137,0.5088282144069672,5.257510952267861
11.084893791703507,-3.290556861162186,3.940914006829262,-0.16404831290245056,5.136679814309117
11.094919791677967,-2.0109331843256952,5.439478780031204,-1.0892275178432465,5.900694726543562
11.104945791652426,-1.9235605797171593,5.247328748703003,-2.166786332130432,5.994122730634908
11.114971791626886,-2.1109261268377306,3.9997861129045487,-2.6508176743984224,5.242244977569561
11.124997791601345,-1.022265204191208,3.537355554699898,-2.197278392314911,4.287883254171027
11.135023791575804,0.6451727119088173,3.238985588550568,-0.6990826515108347,3.375795021128129
11.145049791550264,2.2948201820254326,2.7023632192611697,1.0964722911268474,3.710959191618225
11.155075791524723,3.1451369002461433,1.9554983639717103,1.837235065251589,4.134161663236691
11.165101791499183,2.779947292506695,0.7086667495965958,1.5131108915805818,3.2434272122739074
11.175128791714087,1.6129202315211297,-0.4709277319908142,1.3585995335876941,2.160804779398844
11.185154791688547,-0.14977584421634674,-0.9521489024162293,1.8755096232891084,2.1086860086160772
11.195180791663006,-1.5709492099285127,-0.6657668977975846,2.531485358476639,3.0527930002801753
11.205206791637465,-2.0662308874726296,-0.15229131639003754,2.862865780591965,3.533907639296503
11.215232791611925,-2.347381242066622,0.47057339072227483,2.450509753972292,3.425877415491605
11.225258791586384,-2.264640509337187,1.2164915817975999,1.338980955630541,2.8985027867257083
11.235284791560844,-2.0343360802531243,1.7618643093109132,0.06623360440135002,2.6920393797630937
11.245310791535303,-2.171755880713463,1.971636679172516,-0.24207472801208496,2.9432082790747347
11.255336791509762,-2.637478421330452,1.7324212396144867,0.9672696559131146,3.3004827467662126
11.265362416626886,-3.4479285308718683,0.9070779794454575,2.4380817894637588,4.319171729268229
11.275388416601345,-4.347407176494599,-0.3462031137943268,3.017639240026474,5.303390645349934
11.285414416575804,-4.8511535757780075,-1.4633054780960084,2.8223773205280307,5.800066178712147
11.295440416550264,-5.0366781270504,-1.7767413800954819,2.0802989959716798,5.731717055114663
11.305466416524723,-5.432735770940781,-0.9176678717136384,1.01622049883008,5.602627631913209
11.315492416499183,-6.234291388392449,0.4858059722185135,0.052795679569244386,6.253413783031521
11.325518416706473,-6.984559907913209,1.2464240634441377,-0.18669107079505923,7.09735891787049
11.335545416688547,-7.293977018594743,1.1401678758859635,0.840793504267931,7.430277064134938
11.345571416663006,-7.171154499650002,0.5065390294790268,2.9166484701633455,7.75814906693228
11.355597416637465,-7.138663276433945,-0.1294251948595047,4.509599583148956,8.444747045099
11.365623416611925,-7.5012701690196995,0.017269166707992556,4.495342901945114,8.745139231528103
11.375649416586384,-7.19057076394558,0.9275748091936112,1.6248698937892914,7.430000343856136
11.385675416560844,-5.75198322057724,2.0799335449934007,-0.8314997935295105,6.172748693088885
11.395701416535303,-4.815914745926857,2.4102766710519794,0.04266018904745579,5.385562956904573
11.405727416509762,-4.333548105955124,1.6682843005657197,1.1185255765914917,4.776391018293061
11.415753416484222,-3.6316641265153886,-0.30292611658573154,0.26169794719666245,3.6536604077959187
11.425779416691512,-2.6131081035733223,-3.006811950802803,-0.7650087654590607,4.056413499592999
11.435805416665971,-1.5334059923887253,-5.599889540076256,-1.6803061759471893,6.0442969519602014
11.44583141664043,-1.093215318918228,-7.450679474473,-2.038735232949257,7.801550212292388
11.45585741661489,-0.7152273255586624,-8.510489065647125,-1.2887579047679902,8.637179586000691
11.46588341658935,0.6706355819106102,-9.329592761993409,0.20058582762256266,9.355815724062087
11.475909416563809,1.6770241338014604,-9.681502758264543,1.304044865369797,9.911833262042588
11.485935416538268,1.9584833675622941,-9.360069034695625,1.7162981271743776,9.715566308590988
11.495962416520342,2.1552573770284655,-8.446638640165329,1.5452395874261857,8.853169153547144
11.505988416494802,2.5483346951007846,-7.446364814043045,0.9778135013580322,7.930856063850282
11.516014416702092,2.9765113869309427,-6.485948533415795,0.3056280418485403,7.142867555443838
11.526040416676551,3.4704487895965577,-5.087263559103012,-0.2783246145397425,6.164554315767552
11.53606641665101,4.1619972306489945,-3.5297196757793428,-1.2911435687541963,5.607868904731017
11.54609241662547,3.583194801807404,-2.0640174239873885,-2.670237447023392,4.922359285719515
11.55611841659993,1.8820520728826524,-0.5194754093885422,-1.3478720855712891,2.3724952824112377
11.566144416574389,0.8105594524741173,0.640458979010582,0.09441849946975708,1.037356825220974
11.576170416548848,0.941078953742981,0.7367310458421708,0.1009754940122366,1.1994158084153708
11.586196416523308,2.2106749480962753,0.6478662317991257,-0.5536136470735074,2.3692409017810108
11.596222416497767,3.5526115250587464,1.3938358783721925,-1.085232700109482,3.967563120758727
11.606248416705057,3.6277412295341493,2.692044053077698,-1.3336792851984502,4.710234394161334
11.616274416679516,3.462941549420357,3.7763540625572207,-1.3539650304615498,5.299625975878584
11.626300416653976,3.838219358325005,4.611274477243423,-1.5324860791862012,6.192276942288427
11.636326416628435,4.349068370461464,4.90463104069233,-1.8337529021501542,6.8067944762872905
11.646352416602895,5.114812715649605,4.826570711731911,-2.634781685471535,7.509937981209657
11.656378416577354,5.793263978362083,4.529754935503006,-2.8201425147056582,7.8761533188449215
11.666405416559428,6.225798307657242,4.13464629471302,-2.7212283834815025,7.953675154611059
11.676431416533887,6.552392783761025,3.674251152276993,-2.8470274275541305,8.03365034688079
11.686457416508347,6.895286373496056,3.2936313271522524,-2.8071909320354465,8.140841628518585
11.696483416715637,7.066757141947747,2.983618385195732,-2.7232494735717774,8.13984784053464
11.706509416690096,6.918343698978425,2.7717000871896746,-2.6991396492719653,7.926610609635982
11.716535416664556,6.522163263559341,2.7001915633678437,-2.3737543773651124,7.447439691562863
11.726561416639015,5.839961596727371,2.8493417555093767,-1.7104604132473469,6.719343324777061
11.736587416613474,4.318795580863953,3.1138224291801455,-0.7859458905458451,5.381969558871664
11.746613416587934,2.0833091425895693,3.2865468406677247,0.4478476023674011,3.9169036999199403
11.756639416562393,-0.10262506663799287,3.1822494703531268,1.7319217412173749,3.6244718944373995
11.766665416536853,-2.264142472743988,2.5258784633874893,2.7404595834016803,4.360793720980863
11.776691416511312,-4.988611090779305,1.114568765759468,3.877913181781769,6.416129268810726
11.786717416485772,-7.615869748592377,-0.8683618104457855,5.300220322608948,9.31921990992605
11.796743416693062,-9.532440859079362,-2.58657314658165,5.571520019173622,11.340177454454379
11.806769416667521,-10.613147814273836,-3.337545086145401,4.404757837057113,11.965784777138309
11.81679541664198,-10.39187046289444,-3.087516390681267,2.9319284141063693,11.230313148160548
11.82682141661644,-8.299775878787042,-1.6712926930189134,1.873970489948988,8.671289656160338
11.836848416598514,-4.937283062338829,0.1357150447368622,0.757951907068491,4.99696645020302
11.846874416572973,-2.1047789490222932,1.437986449599266,-0.14373683989048006,2.5531470252651323
11.856900416547433,0.02351399302482605,2.5001577311754226,-0.6018509835004807,2.5716854774572853
11.866926416521892,1.9366592198610306,2.919004898071289,-1.202754279524088,3.7037624634620427
11.876952416496351,3.8261086052656177,1.6739426511526108,-1.154180874377489,4.3328194688233
11.886978416703641,4.859864172935486,-0.7718190175294877,0.4075963930785656,4.93762282833073
11.8970044166781,4.362711678743363,-2.740060803294182,0.805447524189949,5.214396620110193
11.90703041665256,3.615149250626564,-4.056759043335915,-2.0820110607147218,5.819052164823063
11.91705641662702,3.040953258275986,-5.932954545021057,-4.818412091732025,8.225839862169378
11.927082416601479,1.7840998086333275,-9.215160412788391,1.868831518292427,9.570513298896302
11.937108416575938,-0.626396133005619,-11.867351013422013,9.069446629285812,14.949289426346548
11.947134416550398,-0.42578167229890823,-10.334280066490173,3.500742629170418,10.919424594767474
11.957160416524857,2.585111927390099,-5.4092235320806505,-3.74048665702343,7.066381204585551
11.967186416499317,4.885206005573273,-1.6741145592927933,-4.844222286343575,7.080564019485527
11.977212416706607,6.373595454096795,0.48699763476848607,-4.482832199335099,7.80741123780149
11.987238416681066,7.06252024948597,2.1581108182668687,-4.258245908617973,8.52462860168005
11.997264416655526,6.836042384505272,2.8803197193145755,-4.097517060041428,8.474512565661547
12.0072914166376,5.959201526641846,2.516929884552956,-3.7696595853567127,7.487145802531029
12.017317416612059,4.657551388442516,1.2362604331970215,-3.8636436367034914,6.1764769040376635
12.027343416586518,3.2685935497283936,-0.6049371439218522,-4.170057617425919,5.332826011982233
12.037369416560978,2.107284480929375,-2.5141828626394274,-4.270427412986756,5.3850082302578075
12.047395416535437,1.1851060670614244,-4.097566761374474,-4.078940455913544,5.901888256905148
12.057421416509897,0.3456157609820366,-4.905864803195,-3.5794619393348697,6.082722046634521
12.067447416484356,-1.1948358339071274,-4.796565139889718,-2.533045980334282,5.5543669080896585
12.077473416691646,-3.246155736744404,-3.313676751852036,-1.0894415259361268,4.764962069250636
12.087499416666105,-3.1131248563528064,-0.6837295442819595,0.5563894665241241,3.2355218589007704
12.097525416640565,-1.0485747510194778,1.5581864923238755,1.8264690256118776,2.619817408686289
12.107551416615024,0.9387470841407777,2.7264169102907183,2.937235347032547,4.116059613338879
12.117577416589484,2.096801007986069,3.4084981244802477,2.298824647665024,4.615087073110212
12.127603416563943,2.093210817575455,3.760554301142693,-0.022790034636855125,4.30393071091258
12.137629416538402,0.9347426185011865,3.4556898325681686,-1.914149193763733,4.059495426496231
12.147655416512862,0.10892719566822053,2.9167671686410905,-3.105122941732407,4.261594107055671
12.157681416487321,0.01358746737241745,2.4183703869581223,-3.532442139387131,4.280986733908843
12.167707416694611,0.21145052075386048,1.805078156590462,-2.94644237279892,3.4618696004257625
12.177734416676685,0.7160880357027054,1.5519539451599123,-1.5168963789939882,2.2852391007023853
12.187760416651145,1.2465752139687538,1.7147445219755173,0.46139808610081673,2.169605202239289
12.197786416625604,1.0493076995015145,1.9536892354488373,2.0930225372314455,3.049375611219546
12.207812416600063,-0.19250320315361025,1.8193640738725663,2.7034274125099182,3.264301286835002
12.217838416574523,-1.8003401577472689,1.4624833595752718,2.893856315910816,3.708704172318002
12.227864416548982,-3.1722162330150607,1.1197844821214678,3.2206779563426973,4.65721371786566
12.237890416523442,-4.180185579657555,0.7810143488645555,3.638708267211914,5.596796650530161
12.247916416497901,-4.919989922046661,0.32556595087051393,3.7993932616710664,6.224763704610677
12.257942416705191,-5.102159925699234,0.09024417221546173,3.096315865516663,5.968865206811113
12.267968291649595,-4.767406829595566,0.506164807677269,1.7571387358009816,5.106065728940207
12.277994291624054,-4.465628521442413,1.2989291363954545,0.5053806960582733,4.678083436712661
12.288020291598514,-4.749431026875973,1.8633743119239807,-0.13507535934448242,5.1036755635612625
12.298046291572973,-5.339521797895432,1.863988854289055,-0.053969654291868216,5.655781131081601
12.308072291547433,-6.016220650076867,1.187197031378746,0.5348820917308331,6.155521631330701
12.318098291521892,-6.515216771364212,-0.1666608488559723,1.4649710574746133,6.67996748612186
12.328124291496351,-6.483299744725228,-1.4686960262060167,2.3041748499870303,7.035585642763529
12.338150291703641,-6.025258106589318,-1.8206481224298479,2.826563926935196,6.89985206144153
12.3481762916781,-5.588128450512887,-1.3259923893213272,3.210530698299408,6.579737286601382
12.358203291660175,-5.544952025413513,-0.6644103437662126,3.567817794084549,6.627009723912233
12.368229291634634,-6.081310685276986,-0.212260360121727,3.5000427174568176,7.019807200726068
12.378255291609094,-7.162584235668183,0.0006735992431640625,2.9575813186168673,7.749187095625566
12.388281291583553,-7.75024753510952,0.11399790108203889,2.1037711814045905,8.03151203451945
12.398307291558012,-7.518227679133416,0.1297064459323883,0.8487175047397614,7.567092744261558
12.408333291532472,-7.263054603338242,0.07691895246505738,1.580034613609314,7.4333295417682566
12.418359291506931,-6.897558601498604,-0.2691233628988266,3.946806246042252,7.951479207629451
12.428385291714221,-5.527557728290558,-0.953196138739586,4.448052960634231,7.158746570392032
12.43841129168868,-3.870891845226288,-2.087598659992218,2.0260567152500153,4.842187280150403
12.44843729166314,-2.5810112750530245,-3.3308968019485476,-1.7858718073368074,4.57666153647201
12.4584632916376,-1.7755690133571627,-4.32347276866436,-3.559847454428673,5.8751660403241965
12.468489291612059,-1.4522039544582368,-5.116962736845017,-3.67753962635994,6.466567998486693
12.478515291586518,-1.2615139728784561,-6.033129628300667,-2.918743527531624,6.8197605819526155
12.488541291560978,-0.5248606950044632,-7.037094801664352,-2.042949321269989,7.346415719658773
12.498567291535437,0.8088541120290756,-7.8228237605094915,-1.2666431504487992,7.965877317227341
12.508593291509897,1.6017076107859611,-7.685993651747704,-0.23568715654313566,7.854649204192066
12.518619291484356,1.286234831213951,-6.44458065211773,0.39878829360008244,6.583771861614786
12.528645291691646,0.6716819411516189,-5.0807883524894715,0.5724810770899058,5.156869350341145
12.53867229167372,1.0971797311306,-4.091307901740074,-0.17741848312318326,4.239585006506924
12.54869829164818,1.8822809913754464,-3.2081222301721573,-2.31124954238534,4.379144256746351
12.558724291622639,1.8806931799650193,-1.969604187011719,-2.3417397022247317,3.5916698517036063
12.568750291597098,2.5563325166702273,-0.8011422193050385,-1.381497083902359,3.014166382960513
12.578776291571558,3.0963790154457094,0.10085336029529572,-1.4818797433376314,3.4341959730466454
12.588802291546017,2.7370950955152513,1.3201966291666032,-0.9921735320985318,3.1967197279951494
12.598828291520476,2.0227325731515884,2.1319532990455627,-0.4292131108045578,2.969999297354501
12.608854291494936,2.3496948391199113,2.1870545357465745,-0.7307019817829132,3.2921419722572547
12.618880291702226,3.161836255788803,1.6864504301548005,-0.6738050651550294,3.6462771188732273
12.628906291676685,3.9950545459985736,1.0324779510498048,-0.9194750998914242,4.227517711876346
12.638932291651145,4.30883075594902,0.6751838386058808,-0.5930209569633007,4.401541724751049
12.648958291625604,4.186915724873543,0.44192905068397526,-0.5455686092376709,4.245375093017968
12.658984291600063,4.231767377257348,0.4630661505460739,-1.1134620340168477,4.400236709109866
12.669010291574523,4.741811227798462,0.8779880815744401,-1.610987434387207,5.084379736527928
12.679036291548982,5.639472851157189,1.1963900238275529,-2.11317175000906,6.140073124408978
12.689062291523442,6.030752150416374,1.8056494295597076,-2.80793469786644,6.893100799328508
12.699088291497901,6.1988186699152,2.7074403566122056,-2.9707141649723052,7.387877153625984
12.709114291705191,6.557484539151192,3.47147322177887,-2.748526402115822,7.912403376589342
12.719141291687265,7.313047127723694,3.8673712366819384,-2.6902127051353455,8.699107021614012
12.729167291661724,8.09828550517559,3.921346299648285,-2.452077831029892,9.325871037845776
12.739193291636184,8.478871416449547,3.9178046411275864,-1.9034113669395447,9.532231036568547
12.749219291610643,8.601139034628869,3.9269122642278673,-1.2316519501805305,9.535051082733808
12.759245291585103,8.159515208601952,4.053123244643212,-0.5166373170912266,9.125371805744953
12.769271291559562,6.359988983273507,3.9550812256336214,0.7538579790294171,7.527312217602392
12.779297291534021,3.572493227720261,3.2471138030290607,2.539754490852356,5.454980181974421
12.789323291508481,-0.0023552584648132324,1.7502733737230303,4.196242033839226,4.546637178901062
12.799349291715771,-5.161814389228821,-0.2795232206583023,5.849652771949768,7.806465177794396
