Time (s),Linear Acceleration x (m/s^2),Linear Acceleration y (m/s^2),Linear Acceleration z (m/s^2),Absolute acceleration (m/s^2)
0.01420741667971015,-0.2687506029009819,-0.024584618210792542,-1.7660789823532106,1.786579486594975
0.024232416646555066,0.08837452501058579,0.16901113718748093,-1.9806150788068773,1.9897765984053146
0.034258416621014476,0.22610422790050508,0.5959809637069703,-2.0674813145399096,2.1635145982745865
0.04428341658785939,0.393771967291832,0.9743002018332482,-1.8832647854089737,2.1566185331390195
0.0543094165623188,0.5098368591070176,1.0323648074269296,-1.5443812161684036,1.926349931702843
0.06433441652916372,0.44230298012495045,1.0154257160425186,-1.1340499341487884,1.5851784013702512
0.07436041650362313,0.41106364578008653,1.0160887902975082,-0.6306046664714814,1.2645441850824661
0.08438541670329869,0.5308210542798043,0.9412961778044701,-0.2695823693275452,1.11377023656959
0.0944114166777581,0.6786848589777947,0.745287276506424,-0.028086515665054324,1.0083923416459861
0.10443641664460301,0.451704133450985,0.5354716372489929,0.647641698718071,0.9540473093055978
0.11446241661906242,0.1494261807203293,0.8499655929207802,1.7861542278528215,1.983712836655131
0.12448741658590734,0.08151881083846092,0.9642312964797021,2.4514603650569917,2.63553509388071
0.13451341656036675,0.40105233550071717,0.8902991017699242,3.1923452728986743,3.338344471114601
0.14453841652721167,1.0654319813847541,0.6017167899012565,3.6123191982507707,3.813929521144512
0.15456441673450172,1.3411048105359078,0.25235354840755464,3.29500074505806,3.5664091655570886
0.16458941670134664,0.9267681857943535,0.08699458211660385,2.7514587807655335,2.90465019404574
0.17461441666819155,0.04456601589918137,0.03316950023174286,2.099481371641159,2.1002162687178174
0.18464041664265096,-0.7067747367918492,0.28890800178050996,1.1899779671430588,1.4138762054529108
0.19466541660949588,-1.2014925965666772,0.7763988491892815,0.5592920243740082,1.5359645833011102
0.2046914165839553,-1.4136827901005746,1.296563937664032,0.3330328452587128,1.9469175512842138
0.2147164165508002,-1.1973513060808183,1.4765348035097123,0.11419027447700501,1.9044276292193516
0.22474241652525961,-0.5540008789300919,1.3913815096020699,0.3049118310213089,1.5283424694140435
0.23476741672493517,0.5440886789560319,1.1385227617621423,1.5195200246572496,1.9751475071378806
0.24479341669939458,1.620986319333315,0.6169400158524514,2.594775620698929,3.121069072032739
0.2548184166662395,2.2859324142336845,-0.23498468667268754,3.0258282655477524,3.7995185876637874
0.2648444166406989,2.4436227571964264,-1.0235398972034455,3.183386169075966,4.141602781788672
0.2748694166075438,2.135372458398342,-1.4734179452061653,3.062989659905434,4.014060492073997
0.28489541658200324,1.5890505816042424,-1.690599029660225,2.655889549255371,3.5266068859214763
0.29492041654884815,1.2031033582985402,-1.8520140489935877,2.0939335334300995,3.0433487100301058
0.30494641652330756,1.1788260843604803,-1.9576928240060807,1.2671413332223893,2.6130134497729207
0.3149714167229831,1.1964324161410331,-1.9288961640000344,0.22353963911533356,2.2808026894369737
0.32499741669744253,1.0827447829395533,-1.6298751103878022,-0.7868001687526703,2.1090006273099355
0.33502241666428745,0.9657878252863884,-1.2140129470825196,-1.6156055653095247,2.2398113540685753
0.34504841663874686,0.7223942577838898,-0.8466566535830499,-2.3062248837947847,2.5607331308377006
0.3550734166055918,0.5568606790155173,-0.6840125495195389,-2.525360400080681,2.6749602116722224
0.3650994165800512,0.530388506501913,-0.6580523738265038,-2.2333136129379274,2.3878933368686894
0.3751244165468961,0.38774853117763997,-0.5654044112563134,-1.791730132699013,1.9184180827234032
0.3851504165213555,0.2522542188316584,-0.4683529105782509,-1.5353811818361283,1.624925233142127
0.39517541672103107,0.22440915662795308,-0.4037224665284157,-1.3632239502668382,1.4393508391422085
0.4052014166954905,0.1467594849318266,-0.3737847223877907,-1.1565272158384323,1.2242583739076358
0.4152264166623354,-0.023137414064258337,-0.30582224249839784,-1.0246187084913254,1.0695354513651063
0.4252524166367948,-0.11593497399240733,-0.2527362486720085,-1.1740326100587846,1.2065111267903257
0.4352774166036397,-0.25955391939729455,-0.20362636148929597,-1.568175290822983,1.6024998205664842
0.44530341657809913,-0.3407320933789015,-0.03204361885786057,-1.9397073733806611,1.969667445868764
0.45532841654494405,-0.3496307516098023,0.17733464866876603,-2.223089756369591,2.257391703928478
0.46535441651940346,-0.2748979999870062,0.353885478079319,-2.523918476700783,2.563390005251617
0.475379416719079,-0.19032237444072964,0.565896746814251,-2.693370201587677,2.7587505826131062
0.4854054166935384,-0.06946441031992436,0.7374286186695099,-2.8021307516098024,2.89837247796953
0.49543041666038334,0.029321136977523567,0.7839438039064408,-2.9242171061038973,3.027618420539089
0.505456083221361,0.13944392379373313,0.6701596185564995,-2.736833724975586,2.821137600399975
0.515481083188206,0.17552796866744758,0.5011478966474533,-2.396531621217728,2.4546533550778933
0.5255060833878815,-0.026140196844935418,0.3860425329208374,-2.099099548459053,2.1344627102519333
0.5355320833623409,-0.20159357696771624,0.3568941628932953,-1.6901774454116822,1.739170265028788
0.5455570833291858,-0.24427459672093393,0.3270961672067642,-1.1703506183624268,1.2395089959761667
0.5555830833036453,-0.3441664554923773,0.2557937577366829,-0.7435307729244233,0.8583233690566916
0.5656080832704902,-0.3987772569805384,0.3826607957482338,-0.5588862276077271,0.7860066161917405
0.5756340832449496,-0.40073256589472295,0.5065729433298112,-0.5349652683734895,0.8386838347364972
0.5856590832117945,-0.29242565017193556,0.6433013105392457,-0.603125091791153,0.9290367126050924
0.5956850831862539,-0.15434829376637937,0.7586800315976143,-0.7507146620750428,1.0784207388528817
0.6057100833859295,-0.14295462861657143,0.8144437578320504,-0.811114645600319,1.1583011822586664
0.6157360833603889,-0.16280234433710575,0.834621621966362,-0.5897174263000489,1.034825829817449
0.6257610833272338,-0.18121515333652496,0.7880997124314308,-0.11393358170986176,0.8166522819257422
0.6357870833016932,-0.22248885791748763,0.7212265688180923,0.5548352766036988,0.9367556990114602
0.6458120832685381,-0.29293505229055883,0.6315516230463982,1.4903880268335343,1.6449695644484637
0.6558380832429975,-0.36623629588633777,0.5785150381922722,2.4842357629537584,2.576865537776
0.6658630832098424,-0.398636119812727,0.5575600790977479,3.2904176974296573,3.3610463581124734
0.6758890831843019,-0.33810629155486827,0.6648532703518868,3.9524973410367967,4.022260678572379
0.6859140833839774,-0.20406994588673116,0.9370434978604317,4.2878731656074525,4.39380829623155
0.6959400833584368,-0.007368295714259148,1.191478070318699,4.0199981832504275,4.192858175179413
0.7059650833252817,0.1457275975495577,1.3529951235651971,3.225001972317696,3.500352847718612
0.7159910832997411,0.0820921303331852,1.4510833355784416,2.4730231422185898,2.8684883521821742
0.7260160832665861,-0.235215432420373,1.4557470747828485,2.0111340361833574,2.49382957655143
0.7360420832410455,-0.48121141288429503,1.0802111113071442,2.0006300979852676,2.3239925253421228
0.7460670832078904,-0.7039911697804928,0.388655945956707,2.4470802158117295,2.575821925924537
0.7560930831823498,-1.1150290878117084,-0.2144080424308777,2.849333569407463,3.0672402033550497
0.7661180833820254,-1.3476503299176694,-0.8443373554944993,2.942321255207062,3.3445958426174465
0.7761440833564848,-1.164783484339714,-1.4432448506355287,2.7533836841583255,3.319758722628168
0.7861690833233297,-0.7126481187343597,-1.755498153269291,2.3823451066017154,3.043880634028978
0.7961950832977891,-0.22297662533819676,-1.7728620448708534,1.8301328909397125,2.557761678517024
0.806220083264634,0.03894172534346581,-1.4936993050575258,1.1772023856639862,1.902224889100929
0.8162460832390934,0.1805792686343193,-1.1437431558966638,0.41334493696689606,1.229476033047059
0.8262710832059383,0.31617440890520815,-0.9082085385918618,-0.4492731535434723,1.0614402352052703
0.8362970831803977,0.3577270256727934,-0.7038673549890518,-1.2867236584424973,1.5096541496354825
0.8463220833800733,0.374897008985281,-0.5036434882879257,-1.9011432319879533,2.002136388754408
0.8563480833545327,0.3619592403620482,-0.28365252435207366,-2.3260258948802948,2.371048230194496
0.8663730833213776,0.2934863716363907,-0.08030390560626983,-2.4416879135370255,2.46057367999918
0.876399083295837,0.23707546826452017,-0.01000107765197754,-2.424111183285713,2.435696990214075
0.886424083262682,0.1259746067225933,-0.1439069938659668,-2.172313120365143,2.1807161936696384
0.8964500832371414,-0.06624054796993732,-0.425767931342125,-1.7924604499340058,1.8435239640786687
0.9064750832039863,-0.24720386903733016,-0.7050063925981522,-1.4145847231149675,1.599748013076289
0.9165010831784457,-0.355485422462225,-0.8705732274055481,-1.0823418366909028,1.433782229388374
0.9265260833781213,-0.40051852125674486,-0.9140884986519814,-1.0134142738580705,1.4223154923211667
0.9365520833525807,-0.45069534257054333,-0.8631253364682198,-1.2425508677959443,1.5786210113034131
0.9465770833194256,-0.4473578980565071,-0.6262055137753487,-1.615744144320488,1.7896624191009127
0.956603083293885,-0.43590181387960913,-0.23419414311647416,-2.1208494365215302,2.177810740263553
0.9666280832607299,-0.29475836031138897,0.15658434212207795,-2.562297846078873,2.583944929597319
0.9766540832351893,-0.07514644213020802,0.48069024324417114,-2.7936914652585987,2.8357401328002014
0.9866790832020342,0.09003535352647304,0.7360200244188309,-2.7970512753725054,2.8936702780885546
0.9967050831764936,0.215500156134367,0.8699689176678658,-2.5638795179128646,2.716019958942724
1.0067300833761692,0.3073572096973658,0.859455039203167,-2.1473805928230285,2.3333184157327627
1.0167560833506286,0.30808635748922825,0.7245252755284309,-1.6854599118232727,1.8602766441886658
1.0267810833174735,0.2983672618120909,0.5319761717319489,-1.3096891826391222,1.444751682931623
1.036807083291933,0.23794769011437894,0.32373869597911836,-0.9921432727575302,1.0704083894397742
1.0468320832587779,0.10013934217393398,0.19828229874372483,-0.7276912504434586,0.7608405311351968
1.0568580832332373,-0.15086839646101,0.13732799917459487,-0.5153437668085099,0.5542557626190259
1.0668830832000822,-0.4049947110190988,0.18709832936525345,-0.4014709961414337,0.6001711935335677
1.0769090831745416,-0.5265430485829711,0.29513177812099456,-0.4186436837911606,0.7345834754785479
1.0869340833742172,-0.5056869074329734,0.42528992146253586,-0.47478806376457217,0.8136427171308338
1.0969600833486766,-0.3236471870541573,0.5799303567409516,-0.33258553326129914,0.7427515447930477
1.1069850833155215,-0.041046320982277396,0.6497358790040016,0.09776076793670654,0.6583302216052802
1.1170110832899809,0.23029536589980126,0.6018226245045663,0.829191312789917,1.0501355436926956
1.1270360832568258,0.3022530289739371,0.546676071882248,1.8248329746723175,1.9287890000059476
1.1370620832312852,0.26369725640863184,0.40108478754758836,2.7444655108451843,2.786125659416361
1.1470870831981301,0.07123845554888249,0.20868127942085268,3.3053579181432724,3.3127049009777707
1.1571130831725895,-0.1699551336094737,0.0427475318312645,3.522833409905434,3.527189721699674
1.167138083372265,-0.3748614871501923,-0.10086271584033966,3.424507800936699,3.4464399168811064
1.1771640833467245,-0.40849138252437117,-0.09838349640369416,3.0223082417249683,3.0513753669386463
1.1871890833135694,-0.44072119865566495,0.2064409187436104,2.3669985044002533,2.416512972799697
1.1972150832880288,-0.1221521356701851,0.5145169705152511,1.5091447252035142,1.5991143357516902
1.2072400832548738,0.4959759247675538,0.7407951530814171,0.7906055366992951,1.1915648079049377
1.2172660832293332,0.8162126867473126,1.015805785059929,0.4664774161577225,1.3840757648169664
1.227291083196178,0.926868977174163,1.1257770010828971,0.47835661947727204,1.5346937845748916
1.2373170831706375,1.0270368245244026,0.8490803244709969,0.811026937365532,1.5599701053114627
1.247342083370313,1.0805542697757482,0.47957547158002856,1.6019926625490188,1.9909722885396226
1.2573680833447725,1.0888813626766205,0.19191000312566758,2.3994400262832642,2.6419319656293987
1.2673930833116174,1.105941199064255,-0.08824179321527481,2.6752017331123352,2.896134814318003
1.2774190832860768,1.235412586927414,-0.43629175007343296,2.382406502366066,2.7189070402713176
1.2874440832529217,1.3750233390927316,-0.7667263850569725,1.7848883056640625,2.379996805940837
1.297470083227381,1.3994173380732537,-0.9246854075789452,1.1521932595968247,2.034935206966017
1.307495083194226,1.4390940584242344,-0.9184610465168953,0.7573606073856354,1.8676609683184962
1.317521083401516,1.5520704509317875,-0.9201239946484566,0.6025175660848617,1.9022560993789088
1.327546083368361,1.729369577765465,-0.9509674724936485,0.5227878570556641,2.0416575162662602
1.3375720833428204,1.7364515791833401,-0.9234832200407982,0.37473401784896854,2.0021266015610673
1.3475970833096653,1.6384911288321018,-0.8429126814007759,0.04274548530578613,1.8430903787502577
1.3576230832841247,1.4017404368519784,-0.7322971022129059,-0.482985275387764,1.6536051749002203
1.3676480832509696,1.1386820983886718,-0.6129256099462509,-1.1020206409692765,1.6990362614262087
1.377674083225429,0.8182290259748698,-0.5295121550559998,-1.6887513095140458,1.9498109771681045
1.387699083192274,0.45519996441900734,-0.45424854934215547,-2.071663243174553,2.169178956496449
1.397725083399564,0.20667747516185045,-0.3642134150862694,-2.1936279755830768,2.233242191462625
1.407750083366409,0.022290828600525857,-0.3223321482539177,-2.094790735244751,2.1195620111959284
1.4177760833408684,0.016921001560986044,-0.3071396201848984,-1.9838047349452974,2.0075114677063572
1.4278010833077133,0.08415447983890773,-0.2936220270395279,-1.993583618402481,2.016846923988652
1.4378270832821727,0.15693654550239444,-0.17688324362039567,-2.0176267844438556,2.0314365858901797
1.4478520832490176,0.2158805175125599,0.009365192949771882,-2.120422005057335,2.131403665243129
1.457878083223477,0.3385360984504223,0.2321789002418518,-2.2051984459161758,2.243081344388265
1.467903083190322,0.5330534846708179,0.34660832583904266,-2.2521334612369537,2.3401684717737283
1.477929083397612,0.6166379340738058,0.41818204611539844,-2.140988416671753,2.266925222797323
1.487954083364457,0.6307857839763165,0.4801189702749253,-1.8315800768136978,1.9957681500277886
1.4979800833389163,0.6883030170947314,0.5030815708637237,-1.472768611907959,1.701734260836785
1.508005541516468,0.7520498737692833,0.5051725351810455,-1.2461124068498612,1.5406409164509405
1.518031541723758,0.6891603650897742,0.5311318337917328,-1.1971583479642869,1.479942952879678
1.528056541690603,0.48233261648565534,0.5664308899641037,-1.2493429934978486,1.4540793036948123
1.5380825416650623,0.2925754119828344,0.6121113851666451,-1.3180471926927568,1.4824065305147611
1.5481075416319072,0.18588839426636697,0.7019632092118263,-1.257833735346794,1.4523954516543913
1.5581335416063666,0.1195663507282734,0.7934127849340439,-1.068595617413521,1.336299574600941
1.5681585415732116,0.10817210085690022,0.8628829693794251,-0.8447191786766053,1.2123608015244174
1.578184541547671,0.053052591606974606,0.9361865884065629,-0.645633180141449,1.138464803622886
1.5882095415145159,-0.08038514535874129,1.0002565768361091,-0.47601597905159,1.110660255618558
1.598235541721806,-0.25087000016123057,1.005526379942894,-0.2997902548313141,1.0788388455342999
1.6082605416886508,-0.31313769400119784,0.9586103680729866,-0.09661062061786652,1.0130758437538545
1.6182865416631103,-0.1701309520751238,0.8508394593000412,0.11805645346641541,0.8756766826637801
1.6283115416299552,0.05714918743818999,0.7029961198568344,0.3690815144777298,0.7960469449019855
1.6383375416044146,0.16206201374530793,0.62473230779171,0.72994710624218,0.9743599594653264
1.6483625415712595,0.15719512034207583,0.6006555202603341,1.1681111347675324,1.322868467779947
1.658388541545719,0.06368860378861428,0.5676003330945969,1.5175015658140183,1.6214306579775892
1.6684135415125638,0.0980801720917225,0.5026851296424866,1.7075606328248978,1.782715730141682
1.6784395417198539,0.1511675911769271,0.397575581073761,1.8118480628728868,1.8611048831875665
1.6884645416866988,0.047086129300296306,0.3409792113304138,1.9476858991384507,1.977868622491077
1.6984905416611582,-0.14016850344836712,0.33585412681102755,2.1354247909784316,2.1662142649747813
1.7085155416280031,-0.47166097283363345,0.37565407723188404,2.2277388775348665,2.307899600397646
1.7185415416024625,-0.8544702878594399,0.4671068689227104,2.042057036161423,2.2623671759388984
1.7285665415693074,-1.0860533568263055,0.526855472624302,1.569000917673111,1.979609169146003
1.7385925415437669,-1.2471783542633057,0.6138173103332519,1.0199964845180511,1.7241282916989844
1.7486175415106118,-1.2852659475803376,0.7696052616834641,0.6875840288400651,1.648324182779708
1.7586435417179018,-1.0508344075083733,0.7596144166588784,0.7287267923355103,1.4873835254792505
1.7686685416847467,-0.6633843035995961,0.5558842670917511,1.1793816429376602,1.4628831506175703
1.7786945416592062,-0.40368255928158764,0.12146216422319413,1.6880104672908784,1.7398540179249191
1.788719541626051,-0.3463864240050316,-0.28395102471113204,1.887910398244858,1.9403137403447293
1.7987455416005105,-0.2951130670309067,-0.5654862722754479,1.7855022633075714,1.8960181377668386
1.8087705415673554,-0.22803388215601444,-0.8091926658153534,1.24472252368927,1.502040739394204
1.8187965415418148,-0.3751710241287947,-0.9111479339003563,0.3937000465393067,1.0611048871067312
1.8288215415086597,-0.5455288481712341,-0.8074004942178726,-0.3712584328651428,1.0427512197181934
1.8388475417159498,-0.567285168170929,-0.7057074737548829,-0.8945637685060501,1.272823568474423
1.8488725416827947,-0.39897489286959176,-0.6832626441121101,-1.1671264636516572,1.410040066145426
1.858898541657254,-0.19178706541657448,-0.6299804762005806,-1.2277451330423357,1.393203427559721
1.868923541624099,-0.044610527828335765,-0.5526253214478493,-1.1749219715595245,1.29916376348472
1.8789495415985584,0.16096851132810117,-0.6015057054162026,-1.1172350960969926,1.2790364479710048
1.8889745415654033,0.27602439299225806,-0.725329267680645,-1.0905811482667924,1.3385287643662354
1.8990005415398628,0.1960230077058077,-0.897586778998375,-1.0798649561405183,1.4178135874941642
1.9090255415067077,0.04979123398661614,-1.037164494395256,-1.1372816902399063,1.5399996747957498
1.9190515417139977,-0.05710142299532891,-1.20257842451334,-1.3237622612714768,1.7893579753586626
1.9290765416808426,-0.23446136087179184,-1.2970454558730127,-1.606102085709572,2.0777061760661253
1.939102541655302,-0.4168974128365517,-1.2757852721214296,-1.921732447743416,2.344032234015066
1.949127541622147,-0.6196130704879761,-1.0549805219471455,-2.2867846459150316,2.593508873244922
1.9591535415966064,-0.9117436189949513,-0.7159705066680908,-2.688070870041847,2.9273905095774473
1.9691785415634513,-1.0163919684290887,-0.3924785631895065,-3.1743849653005602,3.3561603006973155
1.9792045415379107,-1.0405528827756645,-0.0432233490049839,-3.57149569272995,3.720241933388276
1.9892295415047556,-1.0666593850404025,0.14949970945715904,-3.8195158696174625,3.9684775273500272
1.9992555417120457,-0.8131312771886587,0.2332256980240345,-3.9269151878356934,4.016993850208872
2.0092805416788906,-0.5729022593423725,0.26595446437597275,-3.8575794893503192,3.908947210252062
2.01930654165335,-0.40454933591187003,0.21092792585492134,-3.1838299727439883,3.2163526004521303
2.029331541620195,-0.401302961781621,0.16513867244124414,-2.3161464393138886,2.356448424348974
2.0393575415946543,-0.5200510312244296,0.09991561308503151,-1.4375075626373293,1.5319478442346741
2.0493825415614992,-0.718829941302538,-0.011921595633029938,-0.5835076832771302,0.9259264686782052
2.0594085415359586,-1.0386358731240035,-0.31023586705327033,0.044832941293716434,1.0849058773789555
2.0694335415028036,-0.9702549518644811,-0.5924144545197487,-0.0316059547662735,1.1372548060650989
2.0794595417100936,-1.3573809738457203,0.08019763246178628,0.48114749550819397,1.4423653076958831
2.0894845416769385,-1.300898040086031,0.8340481562912465,0.24063105046749117,1.5639294549824148
2.099510541651398,-1.2060276970267296,1.1015429234504701,-0.4922092580795288,1.7059219126145857
2.109535541618243,-1.1290942727029325,1.3550091969966889,-0.4531153589487076,1.8210484148180661
2.1195615415927023,-1.0702914561331274,1.441193355023861,-0.31936497867107394,1.8233365233105154
2.129586541559547,-1.5276830300688744,1.3655477799475193,-0.17481303691864014,2.0564765443731017
2.1396125415340066,-1.6409691788256169,1.0530794459581376,0.5403587400913239,2.0233002084090734
2.149638541508466,-1.0778604575246573,0.34059819214046005,1.2811483383178712,1.7085465633570704
2.1596635417081416,-0.2755096918344498,-0.34149859026074414,-0.05603503704071045,0.44234240450237516
2.169689541682601,-0.19650562226772308,-1.2400836351513864,-1.5336936753988266,1.9820792546493853
2.179714541649446,-0.31130035266280176,-2.2366026717424394,-1.5560949432849884,2.742395101609269
2.1897405416239053,-0.5110127341747284,-2.8622056299448015,-1.3048687380552293,3.186853857039933
2.19976554159075,-0.7592629989981652,-3.388477258086205,-0.7729662412405014,3.5574900197066697
2.2097915415652096,-0.8078492680191994,-3.6950593462586405,-0.23673738956451418,3.7897399124254303
2.2198165415320545,-1.4323475410044193,-3.838695029318333,0.6891031354665756,4.15476378842944
2.229842541506514,-1.3234612758457662,-3.842537527084351,1.153270316720009,4.224532733823031
2.2398675417061895,-0.7447892399132252,-3.2053424638509753,1.3259216380119325,3.5478161610496404
2.249893541680649,-0.012324322611093522,-2.2612672506272795,1.99782518863678,3.017413951057903
2.259918541647494,0.43425048708915714,-1.6097087945044042,2.1404773700237274,2.7131861823740895
2.2699445416219532,0.3544240066409111,-1.5222503820061684,1.6252797836065294,2.254860744481
2.279969541588798,0.35756469234824184,-1.6614461280405521,1.4096373939514162,2.2080156992243456
2.2899955415632576,0.2311260359734297,-2.053583213835955,1.3322073948383333,2.458739474510372
2.3000205415301025,-0.022997026070952418,-2.5596934962272644,0.9235180109739304,2.7212947606662365
2.310046541504562,-0.11778923571109773,-2.7780022162199023,0.8771560227870941,2.9155742668784423
2.3200715417042375,0.4442691063880921,-2.3851928468048573,1.0754579097032548,2.6538895363001127
2.330097541678697,1.2179146479070186,-1.5094524349272251,1.2392577159404756,2.301634729797978
2.340122541645542,1.92965016245842,-1.0108954395353795,1.436283740401268,2.609285404491102
2.350148541620001,2.3797331553697587,-0.7577560253441334,1.741589089035988,3.04474245869181
2.360173541586846,2.7283763122558593,-0.45011486023664476,2.2395449906587603,3.5583988609864243
2.3701995415613055,3.740605647861958,0.006460296213626862,2.759804511666298,4.648515170552592
2.3802245415281504,4.0652924698591235,0.0584607544541359,3.4122847813367847,5.307891102335019
2.3902505417354405,2.539201928973198,-0.0766154819726944,3.6461330616474155,4.443838731481766
2.4002755417022854,1.728340906351805,-0.03490086078643799,3.433984968066216,3.8445588979175938
2.410301541676745,1.3511428718268872,0.16662985861301424,3.1713525992631912,3.4512070176567793
2.4203265416435897,0.9671378012001515,0.7365986064076424,3.1754006266593935,3.4001620804398156
2.430352541618049,1.1538351577520372,1.409037469625473,2.9215905368328094,3.4427334237469283
2.440377541584894,1.7675852251052857,1.9322305387258532,2.412121467590332,3.5603654808467966
2.4504035415593535,2.4877397069334983,2.317937441468239,1.6683994907140733,3.7875110155125453
2.4604285415261984,2.9829363074898723,2.946477163732052,0.8989813399314881,4.288100295058501
2.4704545417334884,2.940439036488533,3.4791988554596904,0.2954141986370087,4.564896050502572
2.4804795417003334,2.50778717815876,3.441964663267136,-0.7183947622776032,4.318820244995735
2.4905055416747928,2.114279212653637,3.026956485807896,-1.5604622286558152,4.008451636616718
2.5005305416416377,1.5940968748927118,2.6486281844973565,-1.6144220888614655,3.487511259804087
2.5105567916762084,1.192620981708169,2.172388257086277,-1.5972371220588686,2.9483524161164665
2.5205817916430533,1.1807082299888134,1.7996627578139306,-1.5770700752735138,2.6683343097424963
2.5306077916175127,1.188561917692423,1.576984705924988,-1.3831454139947892,2.4109440954042936
2.5406327915843576,1.2102429547905922,1.5880283421278,-1.1762908047437668,2.3173653320842984
2.550658791558817,1.0645984607934953,1.6274783366918564,-1.1579884350299836,2.263402932486472
2.560683791525662,0.8267422065138817,1.1311245721578598,-1.3768924015760422,1.9643772955541368
2.570709791732952,0.533516401425004,0.8185963042080403,-1.6485248047113419,1.9163438343890995
2.5807357917074114,0.5243611235171557,0.6998308758437634,-1.9201238787174226,2.1098799852743433
2.5907607916742563,0.4650657155737281,0.6004327413439751,-2.02127837061882,2.159252613339027
2.6007867916487157,0.22587085090577602,0.5060583883523941,-2.055016220211983,2.1284276823620454
2.6108117916155607,0.11097998863086105,0.5383579690754414,-2.1051262736320497,2.1757073536391562
2.62083779159002,0.2015609421953559,0.8572944930195809,-1.9205530643463136,2.11284280867044
2.630862791556865,0.4129895358905196,1.0281185594201088,-1.5986153107881547,1.945034457500806
2.6408887915313244,0.6184409961104393,0.5996429286897182,-1.0744311386346816,1.3771140763442486
2.650913791731,0.7013109523057938,0.08951224699616432,-0.290700758099556,0.7644320930900391
2.6609397917054594,0.27189253114163875,-0.5670097643136979,0.5275930988788605,0.8208410926009256
2.6709647916723043,-0.3398144094273448,-1.394450128376484,0.9055372381210327,1.6970452801877491
2.6809907916467637,-1.0207542105764151,-2.206659080386162,1.1206755977869034,2.677162163735177
2.6910157916136086,-1.753278550207615,-3.117874841988087,1.1552706491947176,3.7589598930836092
2.701041791588068,-1.8301716287434102,-3.7994780462980273,0.6554190802574158,4.267919374323214
2.711066791554913,-2.0720466743409633,-4.229782832264901,0.2919777899980545,4.719077373663467
2.7210927915293723,-2.7295100873708726,-3.8082471156120303,0.2560595136880875,4.6923914889080685
2.731117791729048,-2.6171239712834358,-3.1213805401325225,-0.4007827788591385,4.093040580450484
2.7411437917035073,-2.053131224066019,-2.1513315564393998,-1.2249829083681107,3.2162335759022223
2.751168791670352,-1.2944492921233177,-1.4428163959085942,-1.3053037708997728,2.336907370116837
2.7611947916448116,-0.18563827961683274,-1.997955143004656,-1.0029003953933717,2.2432332752966273
2.7712197916116565,0.42354452759027483,-3.0839911043643955,-0.7708887255191803,3.206970615048254
2.781245791586116,-0.24088978976011277,-4.0593262633681295,-0.6387387281656266,4.116326610722183
2.791270791552961,-1.6353136056661606,-4.529917488098144,-0.36259461343288424,4.829687142201325
2.8012967915274203,-2.946343847215176,-4.742941786944867,-0.3428655230998993,5.594103648244378
2.811321791727096,-3.70371994972229,-4.478661380410195,-0.9027767676115036,5.881407579694483
2.8213477917015553,-3.712144618034363,-3.855829417705536,-2.2949467742443086,5.823591577390988
2.8313727916684,-2.4206870537996292,-2.919813860356808,-3.911787271499634,5.448588665795153
2.8413987916428596,-1.0466159337759018,-2.2411421576142314,-4.588681420683861,5.212880227283055
2.8514237916097045,-0.42872486829757694,-1.7714205600321293,-4.8629737222194676,5.193288865083319
2.861449791584164,-0.07264580726623536,-1.7313801428675653,-4.835440353155136,5.136578435237852
2.871474791551009,-0.06509178936481476,-2.2794630548357966,-3.941767700314522,4.553868834589649
2.8815007915254682,-0.43323131740093235,-3.1879999145865443,-2.819556038975716,4.277958518581636
2.891525791725144,-0.7318977373838425,-3.696782813072205,-1.8109610402584078,4.181083275222756
2.901551791699603,-0.14884906053543093,-3.47363201379776,-1.1264117163419725,3.6547337474589625
2.9115777916740626,1.2941589778661728,-2.836500977575779,-0.5769780975580215,3.17072373139661
2.9216027916409075,3.017658535838127,-2.426081110239029,-0.38175886273384096,3.890741885765642
2.931628791615367,3.811184756755829,-1.8509985338151456,-0.698764489889145,4.294135143965994
2.941653791582212,3.5582815700769426,-1.3840184032917024,-1.3022445076704026,4.033945392584917
2.9516797915566713,2.3467887729406356,-0.9071270960569382,-2.148221422433853,3.3083458696159074
2.961704791523516,0.9667330276966095,-0.80776462957263,-2.6105531626939773,2.8986279959455974
2.9717307917308062,-0.2296318531036377,-0.884659462273121,-2.705331265926361,2.855550806858093
2.981755791697651,-1.3917969542741777,-0.8550915545225144,-2.8732200300693513,3.305098133147385
2.9917817916721106,-1.5080670833587648,-0.49130732506513597,-3.038549467921257,3.4275985886006874
3.0018067916389555,-0.8267366516590119,0.5335938039422036,-3.192090919017792,3.340308410024098
3.011832791613415,-0.35691989064216617,1.3349544167518617,-3.290967335700989,3.569308211375446
3.02185779158026,0.07200261354446412,1.7815878447890283,-3.6040956741571426,4.021037832890344
3.031883791554719,0.2735228079557419,2.046402979195118,-3.5939688813686375,4.144778908455406
3.041908791521564,0.22133406937122346,2.5965759783983233,-2.7288622158765796,3.7733121491732526
3.051934791728854,0.48798172116279603,2.540536848306656,-1.8928396010398865,3.205510161122213
3.061959791695699,0.3764285409450531,2.1625561639666557,-0.9077357912063599,2.3753593150058867
3.0719857916701585,-0.28885654628276825,2.0694325304031373,0.06346684813499451,2.0904585963451496
3.0820107916370034,-1.2554340380430222,1.610458261370659,0.3082394814491272,2.0651154963870764
3.092036791611463,-2.0819508343935014,1.0365417659282685,0.2723592120409012,2.341605784441316
3.1020617915783077,-2.4562094736099245,0.8483535155653954,0.3413013929128647,2.6209073441134025
3.112087791552767,-1.8078187465667725,1.1482727015018463,-0.06944328725337982,2.1427928475700027
3.122112791519612,0.5222165840864181,1.807423474788666,-0.7609367644786835,2.0294123625934946
3.132138791726902,2.3547398167848588,2.3465215551853182,-0.989529567360878,3.468448035992859
3.142163791693747,2.3702963340282444,1.7590383499860764,-0.8594354510307313,3.074272258977378
3.1521897916682065,-0.46817135453224185,0.025658751726150515,0.4325080168247223,0.6378918194822321
3.1622147916350514,-3.5808535766601564,-1.833017322421074,2.4801506057381633,4.725845095738849
3.172240791609511,-3.80386053442955,-2.677017878293991,2.8743210607767105,5.467860755955741
3.1822657915763557,-3.0180959075689318,-2.8969731742143634,2.220388927459717,4.736188707028858
3.192291791550815,-3.8003463578224186,-3.4227758556604386,1.9546633815765382,5.475284096079617
3.2023177915252745,-2.721697037816048,-3.8180955809354784,2.0669193971157074,5.124221348164893
3.21234279172495,-1.5445770978927613,-3.367961132526398,2.0535333663225175,4.23625776932226
3.2223687916994095,-1.2922925466299058,-3.9602454864978793,2.5630462896823882,4.891090943997739
3.2323937916662544,-0.5517380064725876,-4.618060755729675,3.9362087523937226,6.092999205138454
3.242419791640714,0.15203403890132905,-4.644384920597076,5.620976938605309,7.2930657054483525
3.2524447916075587,0.8085500568151475,-4.883607961535454,6.712013000249863,8.33993395848381
3.262470791582018,0.3285474461317063,-5.4678535634279255,7.127895044088364,8.98956360314507
3.272495791548863,-1.3890464240312577,-5.871086325645447,7.260929140448571,9.44034938939816
3.2825217915233225,-1.9356046745181084,-5.859087254405022,6.794059960842133,9.17794746456232
3.292546791722998,-0.46424114853143694,-5.111252930760384,6.162074182033539,8.019450392083032
3.3025727916974574,1.3652824625372888,-3.9499596494436267,6.138211694955826,7.425888515648291
3.3125977916643023,4.688897726833821,-3.1707544291019443,5.131897695064545,7.640407024169966
3.3226237916387618,7.503680391311646,-1.7385502910614015,4.443790632784367,8.892415404012944
3.3326487916056067,9.199698035717011,-0.3394484102725983,4.91632196366787,10.436469269923384
3.342674791580066,12.042927696704865,0.5370205646753311,3.7474673554301265,12.623945903518434
3.352699791546911,14.722040047645569,2.3964673018455507,0.29334603846073154,14.918698689616848
3.3627257915213704,15.226191658973695,3.4410250157117845,-0.2538207609951496,15.612238486945637
3.372750791721046,15.582581791877747,4.009757954478264,-0.9409802819788456,16.117706351870748
3.3827767916955054,15.15096021294594,4.731221920251847,-3.464376456141472,16.246167562314806
3.3928017916623503,13.05311606168747,4.769268583059311,-7.0216335940361025,15.570263326807815
3.4028277916368097,9.531959048509599,3.7866188496351243,-9.243721722364427,13.807357346552164
3.4128527916036546,5.130272753834725,2.653411499261856,-8.344236352443696,10.148229964806516
3.422878791578114,2.552168714404106,1.6093917292356492,-7.963504260778428,8.515932538269158
3.4329047915525734,1.2373298889398576,0.839686480164528,-6.794016691446305,6.956631472392799
3.4429297915194184,-0.13688565731048585,1.1588292646408083,-5.2838335007429125,5.4111476981633375
3.4529557917267084,-1.0835030937194825,1.2834269982576372,-4.51649637401104,4.818703488534148
3.4629807916935533,-1.6367262929677964,1.5112614172697068,-3.7139402979612353,4.330835550588423
3.4730067916680127,-2.452167293429375,1.9674144047498705,-3.3861290162801745,4.620575028054038
3.4830317916348577,-2.5830221325159073,2.4769477933645248,-3.98965113401413,5.3595326176132785
3.493057791609317,-0.05535792946815491,4.160175238251687,-4.047673639655113,5.804634734974833
3.503082791576162,2.283575109243393,5.849925836920739,-2.8687106573581698,6.904045800302105
3.513108041603118,7.551135224103928,6.865970188379288,-0.7883356475830079,10.23634030763272
3.523133041569963,5.344058067798615,4.720360717177392,0.49035802960395813,7.147112209100401
3.5331590415444225,0.8682454508543015,2.1846396356821063,1.2430069506168366,2.65924176787373
3.5431840415112674,-0.8237791299819947,0.47372328579425815,3.348502183556557,3.4807316299566433
3.5532100417185575,-1.6802623218297958,-1.1523002636432649,5.181997808218003,5.568139604224141
3.5632350416854024,-3.1075711709260943,-0.6991498214006424,3.830129150748253,4.9815357437789265
3.573261041659862,-2.6234702467918396,0.20350240051746368,4.183158888816834,4.941945735427059
3.5832860416267067,-0.9726819849014283,1.5198524388670922,5.302010740041733,5.600658851170986
3.593312041601166,-0.7534798103570939,1.8094153288006782,4.9406165599823,5.315205325242475
3.603337041568011,-0.5364159625768662,3.0094203937053683,3.6715017914772035,4.777476174276263
3.6133630415424705,1.4174422574043275,3.7424583381414416,4.944114364385605,6.36077069339274
3.6233880415093154,0.46602250277996066,2.0708057489991187,2.4172845590114593,3.216936129676858
3.6334140417166054,0.25534498393535615,3.830471505224705,-5.529028887748718,6.731112348989519
3.643440041691065,0.9407819151878357,3.391831220984459,-2.697877235412598,4.434876686103791
3.6534650416579098,1.2244233298301697,1.4173174193501472,0.9330108194053174,2.092489031501275
3.663491041632369,-1.559416161775589,0.2779511967301369,-0.3128703300654888,1.6145970013616133
3.673516041599214,-3.2582591807842256,-2.0136009764671328,0.01729372501373291,3.830292528583024
3.6835420415736735,-3.278327994346619,-2.8436360424757003,-0.49557359978556637,4.367985070188314
3.6935670415405184,-4.249164597988129,-3.173430407345295,-1.418564484268427,5.489843852705383
3.703593041514978,-5.155995824933052,-4.2976950260996825,-2.4365860716998577,7.14082818508405
3.7136180417146534,-5.467058926820755,-4.779414671659469,-3.111760700941086,7.900290663825329
3.723644041689113,-4.076315640807152,-5.733424158096314,-1.0559758642315864,7.113619810333632
3.7336690416559577,-2.44347599208355,-6.062427102327347,1.8424357250332832,6.791035760162124
3.743695041630417,-2.358994835615158,-6.358365796208382,4.314797254800797,8.038105969871767
3.753720041597262,-2.9277342063188554,-7.781143053174019,8.275501747727395,11.730376974907795
3.7637460415717214,-3.494185561537743,-9.545792976021767,10.712320100069046,14.767711339468573
3.7737710415385664,-2.7681876647472383,-10.9441961145401,8.773742408752442,14.297441987849242
3.7837970415130258,-1.0971043020486833,-10.291063295602799,1.794217099696398,10.503753453148061
3.7938220417127013,-1.2632324695587158,-4.363484095931053,-16.853998024463653,17.45545757452996
3.8038480416871607,-4.199330533146858,-1.0150006234645843,-4.526671113967896,6.25742395609282
3.8138730416540056,-0.04139828681945801,-5.951571494936943,10.219661775827408,11.826428196619863
3.823899041628465,-1.5621099740266802,-2.844296193122864,8.231531270742417,8.848068459634403
3.8339250416029245,-1.4167288970947267,1.045983265042305,4.691173170804977,5.010819042541072
3.8439500415697694,-0.5930222725868225,0.8056235253810883,2.3373449349403383,2.5424173586023886
3.853976041544229,-0.9149296206235886,-0.4324097836017609,2.0210748875141147,2.2602694822939005
3.8640010415110737,-0.7980847102403641,-0.8607364565134049,3.4528007233142857,3.6468670509370575
3.8740270417183638,-0.2756248819828034,-0.11554858267307282,4.13721848487854,4.14799919746213
3.8840520416852087,0.027401806712150575,1.436985406279564,3.601269714832306,3.877476173471591
3.894078041659668,0.49264165967702866,2.503940879702568,4.503740673065185,5.1764945459371114
3.904103041626513,0.9805324566364289,2.7418073666095735,5.658597339391709,6.363856958125545
3.9141290416009724,2.25396188557148,2.3177181708812715,6.657457308769226,7.400939097123213
3.9241540415678173,3.3714144980907443,1.7523707699775697,6.351431583166122,7.401210859653193
3.9341800415422767,3.5456483682990076,1.693209811449051,5.2722910970449455,6.575380994983343
3.9442050415091217,1.875462553203106,3.269685224890709,4.00893057346344,5.502701663836195
3.9542310417164117,-0.08682852119207382,4.977989623546601,2.566154669523239,5.601166813454671
3.9642560416832566,-1.5017088210582734,5.894031384587288,0.9638852874934674,6.158231092869976
3.974282041657716,-2.5026936686038974,5.977230246663094,-4.147384454011918,7.693604800733784
3.984307041624561,-3.0390154910087586,5.767604057192803,-7.3523953807353974,9.826423029251147
3.9943330415990204,-2.874909875392914,5.892578351497651,-3.037109298706055,7.225760812015387
4.00435904157348,-2.657687860429287,4.885545144081116,-0.4629000896215439,5.580872029647286
4.014384041540325,-2.5321507716178897,4.2715489089488985,3.9354608935117725,6.336068975011878
4.024410041514784,-2.078914960026741,3.5546603894233706,3.2440124398469927,5.2422432798412295
4.03443504171446,-1.2553156319260599,3.2790179657936096,-1.0360704803466798,3.6607674326568445
4.044461041688919,-0.03157931338995695,3.8511066216230394,-1.953895934522152,4.318533175406343
4.054486041655764,0.783371215313673,4.180240543484688,-1.0772820948064328,4.387324717201328
4.064512041630223,1.4284230360388757,2.367924703359604,0.06123555064201355,2.7660819878177176
4.074537041597068,5.0548530274629595,-11.027129513025285,1.8505092680454256,12.270839782892072
4.084563041571528,4.60440107524395,-24.305072185993197,2.471607238948345,24.86052866637533
4.094588041538373,-0.6951331496983767,-28.281639590263367,-0.9604417160153389,28.30647975816181
4.104614041512832,-7.721573958992958,-22.441433579921725,-6.504710494279862,24.60796424210323
4.114639041712508,-5.7368114501237875,-9.195047745108605,-10.072445257902146,14.795744730243682
4.124665041686967,0.4670762441307307,-1.196615726351738,-6.600891344547272,6.724716793806462
4.134691041661426,3.746186522841454,1.4707045447826386,-1.6503503054380417,4.349774873786307
4.144716041628271,5.284108904600144,2.1756887179613114,1.9029342341423037,6.023004815921155
4.154742041602731,6.412565392255783,2.1701730394363405,3.2805999299883846,7.522830706036972
4.164767041569576,6.861719847321511,1.2904021418094636,1.449929095208645,7.130962861482659
4.174793041544035,6.497247108221054,-0.9594193303585054,-1.55991668343544,6.750410764984057
4.18481804151088,6.218484610319138,-3.9211352151632313,-4.185881644785405,8.45969605650939
4.19484404171817,6.4123385202884675,-6.606529814600945,-6.708797031641007,11.391763651943524
4.204869041685015,8.455679605007171,-7.233989263772965,-8.365176401138307,13.921397001489398
4.214895041659474,11.850707498788834,-4.9148443722724915,-7.9284724223613745,15.081632483841176
4.224920041626319,12.117030630111694,-1.0038301026821137,-6.815653728246689,13.938552360610435
4.234946041600779,9.09046327650547,0.7798875904083252,-7.05334362924099,11.532319956856986
4.244971041567624,7.012907209396363,0.9046601557731628,-6.847079004049301,9.842853672220256
4.254997041542083,6.353913726210594,0.2623283135890961,-6.765314463973046,9.284961797480957
4.265022041508928,5.641821677684784,-1.1308363044261933,-5.16079229593277,7.729341479839099
4.275048041716218,5.088773310184479,-2.8087264108657837,-1.5421516728401186,6.013550501624183
4.285074041690677,4.6162118661403655,-4.282614179849625,2.1485324943065645,6.653299037743259
4.295099041657522,3.581769835352898,-6.367400913834572,5.280195947885513,9.01406339000408
4.305125041631982,0.9005536562204361,-8.030793433785439,7.365601902008057,10.934200082435295
4.315150041598827,-2.4438864666223528,-9.217380600571634,6.852063170671463,11.742378630090517
4.325176041573286,-3.35417076677084,-10.850162361860276,5.9285083222389225,12.811077071747153
4.335201041540131,-3.468455766141415,-10.855517241954804,3.1875710213184356,11.833556059275113
4.34522704151459,-3.436245793998242,-9.487391570806503,-0.2735456120967865,10.094216719314
4.355252041714266,-3.3449131625890733,-7.274025149345398,-1.8618984746932985,8.219887582481661
4.365278041688725,-6.655073398947716,-5.755348877906799,-0.7148197746276855,8.827514370535079
4.37530304165557,-8.421963390111923,-5.129850000143051,0.7146022582054139,9.887137338774325
4.38532904163003,-7.3237463629245765,-4.271775780916214,1.126616953611374,8.553045941127515
4.395355041604489,-5.738649230003357,-3.1613579535484315,2.011126434803009,6.85353256592872
4.405380041571334,-3.3038098677992824,-0.33485834598541264,3.0886981129646305,4.535123569151701
4.415406041545793,-1.263522783815861,2.913303862810135,3.5107676804065706,4.733848215571932
4.425431041512638,-2.5723796153068546,4.667440491914749,3.9997539532184603,6.663345204707492
4.435457041719928,-4.301580500900745,5.342631347179413,2.612043617963791,7.339623721945083
4.445482041686773,-4.059420403540135,5.7307870638370515,1.3724947106838228,7.155735889101492
4.455508041661233,-3.312252077758312,5.777047310471535,1.0608334386348726,6.743193385819996
4.465533041628078,-3.232039096355438,5.676962859034538,1.6437786197662354,6.736170438314953
4.475559041602537,-3.6132623541355136,5.70289701461792,2.2886833830177786,7.128588277271497
4.485584041569382,-3.9124588242173197,6.006265765428544,2.495875815153122,7.59025418420366
4.495610041543841,-4.654498849511147,6.14447991013527,2.8823568892478946,8.229639976520925
4.505635166540742,-5.808016503453255,5.570375719070435,3.6231499958038333,8.825494731066817
4.515661166515201,-6.777300671339035,4.987610632181168,4.265478329658508,9.434106719174078
4.525686166714877,-7.428079401254655,5.091377075314522,4.436488337516785,10.038969712241611
4.535712166689336,-8.126432831883431,5.555291072130204,4.200702874660492,10.702619964680771
4.545738166663796,-8.081846058368683,5.988712424039841,4.1483550918102265,10.880705959484724
4.555763166630641,-7.91041738986969,6.149371106028557,3.944376143217087,10.767895404432185
4.5657891666051,-7.22295089006424,5.845373194813728,3.634041019678116,9.977257212261785
4.575814166571945,-5.889393373131752,5.297637022733689,2.8143046545982364,8.406558333647615
4.585840166546404,-4.409438533186913,4.6336622965335845,0.059784271717071534,6.396682625815915
4.595865166513249,-3.016220705509186,3.071697918176651,-4.241115320920945,6.043175871197485
4.605891166720539,0.48914648652076725,-0.7760179030895233,-9.941327294111252,9.98355930717259
4.615916166687384,10.039397964477539,-5.701598932743073,-16.734134781360627,20.330494552758825
4.625942166661844,19.237181621789933,-9.161638509035111,-7.107833247184754,22.46165778364884
4.635967166628689,22.839324910640716,-11.515459728240968,3.311797456741333,25.791637744064094
4.645993166603148,19.143782876729965,-12.225215814113618,-0.4894878177344799,22.719593369088795
4.656019166577607,12.04516951918602,-9.547950013875962,-7.235224195718765,16.988170218587882
4.666044166544452,6.286162623167038,-4.173423859477043,-8.543694233894348,11.398597211851731
4.676070166518912,1.1587883341312408,0.3134627991914749,-5.1032147634029394,5.242504196584808
4.686095166718587,-4.001350827813149,2.6990285521745685,-0.26643773674964905,4.833896217365325
4.696121166693047,-7.464556671380997,4.562958349585533,2.5151014602184296,9.103072588719908
4.706146166659892,-9.185379374027253,5.641670234799386,4.354718534946442,11.625971391743262
4.716172166634351,-10.437025001049042,5.015707672834397,4.923484218120575,12.582905514146365
4.726197166601196,-11.039419190883637,2.69873560667038,4.951844383478165,12.396479852964095
4.736223166575655,-9.994280848503113,0.22845773220062257,5.927924770116807,11.622311934134395
4.7462481665425,-8.906869475841523,-2.6607158410549165,5.678606511354447,10.8930392708975
4.75627416651696,-8.122215235233307,-8.380853955745698,2.242977890968323,11.884445429819898
4.766299166716635,-3.4408279645442965,-17.503942941427233,-9.430884078741075,20.17842635303809
4.776325166691095,2.9830751788616183,-19.909668724536896,-5.730983530282974,20.9317418880493
4.786351166665554,1.287008710205555,-10.311410436630249,3.0432862973213197,10.82788844143935
4.796376166632399,-2.5761294347047805,-0.7330554860830307,4.8336440885066985,5.526113316281576
4.806402166606858,-3.818577976226807,4.213735148906708,4.046353923082352,6.979260830238413
4.816427166573703,-3.969745165407658,6.7276578104496005,3.9689847350120546,8.7620257999814
4.826453166548163,-4.7565535202622415,7.16709653198719,2.9174068540334703,9.083134747536414
4.836478166515008,-5.123588801622391,5.768371796607972,1.0451547145843507,7.78573206380945
4.846504166722298,-4.437543467581272,3.843801695108414,-0.15320461492985488,5.872825142299686
4.856529166689143,-3.644217221438885,2.0185488903522493,-0.21968456983566284,4.171704698321529
4.866555166663602,-2.817225338816643,0.5263108044862748,1.3779478240013123,3.1800160185539146
4.876580166630447,-1.8724670246243478,-1.0544319069385528,3.13811644077301,3.8033845717367964
4.886606166604906,-1.0595830115675926,-2.1228094232082366,4.091721884608269,4.729822828251242
4.896632166579366,-0.7850959977507591,-2.403262351155281,5.285327464342117,5.85890194998122
4.906657166546211,-0.4323168128728867,-2.0085220849514007,6.595939337611199,6.908507403041337
4.91668316652067,0.23342187210917473,-1.0434900122880937,7.321729073524476,7.399396853948133
4.926708166720346,0.1398487338423729,0.9907124590873718,7.1366845786571504,7.206478725438038
4.936734166694805,0.75332559004426,2.532756543159485,5.945176395177842,6.505957079578108
4.94675916666165,2.3304452204704287,2.5176835906505586,-0.022692897766828538,3.430775503563824
4.956785166636109,2.134889770746231,2.3820468986034395,-3.9150792539119723,5.055664874652501
4.966810166602954,1.2884341152012349,2.490428549051285,-5.83927045583725,6.477605752402491
4.976836166577414,0.7043215374648572,2.3791846865415573,-5.790816918611527,6.300011840122859
4.986861166544259,-0.44318707913160327,1.6393095928430559,-3.3970767581462864,3.7978785168873097
4.996887166518718,-1.9414765946567059,0.4283103007078171,-0.963627132922411,2.2093796261838943
5.006913166726008,-1.7270583195984364,-0.286083796620369,-0.6787151183187962,1.8775592107354155
5.016938166692853,-0.020867689400911334,-0.0690801751613617,-0.9687662507593632,0.9714502455975862
5.026964166667312,1.4864054882526399,0.3989783281087876,-1.7719829159975053,2.3470211836272536
5.036989166634157,1.9608991447091104,0.6160065078735352,-3.170802376270294,3.778700462172784
5.047015166608617,2.381771787106991,0.817695102095604,-3.7393598985672,4.508245177101892
5.057040166575462,2.7852708899974825,0.9206183767318726,-3.2887866166234017,4.406970562180442
5.067066166549921,3.125526800751686,0.6240838515758514,-2.4644669115543367,4.028895083538536
5.077091166516766,3.614553126990795,0.2644426667690277,-1.446702016890049,3.9022904758001533
5.087117166724056,4.263956007063389,-0.0001760011911392212,-0.7391034074127675,4.327539105311187
5.097142166690901,4.752052333652974,-0.13482802212238312,-0.44979560226202014,4.77519591861322
5.10716816666536,5.304461892843246,-0.26718325674533844,-1.0847118593752385,5.420821218522198
5.11719416663982,6.099718889594079,-0.8272114455699922,-2.3014418613910674,6.571718492838536
5.127219166606665,7.2367433023452765,-1.612213010787964,-2.8076835599541665,7.927973977570191
5.137245166581124,8.464291968941689,-2.01310805618763,-2.2283893802762034,8.981233869102066
5.147270166547969,9.24713708102703,-2.1322257792949677,-1.0205168867111207,9.544495046112063
5.157296166522428,9.089939950704576,-2.40994688808918,-0.9901185281574727,9.455960395995033
5.167321166722104,8.261894107460977,-2.7969431018829347,-2.8784135270118716,9.185153748879431
5.177347166696563,8.17345263183117,-3.006363469362259,-5.200600724816322,10.14346080653264
5.187372166663408,9.004143170714379,-3.416068514585495,-6.696816086769104,11.729938790764178
5.197398166637868,10.524777674674988,-3.7592760998010637,-7.419222038984299,13.41446821754865
5.207423166604713,10.381113924980164,-3.848103491663933,-7.132426051497459,13.169925139728504
5.217449166579172,9.05262886762619,-3.562996180057526,-4.306397729516029,10.6390832593257
5.227475166553631,9.013308681249619,-3.0573845189809803,-3.0158593475818636,9.984124452589281
5.237500166520476,8.747944493293762,-3.0946505784988405,-3.954276064038277,10.086609650986693
5.247526166727766,6.694155603647232,-3.853768858909607,-2.7808012783527376,8.209513348148677
5.257551166694611,4.0206612575054175,-5.14948027253151,-0.09379518628120423,6.533885640395442
5.267577166669071,2.1595878249406817,-6.495439149141312,2.03557598233223,7.1412967235424025
5.277602166635916,-2.023733908832073,-8.581333930492402,4.2135948157310485,9.771856130312832
5.287628166610375,-6.802389904260636,-11.148383224010468,6.821231971979142,14.733911990185618
5.29765316657722,-8.503801020383836,-12.314909763336182,6.632666283845902,16.36960281455418
5.307679166551679,-8.618603498339654,-11.45191686630249,2.299422233104706,14.515993551265865
5.317704166518524,-7.49275662302971,-8.063347806930542,-2.5459770977497103,11.297830723185456
5.327730166725814,-5.8130141186714175,-5.517004088759423,-3.765605710744858,8.854843512341464
5.337756166700274,-6.474230128526688,-3.870391323566437,-0.27505061231553557,7.547929358042258
5.347781166667119,-7.978413491249085,-2.5381313037872317,5.477872767448425,10.005212761803875
5.357807166641578,-8.099213458299637,-1.0344122099876405,7.042732686996461,10.782733928079736
5.367832166608423,-4.728526061475277,0.7730241286754609,2.9523889911174774,5.627888216057336
5.377858166582882,-2.187983073592186,2.2677601450681686,1.5229470777511598,3.4999105427876738
5.387883166549727,-0.34103709876537325,3.61257764518261,3.3848864829540255,4.9623059204055835
5.397909166524187,0.1629905515909195,4.536903741359711,3.62129292011261,5.807221701599602
5.407934166723862,-1.3766245990991592,5.003549557328224,2.5002939713001253,5.760388303092435
5.417960166698322,-1.494028210937977,5.120190399885177,1.6996781475842,5.597979620499714
5.427986166672781,-2.4320303598046302,5.056888443231583,1.358502323627472,5.773423677645858
5.438011166639626,-3.1723638752102854,5.966807584762574,2.1177714622020725,7.081782351670863
5.448037166614085,-2.186538226604462,6.853792777061463,2.6930860269069674,7.681675415924837
5.45806216658093,-3.1159230414032937,6.71009569823742,3.053212530612946,8.003528436667429
5.46808816655539,-5.090578345656395,6.055432078242302,3.5098087370395663,8.654536551316365
5.478113166522235,-6.172041930556298,5.472375800013542,4.263596695661545,9.285432422476351
5.488139166729525,-7.038240855932236,5.133813242912293,4.528358035683632,9.818294111430758
5.49816416669637,-7.782997205257416,4.990513190031052,4.414805692434311,10.245524715643853
5.50819041673094,-8.47172787308693,4.805575699210167,4.071427953243256,10.55652672686087
5.518215416697785,-8.836059694290162,4.577892138361931,3.6270875108242038,10.5919219768044
5.528241416672245,-8.764649988412858,4.442035591006279,3.30718985080719,10.367655198762836
5.538267416646704,-8.288462101221086,4.04605396091938,2.6161705827713013,9.587153131989057
5.548292416613549,-6.8453622615337375,3.3730680906772617,0.6562844681739808,7.659457039447498
5.558318416588008,-5.16185999751091,2.1800472325086595,-3.034681534767151,6.372338392405782
5.568343416554853,-2.9137722247838975,-0.20935137033462525,-7.269088929891587,7.834127293123051
5.578369416529313,4.858742092251778,-3.7933109879493716,-13.588701134920122,14.921440329421824
5.588394416728988,14.687316942214967,-6.992463004589081,-10.702054728269578,19.47166642171386
5.598420416703448,19.652505841255188,-9.552658776640893,0.23161873698234559,21.852412287498716
5.608445416670293,17.845234394073486,-10.998381092548371,1.0037587666511536,20.986288592744977
5.618471416644752,10.396459357738495,-8.562293057441712,-5.333500335216523,14.48604346964269
5.628497416619211,5.721624476909637,-3.8291509115695956,-8.263710837364197,10.755849578806698
5.638522416586056,1.9508623990416527,-0.17357927441596985,-6.497825982570649,6.7865850296206816
5.648548416560516,-1.2445798516273499,2.1910692340135576,-2.186020017117262,3.335932689751828
5.658573416527361,-3.786533772647381,3.6428387403488163,0.8474136487394571,5.322238438068636
5.668599416734651,-5.685048973560334,4.84638166308403,2.579253894388676,7.903147961905793
5.678624416701496,-6.796335697174072,5.522874108552933,3.3638528788089754,9.381248505283205
5.688650416675955,-7.83081222653389,5.568351413011551,4.566628646850586,10.638714902856304
5.6986754166428,-7.891127425432206,4.333668558597565,5.6062039482593535,10.605663483708323
5.708701416617259,-7.93031195640564,1.9705163526535034,6.068601762056351,10.17844338631495
5.718727416591719,-7.672725734710694,-1.557478394508362,4.965876531600952,9.271266843131913
5.728752416558564,-6.979294490218163,-7.226830517649651,3.284171701669693,10.56992973855881
5.738778416533023,-5.406154328584671,-15.513523836135866,1.8197891664505006,16.5289914710233
5.748803416732699,-1.341867579817772,-21.338777346611025,-1.9949553751945497,21.473795058140595
5.758829416707158,1.5398864614963532,-16.289203770160675,-2.2134541296958923,16.51086881312986
5.768854416674003,-1.2774707320332528,-5.9453301769495015,0.3658965361118317,6.0920245123675105
5.778880416648462,-3.4490909573435786,0.7726744651794434,2.078510917425156,4.100422160586047
5.788905416615307,-4.270332395732403,4.640852032899857,2.150460906028748,6.663162047381886
5.798931416589767,-4.7903568586707115,6.746265404820442,1.5922482776641846,8.425845377374024
5.808956416556612,-5.406603394746781,7.366653816103936,1.1377617466449739,9.20833592493968
5.818982416531071,-5.149736380577088,6.724717830419541,1.583055869936943,8.616709382098454
5.8290084165055305,-3.3044071608781818,4.324303073287011,1.2351857149600984,5.580715680353549
5.839033416705206,-2.3703238159418105,2.3026089656353,1.3737343204021455,3.578769205201106
5.8490594166796654,-1.5251342287659646,0.74999662399292,2.3638141107559205,2.9113822321988456
5.85908441664651,-0.4757282960414887,-0.9234589540958406,2.9069578796625137,3.086988494582754
5.86911041662097,0.1135864032804966,-2.171247757673264,3.6796136337518695,4.2739648091560145
5.879135416587815,1.5119961199164391,-2.565663503408432,4.2306797951459885,5.173723321595474
5.889161416562274,2.4050787886977196,-1.430044176578522,6.110285392999649,6.7204923860320465
5.899186416529119,2.1841853070259094,0.8227038270235062,7.747537935376168,8.091467796544691
5.909212416503578,2.830940275490284,1.685680936574936,5.943559055328369,6.795707270586411
5.9192384167108685,3.5143602097034456,2.4855087018013,0.9817317205667496,4.41500604319448
5.929263416677713,2.064418250620365,2.9954449635744096,-1.46772012591362,3.9228453463410506
5.939289416652173,0.6639716564118863,2.9869010120630266,-3.3678944742679597,4.550291112246131
5.949314416619018,0.1166140915453434,3.119227595329285,-4.026320777535439,5.094549895861679
5.959340416593477,-0.957518108189106,2.363097242116928,-3.203786519765854,4.094547297009045
5.969365416560322,-1.4352859130501747,1.5160836160182953,-2.018769330382347,2.90413236479534
5.9793914165347815,-1.4980670289695264,0.5761144638061524,-0.9438718762993813,1.8619900154300368
5.989416416734457,-1.3405024011433124,-0.5476092875003815,-1.4316103532910347,2.0362541154968214
5.999442416708916,-0.5583982774615288,-1.1624100995063782,-2.8582055497169496,3.1356570029483772
6.009468416683376,0.7403092494606972,-1.2541511589288712,-3.5391985970735553,3.827124197593686
6.019493416650221,2.2055829003453256,-0.756655433177948,-3.5351508620381358,4.234904366360872
6.02951941662468,3.930254532694817,0.29862607419490816,-3.6174056911468506,5.349925434835408
6.039544416591525,5.721535014510155,1.2259324961900713,-3.981738097071648,7.0776487395993515
6.0495704165659845,7.167576588392258,1.24704620718956,-3.902190821170807,8.255687227491382
6.059595416532829,8.078241249918937,0.7307844275236131,-2.6260944771766663,8.52574922071138
6.069621416507289,8.45146668612957,0.26512211322784424,-1.1306880775094033,8.53088708226186
6.079646416706964,8.249905561208726,-0.7326011574268342,-0.5493728077411651,8.300569661572101
6.089672416681424,8.351958185434341,-1.664101787209511,-0.3579280968010426,8.523646685070728
6.099698416655883,8.733790138363839,-1.8270122319459916,-0.29152009919285776,8.9276003407912
6.109723416622728,8.746512510180473,-1.8134104388952257,-0.5529415096342564,8.949619144059389
6.1197494165971875,7.80295901477337,-2.5275104212760926,-2.674014748334885,8.626982855564552
6.129774416564032,7.283686503767967,-3.619059283733368,-6.206232354640961,10.230689088430974
6.139800416538492,8.317428622841835,-4.500608904361725,-8.284898808002472,12.57277406402141
6.149825416505337,10.142667979001999,-4.697080612778664,-8.638671727180482,14.126674386606393
6.159851416712627,10.191049010753632,-4.047483605146408,-7.759335277676583,13.433052051745644
6.169876416679472,8.827853711843492,-2.6757355839014054,-4.501919850111008,10.264396933550877
6.179902416653931,8.606661729812622,-1.7307413345575333,-2.5432487869262697,9.139923746441713
6.1899284166283906,8.353501850366593,-1.731710218191147,-2.907356659770012,9.012909418771208
6.1999534165952355,6.856144527196885,-2.8596275925636294,-1.573198049068451,7.593361564390031
6.209979416569695,4.924653661251068,-4.59376674413681,1.594726912379265,6.920842470962446
6.22000441653654,3.1356035998463634,-7.204267281889916,3.352297026515007,8.54232827502317
6.230030416510999,-2.192466718554497,-10.074504647254944,4.7976661705970765,11.371901990609231
6.240055416710675,-7.435352752804756,-12.545625690221787,6.158379911184311,15.83044022281985
6.250081416685134,-8.95035054087639,-13.885836753845215,4.4236004894971845,17.10244071615758
6.260106416651979,-8.49035417854786,-12.17288674235344,-0.1531970500946045,14.842127713219115
6.2701324166264385,-8.399073879718781,-8.573051349520684,-3.800402491092682,12.589071076644066
6.280158416600898,-7.922341616749764,-6.304168539047241,-4.10176564693451,10.923850927377687
6.290183416567743,-8.977468757629396,-4.236617642641067,-0.9371110332012177,9.971060697473307
6.300209416542202,-10.923915631771088,-2.5317478984594346,3.832682629823685,11.850364394918778
6.310234416509047,-9.534095621109008,-0.1639769768714905,8.061433428525925,12.486495772791866
6.320260416716337,-5.366995525360108,1.845547320842743,6.050321027040482,8.295605488025176
6.330285416683182,-1.4065737453103067,3.521296761631966,1.530777668952942,4.089163833382203
6.3403114166576415,-0.04975512742996216,4.416707791686059,1.7534641993045808,4.752306807024223
6.350337416632101,0.36370324552059174,4.530187629461289,2.279768571853638,5.084508309575065
6.360362416598946,-1.4707364121079445,4.378614935874939,1.4044661164283754,4.82782139507694
6.370388416573405,-1.791940340101719,4.622960137724877,1.0015472035109998,5.058251419051626
6.38041341654025,-1.567839953005314,5.149638732075691,1.202172408476472,5.515625049696177
6.39043941651471,-1.7160464045405388,5.862937061190605,2.0997469814121725,6.459704608723866
6.400464416714385,-1.425566671192646,6.4082542401552205,2.6180674195289613,7.067689845605966
6.410490416688845,-2.664579096436501,6.301284692287445,3.263318191766739,7.579935102303857
6.4205154166556895,-4.446135073900223,5.759437251091004,4.041788417100906,8.323177767729792
6.430541416630149,-5.846571289300919,5.138625501394272,4.866325346231461,9.179814282425985
6.440567416604608,-7.2804050463438035,5.007763060927391,5.185300315618515,10.245454010260875
6.450592416571453,-8.293604142665863,5.186308375597,5.196776061058045,11.076468104536659
6.460618416545913,-8.846942532062531,5.242349844574928,4.643810724020004,11.283421559928307
6.4706434165127575,-9.295661369562149,5.277989793419838,4.368650110960007,11.547796341683764
6.480669416720048,-8.941151116490364,5.536807438731194,4.148657977581024,11.30538734039894
6.4906944166868925,-8.184044278264047,5.440382759571076,3.3468199396133427,10.381596651162004
6.500720416661352,-7.046013559699059,4.679950025081634,1.3627975420653822,8.567698434316187
6.510745291598141,-5.454618390798569,3.5062781882286074,-1.7733752842247488,6.722477848322362
6.520771291572601,-3.6613618424534797,1.7971469932794573,-4.731075739860535,6.246469844089911
6.53079729154706,-0.19242777407169342,-1.7498968130350114,-10.415603141784668,10.563330730014039
6.540822291513905,10.028840231895447,-6.3484378087520605,-16.309506472349167,20.171274138736916
6.550848291721195,19.721479597091676,-9.99865924358368,-3.9673100924491886,22.464405034130188
6.56087329168804,22.120035524368287,-12.278831273317337,4.699201397895814,25.73223975513785
6.570899291662499,15.185683318376542,-11.425032538175584,-2.3002211089432243,19.14229253497131
6.580924291629344,8.520671406984329,-6.38999338567257,-9.216402361392975,14.084599006781467
6.590950291603804,4.223066428005696,-1.2004210942983629,-8.73034320473671,9.772113043322705
6.600976291578263,0.19993793785572053,1.638811994791031,-4.405636088848114,4.704817667096767
6.611001291545108,-3.5326929849386217,3.0754021292924882,-0.27794264517724515,4.692043275237287
6.621027291519567,-6.426292315721512,4.014017651081085,2.3373367488384247,7.929231596300013
6.631052291719243,-7.765361418128014,3.610489019751549,2.7276980352401736,8.987591751261888
6.641078291693702,-8.938402340412141,1.89923820912838,2.374373012781143,9.441387047352832
6.651103291660547,-9.270330061912537,-0.33186106324195863,3.560607007741928,9.936149832086688
6.661129291635007,-8.73081799864769,-2.844704328775406,4.209759042263031,10.101564078774107
6.671154291601852,-7.84508878827095,-7.6606506496667865,3.115028125047684,11.398876553938674
6.681180291576311,-6.1322264850139625,-15.869790008068085,-1.9562538242340088,17.125459573060063
6.69120629155077,-2.234723961353302,-19.548773896694183,-1.4368479967117311,19.72848408299971
6.701231291517615,-0.42787322133779526,-11.150611013174057,2.0948737657070162,11.353752575906524
6.711257291724905,-3.14562017261982,-1.0533928567171098,2.4972206747531893,4.152189046682503
6.72128229169175,-4.361723499298096,4.636534448862076,2.3878765726089477,6.798826230006812
6.73130829166621,-4.45099381774664,7.285738291740418,1.8982260560989381,8.74623293660787
6.741333291633055,-4.962306806445122,7.765930352210999,0.9696291536092758,9.266841089185283
6.751359291607514,-5.288172719478608,6.683530043363572,0.3824739772081375,8.531156480502666
6.761385291581973,-4.814557022452354,4.979135093092919,0.34651126205921173,6.934826288556086
6.771410291548818,-4.529109695255757,2.8300108605623246,0.6079829220101237,5.375075751653773
6.781436291523278,-3.432563802301884,-0.06613200902938843,0.6771578586101532,3.4993442907163224
6.791461291722953,-2.090105799883604,-2.4759531819820406,1.836290009021759,3.7243586577164134
6.801487291697413,-1.5613920821249485,-2.8754027956724166,2.8038778996467593,4.309015867644346
6.811512291664258,-0.4176606206595898,-2.191897199749947,3.1462844163179398,3.8571957892601887
6.821538291638717,0.7328832855820656,-1.2111220836639405,4.705146262049675,4.9134851133491875
6.831563291605562,1.278224145770073,-0.7089222729206086,7.254030595421791,7.399823486758855
6.841589291580021,1.4640990914404393,0.8083255237340927,8.132877048254013,8.303051570590997
6.851615291554481,1.931415290683508,2.613722353577614,7.242512750029564,7.938255507415856
6.861640291521326,2.8902301651239397,3.4065527558326725,3.6262852728366854,5.753953159842003
6.871666291728616,2.2760187524557116,2.5478908914327625,0.00010524988174438478,3.416432257085398
6.881691291695461,1.6189076341688633,2.2582344460487365,-2.269223264604807,3.5874585664387775
6.89171729166992,0.74847313195467,2.447759077548981,-3.320400465130806,4.192468936059318
6.901742291636765,-0.2864379917085171,1.9918177592754365,-4.684855546653271,5.0987504549906095
6.911768291611224,-1.1455989159643651,1.4424975764751435,-4.563143413960934,4.9209220630660715
6.921794291585684,-1.7175903618335724,0.2394276934862137,-3.453177284002304,3.864178518937918
6.931819291552529,-1.437908973991871,-0.7365644001960755,-2.7921165177226066,3.225836942819952
6.941845291526988,-0.1815612354129553,-0.9212416899204254,-3.442226326167584,3.567992827068645
6.951870291726664,1.7751933297514917,-0.5038984268903732,-3.959881789684296,4.368739952307768
6.961896291701123,3.1442475387454034,0.1608650887012482,-3.7624075761437417,4.905902662170664
6.971921291667968,4.034560381472111,0.8480900985002519,-2.868830525279045,5.022660935170857
6.9819472916424274,4.788320858180523,1.2553071534633637,-1.9992777831852437,5.338625698132531
6.991973291616887,5.135736976861954,1.3486228680610657,-1.1048720356822015,5.423589231403587
7.001998291583732,5.129812577962876,1.3078385388851166,-0.1544474771618843,5.296156413100066
7.012024291558191,5.238874259591102,1.1134981405735016,0.45221342593431474,5.37495847420816
7.022049291525036,5.3862679481506355,0.5937929356098175,0.4718865291774273,5.439407077621063
7.032075291732326,5.887524603009224,-0.33924960494041445,0.15769238948822023,5.8993985401220055
7.042100291699171,6.567460473775864,-1.2360686445236206,-0.017749807834625243,6.682792666562455
7.0521262916736305,7.087927570939065,-2.13929740190506,-0.019311306774616243,7.403761446132988
7.06215229164809,6.939764973521233,-3.0062716680765154,-0.7867408195137978,7.603746993889326
7.072177291614935,6.0455081838369376,-3.666663220524788,-2.554590338766575,7.517880031798068
7.082203291589394,5.045291660428047,-3.9962111252546313,-4.794341736137867,8.025608013058395
7.092228291556239,4.933175393342972,-4.073293215036393,-6.1309757655859,8.860970653114009
7.1022542915306985,6.013627409934998,-4.068145326375961,-6.341635742783547,9.640013740456283
7.112279291730374,7.898803650140763,-3.7104997962713244,-5.9853982222080235,10.582244550189603
7.1223052917048335,8.641540955901146,-3.082939774990082,-5.942780206203461,10.931485915829397
7.132330291671678,8.478571454286575,-2.3829391837120055,-5.11367426276207,10.184018731539549
7.142356291646138,9.554866100549699,-1.766884143948555,-3.20121608376503,10.230597743657334
7.152382291620597,10.299919488430024,-1.5488929277658463,-2.2003997822105887,10.645617406772427
7.162407291587442,9.673290928602219,-1.6670809435844423,-3.1322879362106324,10.3035403613113
7.172433291561902,9.629262564182282,-2.6983227932453158,-2.076796513795853,10.213556049986906
7.1824582915287465,8.218530571460724,-4.162213577628136,-0.26565201714634895,9.216226864288902
7.192484291503206,4.924378842115402,-5.892502337694168,-0.0500568437576294,7.679426831998078
7.202510291710496,-0.6441781005263328,-8.52769040465355,2.2030916941165923,8.831199356571194
7.212535291677341,-4.985719057917595,-12.034732239246368,4.19199403166771,13.684479842375316
7.2225612916518,-7.67595281302929,-14.793793569803238,4.570162119269371,17.2818680000227
7.232586291618645,-8.481604989767074,-13.799144765138626,1.9329696267843248,16.312277309737144
7.242612291593105,-6.809695415496827,-9.641372147798538,-0.3578004813194275,11.809150254299261
7.2526372915599495,-5.429417476058006,-6.253081415891647,-1.0318370962142944,8.34531539944522
7.262663291534409,-7.040881458520889,-4.090892164707184,-0.9756149482727051,8.201294711415938
7.2726882917340845,-8.983211892843247,-2.843034948706627,1.382981107234955,9.52331771885494
7.282714291708544,-8.474156806468963,-1.001236862540245,5.96347934961319,10.410422411640972
7.292740291683003,-6.282451395392418,1.042753847837448,5.529314231872559,8.433851255354007
7.302765291649848,-2.6522473186254505,2.8726329696178436,1.318621973991394,4.1261604340578275
7.312791291624308,-0.2959591591358185,4.434558756351471,1.2130423092842102,4.6069919504513415
7.3228162915911525,0.52235720962286,4.968119523525238,0.7939162302017212,5.058198457460455
7.332842291565612,-0.06481960147619248,4.905222778916359,-0.13938124895095827,4.907630713908147
7.342867291532457,-1.7541804832220078,4.364391583800316,0.706076944693923,4.756428041744385
7.352893291506916,-1.4586744832992555,4.614730181694031,2.015667382478714,5.242745549314288
7.362919291714206,-1.356480648815632,5.347653520703316,2.359988862276077,6.000582084945509
7.372944291681051,-2.200644342005253,5.333438354730607,2.3984028764069083,6.248258682326476
7.382970291655511,-3.9407739660143855,4.660841324329376,2.826935809850693,6.726418614300582
7.392995291622356,-5.476580532789231,4.32644724726677,3.459883163273335,7.789856970382093
7.403021291596815,-6.714503914117813,4.135816322565079,4.375424695014954,9.018529854053035
7.41304629156366,-8.331231560111046,4.07692609012127,5.12531840801239,10.597152185186948
7.423072291538119,-9.486455431580543,4.1733987164497375,4.580853753089905,11.331121507115974
7.433098291512579,-10.100893131494523,4.678097627162933,4.447090508937836,11.987045234661696
7.443123291712254,-10.091035895347595,5.662107422947884,4.530106937885285,12.426195507027547
7.453149291686714,-9.496732497811317,6.608260005712509,3.7450808143615726,12.160701408396813
7.463174291653559,-8.34085549235344,6.570150777697563,2.7986270999908447,10.980394584476716
7.473200291628018,-7.171134619116783,5.822363816499711,0.8725918324291706,9.278281556581605
7.483225291594863,-5.431666315197945,4.8202867090702055,-2.4643312561511994,7.668838990182193
7.493251291569322,-3.0583870241045954,2.8870884561538697,-6.057922407388688,7.374783714578364
7.503277291543782,1.5469805958867073,-1.0699182575941086,-13.989277507066728,14.115160615866412
7.513302166713402,13.17922413110733,-5.923678522109985,-14.807967220544816,20.68955797343188
7.523328166687861,19.746943051815034,-10.036073237657547,-0.5921605391800404,22.158862336036435
7.533353166654706,19.366184062957764,-12.952653880119325,3.752554725408554,23.598771041427465
7.543379166629165,12.788197431564331,-12.11258674621582,-2.1412527108192445,17.74366688159081
7.55340416659601,7.715726743340492,-7.524861930012704,-6.101366050243378,12.384775085673404
7.56343016657047,3.7015313369035723,-1.582429633140564,-6.145981475114823,7.347006606392505
7.573456166544929,-0.5488439270853996,2.843234338760376,-3.4649769651889804,4.515670108709771
7.583481166511774,-4.062496038973332,5.169439743161202,0.18234439685940743,6.577251006607136
7.593507166719064,-6.167731947898865,5.898361832499504,2.3797735011577608,8.859735413940527
7.603532166685909,-6.803687401413918,5.537222591042519,3.503735818862915,9.446012966712097
7.613558166660368,-6.73316998064518,4.4463806569576265,4.8829595053195956,9.431286893389435
7.623583166627213,-7.027251598834992,1.3547823250293733,4.583668602705002,8.498689195456237
7.633609166601673,-7.375724017024041,-3.9746448397636414,3.954006507396698,9.264624862243503
7.643635166576132,-7.37113336801529,-11.806197323799134,4.747306441068649,14.705673082962308
7.653660166542977,-7.046669032573701,-19.783226194381715,4.9150946331024175,21.568257657146443
7.6636861665174365,-5.352328369617463,-20.52035660505295,2.7559260535240173,21.385218787453276
7.673711166717112,-4.302850223779679,-9.965958105325699,1.5627537524700166,10.967088961809644
7.6837371666915715,-4.718579070568085,-0.2423811221122742,0.8323698592185974,4.797559445811502
7.693763166666031,-5.252192462682724,4.850454833507538,0.4303176498413086,7.162235058745475
7.703788166632876,-5.22704592704773,7.708834045529366,-1.6509437978267671,9.459056342392806
7.713814166607335,-5.693456100225449,8.376496025919915,-3.3207857966423036,10.65874037326305
7.72383916657418,-5.822519352436066,7.401733016967774,-2.5061177980899814,9.7451531379382
7.7338651665486395,-5.109753704667091,5.05548277258873,-0.20159449059516193,7.190836482978794
7.7438901665154845,-3.0807195872068407,2.2816127836704254,1.4308534312248231,4.091934947094839
7.7539161667227745,-1.7597329992055895,-0.03130131483078003,2.7811755001544953,3.2912880705679415
7.763942166697234,-1.1440143205225468,-1.4840461367368698,4.0667981278896335,4.4777236085460785
7.773967166664079,-0.3682365918159485,-2.152037900090218,4.481773853302002,4.985294593413554
7.783993166638538,0.06335297361016273,-2.2295345574617387,5.057905858755112,5.527861215534508
7.794018166605383,1.3156894491612912,-1.3657885390520097,6.116234934926033,6.4034948925762265
7.804044166579843,3.0851690259575846,0.4617826867103577,7.274528594613075,7.9151928240767955
7.8140691665466875,3.6423598533868793,1.9814553236961365,6.085083893537521,7.363504362242071
7.824095166521147,3.0560747426748276,2.46918152153492,1.7147006678581238,4.286799342103338
7.834121166728437,2.00260631069541,2.4673302930593493,-0.9563643063604832,3.3185514154772084
7.844146166695282,1.8421704076230527,2.903220339417458,-1.8286417047679424,3.8943819322642086
7.854172166669741,1.2223152624070646,3.5042842876911164,-2.210591186732054,4.319812075140482
7.864197166636586,0.5836757907271386,3.2014856404066085,-1.4419643104076387,3.55941691951084
7.874223166611046,-0.17607983618974687,1.7437975823879244,-0.928261857032776,1.9833063788221212
7.8842481665778905,-1.0455641658604145,0.11190518260002137,-1.2065615478157998,1.6004742932930185
7.89427416655235,-1.3113465759158136,-0.9498994785547257,-2.6291888236999514,3.0878103458913086
7.904300166526809,-0.9717169019579888,-1.161681536436081,-3.9211931025981905,4.203509614299811
7.914325166726485,-0.8018968755751849,-0.8754427886009217,-4.127915272414684,4.295244250494377
7.924351166700944,0.2362333595752716,-0.3641938269138336,-3.8066373771429065,3.8313093668874862
7.934376166667789,2.245617908835411,0.3189878332614899,-3.7769966715574266,4.4057073083906815
7.944402166642249,4.038061109483242,0.7789192914962769,-3.1172746253013615,5.160431559097924
7.9544271666090935,5.2863805478811265,0.7994213837385178,-1.6457435765862465,5.594047351039251
7.964453166583553,5.990078918337822,0.7873369431495667,-0.10895599320530892,6.042583579762772
7.974479166558012,6.101164906024933,0.7897062349319458,0.45928826451301574,6.169181052450965
7.984504166524857,6.378277319669724,0.25086192369461063,-0.02540702909231186,6.383259260636392
7.994530166732147,7.044802016615868,-1.1409093028306962,-0.8135975195467472,7.18281632887917
8.004555166698992,7.848765517473221,-2.1932321190834045,-1.0436701065301897,8.215998695698564
8.014581166673452,8.575299603939056,-2.3856990694999696,-0.9336836877465249,8.949809415640889
8.024606166640297,8.68228026151657,-2.542151849269867,-1.3500846719741821,9.146980659527278
8.034632166614756,8.036537153720856,-2.845988962054253,-2.5972805678844453,8.912432268667207
8.044658166589215,7.278968970179558,-3.0704542154073717,-4.346640898883343,9.016893337596667
8.05468316655606,7.352236336469651,-3.428441222906113,-5.777181211709976,9.95918727201981
8.06470916653052,8.297279117703438,-3.72585575401783,-6.490056202411652,11.173525467250132
8.074734166730195,9.710671008825303,-3.5461597073078157,-7.166706522703171,12.579112150463159
8.084760166704655,9.65546276807785,-3.3205712038278583,-6.561814987063408,12.137197794790952
8.094786166679114,8.542362238168717,-2.7975278234481813,-2.97857399225235,9.469425408037157
8.104811166645959,8.565830038189889,-2.237815968990326,-1.2725586323440075,8.944309365567447
8.114837166620418,8.937553324699403,-2.7363256019353868,-2.9285452151298523,9.79508623283697
8.124862166587263,8.59136424422264,-4.006583501100541,-2.519330166578293,9.808734649098717
8.134888166561723,6.096024034023285,-5.058922104835511,-0.425873254314065,7.933194181092691
8.144913166528568,3.401655128002167,-6.421367790699006,0.1663288000971079,7.268623472366127
8.154939166503027,-0.8362354534864426,-8.148575652837753,0.869477459192276,8.23738829701085
8.164965166710317,-6.533420907855034,-10.271642353534698,3.4684893876314167,12.6579083592131
8.174990166677162,-9.777000653743745,-12.8804150390625,5.249787502884865,17.001620575323376
8.185016166651621,-10.439427037239076,-13.86472128868103,2.782582924962044,17.577112988569354
8.195041166618466,-8.565933533906938,-11.257464201450349,-1.5236955213546755,14.227697129052327
8.205067166592926,-6.2743980252742775,-7.377455962300301,-3.050745005607605,10.153914129264919
8.21509216655977,-6.943256930708886,-5.364716865420342,-2.021766028404236,9.00425131399451
8.22511816653423,-9.111617918014527,-3.4984452581405643,1.3314963734149934,9.850562567716976
8.23514416650869,-9.521486100554467,-1.5082588720321657,6.083595192432404,11.399283874590646
8.245169166708365,-6.053950978517532,0.7625663834810258,8.196929787397385,10.218683275208763
8.255195166682824,-2.262258207499981,2.062223498225212,1.6375969433784485,3.4716425079486073
8.26522016664967,0.4610193327069283,3.4169233775138856,-0.7112926610559226,3.5204888073394662
8.275246166624129,1.8465711683034898,4.338283181190491,1.7624104392528535,5.033549105372613
8.285272166598588,-0.05350143849849701,4.468035235404969,1.8204557490348816,4.8249622177728915
8.295297166565433,-2.1929040902853014,4.41320180118084,1.2572437512874604,5.085847061924609
8.305323166539893,-2.233590186238289,5.069244779348374,1.5138912025094033,5.7426504617681635
8.315348166506737,-1.7979202875494957,5.882643932104111,2.2582671904563907,6.552693163562229
8.325374166714028,-2.1313288164138795,6.24225003361702,2.875500444173813,7.195606354596649
8.335399166680872,-3.1127892261743546,6.011060482263566,4.06041179895401,7.893620770286773
8.345425166655332,-4.529536249637604,5.826224148273468,4.809447433054447,8.808653192969967
8.355451166629791,-6.136824150681496,5.566518895626069,5.5072772455215455,9.948710767269752
8.365476166596636,-7.291427632570267,5.261447435617447,6.321062314510346,10.991067956422503
8.375502166571096,-8.300275231003761,5.009469278454781,6.247457563877106,11.533433026408142
8.38552716653794,-9.176385186910629,5.106415529251099,5.341156679391862,11.781743475807895
8.3955531665124,-9.430250240564346,5.409266216754913,4.785637278556824,11.878219764144065
8.405578166712075,-9.095586606860161,5.839880320429803,4.684145987033844,11.780285289740757
8.415604166686535,-8.404701240062714,6.041791108846665,4.327614351511002,11.219201785913931
8.425630166660994,-7.279354301691056,5.703720302581788,3.374098370075226,9.84408269726418
8.43565516662784,-5.95575049996376,4.983150960803032,1.2205070109665395,7.860813881513112
8.445681166602299,-4.38540004491806,3.955049065947533,-2.0082765018939974,6.237573340336718
8.455706166569144,-2.589949036538601,1.584650990366936,-5.916562460660935,6.650162864474848
8.465732166543603,2.2217986911535266,-3.126851779818535,-16.150031851530077,16.599310837574006
8.475757166510448,14.077494449615479,-8.390884854197502,-16.19825266957283,23.0427035775466
8.485783166717738,21.904390211105348,-12.010176272392274,0.27249676778912546,24.98241179515616
8.495809166692197,20.897071659564972,-13.579089481830598,4.242052044868469,25.279918525421095
8.505834166659042,12.949756000041962,-11.222911834716797,-4.153849135637284,17.63248119670297
8.515860041603446,7.571549023389816,-6.44864856004715,-9.135543555021286,13.504502171878993
8.525885041570291,2.457936741113663,-1.4528120648860932,-7.799078217744827,8.305283677617332
8.53591104154475,-1.9621656516194343,1.829009640812874,-2.8255874419212343,3.8960640013383436
8.54593704151921,-5.03660679101944,3.8442355585098267,0.9253324019908905,6.403264405819014
8.555962041718885,-6.93422122836113,5.058815685510636,1.5164193923771383,8.716339137355776
8.565988041693345,-7.944388543367387,5.660518734455109,2.056233025789261,9.969096043646621
8.57601304166019,-8.466098173856736,5.735281818509102,2.65806822180748,10.5656804087046
8.586039041634649,-8.676659333109857,4.521472354531288,3.739507248401642,10.474351717241575
8.596064041601494,-7.508037736415863,2.5972250193357467,4.615331275463104,9.187899174173392
8.606090041575953,-5.935384063124657,-0.31279563188552856,4.3532064449787145,7.367294716293427
8.616116041550413,-5.588560559749603,-5.9694247984886175,4.123689197301865,9.158103196117839
8.626141041517258,-4.051804697513581,-15.205843348503114,4.026014968156815,16.24326290404216
8.636167041724548,-0.6310782909393311,-23.755754342079165,0.47416595656424765,23.768865297377417
8.646192041691393,1.6898812839388848,-19.24533614873886,-2.17818723320961,19.441789060029404
8.656218041665852,-1.33013075619936,-6.189250286221505,-1.581670664548874,6.525162758519893
8.666244041640311,-4.438936859071255,1.8948007571697236,-0.9799927586317063,4.924917883088297
8.676269041607156,-5.884145497083664,6.422136114835739,-1.2469029504060747,8.798964000156996
8.686295041581616,-7.064730497002602,7.5861694014072425,-0.10739173511043192,10.366866265506475
8.69632004154846,-6.991686494350434,7.089809204936028,1.8402485740184784,10.125985848886762
8.70634604152292,-5.179647812247277,6.044214779734612,3.029846472144127,8.51711532194114
8.716371041722596,-2.9760585200786593,3.7653782540559773,2.338935962319374,5.339065381401625
8.726397041697055,-2.663811357021332,1.3187845265865326,2.4344005286693573,3.842055375361675
8.736423041671515,-2.369589405655861,-0.4906971681118012,3.5336197686195376,4.2827802104904045
8.74644804163836,-0.9943263307213783,-1.8488369643688203,4.574294931292534,5.032996830043798
8.756474041612819,0.0013664942979812623,-2.1698081731796264,5.606824922561646,6.012034188855065
8.766499041579664,1.1388592690229415,-1.7169126695394517,6.675411769151688,6.986122804330985
8.776525041554123,2.820013583600521,-0.7852851551771164,7.575617516040802,8.121522648861925
8.786551041528583,3.6656662702560427,1.256429234147072,6.813313672542573,7.838173691987681
8.796576041728258,3.157991126775742,3.1126488929986955,3.0091560995578766,5.358778920555194
8.806602041702718,2.227747502177954,3.266233028769493,-2.2333662378787995,4.5408217190484095
8.816627041669562,1.1055482661724092,3.19631904065609,-4.554010355472565,5.672539351670365
8.826653041644022,0.6480562663078309,3.5667606174945834,-4.967790325284004,6.149853570841874
8.836678041610867,-0.1810099160671234,3.3972954440116885,-3.7110476803779604,5.034506511035202
8.846704041585326,-2.460191427469254,2.5551806151866914,-1.4639317148923874,3.837262813762801
8.856730041559786,-5.290014007687569,0.5056192624568939,-0.019035902917385102,5.314156697510719
8.86675504152663,-6.085326552987099,-1.7196848344802858,-1.6690295282006264,6.540196843554248
8.87678104173392,-3.8403956919908526,-2.9657177191972734,-3.7840133303403856,6.153281851598894
8.886806041700765,-1.2667346593737603,-2.6424655115604403,-3.628417460024357,4.66397405023385
8.896832041675225,1.1643157070875167,-1.3747453039884567,-2.310396433621645,2.929758931567687
8.906858041649684,3.2320680400729183,-0.017847456336021424,-1.7200346441566945,3.661297792376046
8.91688304161653,5.2686453580856325,1.4804272949695587,-2.6949033415317536,6.100228922357519
8.926909041590989,7.089966495037079,2.3948639953136444,-4.53147167801857,8.748556110895239
8.936934041557834,9.093125513792039,2.265861554145813,-4.698808465003967,10.483218073803709
8.946960041532293,10.61583987236023,1.2715401935577393,-2.2209938219189644,10.919967225977755
8.956985041731969,10.852518789768219,0.3786843967437744,1.1457174682617188,10.919397166130073
8.967011041706428,9.158078139424324,0.4012675130367279,3.8028252848982813,9.924358466534855
8.977037041680887,6.8865073639154435,0.8946520614624024,4.512405954301357,8.28167818022138
8.987062041647732,5.07216429412365,0.07228327989578247,2.0556740319728855,5.473378410530649
8.997088041622192,3.8798757997155193,-1.9576290893554689,-1.4368199300765991,4.577138777028089
9.007113041589037,2.8397888669371607,-4.5286767089366915,-3.691280290782452,6.496065249669594
9.017139041563496,2.916719513833523,-6.1377602899074555,-4.28179440021515,8.03200581327329
9.027165041537955,3.8354971870779995,-5.9800842726230625,-4.7417819917202,8.541483655475723
9.0371900415048,5.002922151088715,-4.692205204367638,-5.400340442061425,8.729816528422178
9.04721604171209,6.663181148171425,-3.4120532315969467,-5.981725001335144,9.58233396726477
9.057241041678935,7.601772696375847,-2.5101687490940097,-6.326073378324509,10.203288669063499
9.067267041653395,7.649476620554925,-2.322916930317879,-6.499773690104485,10.303275870137046
9.077293041627854,8.17869407594204,-2.4659228682518006,-5.831649194955826,10.343110978474781
9.087318041594699,9.31682887494564,-2.286674718260765,-4.45526900947094,10.577410056290054
9.097344041569158,10.11532873749733,-2.103818836212158,-4.932088980674744,11.448643189327443
9.107369041536003,10.393897107839585,-2.2365412759780883,-5.711134572029114,12.068648311527516
9.117395041510463,9.626114423274995,-3.011971533894539,-4.2604450464248655,10.949221132326267
9.127420041710138,6.993862828016281,-4.475454767346382,-1.6403077125549317,8.463712071162307
9.137446041684598,2.7718059217929842,-6.2612318497896196,1.146395745277405,6.942633185592966
9.147472041659057,-2.792922556400299,-7.74452018737793,4.009243399500847,9.15707606035873
9.157497041625902,-7.39753997862339,-10.074912782907486,5.648747119903565,13.716260763894176
9.167523041600361,-9.336892426013947,-13.331623620986939,6.510300432443619,17.529796355556705
9.177548041567206,-8.620997933149338,-13.77276095867157,2.996654752492905,16.522423838338952
9.187574041541666,-6.775931253433228,-10.654316890239716,-1.652973366379738,12.734207226948257
9.197600041516125,-5.610120413303376,-7.88593334376812,-3.1570649278163914,10.179806221759106
9.2076250417158,-6.54639412522316,-6.483633620738983,-1.5592372369766236,9.344731228446738
9.21765104169026,-9.174861987233163,-4.408871937990189,0.17810615222901108,10.180764512149137
9.227676041657105,-10.302527346611024,-1.765383163690567,4.810864505767823,11.506653063995925
9.237702041631564,-7.293732604980469,0.2862726616859436,7.6469839525222785,10.57151128835973
9.247728041606024,-3.2246818372607233,1.533838686347008,0.6597004115581513,3.63131363287501
9.257753041572869,0.8121896561980247,2.890756999254227,-2.0852504181861877,3.6557348608614983
9.267779041547328,1.3409919592738153,3.309574930071831,0.17402717113494873,3.575168682578519
9.277804041514173,-0.8934381794929505,3.1105520814657215,0.3699732879549265,3.257398696181754
9.287830041721463,-1.8671536597609522,3.2944160234928135,-0.2683076763153076,3.796238761481506
9.297855041688308,-1.688706870675087,4.436802917718888,0.41762202903628354,4.765643627557611
9.307881041662768,-1.5851599904894829,5.318882880806923,1.943645034581423,5.880561479624424
9.317907041637227,-2.583849805891514,5.568742007017136,3.088924984931946,6.872308558458334
9.327932041604072,-4.089444686472416,5.819195795059205,4.006406915187836,8.16320365512322
9.337958041578531,-5.693297640681267,5.651137461662293,4.5350735628604895,9.214981544015483
9.347983041545376,-6.806440855264664,5.786575933098793,5.262564253807068,10.368542842231115
9.358009041519836,-8.052462630271911,6.078727970123292,5.209446977376938,11.354797486383744
9.368035041727126,-9.206670255661011,6.566001008749009,4.535873461961747,12.18397695772177
9.37806004169397,-9.646762111186982,7.131408635973931,3.8201903459429745,12.590109715261109
9.38808604166843,-9.501877462863922,7.388045854568482,3.4288575446605685,12.515029401885702
9.398111041635275,-9.07988566339016,7.31929546236992,3.0974358996748927,12.066918367101929
9.408137041609734,-8.150457286834717,6.627663406133652,2.2823460245132448,10.750115328922368
9.41816204157658,-6.247634734511376,5.628014647364616,-0.16365874215960505,8.41036698549528
9.428188041551039,-3.9142480722069743,4.116861988306046,-3.804535303115845,6.836986139680993
9.438214041525498,-0.9181189844012261,1.6109079122543335,-7.353107571601868,7.58328146192862
9.448239041725174,6.77364791572094,-2.1505503684282306,-11.260732795000077,13.315828027339784
9.458265041699633,15.973372263908386,-6.125515050888062,-8.103729847669602,18.929896818632297
9.468290041666478,20.601424741744996,-9.771068068742753,2.4464747366309165,22.932023705524998
9.478316041640937,16.501323212385177,-12.606657757759095,4.623834004104138,21.27442898125304
9.488342041615397,9.819778883457184,-9.995106475353241,-3.369592505693436,14.411258252771175
9.498367041582242,6.595586750507355,-3.993406800627709,-8.256420528888702,11.296793456933813
9.508393041556701,1.1619969937205314,0.39837197184562684,-7.953073997497559,8.04737989975865
9.518418041523546,-3.868521676361561,2.6797263085842133,-3.9036877083778383,6.114341401486987
9.528444041730836,-5.942969655990601,4.230018475055695,0.2317054219543934,7.298330770381719
9.538470041705295,-6.322076221704483,5.810287562012673,3.232828470468521,9.1749261155495
9.54849504167214,-6.208715082406998,6.817906660437584,5.634918454885483,10.806678499805402
9.5585210416466,-6.143392328023911,7.422339774370194,7.4670253658294685,12.189703230028265
9.568546041613445,-6.649092282056809,6.875809882879258,8.13626141667366,12.557306222325709
9.578572041587904,-6.635489319562912,5.171147714853287,6.365540914535523,10.549435924896251
9.588598041562364,-6.727171322107315,2.6288216185569766,3.115870124101639,7.866014475542539
9.598623041529208,-7.261574673056603,-1.8532358247041703,1.5974218940734863,7.66268271964913
9.608649041503668,-5.6211634647846225,-14.150020973682404,-13.424395544528961,20.29864448650329
9.618674041703343,3.4597600793838503,-30.71652309894562,-22.284143478870394,38.105875946917166
9.628700041677803,-1.3830623835325242,-26.35292147397995,4.096494966745377,26.705254216784127
9.638725041644648,-4.923283658623696,-14.00870780467987,6.021373801231385,16.023094544885065
9.648751041619107,-4.005157657563687,-3.3009847855567935,5.0772636508941655,7.260605663242538
9.658777041593567,-3.609152346253395,3.4456302827596668,5.085552663803101,7.1246890879709035
9.668802041560411,-4.8668817088007925,7.507387526035309,5.497627000808716,10.501014602101614
9.67882804153487,-5.599347503185273,9.041444313526155,5.338659918308259,11.899651148641826
9.688853041734546,-4.867456782460213,8.901441505551338,3.9355866086483005,10.881940927979798
9.698879041709006,-2.8918668007850648,6.914110314846039,2.4205636775493624,7.875718605715578
9.708905041683465,-2.1068653817474843,3.9228835326433185,2.2738891965150834,4.9998469002078565
9.71893004165031,-1.465140772908926,0.3517427659034729,2.839302670955658,3.2143428745392932
9.72895604162477,-0.5921846589446068,-2.727233766317368,2.5270841592550277,3.7649224473272547
9.738981041591614,-0.7527088549733162,-4.516798675060272,3.1208864504098894,5.541477522081409
9.749007041566074,-0.36261727139353755,-4.595536696314812,4.751046904921532,6.6198863665061065
9.759033041540533,0.3343826749920845,-3.2874063813686374,5.722305092811585,6.6078459474185305
9.769058041507378,0.7738580878078938,-0.6968132740259171,6.457633976340294,6.541058144620713
9.779084041714668,2.0476681704819204,1.613806961774826,5.326301243305206,5.930160434652022
9.789109041681513,1.0512916597723962,2.9862958252429963,3.002935831546784,4.363576574114211
9.799135041655973,0.360239354968071,3.298628942370415,1.2938818198442459,3.561580471649494
9.809161041630432,0.30838551566004757,3.138696484565735,-0.15361205622553825,3.1575487189134637
9.819186041597277,0.16509518377482893,3.3716735297441485,-1.789797627925873,3.820839483649122
9.829212041571736,-0.7003508394956589,3.776641745567322,-3.627756432294846,5.28338252493615
9.839237041538581,-0.41742578186094764,3.420063917040825,-4.369668111205101,5.564627649905213
9.84926304151304,0.08686769753694534,2.0658318150043486,-3.4279067873954774,4.003217709272319
9.85928904172033,-0.2708494609594345,0.6149838298559189,-1.7204473114013672,1.8470255798971662
9.869314041687176,-0.7291928154230118,-0.37536844074726106,0.006169981956481934,0.8201595558492945
9.879340041661635,-0.3771773134544492,-0.833943344950676,-0.7131031782925129,1.1602759892642447
9.88936504162848,1.0453815865516662,-0.46174000203609467,-3.079244919419289,3.284474960286815
9.89939104160294,2.2589764577150344,0.279410954117775,-4.655402244329453,5.182066689487842
9.909416041569784,3.231497936546803,0.8262144953012467,-4.669860654473305,5.738711339521267
9.919442041544244,4.361908563673497,0.9853645956516266,-3.867262770831585,5.912098700366213
9.929468041518703,5.390777320861817,0.7274368965625764,-2.6437472212314606,6.048061171265364
9.939493041718379,5.9016754496097565,0.36830734312534336,-1.004465841203928,5.997864206338127
9.949519041692838,6.333630904555321,0.1313793343305588,0.06569390639662744,6.335333981248743
9.959544041659683,6.996142072677612,-0.2630562919378281,0.11607702478766442,7.002048013938595
9.969570041634142,7.8747347563505175,-0.8609650826454163,0.5216204604506492,7.938815797155783
9.979596041608602,8.853613035678864,-1.2458907973766327,1.4329661764204502,9.054948908044459
9.989621041575447,9.031208762526513,-1.5218536484241487,1.5755044832825662,9.293061100434077
9.999647041549906,8.088094977736473,-2.3294137716293335,-0.6164014872908593,8.439395694116772
10.009672041516751,6.908322740793229,-3.3629945075511936,-3.931565770804882,8.63086696450275
10.019698041724041,6.2837933313846595,-3.9511565744876864,-6.2370524436235435,9.695283394113964
10.0297240416985,7.031435281634331,-4.003718365430832,-6.995928064584732,10.69644110694508
10.039749041665345,8.847733075618745,-3.578244549036026,-7.033429766893387,11.855604114338751
10.049775041639805,10.168965246677399,-3.0289676356315614,-7.507716139554978,12.998011415519317
10.05980004160665,9.644650096893312,-2.233685495853424,-8.209824067354203,12.861175591787806
10.06982604158111,8.908767482042313,-1.7395390552282335,-7.068890206217766,11.504839978084021
10.079852041555569,8.907410343289376,-1.8468857485055925,-5.52649470448494,10.644016615473301
10.089877041522413,8.184859380126,-2.136373794078827,-4.323541181087494,9.499948652757169
10.099903041729704,6.561694534420967,-2.8433588844537736,-2.837699364423752,7.693702788105553
10.109928041696548,4.415122903883457,-4.202848802804947,-1.7086505538225174,6.330618850532171
10.119954041671008,2.1201055245101452,-6.306907959580422,0.46073022443801165,6.669648250499273
10.129980041645467,-1.3223967902362348,-8.303292979001998,3.2457274281978608,9.012666314921844
10.140005041612312,-6.104768545031548,-11.567906913757325,5.321784853935242,14.121121180180264
10.150031041586772,-8.731309164762497,-14.601761652231216,7.689904854297638,18.670346535278505
10.160056041553617,-7.809783300161362,-14.783704783916475,5.839832957983017,17.710287725235265
10.170082041528076,-6.792249078154565,-12.30779019355774,1.8585807645320893,14.179938978945442
10.180108041735366,-5.0157111811637884,-8.79706168949604,0.7891028022766113,10.157181511335276
10.190133041702211,-5.410198262929916,-7.109205588698387,0.4139420473203063,8.943287838660343
10.20015904167667,-6.909419678449631,-5.781570131778717,0.9168141782283783,9.055781673551067
10.210184041643515,-7.699843951463699,-3.6324587631225587,1.5471229755878448,8.653088641882144
10.220210041617975,-7.399985868930817,-1.648662214279175,4.192487536668778,8.663419053831502
10.23023504158482,-3.210102389752865,0.7419719052314758,4.0660157704353335,5.2333320080307075
10.240261041559279,0.35436378031969074,2.7328494322299957,2.2624362552165986,3.5654813864274733
10.250287041533738,2.087979021370411,4.4921047139167785,1.1868748497962953,5.093852477600353
10.260312041733414,2.4023408299684528,5.155487117171288,0.5806660826504231,5.717294987858613
10.270338041707873,-1.5178047439455986,4.785485835671425,-0.2893821378797293,5.028752126112346
10.280363041674718,-2.7683180576562885,5.246454005241394,0.9023526982963086,6.000258735219838
10.290389041649178,-2.34552431255579,6.081986038684845,2.691922723352909,7.052551766846624
10.300415041623637,-2.7535976922512058,6.634526867866517,3.65396950006485,8.059202201124998
10.310440041590482,-4.1768690389394765,7.227436289191246,3.935100120306015,9.228601369633544
10.320466041564941,-6.123017120361329,7.855690374970436,4.892706813812256,11.096927047140843
10.330491041531786,-7.582981499433518,8.299192326664926,5.878636250495911,12.686077638946154
10.340517041506246,-8.503272432088853,8.428927423954011,6.077474327087403,13.427142427523913
10.350543041713536,-9.102721964120866,8.103839775323868,6.093681639432908,13.625884271597618
10.36056804168038,-9.106225615739822,7.756911606788636,5.948565441370011,13.359582832205126
10.37059404165484,-8.980964807868004,7.701592268943787,4.86542253613472,12.792364473088854
10.380619041621685,-9.09057905137539,7.682046781182289,3.9310713887214663,12.534184955584577
10.390645041596144,-9.079461740255356,7.242887556552887,3.3473859500885013,12.087226247095707
10.400671041570604,-8.491882640719414,6.467877128720284,2.3307374350726606,10.926016764000675
10.410696041537449,-7.317810854315758,5.540927971601486,0.03578598305583,9.178971572164311
10.420722041511908,-6.260324946641922,3.9154043591022494,-3.1053708636760713,8.010330076457047
10.430747041711584,-4.594633593857289,-0.0801840376853943,-10.15158264398575,11.143236402382128
10.440773041686043,2.6491365998983385,-7.29285786151886,-27.55590891122818,28.627466119744916
10.450799041660503,19.509320393800735,-14.59529580116272,-15.685759420394898,28.977220197008457
10.460824041627347,33.38618401050568,-19.3582505607605,11.06122111916542,40.14635425793481
10.470850041601807,24.59962450504303,-22.73878086805344,8.653196210861207,34.598720869681436
10.480875041568652,7.644242193102837,-15.237249913215638,-7.74620535492897,18.724634069197023
10.490901041543111,2.478277157843113,-3.8129880380630494,-12.159429960250856,12.982005715903263
10.50092704151757,0.3575949516892433,2.6268551999330523,-9.353564007282257,9.722006070210771
10.510952041717246,-2.87615211635828,6.517318260669708,-3.7638667488098148,8.056946146654278
10.520978291518986,-7.027649794220925,7.509010128378868,0.7054643026739359,10.308771731911472
10.531003291718662,-9.554029948711396,7.332172785401345,2.955523098707199,12.40061945238407
10.541029291693121,-10.466863342523576,6.116132608652115,4.273184959888458,12.853887194895497
10.55105529166758,-10.213439168930055,3.7228280657529833,5.039944381713868,11.982271397166812
10.561080291634426,-8.374155385494232,1.1734297621250154,5.416547169685364,10.042031620567093
10.571106291608885,-6.0146413171291355,-2.3874245828390124,6.213222116231918,8.971055421637656
10.58113129157573,-4.384263346195221,-8.943335051536561,6.973247884511948,12.158585155834693
10.59115729155019,-1.952487340271473,-16.815071940422058,6.35699813246727,18.08231944280606
10.601183291524649,-0.47970761865377426,-18.687407695055008,2.564823843240738,18.868694896771522
10.611208291724324,-0.4447690433263779,-8.749273565411569,0.06952335756272078,8.760847043611589
10.621234291698784,-1.7287985971570017,0.29549313604831695,-2.650506602525711,3.1782457477382198
10.631259291665629,-2.9155781373381617,5.19676436662674,-3.81747168302536,7.0767256416980135
10.641285291640088,-4.393627369701862,6.5646935713291175,-1.6147729218006135,8.0626704470804
10.651311291614547,-4.429236328303814,5.162567510604859,0.8116286158561707,6.850472886129519
10.661336291581392,-4.342381202280522,3.584964753985405,1.8961929792165757,5.941699639637391
10.671362291555852,-3.634330749213696,2.0410635942220687,2.319419710636139,4.770116181439015
10.681387291522697,-2.7497964173555376,0.7414602738618851,2.3216024762392045,3.6743682085899745
10.691413291729987,-2.655088188350201,-0.4549361819028855,2.813366761207581,3.8950600445421584
10.701439291704446,-3.414050055742264,-1.5236440658569337,3.930312420129776,5.424443265659729
10.711464291671291,-3.28308587372303,-1.65764996945858,3.5657268297672275,5.122583732844938
10.72149029164575,-2.8931841784715653,-1.0300712370872498,3.132163390517235,4.3865714343811915
10.731515291612595,-2.312172233015299,0.07742999911308289,4.824870926141739,5.35084248448947
10.741541291587055,-0.6428015197813511,0.5666682869195938,6.50813286960125,6.564305004310647
10.751567291561514,0.9306030090898276,1.235369902253151,7.079164348840714,7.246152678064227
10.761592291528359,1.6063497152924537,2.2395058143138886,5.961540412902832,6.567778147504644
10.771618291502818,2.63198379278183,2.2230581814050674,2.2657563042640687,4.123466744584053
10.781643291702494,2.8774288558959964,2.112162812948227,-2.8100969982147217,4.54284863367906
10.791669291676953,1.8670083564519884,1.8636122936010362,-5.064805573225022,5.710606489550274
10.801695291651413,0.8203965157270432,2.121760432720184,-4.599391765594483,5.131210616442512
10.811720291618258,-0.7226193755865098,1.9134440195560456,-3.1955612415075305,3.794082026811358
10.821746291592717,-1.4225840064883233,0.932110494375229,-2.197647936344147,2.7788903687188693
10.831771291559562,-1.0549067008495332,-0.10398688316345216,-1.8910673099756241,2.167896904888639
10.841797291534021,-0.6952678549289704,-0.4600244289636612,-1.2901023258268833,1.5360286053471819
10.851823291508481,0.15494946062564852,-0.05821195542812348,-0.9263670668005943,0.941038739667864
10.861848291708156,1.3739579764008523,0.36905812561511997,-1.7373821635544302,2.245542518687888
10.871874291682616,2.1880549943447116,0.7350230741500855,-2.8498077785968783,3.6673216320308137
10.88189929164946,2.9209075820446015,0.9508911663293839,-3.1402442425489427,4.3928383780775135
10.89192529162392,3.902237598896027,0.7677072554826737,-2.9818276754021644,4.9707272097906205
10.90195129159838,4.999342485666276,-0.04195961952209473,-2.1235552355647087,5.431820388889214
10.911976291565225,6.014569981098175,-0.8905870771408082,-0.613475832939148,6.111018736438131
10.922002291539684,6.8773336672782905,-1.1532697319984437,0.32296160101890564,6.980834738163906
10.932027291506529,7.556656749844551,-1.2618063336610794,-0.1750785005092621,7.663280559915512
10.942053291713819,7.967655783891678,-1.7817290550470353,-1.2786540623009206,8.263961116027831
10.952079291688278,8.190331789255143,-2.373746191263199,-1.957207505106926,8.749106641061518
10.962104291655123,8.221896813511849,-2.2823711675405502,-2.0313520999252797,8.771271100150054
10.972130291629583,7.891812134385109,-2.1190291982889176,-1.8018640883266928,8.367657838393633
10.982155291596428,7.7084212321043015,-2.4076407462358476,-2.5691355800628664,8.474488154646066
10.992181291570887,7.969359077811242,-2.838216843008995,-4.025163613557816,9.368463111681777
11.002207291545346,8.991467576622963,-3.2912082409858705,-4.578987321853638,10.613466246269013
11.012232291512191,10.131174691915513,-3.659416181445122,-4.372129496634007,11.62529757737276
11.022258291719481,10.563331875801087,-3.7712459349632264,-4.410068278312683,12.052177331904462
11.032283291686326,9.310313322544099,-3.475293792486191,-4.484739561080933,10.902866138715984
11.042309291660786,8.572418096065523,-2.7616925776004795,-3.230293117761612,9.568076689365698
11.052335291635245,8.443008688688279,-2.0237657761573793,-3.1649265092611314,9.241038006795314
11.06236029160209,8.636507087945938,-2.2100516349077224,-3.9430330377817158,9.747876304413019
11.07238629157655,7.280750032067299,-3.239597792029381,-2.479688383340836,8.345847432229103
11.082411291543394,4.66754866540432,-4.252023886442185,-0.9216188353300095,6.380838420805498
11.092437291517854,0.8274514006823301,-4.965109376907349,-0.686252106204629,5.080150479898673
11.102463291725144,-3.155499628186226,-5.663125423192978,1.615872198343277,6.68125814676224
11.112488291691989,-6.384046182632447,-7.579545675516129,2.8840549206733703,10.321014053603427
11.122514291666448,-8.468155224323272,-10.694784300327301,1.2902027517557144,13.702287665729356
11.132539291633293,-8.750690930485726,-12.658585710525513,1.19845818400383,15.435371261178384
11.142565291607752,-7.9637656313180925,-11.825797190666199,0.33899232745170593,14.261344888312706
11.152591291582212,-6.764636771678925,-8.219127572178841,-1.050455800294876,10.696626855643524
11.162616291549057,-6.24983855009079,-5.3533890545368195,0.9040309953689576,8.27867914054068
11.172642291523516,-7.362926800847054,-3.388591863512993,2.802193901538849,8.57598603974609
11.182667291723192,-8.287874456048012,-1.5067432737350466,5.382614607810974,9.99658333173785
11.192693291697651,-6.061521953344346,0.6959496402740479,6.143895188570023,8.658743695294769
11.20271929167211,-3.8781923863291743,2.385695561170578,3.632023730278015,5.824389742563009
11.212744291638955,-1.8634181660413742,3.99068316757679,1.6479172790050507,4.702500479952887
11.222770291613415,-0.08055036574602127,4.789401131272316,1.7394378983974457,5.096125563605717
11.23279529158026,0.28369871735572816,5.492288492918015,1.854283061027527,5.803799059416388
11.24282129155472,-0.5571332323551178,5.96274376988411,2.288346437215805,6.411024888471772
11.252847291529179,-0.08361313730478287,6.432818393111229,2.22343064904213,6.806745733945113
11.262872291728854,0.46519249051809314,6.4844066226482395,2.006060407161713,6.8035440513206495
11.272898291703314,-0.03878545850515366,6.532650829553605,2.274590277671814,6.917426696679771
11.282923291670159,-1.2518546649813653,7.159112743735314,3.0827058863639833,7.894498778362824
11.292949291644618,-3.3208580097556117,7.531153534054757,3.9165819883346558,9.115151449417112
11.302975291619077,-5.6881520909070975,7.213486002087594,4.508737703561783,10.233189639165493
11.313000291585922,-7.666034765839577,6.865938613414765,4.434228973388672,11.205872954066564
11.323026291560382,-8.96302555024624,6.767085585594177,4.0365598368644715,11.93411453161527
11.333051291527227,-9.693766708374024,6.499292464256287,3.7292266738414765,12.25222621066106
11.343077291734517,-9.680961306095124,5.894369353652,3.4545724296569826,11.848994580095354
11.353103291708976,-8.555374631881714,4.905784696340561,3.3081441164016727,10.402162086488435
11.363128291675821,-6.115970640778542,4.12218295454979,3.009374785423279,7.965790970693829
11.37315429165028,-4.593785455226898,3.532032834291458,1.7659503436088564,6.057780234315157
11.383179291617125,-3.6858850648999217,2.395893689990044,-2.0051950192451478,4.831859098793337
11.393205291591585,-1.262580505013466,0.24663204789161683,-7.297975344657898,7.410491281279659
11.403231291566044,5.2585524791479115,-3.954397686123848,-11.51003468155861,13.257848000586533
11.413256291532889,16.30282544374466,-7.147986077070237,-8.860543155670166,19.884291473942227
11.423282291507348,22.257042803764346,-8.932928177118303,-2.1841116321086886,24.082016190669435
11.433307291707024,18.370740036964417,-11.031916043758393,-2.123614000082016,21.533624811526867
11.443333291681483,12.532574704885484,-10.811984721422196,-7.901681649684907,18.341238105503393
11.453359291655943,7.418236198425293,-7.103239089846611,-9.451285014152527,13.957543561884247
11.463384291622788,3.1323057702183723,-3.307453560233116,-5.64679064154625,7.255124605456224
11.473410291597247,-1.1379655221104623,-0.13042097568511962,-1.082014538794756,1.5756683098209547
11.483435291564092,-5.2507879614830015,2.9689570766687394,1.3408460712432861,6.179267636728867
11.493461291538551,-7.303047804236412,6.478121450543404,2.949767099618912,10.19812192028253
11.50348729151301,-8.19196316242218,9.266907101869583,3.5459714269638063,12.866924304199767
11.513512583216652,-9.026381886005401,10.115498306751252,4.498110973834992,14.28397277646624
11.523538583191112,-9.217325052022934,8.840583685040475,5.626617747545243,13.956139447707038
11.533563583390787,-9.166298739910125,5.122598868012428,5.152744188308716,11.696701433395203
11.543589583365247,-8.467964605093004,1.131620416045189,4.793181356191635,9.79599800084
11.553615583339706,-8.017976337075234,-4.072969279289246,5.294087762832642,10.435726545502554
11.563640583306551,-5.020509406328202,-23.130354866981506,-16.757670993804933,29.00066151156101
11.57366658328101,-0.10825725093483926,-46.264119830131534,-14.161539988517761,48.38315531396787
11.583691583247855,-6.714393401741982,-32.763170199394224,16.88849542737007,37.466380637421196
11.593717583222315,-7.096266285181046,-8.988742774128914,8.740166527032853,14.406422275149286
11.603743583196774,-5.686494405269623,3.754731059074402,4.609031485319138,8.226627205593058
11.61376858339645,-4.667282617092133,9.45396128475666,3.6900930136442187,11.17039379121587
11.623794583370909,-5.024932240247726,10.99818696498871,3.2548701345920565,12.522149980294435
11.633819583337754,-5.346416834592819,10.973536273241043,3.113665139079094,12.597522848070998
11.643845583312213,-5.08028783082962,10.323665031194688,1.7002106827497483,11.63091142112792
11.653871583286673,-3.6832105484604836,8.457444294691086,0.7707472229003907,9.256805886681542
11.663896583253518,-2.7854816821217536,7.375481357574463,0.7678972899913789,7.921256194906234
11.673922583227977,-2.7732858520746233,3.4881839793920517,1.1190161579847335,4.594642429312161
11.683947583194822,-3.0698677396774294,-2.229817562699318,2.5759633737802505,4.586039860826753
11.693973583402112,-3.3570777100324634,-6.3770932585001,5.941992001533508,9.340479544707136
11.703999583376572,-1.948544855117798,-7.831771169900895,8.650025265812875,11.830317147452048
11.714024583343416,0.3746004089713097,-5.251270941495895,9.787827942967416,11.11385386841731
11.724050583317876,0.02102731838822365,-1.2822984856367112,8.512272466421127,8.608339799112022
11.734076583292335,0.16679679661989213,1.9549265062808991,4.623767053484917,5.0228259556961445
11.74410158325918,3.0497281748056415,3.4183454203605654,-3.738831310272217,5.913102985723762
11.75412758323364,4.1072415643930436,2.8792841774225235,-7.671593129038811,9.165863395237189
11.764152583200485,4.333575295507908,3.2323355501890183,-8.614484719634056,10.170408789014376
11.774178583174944,4.564013479650021,3.8084318876266483,-5.581410584449769,8.153926452778837
11.784204583382234,3.2365379440784454,3.346595991253853,-0.6148512442409992,4.696054156915206
11.794229583349079,1.3729861691594125,2.145785472393036,2.306738561689854,3.436645036401493
11.804255583323538,1.57933762550354,0.623684486746788,2.2572858814895156,2.824646743419726
11.814280583290383,2.2265030685067178,-0.28195449292659763,-0.34097687244415287,2.270039532187297
11.824306583264843,1.5827521070837975,-0.6730408340692521,-3.3965820837020875,3.8072113217063284
11.834332583239302,2.035104112029076,-1.3328915190696717,-5.216755996942521,5.756109074717162
11.844357583206147,3.014139096736908,-1.297267942428589,-5.2357033145427705,6.1790393919156275
11.854383583180606,4.478035435974598,-0.9058763766288758,-5.1999382352828984,6.921905158721513
11.864408583380282,6.707403055429459,-0.7641170650720597,-4.520508148670197,8.124538421308156
11.874434583354741,9.205368080735207,-0.6471014159917832,-2.449217957854271,9.547576150493537
11.8844605833292,10.617334420681,-1.332837724685669,-0.6247720688581467,10.718889249308816
11.894485583296046,10.35317358970642,-2.4911740690469744,0.006855860352516174,10.648671213992278
11.904511583270505,9.10138178229332,-2.7793733882904053,-0.3218903911113739,9.521747749362374
11.91453658323735,7.674431952238083,-2.6752379858493804,-1.650685350894928,8.29328440354745
11.92456258321181,6.943455151319504,-3.013142731189728,-4.280071810483933,8.695378845099624
11.934588583186269,7.490345816016197,-3.4777665799856186,-6.815315759181977,10.707411906045756
11.944613583385944,8.653446471691131,-3.518899403214455,-7.843603010773659,12.197823454985087
11.954639583360404,9.989741070270538,-3.279654142856598,-7.062657659053803,12.666182975024393
11.964664583327249,11.458456392288209,-3.424955112934113,-5.640028921365738,13.222574131137476
11.974690583301708,11.383283418416978,-3.953828167319298,-4.59521334528923,12.896816826233465
11.984716583276168,10.328429342508317,-3.9268988156318665,-1.340444952249527,11.1307582698309
11.994741583243012,9.82676513671875,-3.3255278885364534,-0.33028582334518436,10.379476745711587
12.004767583217472,9.257042264342308,-3.310858393907547,-2.235961232185364,10.082367649523782
12.014792583184317,7.351491985917091,-4.67910802602768,-0.9023259472846985,8.760860600042847
12.024818583391607,3.7367672431468963,-6.857536749243737,2.45358992099762,8.185923478576203
12.034844583366066,-1.9523002293705942,-9.075763376355171,3.5328327333927154,9.93286787243852
12.044869583332911,-7.16212698340416,-11.246752102375032,3.5132258498668674,13.788700143626881
12.05489558330737,-10.017955055236817,-12.974275714159013,4.811302462220192,17.083321842625555
12.06492158328183,-10.909919736385346,-13.185715709924699,3.271508386731148,17.42389780048591
12.074946583248675,-11.707705653905869,-10.981653378009797,-1.1427979534864425,16.09264023570235
12.084972583223134,-11.204481410980225,-7.87669766664505,-3.821564733982086,14.219251978804953
12.09499758318998,-10.447603783607484,-4.8669299483299255,-3.6202146935462953,12.080785834065953
12.10502358339727,-10.458876045942308,-2.1474776566028595,1.4856465196609498,10.779930148724295
12.115049583371729,-10.02803799390793,-0.39987353682518006,6.752543560266495,12.096209711558847
12.125074583338574,-6.437483301758767,1.1799190020561219,5.940412083864213,8.838659165165044
12.135100583313033,-1.6467723941802979,2.474358061552048,3.0424536538124087,4.2533317964389274
12.145125583279878,-0.09155365616083146,3.137235850095749,2.1479875338077545,3.8032198590767705
12.155151583254337,-0.7753495663404465,3.7082644057273866,2.636614787578583,4.615639651325378
12.165177583228797,-1.8638227933645248,3.916729922890663,2.1552603006362916,4.84352719177162
12.175202583195642,-2.6659031984210015,4.552167897820473,1.0621782982349397,5.38121688566256
12.185228583170101,-2.544814671278,5.651731538772584,0.6650820426642895,6.233817868768943
12.195253583369777,-1.8491506674885752,6.468931381702423,1.1717083418369294,6.8292995139017085
12.205279583344236,-1.9450216153264046,6.292930190563202,2.370223682373762,7.000145696474766
12.215305583318695,-2.85977698892355,5.965743391513825,2.390117371827364,7.034278903404276
12.22533058328554,-4.4275122767686845,5.421402112841607,2.8875001001358034,7.571797848486523
12.23535658326,-5.94391573548317,5.463414942026138,3.9998942863941194,9.009894083817368
12.245381583226845,-6.575197509527206,6.150257543921471,4.087070424556733,9.887519142896366
12.255407583201304,-7.465182323455811,6.506552951931954,3.6518317580223085,10.554622382048153
12.265433583175763,-8.562333987951279,6.435865377187729,3.8202537882328036,11.372258591898817
12.275458583375439,-9.503421712517738,6.372183936238289,4.030330505669117,12.131088836049877
12.285484583349898,-9.373815838694574,6.4222208994627,3.4564072859287265,11.876872314943776
12.295509583316743,-8.250602549314499,6.2026333934068685,2.5582062569260597,10.634355772341667
12.305535583291203,-6.345879651904107,5.490418553352356,1.037090380936861,8.455202002653639
12.315561583265662,-4.056334827840328,4.757801608443261,-1.248001642227173,6.375581266038213
12.325586583232507,-1.8450713574886324,3.273581224679947,-3.5514444208145144,5.170433233582709
12.335612583206967,1.563000212609768,0.5461322808265686,-6.624466148614884,6.82823417048094
12.345638583181426,7.551397179365159,-2.869650889635086,-9.260604972839356,12.288909636411383
12.355663583381101,14.685203758478165,-6.067576160430908,-5.597201575040818,16.846345460137346
12.365689583355561,18.07637716770172,-9.407122163772584,0.9334799122810364,20.39903781210726
12.375714583322406,12.446399610042572,-11.556856845617295,0.1300663420557976,16.985014590994467
12.385740583296865,7.5325972115993505,-9.128857848644257,-5.581771942377091,13.085573903717647
12.395766583271325,5.340107688903809,-5.796567070484162,-8.091237856149673,11.295356124376978
12.40579158323817,1.2434554320573807,-3.063788974285126,-6.552212104797364,7.339241633623818
12.415817583212629,-2.8713834196329118,-1.0888983196020128,-3.32198564529419,4.523950808808108
12.425842583179474,-5.487556926012039,0.9316701990365982,-0.8239766196906567,5.62674220537892
12.435868583386764,-6.219239485859871,3.775359451174736,0.44324131205677986,7.2889465376532145
12.445894583361223,-7.026172202825546,5.612977947592736,1.0112876415252685,9.049603303892523
12.455919583328068,-7.854001699090005,5.138010959029198,1.1752624256908895,9.458633150389842
12.465945583302528,-7.87076975941658,2.938396604061127,1.4413538610935213,8.524124128694613
12.475970583269373,-6.091752642989159,0.733404564857483,2.617968016862869,6.670913659794744
12.485996583243832,-3.5860014653205874,-0.47732575535774235,3.504764928817749,5.03692600623437
12.496022583218291,-2.1590797019004824,-3.6288685727119447,2.609679003953934,4.963943672207925
12.506047583185136,-0.6378104826807977,-13.336321274042131,-7.219596927165986,15.178499501829249
12.516073416685686,-0.33357692867517474,-20.494834678173067,-3.0237203443050387,20.719372740832526
12.526099416660145,-5.392054352760315,-13.505204064846039,8.09495083808899,16.643107163247283
12.53612441662699,-5.521257938146592,-3.065508055686951,6.1467357659339905,8.812717483003778
12.54615041660145,-5.205439295768738,2.4680448228120806,3.751686998605728,6.874809004245143
12.556175416568294,-5.284223510026932,5.515676770806313,3.3004807555675506,8.320990419523715
12.566201416542754,-5.6434173828363425,6.179673131704331,3.081875581741333,8.918210407528031
12.576227416517213,-5.790663721561432,4.667676719427109,2.6376193392276766,7.891516208686221
12.586252416716889,-5.480462499260903,3.246315658092499,2.1556163960695267,6.724635053650523
12.596278416691348,-4.7663745036721235,1.5053399419784548,1.9528448975086212,5.3663747021519885
12.606303416658193,-3.8544407039880753,-0.29671578884124755,2.009231352210045,4.356806631767306
12.616329416632652,-3.354544696211815,-1.6337167310714722,1.661674023270607,4.084502544481763
12.626355416607112,-2.8091667062044143,-2.3220386785268783,1.7496483063697816,4.042839398715321
12.636380416573957,-1.8269780257344246,-1.9784030771255494,2.8564554780721667,3.9257184489345116
12.646406416548416,-0.5036312091350555,-1.3133647423982622,3.5665431010723117,3.833901541927778
12.656432416522875,0.8852886226773262,-0.332990745306015,4.526192811727524,4.623963683987503
12.666457416722551,2.5293838691711428,0.8310460495948792,5.358496597409249,5.9834694014941645
12.67648341669701,3.928699173331261,1.5679846715927124,4.485101503729821,6.165175473872819
12.686508416663855,4.465637876987458,2.485384740829468,1.2741223239898682,5.267109895836839
12.696534416638315,3.2181735938787464,2.9714661169052126,-2.0285037750005723,4.8271191956948565
12.706560416612774,2.3549133329093457,2.709222003221512,-2.024021299481392,4.120941990492966
12.716585416579619,1.889160532951355,2.796287044286728,-0.913365490436554,3.4960528131633337
12.726611416554078,1.4678648445010185,2.734775505065918,1.157534106373787,3.3126287857605035
12.736636416520923,0.04118690997362137,2.4642131423950198,2.4457546520233158,3.4721403471920893
12.746662416728213,-1.5482316076755525,1.4952429699897767,0.1677365903556347,2.158913665261677
12.756688416702673,-2.5055973958969116,0.17409558355808258,-2.6035821121931075,3.6175913806663873
12.766713416669518,-3.406339040100575,-0.7662963223457336,-4.430138261318207,5.6406099602923625
12.776739416643977,-2.9589796802401542,-1.0681763720512392,-4.0508840534091,5.128959263246962
12.786765416618437,-1.8032684433460235,-0.7064377909898758,-3.2713280001282694,3.801633637757519
