Time (s),Linear Acceleration x (m/s^2),Linear Acceleration y (m/s^2),Linear Acceleration z (m/s^2),Absolute acceleration (m/s^2)
0.00910849985666573,-1.476526617407799,-0.8734436255693436,-0.30263258635997775,1.7420163895005023
0.019136499846354127,-1.7511606886982918,-1.178336453139782,0.2857551831007004,2.1299522480819215
0.029165499843657017,-1.6882966884970665,-1.5433980068564417,0.5981292307376862,2.364356507090556
0.03919349983334541,-1.272963698208332,-2.0540517219901084,0.5875264745950699,2.4869162454567855
0.04922149982303381,-0.9769679939746857,-1.9099096700549127,0.30115791857242585,2.1663142664302106
0.059249499812722206,-0.2618871411681175,-1.7270806851983072,-0.7322935938835144,1.8941083589745062
0.0692774998024106,0.6934517097473145,-1.4932747972011566,-1.5010609495639802,2.227987627437268
0.07930550002492964,1.4478802308440208,-0.9962810549139977,-2.0002740025520325,2.662710872125438
0.08933350001461804,2.133854521214962,-0.6702107816934586,-2.6128891253471376,3.439434138192651
0.09936250001192093,2.6525390946865084,-0.98895917147398,-3.313807729482651,4.358362715477199
0.10939050000160933,2.8543732845783234,-1.4330706954002381,-3.6140312629938127,4.823106927658356
0.11941849999129772,1.6617976918816568,-1.5569957068562508,-2.199834794998169,3.1662407244548914
0.12944649998098612,0.2607364091277123,-1.7990157634019852,-0.510988175868988,1.888266429265626
0.13947449997067451,-0.12356511533260346,-1.7826727956533432,0.9313766688108445,2.015106233749192
0.1495024999603629,-0.31085377156734467,-1.4885859149694443,4.693589825034142,4.93379200404791
0.1595304999500513,-0.6761392736434937,-1.4239513778686523,6.541541520953179,6.728786466685625
0.1695594999473542,-1.5398382219672204,-1.5258917355537416,6.327804154157639,6.688837922377628
0.17958758329041302,-1.7219868832826615,-2.1381864309310914,4.815817682147026,5.543390658008447
0.18961558328010142,-2.39412461489439,-3.0190118739008907,4.23553239941597,5.725906048207583
0.19964358326978981,-3.62359876960516,-4.011337579786778,3.9335003221035008,6.6853363420311185
0.2096715832594782,-4.67727697044611,-4.916627188324928,3.3738270592689514,7.578446529012183
0.2196995832491666,-3.99776677697897,-4.859656012058259,1.6274455922842026,6.499767296949643
0.229727583238855,-2.339984660446644,-3.777429365515709,-0.6358209675550461,4.488738032606563
0.2397565832361579,-1.6136622431874277,-2.17949116230011,-1.5205269151926042,3.1090335574673524
0.2497845832258463,-1.417372090816498,-1.2940753626823427,-1.3017954415082933,2.319104581440591
0.2598125832155347,-0.9429331058263779,-1.2085121789574624,-0.46613769292831425,1.6021575695044554
0.2698405832052231,-0.45415265500545504,-1.404634808599949,0.6664767497777939,1.6197051699533132
0.2798685831949115,-1.0757537788152696,-1.2623743906617164,1.5013246589899063,2.2371434970794852
0.2898965831845999,-2.5717656576633456,-0.7868358367681504,1.5824348956346512,3.120446992160172
0.2999245831742883,-3.6930587214231494,-0.5105613291263581,0.4466430759429932,3.7548429564985377
0.30995358317159116,-3.5972368901968004,-1.0646971325576307,-7.551780756711961,8.432264572800966
0.31998158316127956,-4.851719001531602,-2.6404347735643388,-13.380870040655136,14.47614437991597
0.33000958315096796,-4.136850110292435,-3.4847677436470987,-8.15991164982319,9.789856648343225
0.34003758314065635,-4.369860484600068,-3.940307650566101,-5.448774683475495,8.019404627979709
0.3500655833631754,-3.0775749546289446,-4.406171401441098,-2.6174546313285827,5.978033352809283
0.3600935833528638,-2.3435558474063876,-2.865033928155899,0.2651805853843689,3.710929016063483
0.3701225833501667,-1.1827894002199173,-1.7361786603927614,1.657989985048771,2.676235769994456
0.3801505833398551,-0.03419919490814209,-1.5307151037454605,2.7893095618486408,3.1819029126588854
0.39017858332954347,0.5388320320844651,-0.4012845065072179,2.8766058602929117,2.954019378649121
0.40020658331923187,1.1485837733745576,0.6057285280153155,2.705127490460873,3.000644343096675
0.41023458330892026,2.094802429676056,1.101086548268795,2.5157265275716783,3.453906305573886
0.42026258329860866,3.4413489514589313,0.6886634248495103,2.64136214196682,4.392486070945301
0.43029058328829706,4.0837322491407395,-0.5471529123187066,2.2084506672620776,4.674772694138319
0.44031958328559995,3.2833858358860017,-1.625457831323147,0.9514057213068009,3.785222391781212
0.45034758327528834,2.273990938067436,-2.4688681107759476,2.09998189330101,3.9593267719413245
0.46037558326497674,2.6096848511695865,-4.21157547980547,3.711941134929657,6.190826280368847
0.47040358325466514,2.9381071668863297,-6.6222909843921665,4.9428811866045,8.770364076306027
0.48043158324435353,3.6809222406148914,-7.624539999961853,8.518249490261079,12.010136266121414
0.49045958323404193,4.475061834454537,-6.1967744833230975,11.869934313297271,14.118127815732079
0.5004875832237303,4.124769178032875,-3.9241517937183383,15.288234125375748,16.313883374123293
0.5105165832210332,3.242462342977524,-3.0867773026227954,15.627731652259827,16.25631424267685
0.5205445832107216,2.030318750739098,-2.891457788050175,13.622715557813645,14.073418260635073
0.53057258320041,1.9045299392938615,-2.5900960940122606,10.587555720806122,11.06490705822054
0.5406005831900984,2.4859384721517563,-2.2877643468976023,6.672708016633988,7.479223761160746
0.5506285831797868,3.945554357171059,-1.7829660335183144,2.8141806936264038,5.163911312024166
0.5606565831694752,5.150481315851212,-1.2457536801695823,1.255365917980671,5.445668334062949
0.5706855831667781,5.340636277198792,-1.4667293152213097,1.4263250550627709,5.719099045493194
0.5807135831564665,5.942904167175294,-1.9786492449045183,2.131997445523739,6.616538058706413
0.5907415831461549,6.363980877399445,-2.3135327339172362,1.325783059000969,6.9000280461999814
0.6007695831358433,6.407367217540742,-2.161010744869709,-0.7737752035260201,6.806103890292144
0.6107975833583623,5.461220481991768,-2.178084906935692,-0.6921758472919465,5.920142770096156
0.6208255833480507,4.417912902832032,-2.1516376581788066,1.2435928416252138,5.068927123647015
0.6308535833377391,3.3166740345954895,-1.1747623425722122,2.3974540194869043,4.257719928417038
0.640882583335042,1.2487945246696472,0.21621950984001162,2.9891217845678333,3.246704126380834
0.6509105833247304,0.5840807104110718,-0.46654729038476944,2.965600774884224,3.058366329665821
0.6609385833144188,0.43617539048194887,-2.1830360367894173,1.1686900091171266,2.514305400422454
0.6709665833041072,1.6046806275844574,-3.610648064017296,-1.2129604482650758,4.133164938372543
0.6809945832937956,1.963521913290024,-3.7051718133687976,-2.18081292539835,4.726485109056967
0.691022583283484,2.51586042881012,-3.595957227051258,-1.7892023813724518,4.73937835982143
0.7010505832731724,3.06626468539238,-3.4776642537117004,-1.0786209610104562,4.760204928357571
0.7110795832704753,2.518893964290619,-4.053580204546452,0.5525627562403679,4.804338131065976
0.7211075832601637,-0.15700768053531647,-5.06039092540741,0.9313129341602326,5.1477715092092895
0.7311355832498521,-2.416045534014702,-5.961831604242325,-1.4349926751852036,6.5908964547783775
0.7411635832395405,-2.6771699059009553,-6.288481628894806,-3.295076758861542,7.5874745962539265
0.7511915832292289,-1.6727808094024659,-6.358588575124741,-1.63028500020504,6.774044101266657
0.7612195832189173,-1.0894368481636048,-4.410315323174,0.6976897716522217,4.596142394816349
0.7712475832086056,1.7300250506401063,-2.86788707703352,1.1443959244340658,3.539407435478356
0.7812765832059085,4.305939307808877,-1.197976519614458,0.4021445222944021,4.4875362149951
0.7913045831955969,3.9019633644819263,1.0380960289388896,-0.06615660388022662,4.038234534953953
0.8013325831852853,2.5537410306930544,2.7083928680419924,0.20723928295075894,3.728261431271136
0.8113605831749737,0.2546117430925369,3.567752597630024,0.613895663022995,3.6291257380662425
0.8213885831646621,-1.8894365215301514,3.263191014826298,1.9921405255794526,4.264623059754639
0.8314165831543505,-7.586260617971421,3.099066980481148,5.277219130396843,9.74703073061325
0.8414455831516534,-13.976233538389206,3.7231809452176097,10.399947806596757,17.814491142055207
0.8514735831413418,-9.969528415203095,3.0967561608552936,8.973383892774581,13.766009371943762
0.8615015833638608,-15.09186708211899,3.0841431319713593,6.354392028450966,16.662973592191584
0.8715295833535492,-7.531527755856515,2.527577664256096,4.825578439235687,9.295093676736116
0.8815575833432376,0.8442163181304932,3.1639336520433425,0.9449930799007417,3.4082531108165104
0.891585583332926,10.027483677864074,0.5058328320086003,-5.066856191754342,11.246302833895573
0.9016135833226144,17.784673612117768,-1.155295792222023,-11.824209086894989,21.387876107451483
0.9116425833199173,10.892186300754547,-0.6292539596557617,-13.46347131729126,17.329187599758157
0.9216705833096057,2.2643196433782578,-2.082908900678158,-13.744074518680574,14.084219442729426
0.9316985832992941,-2.7607400661706927,-2.125679236650467,-14.239495067596437,14.65958449991644
0.9417265832889825,-6.133524566888809,-1.703053014278412,-12.927775146961213,14.409992485510163
0.9517545832786709,-7.648513584136963,-3.5346091175079346,-11.000001940727234,13.856163406812898
0.9617825832683593,-7.10361565053463,-5.506101370453835,-9.540780742764474,13.107440817861416
0.9718105832580477,-4.685086219310761,-3.70186989068985,-8.20661862373352,10.149012898079377
0.9818395832553506,-2.2393584644794466,-0.2191992509365082,-7.707782131433487,8.029488154900799
0.991867583245039,-2.3757471084594726,0.841460525393486,-5.180980977416039,5.7614923437852354
1.0018955832347274,-4.935296763181687,1.3975892060995103,-0.31254785612225533,5.138880801501832
1.0119235832244158,-9.878399559259416,3.0853909277915954,9.05665526032448,13.75228779272883
1.0219515832141042,-13.758655135631562,5.223006670475006,17.124996589422228,22.579767448067088
1.0319795832037926,-13.052833056449892,5.469163339734077,9.638716927170753,17.12288125399374
1.042007583193481,-11.02600333929062,3.9234665000438693,3.5516964358091356,12.23032651187832
1.0520365831907839,-8.018411369919777,2.5195424205064776,3.2516260993480683,9.011996848421104
1.0620645831804723,-6.562724229097367,0.20556588292121888,3.1332199823856355,7.275209556942222
1.0720925831701607,-5.0520557194948195,-1.0875481975078582,1.9226872980594636,5.513869287614833
1.082120583159849,-1.324111340045929,-0.34268776774406434,-0.3345309019088745,1.408054214627974
1.0921485831495374,2.9885680532455448,0.007493791580200196,-1.0106596505641938,3.15484200794123
1.1021765831392258,3.9495632082223895,0.6201358115673066,-0.8074531191587448,4.078676071983574
1.1122045833617449,2.171371718645096,1.1366124764084817,0.05031174581497908,2.45138212725518
1.1222335833590478,0.8357793706655503,2.367237363159657,0.8425814366340638,2.6480716318350437
1.1322615833487362,1.3586028957366945,3.5282184031605723,0.5399950432777405,3.819125760625015
1.1422895833384246,1.9360201191902162,4.177683263719082,-0.3157772733271122,4.615292692800504
1.152317583328113,1.6216586029529572,5.256476132869721,-0.829800592660904,5.563172384848482
1.1623455833178014,0.5315978568792343,5.219587218761444,-2.1643071126937867,5.675465821741272
1.1723735833074898,0.12209863364696504,3.9285746276378632,-1.3672199374437333,4.16147774697908
1.182401750003919,0.22156503438949587,3.9017303529381753,-1.5150825726985933,4.191427682019346
1.1924297499936074,0.8304940724372865,3.932894550561905,-2.3012489032745362,4.631751986561376
1.2024577499832958,0.4290757012367249,2.968936319053173,-2.8793935203552246,4.158075981634829
1.2124857499729842,2.347676964998245,0.059066233634948735,-4.285940076112747,4.887162600934056
1.2225137499626726,3.803161792159081,-1.2821993753314018,-5.474104821681976,6.787775663219931
1.232541749952361,6.72613870382309,-4.658971384763718,-5.601086465120316,9.915600123889028
1.2425697499420494,8.543099572062493,-6.0682550221681595,-4.32779912352562,11.337465085539739
1.2525987499393523,7.892923105359078,-6.68468779206276,-1.117735106125474,10.403490654195322
1.2626267499290407,4.136230890154839,-6.220587269067765,1.7432255785167219,7.670915679783868
1.272654749918729,0.41653400838375093,-5.252149193286896,1.656248830407858,5.522837306757444
1.2826827499084175,-0.8368651986122132,-4.52085956633091,2.736944822072983,5.350643095760179
1.2927107498981059,-0.18038543343544008,-3.520866406559944,3.124136917591095,4.710548867944543
1.3027387498877943,1.847259385585785,-2.575759890675545,1.944609532803297,3.7186573500548725
1.3127667498774827,3.748572771549225,-1.4664843168854713,0.7910977260768414,4.102220092520054
1.3227957498747855,5.94669082403183,-0.8845442721247674,0.06089860484004021,6.012425381328617
1.332823749864474,6.429866133928299,-0.4668823358416558,-0.5823050571978092,6.473039223996496
1.3428517498541623,4.4442306357622146,-0.9125088733434678,-1.9701824766397478,4.94625892761755
1.3528797498438507,0.4713814759254456,-1.2964826613664628,-3.170559132099152,3.4576745071227926
1.3629077498335391,-1.4816382533311845,-1.1968624788522721,-3.1971709799766543,3.7215096375293144
1.3729357498232275,-1.980151979327202,-0.905250724554062,-2.793050610423088,3.5414139051971705
1.382963749812916,-1.6679147565364838,0.4756996446847916,-1.8061207151412966,2.504057072969365
1.3929927498102188,-1.4095356523990632,1.4999336063861848,-0.5993256441503764,2.1437776952582985
1.4030207500327379,-1.2332444393634796,2.089344053864479,-0.10261863470077515,2.428328850635278
1.4130487500224262,-1.1023650419712068,2.4410862350463867,-0.14468883968889715,2.682358207440543
1.4230767500121146,-1.7993905699253083,2.456494817733765,0.5195350509881973,3.089027335893012
1.433104750001803,-3.1642605113983158,2.159660330414772,0.3957587780803442,3.8514026454253805
1.4431327499914914,-4.812114055752755,0.8104562491178513,0.7239086135476828,4.9332874128795625
1.4531607499811798,-5.2240141457319265,-0.6161468410491944,0.419155388250947,5.276897948988778
1.4631897499784827,-4.440137000083924,-1.706873584985733,-0.16749232292175295,4.7598621506167635
1.4732177499681711,-3.0374694871902466,-2.5422436505556107,-0.28037223637104036,3.970872984033838
1.4832457499578595,-1.5284721118211746,-2.3256142508983615,-0.3010106418281794,2.7991634548719087
1.493273749947548,0.5162150019407272,-0.7427297043800354,-0.5085031823068857,1.0376419557888692
1.5033017499372363,0.8836686515808105,0.5204939943552017,0.16744905352592468,1.0391455477810645
1.5133297499269247,0.03249297738075257,0.6437994933128357,0.8013193899393082,1.028419343391418
1.5233587499242276,-0.7382881593704224,0.43825875341892245,0.39364859104156497,0.9445101134682907
1.533386749913916,-0.4251832097768784,0.23788461327552796,0.0754495106264949,0.4930136709698769
1.5434147499036044,0.17845351338386536,-0.3370685935020447,0.12847385287284852,0.40245052371252593
1.5534427498932928,0.6389685237407685,-0.6986335122585297,-0.1955729913711548,0.9667566155636111
1.5634707498829812,1.2174540334939958,-0.6936043220758439,-0.15520958863198758,1.409741570528585
1.5734987498726696,1.5252947348356247,-0.2468524879217148,0.082603542432189,1.5473472538938264
1.583526749862358,1.0210162389278412,-0.13092208206653597,0.1509943674132228,1.0403912969251092
1.5935557498596609,0.1734570676088333,-0.33443091452121737,0.10616372846066953,0.3914104343673325
1.6035837498493493,-0.09433371484279633,0.13388428151607515,-0.04966391086578369,0.17114425095691116
1.6136117498390377,-0.39420349180698394,0.38859191894531253,0.106806447096169,0.5637443477000244
1.623639749828726,-0.32907486498355865,0.34923723399639134,0.21038691222667696,0.5239461472419403
1.6336677498184144,0.060732105374336244,0.03334374725818634,-0.022108358927071095,0.07272533010489189
1.6436957498081028,0.061622051596641546,-0.29567907750606537,-0.055126416273415094,0.30702168634962385
1.6537237500306219,0.43094564080238346,0.030218410491943362,0.30115850329399113,0.5266153641563388
1.6637527500279248,0.6790283828973771,0.21873790562152864,0.502614963054657,0.8726669566463221
1.6737807500176132,0.9394750624895096,0.3093878746032715,0.6531801813840866,1.1853179317567697
1.6838087500073016,0.9532610428333282,0.7299079298973083,0.394407559633255,1.263736335240274
1.69383674999699,0.48329693198204043,0.9948709988594056,-0.47613994002342225,1.204181660431794
1.7038647499866784,-0.35560192823410036,0.7016226089000702,-0.8889720761775971,1.1870123710000071
1.7138927499763668,-1.3020778620243074,0.565784187912941,0.11295652111060918,1.424176141398075
1.7239207499660552,-2.227604976296425,0.5840748631954193,1.2532080030441284,2.6218119068940084
1.733949749963358,-2.592499299645424,0.6412015753984451,1.3091798901557923,2.974246806124837
1.7439777499530464,-2.212489923834801,0.9189431494474412,0.7830637979507447,2.520467632533286
1.7540057499427348,-1.109062442779541,0.9449158966541291,0.09323151469230652,1.4599923523997038
1.7640337499324232,-0.7082691389322281,0.7468040442466736,0.007001419477164745,1.0292766749235518
1.7740617499221116,-1.1489445465803148,0.9212165468931198,0.516427219323814,1.560580203079885
1.7840897499118,-1.8594543385505677,1.7448225992918016,0.6761626625061036,2.6380243149602074
1.7941177499014884,-2.4428351372480392,2.6232328498363495,0.2624160583689809,3.5941141161521424
1.8041467498987913,-2.583709180355072,3.0406679141521455,-0.20881806772202255,3.9956000147928465
1.8141747498884797,-1.4260470199584963,3.3882609111070634,-0.18377564907073976,3.680719439737284
1.824202749878168,-1.1261199402809143,4.338782533407212,-1.8603735208511354,4.853263812032254
1.8342307498678565,0.6182097387313843,3.5809219890832904,-1.1587333703041078,3.814164206797981
1.844258749857545,2.164115324020386,1.7357576608657839,0.5384408533573151,2.8259809527805153
1.8542867498472333,2.455276257991791,0.45347671687603,-0.45517065525054934,2.537952513584139
1.8643147498369217,1.8717153650522234,0.05146543800830841,0.10906171817332506,1.8755963204946
1.8743437498342246,0.660143045783043,-0.5025331020355225,2.1205804646015167,2.277101198099624
1.884371749823913,-0.10261512637138367,-0.40473725080490114,1.9974854654073717,2.0406592784840463
1.8943997498136014,-0.34113796323537826,0.2764376449584961,0.8628204041719437,0.9681177259848196
1.9044277498032898,-0.6829796388745308,-0.513001372218132,0.32137112181633715,0.9126395745048326
1.9144557500258088,-0.2512475475668907,-0.1196580058336258,-0.32171263575553893,0.42537323437568697
1.9244837500154972,-0.06198399424552918,0.22641237616539003,-0.09003601133823395,0.251418103885115
1.9345117500051856,0.26967592477798463,0.40295443475246434,0.28608143946155906,0.5629742186778511
1.9445407500024885,0.9397279545664787,0.32715756297111515,0.7789917969703675,1.2637044430364321
1.954568749992177,1.5101650643348694,0.31380953907966613,0.8328253573179245,1.7529041685576143
1.9645967499818653,1.4549334347248077,0.4207749938964844,-0.2733175706863403,1.5390209190958373
1.9746247499715537,0.6298787346482277,0.2719715416431427,-0.4781291627883911,0.8362554849652875
1.984652749961242,0.21606572806835175,0.06864923536777497,-0.19959004679694772,0.30204851124065296
1.9946807499509305,-0.16064991116523744,0.1799930852651596,0.1888422614336014,0.3063777152536169
2.0047097499482334,-0.37436681270599365,1.2845952719449998,-0.08084535777568817,1.3404743544853708
2.0147377499379218,0.6299298977851868,2.0796680814027786,-0.47392443001270296,2.2240583109019503
2.02476574992761,1.68901034116745,4.01291486620903,-0.13903450906276704,4.356095987317353
2.0347937499172986,1.141753056049347,6.434201844334603,-0.7298781090974809,6.575353638305436
2.044821749906987,-0.10653890043497086,7.610282734036446,-1.4391424441337586,7.74589470647429
2.0548497498966753,-0.23998727202415468,8.171952821016312,-1.242336859703064,8.26932933632631
2.0648777498863637,0.017336994409561157,8.56295028448105,-1.8219655001163484,8.754654557975629
2.0749067498836666,0.5475087153911591,8.769740574359894,-2.946712514162064,9.267752164150851
2.084934749873355,0.8251435777544975,7.894258609414101,-3.6891732466220857,8.752724156501808
2.0949627498630434,1.0029787480831147,6.373020088076592,-1.56271735355258,6.638029597646317
2.104990749852732,1.1725161346793176,3.827804297804833,-2.3652770841121673,4.649883387032693
2.11501874984242,1.190642210841179,0.9474915951490402,-1.635450722873211,2.233846069912014
2.1250467498321086,2.0304298478364946,-0.19464620769023896,0.9924562449753285,2.2683698797471394
2.135074749821797,1.0513112479448319,-1.4804424977302553,-1.3733636069297792,2.2766407107798736
2.1451037498191,0.7325306984782219,-5.652175927162171,-1.6497286002337934,5.933405294620779
2.1551317498087883,-0.7830348542332649,-12.867461117506029,-1.4640678088366985,12.974135568212068
2.1651597500313073,-8.139395524263382,-27.904056808948518,-1.4577624638378621,29.10345713653963
2.175188708351925,-7.6993551242351534,-23.99825708627701,2.195056450366974,25.29851152396972
2.1852167083416134,-0.1744323831796646,6.973811556100846,3.8021683502197265,7.944869944795826
2.195244708331302,-0.01989749014377594,0.6044722902774811,2.2342466823756695,2.314657835952003
2.20527270832099,4.0035961586236954,-23.310987052917483,0.34303640797734264,23.654779084993184
2.215301708318293,3.9055231493711475,-16.19014258146286,0.7874350301921368,16.673148527052245
2.2253297083079815,2.0081382152438163,-12.09382887840271,-0.14028186634182932,12.260220023867204
2.23535770829767,0.3865129414200783,-4.68582062959671,3.2536185380816462,5.7177216457246205
2.2453857082873583,0.037721557617187505,5.147015671133995,5.356214429140091,7.428474018648548
2.2554137082770467,0.14577810287475587,9.584350685477258,2.7264747977256776,9.965675799468865
2.265441708266735,-0.5217096304893494,10.39412281036377,-1.242170798778534,10.481076196116879
2.2754697082564235,-2.7656444182991984,8.136198266744614,-4.677656747102738,9.784016758364805
2.2854987082537264,-4.545094813406467,4.406289222836494,-5.595850868225098,8.449072050678405
2.2955267082434148,-2.7714062646031383,2.476919726729393,-4.359492201805115,5.728961186266001
2.305554708233103,-0.6285829916596413,0.18105143129825593,-0.6877588605880738,0.9491619716867807
2.3155827082227916,-3.4647837147116665,-2.316818284392357,1.2343916630744936,4.34696399001576
2.32561070821248,-3.412073989212513,-2.610235074162483,0.354116735458374,4.310565474804937
2.3356387082021683,-1.4961723849177362,-2.2383591753244403,-0.22841460898518565,2.702028282003612
2.3456667081918567,-0.9649557664990426,-1.4464479553699494,0.18275238633155824,1.7483563005301697
2.3556957081891596,0.13075455933809282,-0.6601143944263459,-0.26897308945655823,0.7247028986890875
2.365723708178848,0.6614607158303261,-0.4023264437913895,-0.7598292287439108,1.0847752314715522
2.3757517081685364,0.6993389788269997,-1.0248865109682084,-0.7066464634984732,1.4278713499633913
2.385779708158225,0.23480108410120012,-1.9587804061174394,0.09078862108290196,1.97489108616218
2.395807708147913,-0.17047761887311935,-2.757219457626343,0.918287822753191,2.91111220695231
2.4058357081376016,-0.72266732275486,-3.5569887506961826,0.8244924902915955,3.7221237081139718
2.4158637083601207,-0.965806828737259,-4.307960690259934,0.5142883443832398,4.444749783781853
2.4258927083574235,-1.095748625099659,-4.897817865014076,0.7982535485923291,5.081977333292532
2.435920708347112,-1.7157078507542611,-5.413380902409553,1.344234971255064,5.835693093511462
2.4459487083368003,-2.547122859656811,-5.864883014559746,1.9691796791553497,6.690467565533523
2.4559767083264887,-2.8928383156657222,-5.896363838911057,2.504471222162247,7.029082169390289
2.466004708316177,-2.6993288066983223,-5.172361012101174,2.664082667827606,6.413815627783132
2.4760327083058655,-2.57124905616045,-3.9794793176651004,2.3499234652519227,5.288640434088132
2.4860617083031684,-2.625980164110661,-2.6291671890020374,1.743697010278702,4.104725471171295
2.496089708292857,-2.583417696654797,-1.3507261115312577,1.1723222994804383,3.1421087819521194
2.506117708282545,-2.517075480222702,-0.30269632101058963,0.666339340209961,2.6213168736730665
2.5161457082722336,-2.4598446875810622,0.353820281624794,0.2625645411014557,2.4989927604844397
2.526173708261922,-2.4541287419199946,0.6770531934499741,0.3285574594885111,2.5669240177426698
2.5362017082516104,-2.560393115580082,0.8789452707767487,0.7409967358410359,2.806641027608939
2.546229708241299,-2.7903556287288667,1.0435139858722686,1.26208056807518,3.235406208469482
2.5562587082386017,-3.254531288444996,1.0386520260572434,1.7813636040687562,3.852794859397667
2.56628670822829,-3.8028638765215876,0.9781982481479645,2.0944878494739534,4.4503398552949385
2.5763147082179785,-4.219214574694634,0.9765686291456223,2.3159511423110963,4.91111877359111
2.586342708207667,-4.682953739762307,0.8921465295553208,2.6834445530176163,5.470544381327263
2.5963707081973553,-4.46198044359684,0.7045216584205628,2.8253471213579178,5.328058427081087
2.6063987081870437,-3.52619760543108,0.4395749616622925,2.6196075761318207,4.41470718761681
2.616426708176732,-2.9460172802209854,-0.03580074727535248,2.061705434918404,3.5959600678036194
2.626455708174035,-2.0623968681693077,-0.4816971337795258,0.9027819570153952,2.302287608540368
2.6364837081637233,-0.7091511914134025,-1.068923061490059,-0.29554466463625434,1.3163732648695372
2.6465117081534117,0.4797704762220383,-1.6112920743227006,-1.327268982678652,2.141981515095379
2.6565397081431,1.4407147604227066,-1.8648296838998795,-2.0157018810510636,3.1010164211314293
2.666567708365619,2.042935580313206,-1.858188416361809,-1.4443716090917589,3.1165139693512014
2.6765957083553076,1.9900264647603036,-2.039450932145119,-0.193066436201334,2.8560182219064134
2.686623708344996,2.3669862252473832,-2.127329320907593,0.5272155149281025,3.22585028004787
2.696652708342299,3.1889188045263293,-1.753436132669449,0.2715210136771202,3.649310218942845
2.7066807083319873,3.505683234035969,-1.5107965636253358,-0.3757907558977604,3.835823234493637
2.7167087083216757,3.502690044343472,-1.2415129870176316,-0.9430272459983826,3.83399170974216
2.726736708311364,4.035202113389969,-1.0609363496303559,-1.670135821402073,4.4941957785352695
2.7367647083010525,3.6660630038380626,-0.766363565325737,-2.160684177875519,4.3238740937833215
2.746792708290741,2.683017121553421,-0.29730167984962463,-2.063261379003525,3.3976486989501637
2.7568207082804292,1.9578173696994783,-0.09506403207778931,-1.6259101134538652,2.5466978070284334
2.766849708277732,1.104167738556862,-0.1838779753446579,-1.2425678247213365,1.672415111065234
2.7768777082674205,0.6541490650177002,-0.40834732174873356,-1.3616381853818895,1.5648377175710522
2.786905708257109,-0.10694966733455659,-0.1450442773103714,-2.1213932275772094,2.1290338888176277
2.7969337082467973,-1.1854557305574418,0.1338848662376404,-2.295052024126053,2.5865989716158246
2.8069617082364857,-1.8714349910616876,0.5773926651477814,-1.6275824171304702,2.5465026487496103
2.816989708226174,-0.7228389385342598,1.0217395395040512,-1.9858688020706177,2.3473650582482213
2.8270177082158625,0.6790479710698129,1.412932884693146,-2.6205264660716057,3.053628078702949
2.8370467082131654,0.6448973080515862,1.372464889883995,-2.5394469273090365,2.957759812512804
2.847074708202854,0.698381789624691,1.1266245549917222,-1.6542875280976297,2.1198318889971084
2.857102708192542,0.736103054881096,0.7845261865854264,-1.1103801128268243,1.5460507882359054
2.8671307081822306,0.5655617013573647,0.1828272306919098,-1.3084501576423646,1.4371247855906732
2.877158708171919,0.43791610658168795,0.07131673514842987,-1.501987733244896,1.5661493364088996
2.8871867081616074,0.2548818844556809,0.33308897852897645,-1.7382093983888627,1.788095342896605
2.897214708151296,0.22969471067190173,0.5500048917531968,-2.0715363585948947,2.1555806470748644
2.9072437081485987,0.2113151577115059,0.6987282371520996,-2.1734404635429385,2.2927535178989613
2.917271708138287,0.3047434312105179,0.7180994778871537,-1.8286886286735535,1.9881241207851497
2.927299708360806,0.4848832815885544,0.3902536976337433,-1.5229137486219406,1.6451978698693437
2.9373277083504945,0.8638176468014718,0.1331206351518631,-1.2951875030994415,1.5625020635550642
2.947355708340183,1.196118128299713,0.0017839854955673219,-1.3925301951169968,1.8357129687846188
2.9573837083298713,1.254033337533474,-0.13561505734920504,-1.6180005848407746,2.051564512261377
2.9674117083195597,1.2765854635834695,-0.023049139380455018,-1.753844268321991,2.1693712052538867
2.9774407083168626,1.1234913244843483,0.18204487323760987,-1.7764016568660737,2.1097336179196233
2.987468708306551,0.9163630655407906,0.43233786284923553,-1.731537140607834,2.006204915965643
2.9974967082962394,0.8474717554450035,0.6044746291637421,-1.7486718213558199,2.035055550196004
3.0075247082859278,0.9263404619693757,0.5871089833974839,-1.608871911764145,1.9471190098017321
3.017552708275616,1.2341244453191758,0.8470522177219392,-1.2003702235221863,1.9187103167494362
3.0275807082653046,1.124002371132374,0.8516954916715622,-1.2974439436197283,1.916279553635214
3.037608708254993,0.9445928379893304,0.6204848903417588,-1.6815680050849915,2.026062211396452
3.047637708252296,0.6586145836114884,0.49838625669479375,-1.926968044638634,2.096513266274846
3.0576657082419842,0.3595932376384735,0.4458759212493897,-2.1053198164701463,2.181853378054355
3.0676937082316726,0.3383391934633255,0.4017265194654465,-2.0684420120716096,2.134082932685158
3.077721708221361,0.48280225753784184,0.3115957832336426,-1.8572095924615861,1.9440723809426321
3.0877497082110494,0.44514034152030946,0.2789735823869705,-1.3377528941631318,1.4372052703634484
3.097777708200738,0.7449417060613632,0.1310682624578476,-0.7956797504425049,1.097826625709898
3.1078057081904262,0.9329174101352692,0.14095356523990632,-1.093508849143982,1.4442868152979638
3.117834708187729,1.1504656997323037,0.3030278581380844,-1.1630550473928452,1.6637590728029907
3.1278627081774175,0.9900382751226425,0.4306123495101929,-1.1153265649080277,1.5522745015454085
3.137890708167106,0.6971030035614968,0.4494941782951355,-0.9407327985763551,1.2541833248026304
3.1479187081567943,0.5514155325293542,0.31433637320995333,-0.9697355729341507,1.1589881476750932
3.1579467081464827,0.7198536425828934,0.12608643472194672,-0.49701391518116,0.8838042134118038
3.167974708136171,0.8166604372859002,-0.06288095712661744,-0.2736584633588791,0.863583950270673
3.1780019581783563,0.6265721341967583,-0.04328284442424774,-0.15620719671249392,0.6471991442192349
3.188030958175659,0.3124842676520348,0.03947338342666626,-0.26970983862876896,0.4146660856428142
3.1980589581653476,0.20617545515298843,0.15720531642436983,-0.2413005566596985,0.35418609298490045
3.208086958155036,0.3121541923284531,0.21741234183311464,-0.32964789211750034,0.5033647772213498
3.2181149581447244,0.45872459292411805,0.1794656664133072,-0.09219421863555909,0.5011346640618582
3.2281429581344128,0.5704783326387406,0.10272622346878052,0.11178589940071107,0.5903340514516008
3.238170958356932,0.5826902425289154,0.13944381415843965,0.13507594406604767,0.6141807606159556
3.24819895834662,0.4537632304430008,0.27851282179355624,0.08752463221549989,0.5395655867917594
3.258227958343923,0.0916258692741394,0.3496558946371079,-0.34010212898254394,0.49631038948744255
3.2682559583336115,-0.07551620543003083,0.3450126206874848,0.08629203915596009,0.3635694180454272
3.2782839583233,-0.29332498848438265,0.31709801316261294,0.5040843683481216,0.6638461788953557
3.2883119583129883,-0.39987353682518006,0.06030818223953247,0.6399298059940338,0.7569980706036687
3.2983399583026767,-0.27208205401897434,-0.32027422070503236,0.6831003838777543,0.8020164306429982
3.308367958292365,-0.05031002819538117,-0.9964427304267883,0.5874095302820206,1.1577906417930477
3.3183959582820535,-0.051363404095172885,-1.585092455148697,-0.12516198992729188,1.5908556862179948
3.3284249582793564,0.01957677036523819,-1.852432709634304,0.17589243292808535,1.8608676314080979
3.3384529582690448,-0.21183702170848848,-1.6908276557922364,-0.0502790379524231,1.7047876897184626
3.348480958258733,-0.4665899750590325,-1.2869432213902474,0.09991254329681397,1.3725565839760245
3.3585089582484215,-0.0815423458814621,-1.0564079734683038,0.5604334008693695,1.1986377924082272
3.36853695823811,0.20278962492942812,-1.0917640399932862,0.47064121842384343,1.2060578375355635
3.3785649582277983,0.12197818100452423,-0.9269611439108849,0.9541042113304139,1.3358332549536935
3.3885929582174867,0.3456505519151688,-0.5221861785650254,1.198991450071335,1.3526763125255679
3.3986219582147896,0.21805348902940752,-0.329910432100296,0.42763728618621827,0.5824619007482081
3.408649958204478,0.33604445368051533,-0.21868264943361285,0.12525320649147034,0.4200432617589947
3.4186779581941664,0.3616613978147507,-0.13466810077428817,-0.15744446754455568,0.41680118089547424
3.428705958183855,0.36449378907680513,-0.14281093329191208,-0.4682485377788544,0.6103338251115603
3.438733958173543,0.06365103542804719,-0.31209338128566744,-0.3973931479454041,0.5092887658169394
3.4487619581632316,-0.10887690961360932,-0.09416970044374466,-0.6169549262523651,0.6335262385692766
3.45878995815292,0.13176846653223037,0.49189789384603505,-0.8249503272771835,0.9694686736646796
3.468818958150223,-0.007348780632019043,0.8561466845870018,-1.3153130346536637,1.5694233110400528
3.4788469581399113,0.04836670607328415,0.9070355871319771,-1.0636430257558822,1.3987098987350302
3.4888749583624303,0.011099769473075867,1.0504101920127868,-0.7969193601608277,1.318546640421126
3.4989029583521187,-0.1815180391073227,1.0360669720172884,-1.1588900756835938,1.5650590329263512
3.508930958341807,0.050468487739562994,1.0031734603643419,-1.2503680104017258,1.6038466950647299
3.5189589583314955,0.39070627212524417,0.9113432309031487,-1.225844203233719,1.5766711407876743
3.528986958321184,0.5579313772916794,0.7751121693849564,-1.1969180274009705,1.5312410199614803
3.539015958318487,0.5119842490553856,0.7550375086069108,-1.188130831718445,1.4979533984620823
3.549043958308175,0.35686492681503296,0.6917048540711404,-1.1279881256818771,1.370461744382378
3.5590719582978636,0.3667929142713547,0.7340015655755997,-1.1226110261678697,1.3905217928176394
3.569099958287552,0.506046109199524,0.7615834665298462,-1.080585333108902,1.4155411344279865
3.5791279582772404,0.63039387434721,0.7038977605104447,-0.9463028562068939,1.3372948776285023
3.589155958266929,0.4965069615840912,0.5363142210245133,-0.8887756097316742,1.1506842273310718
3.599183958256617,0.35000614285469056,0.3479756972193718,-0.9434342122077942,1.0647344733103494
3.60921295825392,0.3116788136959076,0.34148908853530885,-1.0834528076648713,1.1779764288526562
3.6192409582436085,0.35494908660650254,0.4768345892429352,-1.1978997749090194,1.3372823001551875
3.629268958233297,0.31336865901947025,0.624891352057457,-1.1454730546474456,1.3419380154296277
3.6392969582229853,0.3841568058729172,0.7529991692304612,-1.1579094976186752,1.4336452158870336
3.6493249582126737,0.6280622971057892,0.9641076278686523,-1.3685624581575395,1.787995796706057
3.659352958202362,1.02285723477602,1.1537889647483826,-1.2517538005113602,1.9860396458790608
3.6693809581920505,1.5410307615995409,1.1465480652451516,-0.8051417148113251,2.0826909168291827
3.679408958181739,1.5261683088541032,0.751328327357769,0.5865295243263245,1.7993612325898547
3.6894379581790417,0.5319983911514282,-0.610683495104313,2.6635178267955784,2.783933158866852
3.69946595816873,-1.0162346783280374,-2.576431735754013,4.575329303741455,5.348305493155023
3.7094939581584185,-2.5956398391723634,-3.6362959983944894,4.75368575334549,6.523612726411523
3.719521958148107,-3.6845463448762894,-3.771618110239506,3.29806000828743,6.219178784638108
3.7295499581377953,-3.250126288533211,-2.1260555049777032,1.577940725684166,4.192055562064192
3.7395779583603144,-1.6930478435754777,0.6958286029100419,0.10948326587677003,1.8337325406858982
3.7496069583576173,-0.022342795729637148,2.414467955231667,-0.7780082952976227,2.5368191923969503
3.7596349583473057,1.2126356354355812,2.7519712892174724,-1.2911108243465423,3.272735602176005
3.769662958336994,1.6470054057240486,2.4972800239920616,-1.115808375477791,3.1928142218895883
3.7796909583266824,1.1664572498202324,1.9154759269952775,-0.7687281793355942,2.370783321238197
3.789718958316371,0.4738706356287003,1.0191363590955735,-0.3893052792549134,1.189433015431082
3.7997469583060592,-0.0023599362373352053,0.18958602726459503,-0.07235461592674255,0.20293748170045495
3.8097749582957476,-0.1459640443325043,-0.2914380919933319,0.17732850909233094,0.3710620754530487
3.8198039582930505,-0.15532192826271057,-0.20854211568832398,0.46621955394744874,0.5338308607583182
3.829831958282739,-0.21644725888967514,0.013191610872745514,0.7192987418174744,0.751274992568283
3.8398599582724273,-0.2044174897670746,-0.10120126962661743,0.8073507928848267,0.8389538186744666
3.8498879582621157,-0.10411844551563264,-0.39099453985691074,0.6686606848239899,0.7815526164781206
3.859915958251804,-0.08201070785522462,-0.5192046833038331,0.3730927044153214,0.6445908977448308
3.8699439582414925,-0.10664502739906312,-0.27878939509391787,0.10858630299568177,0.31762820070650144
3.879971958231181,-0.11772667050361633,0.01656165361404419,-0.04706950128078461,0.12786475381871432
3.8899999582208693,-0.0512531840801239,0.030681509971618653,-0.11126725137233735,0.12628794542807523
3.900028958218172,0.09438429325819016,-0.06491169512271881,-0.17353074252605438,0.20792989582836957
3.9100569582078606,0.2735555523633957,0.08756439328193664,-0.18028836965560913,0.3391224844105058
3.920084958197549,0.283171883225441,0.41795020401477817,-0.08767899870872498,0.5124024739401656
3.9301129581872374,0.18857709020376207,0.553624318242073,0.023905756473541262,0.585348349183023
3.940140958176926,0.09623698353767396,0.4450578957796097,0.11836284756660462,0.47047619629507265
3.950168958166614,0.012068068385124206,0.19761834740638734,0.18764182806015015,0.27277849098478163
3.9601969581563026,-0.04450345069169998,0.08664754986763001,0.3096387201547623,0.32459897110220665
3.9702259581536055,-0.17012883245944976,0.1001727443933487,0.3016128319501877,0.36048397849325126
3.980253958143294,-0.23234466880559923,0.1675145423412323,0.18269332945346833,0.33973816336256607
3.990281958365813,-0.20951070696115495,0.29286832094192505,0.07312820255756379,0.3674429530580297
4.000309958355501,-0.2020952680706978,0.4550858706235886,0.0983852505683899,0.5075680294770364
4.01033795834519,-0.14702239036560058,0.5454183357954026,0.1655650806427002,0.5886497602300245
4.020365958334878,-0.2936302131414414,0.4429464662075043,0.30265363633632664,0.6115713348275943
4.0303939583245665,-0.2985760805010796,0.2770954567193985,0.37573973894119267,0.5541749898736994
4.040422958321869,-0.2697645100951195,0.25865743160247806,0.37365228295326236,0.5284813964428977
4.050450958311558,-0.18563798725605013,0.4979026919603348,0.35273737728595733,0.6378026421303077
4.060478958301246,-0.05706443935632706,0.6612791597843171,0.33130382359027866,0.7418279456380992
4.070506958290935,0.03307565242052078,0.65842864215374,0.2837987047433853,0.7177492461894224
4.080534958280623,-0.011510244011878968,0.7618442523479462,0.30426454424858096,0.8204365078661546
4.090562958270311,0.10907688438892366,0.8203450602293015,0.5661145555973053,1.0026711697310067
4.10059095826,-0.14836900413036347,0.8303478920459748,1.1245552253723146,1.4057437313123637
4.110619958257303,-0.492156340777874,0.6414056432247163,1.438501004576683,1.650122481240864
4.120647958246991,-0.7923105847835541,0.54068150639534,1.969241659641266,2.190434949544195
4.130675958236679,-1.1353307667374612,0.34241879582405094,2.310856463313103,2.597361002184757
4.140703958226368,-1.2650085613131523,0.4138559836149216,2.2017450803518295,2.5727815364354063
4.150731958216056,-0.8276055479049683,0.6949819260835648,1.8849663251638413,2.1727928726658647
4.160759958205745,0.7345585128664971,0.9092794561386108,0.8006159698963166,1.4168102446811244
4.170787958195433,2.1566253331303598,1.2870744913816452,-2.266200692653656,3.382788665176834
4.180816999869421,1.5742818304896355,2.1758214497566226,-4.4614898622035986,5.207442179571108
4.1908449998591095,-0.28739766597747807,2.8699128448963167,-1.5754644298553468,3.2865004678912806
4.200872999848798,-3.5123882362246515,1.433957133293152,2.004895057082176,4.291003189465626
4.210900999838486,-4.425708995461465,-1.2426672273874284,1.0807911550998688,4.7222062080634934
4.220928999828175,-2.9560815078020095,-3.2021247410774234,-1.6825900983810427,4.671523325143425
4.230956999817863,-1.4795604452490807,-4.43480609357357,-1.3767953377962112,4.87361976367877
4.2409849998075515,-0.7715605705976487,-5.143209718465806,-1.7861817097663881,5.498941445635338
4.251013999804854,-0.2202976503968239,-5.057932755947113,-1.7540652930736542,5.357980950957057
4.261042000027373,-0.10317704379558564,-4.409308140277862,-0.5216166597604752,4.441252944612218
4.271070000017062,-0.22885534286499024,-3.462609427571297,-0.029245433807373048,3.470287324021177
4.28109800000675,-0.17802871316671373,-2.261239330172539,-0.6948053401708604,2.372267268197429
4.291125999996439,0.005051409602165223,-1.2777253782749176,-0.7613519167900086,1.4873682799584542
4.301153999986127,0.3086350455880165,-0.7055320572853089,-0.8383012747764588,1.1383233734375278
4.311181999975815,0.8298035162687302,-0.30675078034400943,-1.2367556923627854,1.5206033537531607
4.321210999973118,1.1957675877213478,-0.05825171649456024,-1.2461749720573425,1.7280640749988447
4.331238999962807,1.2016583651304245,-0.011303837299346925,-0.5811021387577057,1.334837180668262
4.341266999952495,1.146865276694298,0.04336178183555603,0.3630559587478638,1.2037399371099113
4.3512949999421835,1.2523967018723487,0.13544607281684876,0.08529772013425828,1.2625841906828812
4.361322999931872,1.5987758168578148,0.21294740796089173,-0.8658162251114846,1.8305923759245082
4.37135099992156,1.9572574988007547,0.22296602725982667,-1.0456102126836777,2.2302178106167614
4.381378999911249,2.188139778971672,0.11529188990592958,-0.5868552142381669,2.2684018503507715
4.391406999900937,2.2799147522449497,-0.03535752832889557,0.08783628880977631,2.2818800682651035
4.40143599989824,2.348507854342461,-0.11388329565525056,0.34032344609498977,2.3757690533592486
4.411463999887928,2.566988482475281,-0.2128713941574097,-0.22314787566661837,2.585447557779076
4.421491999877617,2.5997127172350885,-0.1807614094018936,-0.8550997406244278,2.7426951098688988
4.431519999867305,2.3298017343878747,-0.06074496924877167,-0.897142098248005,2.4973045503691806
4.441547999856994,2.251951028108597,0.05706531643867493,-0.8458067607879639,2.4062271214360127
4.451575999846682,2.3070943647623063,0.41851036727428437,-1.081354534327984,2.582085003315293
4.46160399983637,2.109385970234871,0.8645733994245529,-1.501295422911644,2.7296307957802073
4.471632999833673,1.751234363615513,1.0292116963863374,-1.9784372833371164,2.835544497338143
4.481660999823362,1.3454533848166466,0.9889775902032852,-2.1294860664010047,2.7061101957671445
4.49168899981305,0.6708358490467072,0.7440628695487976,-1.8526411628723145,2.1061646584672076
4.501716999802738,-0.42369626283645634,0.20710428535938263,-0.811698197722435,0.938756982579437
4.5117450000252575,-1.6762414839863777,-0.32145652770996097,0.40383970320224766,1.7539117189091014
4.521773000014946,-2.8034054446220398,-0.8174647217988968,1.0458938026428224,3.1018098756579047
4.531801000004634,-3.5634645420312885,-1.3037261921167373,0.935140667706728,3.9080007158039844
4.541830000001937,-3.8432198971509934,-1.5660422265529634,0.9040993347018957,4.247378372621477
4.5518579999916255,-3.5081212306022644,-1.1124678611755372,0.9904678992927075,3.8112368032280717
4.561885999981314,-2.5645440539717677,-0.07804161787033081,0.475216006860137,2.6093690716450713
4.571913999971002,-1.8699381038546563,0.8168905252218247,-0.3092931862547994,2.0638897542040326
4.581941999960691,-1.4180097296833993,1.492735099196434,-0.5160688580945134,2.122577851609865
4.591969999950379,-1.2587321600317956,1.6963620454072954,-0.5327457018569112,2.178501508524551
4.6019979999400675,-1.2505600914359094,1.7506563663482666,-0.3894742637872696,2.1864099472607013
4.61202699993737,-1.3621179494261741,1.7705158495903015,-0.13937891006469727,2.2381952913832732
4.622054999927059,-1.2576147571206093,1.5818905198574067,0.16964528599753978,2.0279921146798014
4.632082999916747,-1.0806163233518602,1.4446037435531618,0.7570249772071839,1.9564504671209642
4.642110999906436,-0.7855225521326066,1.179466427564621,1.2524537122249604,1.8912501248980942
4.652138999896124,-0.6799642297625542,0.6960256540775299,1.8040262424945832,2.0497106499454407
4.662166999885812,-1.020449059009552,0.28604812860488893,1.6781111311912538,1.9847409862598768
4.672194999875501,-1.3616566041111946,-0.041241581439971926,1.15977176271379,1.789100365308652
4.682223999872804,-1.2606901001930237,-0.2706360375881195,0.8100896286964417,1.522770041761931
4.692251999862492,-0.8872255128622055,-0.17097375512123109,0.5804647191613913,1.0739368816671542
4.7022799998521805,-0.267606595158577,-0.0011940014362335205,0.3306307359784842,0.42536031665573876
4.712307999841869,0.2615137964487076,0.10537442743778229,0.3325544699281454,0.43598820071195304
4.722335999831557,0.2758853754401207,0.06763474345207214,0.20405255042016507,0.34974939919396286
4.732363999821246,0.6405192053318024,0.10626261949539186,0.36708242453634743,0.745859305167127
4.742391999810934,0.8558016988635063,0.052419118881225586,0.162715220823884,0.8727087457392145
4.752420999808237,0.6126203852891923,-0.1533777290582657,0.056891142502427106,0.6340860086283095
4.762449000030756,0.678010967373848,-0.2174719834327698,0.04980190515518189,0.7137738894177131
4.772477000020444,0.4195084869861603,-0.32247452795505527,-0.6029612966626883,0.8022091479822475
4.782505000010133,0.6276605933904648,-0.4912620091438294,-0.7802582307904959,1.1153918992173186
4.792532999999821,0.40189053386449813,-0.5864225202798844,-0.6008714286983013,0.9308350269125246
4.80256099998951,0.3926636275649071,-0.7083621096611024,-0.1148591959476471,0.8180184824988367
4.812588999979198,0.16347528576850892,-0.6554810607433319,-0.11174263000488281,0.6847379100142678
4.822616999968886,0.08246035873889923,-0.6351350891590118,-0.15239948987960816,0.658347853919141
4.832645999966189,0.5074813082814217,-0.7067780989408493,-0.4112136268615723,0.96237685254484
4.842673999955878,0.8278090310096741,-0.5155782401561737,-0.23258235812187197,1.002588283820055
4.852701999945566,0.8998057973384858,0.0001268845796585083,0.08672707200050354,0.9039757043424481
4.8627299999352545,0.8953350162506104,0.27738430917263035,0.008069230690598488,0.9373536999359401
4.872757999924943,0.6852697008848191,0.09415537476539612,0.0951014542579651,0.6982149269028566
4.882785999914631,0.46101260840892794,-0.056641978025436406,-0.15403663717210295,0.48935490635930856
4.89281399990432,0.10210495680570603,-0.3429508924484253,-0.5302559208869935,0.6396968645156704
4.9028429999016225,-0.21596252471208574,-0.6124923312664032,-0.5810412546247244,0.8714330769003696
4.912870999891311,-0.2619307029247284,-0.37754009664058685,-0.2804663034528494,0.5383359221513383
4.922898999880999,0.0032756102085113527,0.29526567935943604,0.10355418920516968,0.3129153577754973
4.932926999870688,0.1027472734451294,0.5665694689750672,0.20661253452301026,0.6117570635449335
4.942954999860376,0.29015813648700717,0.6063422298431397,0.061076506376266486,0.6749614681534744
4.9529829998500645,0.04084104716777802,0.32024556934833526,-0.1809922282397747,0.3701126889262225
4.963010999839753,-0.5922381609678269,0.0039603191614151,-0.15008969351649284,0.6109735178666001
4.973039999837056,-0.8824834209680558,-0.038431409597396854,-0.1263222236931324,0.892306710568683
4.983067999826744,-0.7059954491257668,-0.06720029532909394,-0.00477849081158638,0.7092025718037457
4.993095999816433,0.38662257671356204,0.013180793523788453,0.2250135760009289,0.4475286130821991
5.003123999806121,1.2693895876407624,0.09269123196601868,0.23198250688612462,1.293737791515473
5.01315200002864,0.8913995477557183,-0.14182655453681947,0.3907659137248993,0.9835679562898234
5.023180000018328,0.5078157690167427,-0.3952343559265137,0.28684788152575497,0.7045344267688596
5.033208000008017,0.16077591866254806,-0.444534569978714,0.16734599635004999,0.5014624237391446
5.04323700000532,-0.22840306073427202,-0.9153892117738724,0.12073104299604893,0.9511473870687386
5.053264999995008,-0.32832525193691253,-0.48420266568660736,0.28868419960141184,0.6523712590365714
5.0632929999846965,-0.17683500409126282,0.2232578033208847,0.40947714999318124,0.49878472488856557
5.073320999974385,0.09121831834316255,0.632126111984253,0.3877499929815531,0.7471641453595571
5.083348999964073,0.11100646555423738,0.9671990507841111,0.21206213951110842,0.9963768314481014
5.093376999953762,0.20605412542819979,1.0917628705501556,0.13021617695689203,1.118642356099198
5.10340499994345,0.2828315752744675,0.6595308423042298,0.08970549747347832,0.7232023978111023
5.1134329999331385,0.03824254453182221,0.07445318162441254,0.07480927705764771,0.11225950472077659
5.123461999930441,-0.22856941401958467,0.043224372267723084,0.08480903908610345,0.2475982562416449
5.13348999992013,-0.15644400894641877,0.420377967953682,-0.02483677938580513,0.4492318215424561
5.143517999909818,0.009414601922035217,0.6727543205022812,-0.017607062682509424,0.6730505323823334
5.153545999899507,-0.05526905179023743,0.3963640379905701,0.21510861195623876,0.4543466007749169
5.163573999889195,-0.5187047463655472,0.8013205593824387,0.43848869517445566,1.0504482798248223
5.173601999878883,-1.0541336989402772,0.5802934688329697,0.19874108590185643,1.2196050116480994
5.183630124898627,-0.965145508646965,0.3168103301525116,-0.05180969282984734,1.0171326769030062
5.19365912489593,-0.3062005573511124,0.3855098515748978,-0.20811775401234628,0.5344994167616791
5.203687124885619,0.40587161064147953,0.3270242464542389,-0.18088595509529115,0.5517212619107653
5.213715124875307,0.7839952594041825,-0.03276311874389649,-0.04360495291650295,0.7858901835733211
5.2237431248649955,0.7330092930793762,-0.44547538697719574,0.3004007041454315,0.9088407600863202
5.233771124854684,0.5033125358819962,-0.538672987818718,0.6271374137699605,0.9678808978028159
5.243799124844372,0.31400542080402377,-0.2166989815235138,0.587586774006486,0.7005826645550042
5.253827124834061,0.24170284509658815,0.31055848717689516,0.23613030239939692,0.4589382954130301
5.263856124831364,0.27568744719028476,0.7250921630859375,-0.11442533254623413,0.7841271390758364
5.273884124821052,0.28222755789756776,0.8875085180997849,-0.29125916719436645,0.9757846415122843
5.28391212481074,0.09056810796260834,0.7623927211761475,-0.25037872441112996,0.807548604803477
5.293940125033259,-0.17700457334518432,0.41390802383422853,-0.2048536189645529,0.4945861667923409
5.303968125022948,-0.5788462829589844,-0.07888478636741639,-0.16395241856575013,0.606767026435373
5.313996125012636,-0.9208423250913621,-0.4096500813961029,-0.2893401110172272,1.0485616227532653
5.324024125002325,-1.118034118115902,-0.36479667484760286,-0.5038113033771515,1.27941499626261
5.3340531249996275,-1.0568535313010217,0.06241961181163788,-0.5692684706300497,1.2020408421578823
5.344081124989316,-1.02059816300869,0.43714193522930145,-0.5121528681367636,1.2227077501240615
5.354109124979004,-1.1114212095737457,0.28793385565280916,-0.164663220718503,1.1598607617204968
5.364137124968693,-1.181668196618557,-0.12206121146678925,0.5320956011116504,1.3016775310985673
5.374165124958381,-1.1886214131116868,-0.25542918384075164,1.0265104289352895,1.591159511921444
5.3841931249480695,-0.9881426078081131,0.16449620962142944,1.1029709596931936,1.4899764274216423
5.394221124937758,-0.4132008031010628,0.8120121932029725,0.7291830944269896,1.1669647341679974
5.404250124935061,0.04351877957582474,1.0154561215639115,0.17476377412676813,1.0313037359306048
5.414278124924749,0.10886199921369553,0.7968439310789108,-0.0363018536567688,0.8050645998607889
5.4243061249144375,-0.20397836387157442,0.5782457739114761,0.11422170326113701,0.623716237940044
5.434334124904126,-0.5905661496520043,0.5844350516796112,0.36367678686976435,0.906969410760065
5.444362124893814,-0.8175202703475952,0.7480506706237794,0.30661030098795894,1.1497517449092296
5.454390124883503,-0.7567755934596062,1.0298519665002823,-0.066121484041214,1.2797173212910928
5.464418124873191,-0.5688995844125748,1.2122453337907793,-0.596272155046463,1.465853324629061
5.4744461248628795,-0.4352190783619881,1.0075150179862977,-0.9892307015508414,1.4775248013244846
5.484475124860182,-0.41181325882673264,0.4248686295747757,-0.9266480255126953,1.0994453491323788
5.494503124849871,-0.40154408633708955,-0.22516224145889283,-0.5947704438865186,0.7521220440673488
5.504531124839559,-0.3480031791329384,-0.6150668603181839,-0.21656917333602907,0.7391316947525328
5.514559124829248,-0.26346910536289214,-0.5154121792316437,0.09259884595870972,0.586208350549461
5.524587124818936,-0.15139142990112306,-0.15977867603302004,0.30868043459951877,0.37912029893810645
5.534615124808624,-0.38310109108686446,-0.07813692748546601,0.38466960668563843,0.5484911409826951
5.544643125031143,-1.083269789814949,-0.4556337547302246,0.3547354439646006,1.2275637625720501
5.554671125020832,-2.0235535222291947,-1.1255667936801912,0.4982763290405274,2.3685330406063136
5.564700125018135,-2.830702878534794,-1.5391666692495347,0.3966728440672159,3.2464229803730515
5.574728125007823,-3.342900258600712,-1.6349575102329255,-0.24682383656501772,3.729475862036974
5.5847561249975115,-3.3195634362101556,-1.679965867996216,-1.0134325464069844,3.856012480629776
5.5947841249872,-3.201912194788456,-2.207412786483765,-1.1175352044403553,4.046454972717551
5.604812124976888,-3.012421769499779,-3.479748786091805,-0.5876755785942078,4.639902921111561
5.614840124966577,-2.844493244290352,-4.794432660341263,0.11144076749682427,5.575853781800661
5.624868124956265,-2.8401911553740504,-5.4782095670700075,0.8966484470665456,6.235498720826522
5.634897124953568,-2.81168159365654,-5.594413037896157,1.6374368758499622,6.4718011515406415
5.644925124943256,-2.749518966972828,-5.658579213023186,2.2570031686127185,6.683819010336028
5.654953124932945,-2.6169365680217744,-5.603691984415055,2.4832376432418823,6.664547250193416
5.664981124922633,-2.433130221068859,-5.087392197847366,2.6228820168972016,6.219420561592501
5.675009124912322,-2.582760177254677,-4.313790364265442,2.510054143667221,5.619591554924875
5.68503712490201,-2.7781235459446907,-3.4004704821109772,2.190453522205353,4.90706190802421
5.695065124891698,-2.71176057189703,-2.3094823676347733,1.9202782452106477,4.046581612267386
5.705094124889001,-2.57114205211401,-1.1510045206546784,1.7361938631534577,3.309071167135617
5.71512212487869,-2.418599597811699,-0.24544740200042725,1.5493846786022187,2.8827870757256724
5.725150124868378,-2.3455512097477915,0.5234339743852615,1.4586768221855164,2.8112864803629165
5.735178124858066,-2.6085057601332666,1.0517971515655518,1.5215741515159609,3.197775390369273
5.745206124847755,-2.7260076051950457,1.2323463070392608,1.8267894530296327,3.505275251639283
5.755234124837443,-3.0058693796396256,1.042193684577942,2.3804014921188354,3.9733776144875574
5.765262124827132,-3.478912634253502,0.676998229622841,2.9768607580661777,4.6284835197497936
5.7752911248244345,-3.8021543169021608,0.28600310504436494,3.5275562059879304,5.194403528032522
5.785319124814123,-3.933093355894089,-0.03491898715496063,3.5489903444051745,5.297714143526745
5.795347124803811,-4.079076696038246,-0.20938645362854005,2.6846297836303714,4.887734286382668
5.80537512502633,-3.596230584383011,-0.21277666926383973,0.9531697531789541,3.7264837186562367
5.815403125016019,-2.5670244428515434,0.003160420060157776,-1.4685470683872701,2.9574067982814065
5.825431125005707,-1.325256809592247,0.0825276017189026,-3.556877945959568,3.796642877447081
5.8354591249953955,-0.07548229157924652,0.20157281935214996,-5.16996774673462,5.1744464129141265
5.845487124985084,0.8489724433422089,0.7562443739175797,-6.466517651081086,6.565707143513155
5.855516124982387,1.5028572142124177,1.3211345225572586,-5.308280709385873,5.672902283896761
5.865544124972075,1.4527395594120027,1.6035825204849243,-2.100843919068575,3.015870405002969
5.875572124961764,1.3949521118402481,1.7943140172958374,0.7791708679497242,2.4026155390435275
5.885600124951452,1.9352275291085244,1.797364509701729,2.814861309528351,3.8599312120858427
5.89562812494114,2.8405332174897193,1.6995072627067567,2.466612547338009,4.128090521577841
5.905656124930829,2.9102510315179826,1.6008822762966157,0.9145553988218308,3.445112002029292
5.915684124920517,2.879496431350708,1.4502322733402253,-0.7357893517613411,3.3069713205536564
5.925712124910206,1.1992294317483903,1.2505609685182573,-1.0019265416264536,2.00147714470299
5.9357411249075085,-0.7338249796628953,1.3197709518671037,-0.1887972378730774,1.521820903785315
5.945769124897197,-1.5679039800167085,1.2423801290988923,-0.28471671760082246,2.020617451427509
5.955797124886885,-1.0626577699184419,0.8830096703767777,-1.0327100855112077,1.7249457193382949
5.965825124876574,0.01862630546092987,0.8537297379970551,-1.902322323024273,2.0851934263928875
5.975853124866262,0.7311557257175446,1.0361938565969468,-2.8803659123182297,3.1471882995053906
5.9858811248559505,0.5153537070751191,1.0910150116682054,-2.5152204510569574,2.7896661299332233
5.995909124845639,0.6519475883245468,0.9835192143917084,-1.9913283473253252,2.3146780099748834
6.005938124842942,1.6194922095537188,0.5753163188695908,-2.2425560143589975,2.825385170397225
6.01596612483263,2.4743171310424805,0.2543410170078278,-2.2155407086014747,3.330999136801628
6.0259941248223186,2.792964071631432,-0.06103499114513398,-1.6076764485239983,3.2231967266530366
6.036022124812007,2.6253477877378466,-0.377988578081131,-1.0021051740646363,2.835408462925036
6.046050124801695,1.9338350147008896,-0.5814594036340713,-0.7591171109676361,2.1573297592907603
6.056078125024214,0.9599824172258378,-0.7083317041397095,-0.6767848062515259,1.3716186490585285
6.066106125013903,-0.014732059836387635,-1.0999320155382157,-0.5552287942171097,1.2322120297744095
6.076135125011206,-0.7965065467357636,-1.8450824671983719,-0.73946812748909,2.141393261717236
6.086163125000894,-1.1145079547166825,-2.43163245677948,-1.0002159386873246,2.855765450801998
6.0961911249905825,-1.0703532904386521,-2.6479917150735854,-1.4076347225904466,3.184172074761897
6.106219124980271,-0.984784551858902,-2.656147411465645,-1.7031664502620698,3.305404005914237
6.116247124969959,-0.6050014632940293,-2.644976890683174,-1.2402295231819154,2.983303335735069
6.126275124959648,-0.12190275192260742,-2.598271086215973,-0.43069245636463166,2.636544881158225
6.136303124949336,0.19971925199031831,-2.606446663141251,-0.082030588388443,2.615373970361999
6.1463311249390244,0.582890802025795,-2.177785529494286,-0.344802120923996,2.2806578003187297
6.156360124936327,1.0350472176074983,-1.8902177095413208,-0.7948430138826371,2.296959109095914
6.166388124926016,1.2294174367189408,-1.6564220541715622,-1.2125523126125337,2.3927984382468392
6.176416124915704,1.1549806272983552,-1.4572822612524032,-1.1273975569009782,2.174552158422905
6.186444249935448,0.829119976758957,-1.0633138275146485,-0.9646198439598084,1.6578804766947677
6.196472249925137,1.1067340815067293,-0.7919509810209274,-0.9299832773208618,1.6483068827148069
6.206500249914825,0.9423150551319123,-0.4152183848619461,-1.146270614862442,1.5408764690113035
6.216528249904513,1.4553497564792635,-0.4766550797224045,-1.4277105528116227,2.0937049460989225
6.226557249901816,1.6212440353631974,0.06958274334669114,-1.6909422612190248,2.343621068165437
6.236585249891505,1.5611551237106325,-0.18770965576171875,-1.8175987994670868,2.403352997580326
6.246613249881193,1.0562381118535995,-0.13504407674074173,-1.9973217433691026,2.2634420686489434
6.256641249870881,0.8530280721187592,0.21315498411655426,-2.473324858546257,2.6249624368701427
6.26666924986057,1.2129481691122055,0.45718969881534577,-2.1986624282598495,2.5523287709652562
6.276697249850258,1.376343932747841,0.41415214508771897,-1.8935038447380066,2.3772255741788926
6.286725249839947,1.3841283309459687,-0.20440930366516114,-1.8389341199398042,2.3106867155525284
6.296753249829635,1.5875646579265594,-0.2577546215057373,-1.8806773924827576,2.4746204643542375
6.306782249826938,1.8820710763335229,0.15583531379699708,-2.2293959784507753,2.9217601903869395
6.316810249816626,1.7887930762767792,0.39644648373126984,-2.4331486397981643,3.0458435264389876
6.326838249806315,1.783885215818882,0.9228467506170274,-2.6328409945964815,3.3114565211050824
6.336866250028834,1.7119510146975518,1.5007802832126618,-2.6143918597698215,3.466722159567242
6.346894250018522,2.1295196878910065,1.7033523917198181,-2.4872359693050385,3.690881498842493
6.3569222500082105,1.9014022636413574,1.8087262344360353,-2.430109257102013,3.576625806646613
6.366950249997899,2.154331178069115,2.0634651544690135,-2.23103144466877,3.7251218202374683
6.376979249995202,2.113294541537762,2.1525898772478103,-2.203252492547035,3.7355024487795165
6.38700724998489,1.5946462208032608,1.5195387357473373,-2.1199033570289614,3.057103986144632
6.397035249974579,1.460951096713543,0.9484941002726556,-2.0882927244901657,2.7193722930851334
6.407063249964267,0.8548895332217217,0.9778632026910782,-2.4261676490306856,2.7519705700447434
6.417091249953955,0.8258051902055741,1.1729827424883843,-2.3260984003543856,2.732869644618504
6.427119249943644,1.472623600959778,1.4546714794635773,-2.360103467702866,3.1392320337196464
6.437147249933332,2.0133369746804237,1.7354983368515968,-2.2801515644788743,3.502081011031218
6.447175249923021,2.457771264910698,1.9465863302350046,-2.2441011410951615,3.8556228891248066
6.4572042499203235,2.6438489627838138,2.1712217375636103,-2.149862151145935,4.040550512072782
6.467232249910012,2.528929540514946,2.18206335246563,-2.2446636432409286,4.024350875153696
6.4772602498997,2.6165260934829715,2.023481309115887,-2.3734164083004,4.071092095913352
6.487288249889389,3.0208388364315035,1.8616169312596322,-2.4086341881752014,4.288659875403012
6.497316249879077,3.217170796394348,1.5313156127929688,-2.2473878610134124,4.212584436778281
6.5073442498687655,3.497529584169388,1.5839496168494225,-1.7944900184869768,4.238136855660387
6.517372249858454,3.5344050496816637,1.831120485663414,0.05694252490997315,3.9809877843789705
6.527400249848142,3.202743376493454,1.096781535744667,4.5774167597293856,5.693262602855642
6.537429249845445,0.1309051251411438,-1.2726084798574449,11.141329143047333,11.214538936956307
6.5474572498351336,-8.265552125573159,-7.031874992251397,14.910067791938783,18.441169686530944
6.557485249824822,-16.773598809242248,-12.624089477062226,9.050623272657395,22.86121242983088
6.56751324981451,-12.459231909513473,-11.83634790658951,2.338966367840767,17.343654609417094
6.577541249804199,-4.92549858391285,-4.1134305498003965,-0.9927776956558229,6.493570261508715
6.587569250026718,-1.9791000652313233,3.203127830922604,-1.6095484346151352,4.09481515245824
6.597597250016406,2.3994979137182235,5.131173225045204,-2.572127015590668,6.221122590633484
6.607626250013709,4.604740213751793,6.79004526257515,-2.70981023311615,8.640105242614997
6.6176542500033975,5.291580476760864,7.921263390183449,-1.2436279249191284,9.606968723501495
6.627682249993086,4.998712740540505,8.067375953793526,0.6445292258262635,9.512365729156558
6.637710249982774,3.6436439019441607,5.665873029828072,1.9510217356681825,7.0131835771893
6.647738249972463,0.13729730129241943,1.767462433576584,3.3856863820552827,3.8217334130838103
6.657766249962151,-1.7948829513788225,-0.1662907201051712,4.874847078323365,5.197440855823306
6.6677942499518394,-0.6612060695886612,-1.7858478337526322,4.072172303795814,4.49544583145894
6.677822249941528,2.4573830097913745,-3.2784297358989716,0.016316070556640624,4.097206243795438
6.687851249938831,2.7133782041072845,-3.2221707504987718,-4.919530915617943,6.4766187207226436
6.697879249928519,-2.8630072832107545,-1.7739563512802126,-0.6532982951402665,3.430820674765501
6.7079072499182075,-6.845417225360871,-2.0714533281326295,4.251695272922516,8.320310605601856
6.717935249907896,-2.8162950468063355,-5.53910948753357,-0.7224211549758911,6.25580882306253
6.727963249897584,1.3549934095144271,-6.482989257574082,-5.039194183945656,8.322177291860598
6.737991249887273,1.9986478918790818,-5.510265757441521,-0.9476851379871369,5.937653512466602
6.748019249876961,0.488460608124733,-3.9522213524580003,0.12139287471771242,3.984141515376526
6.758048249874264,0.3032997536659241,-2.3560741513967516,-2.0319328746199607,3.125992219186585
6.768076249863952,0.5638247859477997,-1.4999558258056642,-1.7242012238502504,2.3538555029874146
6.778104249853641,0.6590952247381211,-0.9028978049755096,-1.8387323909997941,2.1518754069913077
6.788132249843329,1.050773304104805,-0.14340881109237671,-2.7251711609959606,2.9242517813010442
6.798160249833018,1.503286984562874,-0.18552572071552278,-2.8532652372121814,3.230389150688604
6.808188249822706,1.8761381989717485,-0.21118915021419526,-2.126620053648949,2.8437665606359124
6.818216249812394,1.8190401381254198,-0.3846479719877243,-1.4845729708671571,2.379247358366707
6.828244249802083,1.757159639596939,-0.6091559100151063,-1.2648989260196686,2.2491443294685403
6.838273250032216,2.0252626633644106,-0.8033267390727997,-1.414953682422638,2.5979062009103844
6.848301250021905,2.310895932018757,-1.2247197836637498,-1.3465851134061815,2.941678096727336
6.858329250011593,2.5880548310279847,-1.8039297634363176,-1.0470462888479233,3.323927846811496
6.8683572500012815,3.391428640186787,-1.7195298832654955,-0.6752235996723175,3.8619293300728184
6.87838524999097,4.161537931859494,-1.1896440911293031,-0.7029557740688325,4.3849512930203645
6.888413249980658,3.950515134930611,-0.6729841160774231,-1.0594862401485443,4.145116228149994
6.898441249970347,2.6056210362911227,-0.6046734344959259,-1.5507628673315048,3.091885576447187
6.908469249960035,0.7384322932362557,-0.922181922197342,-1.4407972061634065,1.8632225681893233
6.918498249957338,-1.161984129846096,-1.1029445010423662,-0.04626126989722252,1.6027581837215141
6.928526249947026,-2.1406700357794763,-0.5141070806980134,1.6546018159389497,2.753993729443916
6.938554249936715,-1.7604063060879709,0.5462655973434448,2.450213738679886,3.0661023842283788
6.948582249926403,-1.6943003171682358,1.2502662688493729,1.7116495907306672,2.7135886993476697
6.958610249916092,-1.6808113753795624,2.011609999537468,0.6592402356863022,2.703016714375292
6.96863824990578,-1.7941426938772203,2.6348027354478836,-0.26897075057029723,3.1989808885610755
6.978666249895468,-1.992032352089882,3.232982252240181,-0.7807962477207184,3.876855673806738
6.988695249892771,-2.37029253333807,3.560305291414261,-1.1929606318473815,4.440407135703696
6.99872324988246,-2.883910786807537,3.443157495260239,-1.260249220132828,4.664815436893193
7.008751249872148,-3.304443413615227,3.260147246718407,-1.18913889169693,4.791863692533091
7.018779249861836,-3.4341232547163965,3.1653393226861954,-0.6527971887588502,4.715794707785624
7.028807249851525,-3.543608567118645,2.7014545619487764,0.15383328197523952,4.458551682539274
7.038835249841213,-3.905396264791489,1.7343198305368424,0.39457716543227433,4.291349018562953
7.048863249830902,-4.338333467245102,0.844071307182312,0.690457935333252,4.473290266134316
7.05889124982059,-4.496183731555939,0.631367143392563,0.4102874644473195,4.558796817269506
7.068920249817893,-3.9811469435691835,0.7194683110713959,0.31547131776809695,4.057916680916517
7.078948249807581,-3.450883421301842,0.558855237364769,0.524615696668625,3.5349875803087407
7.0889762500301,-2.312647757828236,-0.019089404940605164,0.3561013535410166,2.3399812458997826
7.099004250019789,-1.5177334079146385,-0.7372964715957642,1.4796624791622162,2.2442196498489673
7.109032250009477,-1.1753397551178932,-1.339036357998848,1.8890039737522604,2.596685949600998
7.1190602499991655,0.46590175777673726,-1.668932172060013,0.39905850805342197,1.7781020037349458
7.129088249988854,3.206597568690777,-2.0783852022886276,0.10442776322364808,3.822676833628215
7.139116249978542,3.7350709658861163,-2.2061076879501345,1.2025044572353363,4.501520101111288
7.149145249975845,3.7951271331310275,-1.6731064993143083,1.4600778150558473,4.397056122076834
7.159173249965534,2.6409975680708886,-0.9003805786371232,1.0984555204957724,2.9986926937335387
7.169201249955222,1.7100103238224984,-0.0382174015045166,0.5644375010579825,1.8011622830710905
7.179228708148003,0.7349529075622558,0.40740475058555603,0.13824206516146662,0.8516133369751792
7.189256708137691,0.16963591217994692,0.4712440663576126,-0.006399338990449905,0.5008874767029969
7.19928470836021,-0.5721018120646477,0.3178283303976059,-0.4973536384105683,0.821995117145603
7.2093127083498985,-1.5337226191163065,0.08331872999668122,-1.3492755635082723,2.044453870704303
7.219341708347201,-1.2678213644027712,0.5115249502658844,-1.7320037484169006,2.206550650066935
7.22936970833689,-0.06534672796726228,1.0415586769580842,-1.3172279977798462,1.6805368994871266
7.239397708326578,0.6811941915750503,0.7667787176370621,-0.6075618128478527,1.192101709120364
7.2494257083162665,0.5232492023706437,0.27472850382328035,-0.33580310985445977,0.6797273035434279
7.259453708305955,-0.001057761311531067,-0.22574403941631319,-0.3816967360675335,0.44345674931789514
7.269481708295643,-0.41532685071229936,-0.10130067229270935,-0.028452332094311715,0.4284480765870662
7.279509708285332,-0.1552932769060135,0.25350895822048186,0.4198851938545704,0.5144767922545506
7.28953770827502,-0.14906072974205017,-0.11799798130989075,0.5842877018451691,0.614438559395446
7.299566708272323,-0.3098883962631226,-0.2940342557430268,0.505480171814561,0.6618135430667491
7.309594708262011,-0.2652560144662857,-0.30247412681579594,0.3128776390850544,0.5096506329270613
7.3196227082517,-0.07146320790052414,-0.16969789266586305,0.22699241995811464,0.2922839776263991
7.329650708241388,0.002440043091773987,0.6240411669015885,0.24960126399993898,0.672111689221779
7.339678708231077,0.5010566800832749,0.6348181700706482,0.11172391891479493,0.8164154210728748
7.349706708220765,0.20155615478754044,0.15479217052459718,0.49735714673995973,0.5585245124448601
7.359734708210453,-0.33310505837202076,-0.13761363565921783,1.0515831434726715,1.1116310540229797
7.369762708200142,-0.6068515223264694,0.08208028972148895,1.1149258844554424,1.2720321033446709
7.379791708197445,-0.33426134526729584,0.7307434970140457,0.5598721412569285,0.9793740449510785
7.389819708187133,-0.20141552925109865,1.1404046881198884,0.026445860043168068,1.158356789431798
7.3998477081768215,-0.048374015092849734,0.7059092026948929,-0.02442016527056694,0.7079860113430098
7.40987570816651,0.27162129342556,0.273636828660965,0.3414820718765259,0.5150390727458348
7.419903708156198,0.3978691112995148,0.24949309051036836,0.6444450259208679,0.797405808464441
7.429931708145887,0.13795102000236512,0.2869924539327622,0.9226252142339946,0.9760289127246005
7.439959708135575,-0.3063765585422516,0.23693561017513276,1.070429742783308,1.1383430560373244
7.449988708365709,-0.7489087495207787,0.3853239101171494,0.7458369147777558,1.124994015211613
7.460016708355397,-1.0389002403616905,0.8230938363075256,0.11090552799403668,1.330074136629479
7.470044708345085,-1.2877630010247232,0.9791799956560135,-0.44274649143218997,1.677245201625757
7.480072708334774,-1.6682959949970246,0.5798028874397279,-0.607483606338501,1.867731042515648
7.490100708324462,-2.176855529844761,-0.014942559599876405,-0.674207353591919,2.2789205412959292
7.500128708314151,-2.625062735974789,-0.5428859066963196,-0.8804279053956271,2.8214947761943954
7.510156708303839,-3.0170624122023586,-1.1842839485406875,-1.2748321759700776,3.4828711068289677
7.520184708293527,-2.870542005300522,-1.9350021189451219,-1.5255933813750744,3.783078081379274
7.53021370829083,-2.3231981813907625,-2.4490150594711304,-1.2368086096644402,3.5950827651771546
7.540241708280519,-2.0028725051879883,-2.6306611526012422,-0.6131274850666524,3.3627074931946526
7.550269708270207,-2.3305536863207816,-2.958711585402489,-0.14195621654391288,3.7690325413604158
7.560297708259895,-2.716731289923191,-3.6985562735795976,0.4542796126753092,4.611541757045592
7.570325708249584,-2.885017664730549,-4.488060194849968,1.1336957390606404,5.4544731429505
7.580353708239272,-2.8306797820329668,-5.487803093791008,1.2765395629405976,6.305417042542463
7.590381708228961,-2.7269668409228327,-6.725807166695595,1.44277692720294,7.399624007794966
7.6004107082262635,-2.5945548883080485,-7.317620819807053,2.0714088892936706,8.035547543108787
7.610438708215952,-2.4422831600904464,-6.4934195208549506,2.6315078294277194,7.419843499981714
7.62046670820564,-2.3086067470908165,-5.018816637396813,2.4194946603477003,6.030931931631738
7.630494708195329,-2.081857278943062,-3.7522331285476684,1.7317686903476717,4.627354101182156
7.640522708185017,-1.859319852590561,-2.716895304322243,1.1268859255313874,3.479721583409565
7.6505507081747055,-2.0008175012469294,-1.7377398669719697,0.7536933799088001,2.7551886014351386
7.660578708164394,-2.6467459657788277,-0.9090724647045136,0.8299047461897135,2.9189756492986803
7.670606708154082,-3.17613357514143,-0.11029895246028901,1.3584461903572083,3.4562069379813662
7.680635708151385,-3.19183773458004,0.6156726318597794,2.008102254867554,3.820910307703433
7.690663708141074,-3.0874149414896968,1.2091568344831467,2.476665372848511,4.138606364511849
7.700691708363593,-3.488516101241112,1.5035582953691484,2.848190438747406,4.747907003255646
7.710719708353281,-4.101969130039215,1.4573541820049287,3.163357701301575,5.381158230528621
7.720747708342969,-4.459525782465935,1.2763074284791946,3.3172733741998672,5.702686515638481
7.730775708332658,-4.977449925541878,0.7489903181791306,3.4117901068925858,6.080814582890441
7.740803708322346,-4.521087607741356,-0.09050846636295319,2.627445183992386,5.229903740437353
7.750832708319649,-3.7010042104125023,-0.9046233183145523,0.7682498770952225,3.8866416592202486
7.7608607083093375,-2.602036108374596,-1.9029026591777802,-2.06819350540638,3.8300202108339074
7.770888708299026,-0.787337527871132,-2.7659411644935608,-4.876826945543289,5.661605069678678
7.780916708288714,0.19997155934572222,-2.714559926390648,-6.057434164881706,6.640883441259099
7.790944708278403,1.2703342053294182,-1.4156085705757142,-5.5765568107366565,5.8920015683713745
7.800972708268091,2.946044177412987,0.283342621922493,-4.952930211424828,5.7698333611909165
7.8110007082577795,3.4003734183311463,0.8026788675785065,-3.24039008975029,4.765182124777819
7.821028708247468,3.0235589611530305,1.117615749835968,2.256196837574244,3.934640761966742
7.831057708244771,4.146409430801869,1.827304592728615,5.820022006630897,7.375934476398073
7.841085708234459,5.146831483840943,2.014640611410141,3.4803247368335724,6.531562706582175
7.851113708224148,4.609679649174214,2.0380271351337433,0.6957759779691697,5.087907751037878
7.861141708213836,2.876749994158745,1.7038891661167146,-0.7336210580170155,3.423029166698446
7.871169708203524,1.1781981664896013,1.1090864163637162,-1.394370898604393,2.1359994853362654
7.881197708193213,-0.3734935310482979,0.6131530666351319,-1.2148654711246492,1.4111527960465189
7.891225708182901,-1.4177603459358217,0.49599883854389193,-0.7267738223075867,1.6686100308749587
7.9012537081725895,-1.8401974108815193,0.6150785547494889,-1.5162429526448251,2.462446107222017
7.911282708169892,-0.71104218095541,1.0205355978012085,-1.9377713602781297,2.30261410883184
7.921310708159581,0.5746596765518189,1.4851582771539689,-2.2404922395944595,2.74876960251975
7.931338708149269,0.9013775289058685,1.8212135481834413,-2.5823485332727434,3.2860042886459015
7.941366708138958,1.319961571097374,1.2629746073484422,-2.466145354807377,3.069083954377723
7.951394708361477,1.8360853564739228,0.45694060742855075,-1.6827424183487893,2.532118915352412
7.961422708351165,1.7601814806461336,0.1395660209655762,-0.5134711959958077,1.838850235374035
7.9714507083408535,2.054934359192848,-0.21643702626228334,-0.1259215432405472,2.070134401912268
7.981478708330542,2.2739646255970003,-0.6256532442569733,0.009457286596298218,2.358483949656123
7.991507708327845,1.6015675699710847,-0.9523079466819764,-0.049128305912017826,1.8639535125475937
8.001535708317533,0.5136001271009445,-1.3105399525165558,-0.5365247207880021,1.506372740631231
8.011563708307222,-0.3489723551273346,-1.7874803763628007,-0.8443917346000672,2.0074524158709535
8.02159170829691,-1.2761618328094484,-2.357034264206886,-0.988343752026558,2.8567504123277554
8.031619708286598,-1.5432567965984345,-2.6166611641645434,-1.042854127585888,3.211868913843952
8.041647708276287,-1.2938239324092866,-2.6724991500377655,-0.8706623974442482,3.0942341678274734
8.051675708265975,-0.8440052336454392,-2.545888804793358,-0.5574796798825264,2.739466779188054
8.061703708255664,-0.47040849924087524,-2.185156529545784,-0.7124019509553909,2.3459986689040715
8.071732708252966,-0.013067357540130616,-1.6709254878759385,-1.0417095351219179,1.969091541150499
8.081760708242655,0.7814604914188386,-1.0428088116645813,-1.5417178094387056,2.018668997452121
8.091788708232343,1.4325309973955156,-0.5377286624908447,-1.9280702447891236,2.4614532377854297
8.101816708222032,1.8659581965208054,-0.31515849173069,-1.8684777617454529,2.6593860216618492
8.11184470821172,1.753037937283516,0.11983576118946077,-1.7762092834711076,2.4984839478980145
8.121872708201408,1.8446421718597412,0.329104101061821,-1.6872175848484041,2.5214514530644476
8.131900708191097,1.827511584162712,0.07037124037742615,-1.8502975988388062,2.601605639982704
8.141928708180785,1.5522059601545335,0.01684056580066681,-2.0502682811021806,2.5716195231583994
8.151957708178088,1.3701470535993576,0.6091319364309311,-2.4014608240127564,2.831140892597033
8.161985708167776,1.6347347313165665,0.6554214191436768,-2.713826685547829,3.2352419009459665
8.172013708157465,1.7843755048513414,0.8121659749746323,-2.7156896084547046,3.349414808991093
8.182042374974117,1.812403548359871,1.1145737358927728,-2.8375537687540056,3.546659361345474
8.192070374963805,1.8718451732397081,1.5867630046606065,-2.838581709265709,3.7522216493323235
8.202098374953493,1.6010027289390565,1.9342782336473465,-3.0758026635646822,3.9705420345871922
8.212126374943182,1.3987802839279175,2.043750389814377,-3.4040694433450702,4.209654464880401
8.22215437493287,1.4945430582761765,1.8297101372480393,-3.405722451210022,4.144929861175669
8.232183374930173,1.7419586330652237,1.6670838671922685,-3.0700916880369187,3.9037227709606337
8.242211374919862,1.867175586819649,1.2495318585634232,-2.7014463758468628,3.5136145291076555
8.25223937490955,1.9469339472055436,1.1953562361001968,-2.4941625809669494,3.3823476028138653
8.262267374899238,2.129051325917244,1.4088120594620706,-2.5280407637357714,3.5928541677036487
8.272295374888927,2.340249246954918,1.8519125998020174,-2.75884849190712,4.064184028372327
8.282323374878615,2.5934202361106875,2.1044503355026247,-2.5466635608673096,4.200004169987797
8.292351374868304,2.8284572553634644,1.789371365904808,-1.8601121503114701,3.8291040129871923
8.302379374857992,3.009260764718056,2.6080689731240274,-1.3629187256097794,4.208945422699314
8.312408374855295,3.1796831274032593,2.5398854684829715,-1.3438351678848268,4.28570833610361
8.322436374844983,2.819885821938515,1.7682447910308838,-1.5249105727672578,3.661119766507929
8.332464374834672,2.631051161885262,1.7557019287347795,-2.0107346713542937,3.7480626192217055
8.34249237482436,2.5263865864276887,1.7808256602287293,-2.30515893638134,3.8558691547029436
8.352520374814048,2.6139655977487566,1.8098746275901796,-2.160270195007324,3.843856088519143
8.362548374803737,2.93291483938694,2.3701250106096268,-1.5653510856628419,4.082867379967079
8.372576375026256,2.768559547662735,2.2295696407556536,0.4572049015760422,3.5839836877361675
8.382604375015944,1.908002600669861,1.8333050054311752,4.360003248453141,5.100108772724743
8.392633375013247,-1.749686897993088,-0.037991698980331425,8.859215837717057,9.030423736982492
8.402661375002936,-7.750562115311623,-4.080335601568223,9.76803745687008,13.120019340059898
8.412689374992624,-11.245851631164552,-7.371510513424874,5.377688913345337,14.48198481591585
8.422717374982312,-9.587632142901422,-7.349179996848107,1.0563907241821289,12.12638025528669
8.432745374972,-6.3208728647232055,-3.7412134659290315,1.5253339111804962,7.5017834886272245
8.44277337496169,-4.307246160507202,-0.6057142388820649,2.700943515300751,5.119995615157663
8.452801374951378,-0.491623951792717,0.48116679131984713,1.4171224147081376,1.575262368405196
8.462829374941066,3.4722175723314286,1.518600842356682,0.2224520570039749,3.7963045591310087
8.472858374938369,6.811258960962296,2.2747762191295626,-0.7658139270544052,7.221795237423798
8.482886374928057,9.941588079929351,3.729096280932427,-1.587523142695427,10.735993775708469
8.492914374917746,10.577337126731873,5.290971781611443,0.03393782436847687,11.826901321236763
8.502942374907434,4.406747644543648,5.278260519504547,2.2254362440109254,7.227172710722282
8.512970374897122,-3.8298362052440647,2.9336393094062805,-3.5782223296165467,6.006459855593683
8.52299837488681,-3.7152307784557346,-0.33942443668842315,-5.341939621567726,6.5157092941506525
8.5330263748765,-2.074311447143555,-3.7372081232070924,1.2332350838184358,4.448635892931285
8.543054374866188,-1.6695472991466522,-7.100607842803002,2.5897440916299823,7.740335547086818
8.553082374855876,-0.8203813129663468,-9.11026194870472,-0.41449976205825806,9.15651179901101
8.563111374853179,-1.0589132130146026,-9.70806958258152,-0.6355964344739914,9.78631161574459
8.573139374842867,-1.6731217020750047,-9.236057192087173,-0.3496377682685852,9.392887482263344
8.583167374832556,-1.4202161765098573,-7.0646310943365105,-1.2991311576962472,7.322142326668046
8.593195374822244,-0.6893946191668511,-4.1172093129158025,-1.2818760243058205,4.366907785720568
8.603223374811932,-0.10507914304733276,-1.2822347509860994,-0.49216949701309204,1.37746085125134
8.61325137480162,0.5040995711088181,1.426698399782181,-0.49509895205497745,1.5920765288952246
8.62327937502414,1.026114718616009,3.124418753385544,-1.3448572611808778,3.5529628502446546
8.633307375013828,1.4140558424592018,3.977676621079445,-2.040047640502453,4.688630887902631
8.643336375011131,1.8314862290024758,4.27716048181057,-2.5367522379755973,5.29939199447087
8.65336437500082,2.185758792757988,4.202768695950509,-2.671614173948765,5.4385961889282
8.663392374990508,2.551314436197281,3.471760904788971,-2.6399991559982303,5.052912494397776
8.673420374980196,2.6032336181402207,2.2334188628196716,-2.414050171673298,4.194356126841165
8.683448374969885,2.478454328477383,0.7665799123048783,-2.405180822610855,3.537693515520057
8.693476374959573,2.6558337083458903,-0.34914718687534335,-2.4868851363658906,3.6551271012054896
8.703504374949262,2.6083224499225617,-1.3622837179899216,-2.4442073325812816,3.825351280041427
8.71353237493895,1.841954791545868,-3.0693403208255767,-2.4627992856502536,4.34500031997051
8.723561374936253,0.8416528987884522,-4.920308010578156,-2.0191657716035842,5.384685778596006
8.733589374925941,0.1920181766152382,-5.879527950882912,-1.197482356801629,6.003306080837062
8.74361737491563,-1.1997606512904169,-5.711656728386879,0.4652886772155762,5.854822094347268
8.753645374905318,-3.005370027422905,-3.8710924047231674,3.540307813882828,6.045774129478967
8.763673374895006,-3.3058891376852992,-1.1474897593259812,3.5295793426036837,4.970268209479072
8.773701374884695,-3.5202702829241757,0.8165993338823319,1.50167724609375,3.913332580853796
8.783729374874383,-3.8110549485683443,1.5794335198402405,0.5759577584266663,4.165390426369906
8.793757374864072,-3.2825485146045685,1.5268500941991807,0.504336383342743,3.6552361275917518
8.80378537485376,-1.586105192899704,2.254367682337761,1.7539401626586915,3.267140863859337
8.813814374851063,-0.39005840063095093,3.0945599466562275,2.8539370822906496,4.2276948434135395
8.823842374840751,0.08343947499990463,3.08218840777874,2.5037262868881225,3.9718374647873604
8.83387037483044,0.10215436577796937,2.696777958869934,1.1240558731555939,2.923448046377731
8.843898374820128,0.19392816960811615,2.2752363950014116,-0.19441637556999922,2.2917474806785214
8.853926374809816,0.694939826130867,2.0032052117586137,-0.8833762907981872,2.2969819662992648
8.863954375032336,0.9619719323515893,1.7238059520721436,-0.9674826407432556,2.1983902335961973
8.873982375022024,0.764646822810173,1.486095001101494,-1.0000048542022706,1.947606948118805
8.884010375011712,0.6554734593629837,1.2729926419258117,-1.240807228088379,1.8946657487807452
8.894039375009015,0.18904632925987244,1.253332548737526,-0.7984372973442078,1.4980264050148975
8.904067374998704,-0.29945813298225404,0.884584910273552,0.5744140934944153,1.0964110486938263
8.914095374988392,-0.3113732966780663,0.12417205631732942,2.0700733852386475,2.097039782581064
8.92412337497808,-0.8872649815678597,-0.19449651896953585,2.2543402004241946,2.4304562910401164
8.934151374967769,-1.81013658285141,-0.3230387842655182,1.434258849620819,2.33196203923485
8.944179374957457,-2.176069371700287,-0.38930001676082615,1.1405590546131135,2.48751027546863
8.954207374947146,-2.309721811115742,-0.19982801020145416,1.1432955515384675,2.5849314877908283
8.964235374936834,-2.589752862453461,-0.04543169617652893,1.097916407212615,2.8132373459823876
8.974264374934137,-2.8731334912776947,-0.11207650601863861,0.5647871645539999,2.930263084289164
8.984292374923825,-2.843355668485165,0.18623966574668885,-0.6426054918766022,2.921009840584952
8.994320374913514,-2.2754390010237695,0.4339148569107056,-1.4088445115089416,2.711226218528575
9.004348374903202,-0.9382237583398819,-0.0244548100233078,-1.214591748341918,1.5349576455352005
9.01437637489289,0.7119973236322403,-0.1782254719734192,-0.673919597491622,0.9964296922527405
9.024404374882579,1.314677149951458,-0.06686583459377289,-0.31125657163560394,1.3526742778018512
9.034432374872267,2.263923786878586,0.2844822442531586,-0.682484598979354,2.381610020119583
9.044460374861956,2.8556307283043862,0.4693758809566498,-0.8910992932319641,3.028035423250292
9.054488374851644,1.9783215084671975,0.18435627758502962,-0.6570410978794098,2.09271264923102
9.064517374848947,0.3690753749012947,-0.08609206438064576,-0.6523260493576527,0.7544254440157856
9.074545374838635,-0.5952234569191933,-0.07207628846168518,-0.5823101004213095,0.8358056042393605
9.084573374828324,-0.6878971472382546,0.009863668084144593,-0.33871970102190974,0.7668316718726313
9.094601374818012,-0.27887973457574844,-0.01388947606086731,0.07089061930775643,0.2880838485721172
9.1046293748077,0.12946466356515884,-0.12018483996391296,0.4044119994342327,0.4413100499145527
9.11465737503022,0.41231611937284474,-0.38195474445819855,0.6604921976476908,0.8672623318594472
9.124685375019908,0.7092184343934059,-0.3423696792125702,0.697133116722107,1.0517615544210728
9.134713375009596,0.6260198646783829,-0.3819301861524582,0.5415726220607758,0.911631747490277
9.1447423750069,0.05601164817810059,-0.7390301710367203,0.23255560711026194,0.7767786099221669
9.154770374996588,-0.05579910188913346,-0.02069972813129425,0.05130566284060478,0.07857664764964974
9.164798374986276,-0.2989883092045784,0.5729745090007782,-0.04204981282353401,0.6476588482868042
9.174826374975964,-0.2524126052856445,0.9364807033538819,0.028936700820922853,0.9703327077428996
9.184854208258912,-0.036015924811363224,0.9190355354547501,0.2201313702017069,0.9457173374827692
9.1948822082486,-0.12231351882219316,0.5704251229763031,0.3348036014288664,0.6726357627564392
9.204910208238289,-0.24982462763786317,0.31871359884738926,0.09992891550064087,0.4171048918650868
9.214938208227977,-0.2308606454730034,0.2170305186510086,-0.23526856899261475,0.3946519773293557
9.224966208217666,-0.16410707741975786,0.4862556231021881,-0.22395084455609324,0.5599371791863254
9.234995208214968,-0.0763456329703331,1.3678385728597642,0.013904751911759378,1.370038086770731
9.245023208204657,-0.36827606052160267,1.1069323021173478,-0.032640327215194706,1.167044030525343
9.255051208194345,-0.7513514238595963,0.7377420294284821,0.20656327173113823,1.0730613446347652
9.265079208184034,-1.072705040574074,0.30170521795749666,0.5181019715219737,1.2288823359096517
9.275107208173722,-1.1609213984012605,-0.0892595010995865,0.596865062713623,1.308416468442148
9.28513520816341,-1.180212239921093,-0.2824450743198395,0.6597026042640209,1.3812616252324665
9.295163208153099,-1.0223985207080841,-0.3122810769081116,0.8748359207063914,1.3813602333566606
9.305191208142787,-0.655433698296547,-0.44589463233947757,0.9676767683029175,1.2509251312228982
9.31522020814009,-0.34051786601543427,-0.679210816025734,0.7601709984987974,1.0747742538043548
9.32524820836261,-0.1150813901424408,-0.8770262145996094,0.7175456003844738,1.1389865653655236
9.335276208352298,-0.17689435333013537,-0.8774571543931962,0.3922757378965616,0.9772936736611897
9.345304208341986,-0.5515280914306641,-0.813116147518158,-0.13783977672457695,0.992139561271197
9.355332208331674,-0.8243521571159363,-1.1628924947977066,-0.15401675663888456,1.4337351898883186
9.365360208321363,-0.4509609523415566,-1.9788837182521821,-0.5314171048253775,2.09803495924195
9.375388208311051,-0.20262210220098498,-2.548032394051552,-1.6364707696437837,3.0350554158589835
9.38541620830074,-1.0716671597957612,-2.457792899608612,-2.5377766701579096,3.6918189102864987
9.395444208290428,-2.1330785956978797,-2.631592029333115,-2.236874567270279,4.059422216766152
9.40547320828773,-2.6959163716435435,-3.6442034804821017,-0.5321878409385682,4.564143729999792
9.41550120827742,-2.8355467119812965,-4.505098981261254,1.3735030630230904,5.497522410224713
9.425529208267108,-3.7848848578333856,-4.605387500524521,1.589894188642502,6.169498435701491
9.435557208256796,-4.468811453282833,-3.995649207830429,0.6702778784930706,6.03197818558928
9.445585208246484,-3.865473815202713,-3.251177033185959,0.5261619197577239,5.078275916385088
9.455613208236173,-3.2919596081972125,-3.0647987884283068,0.9024686193466187,4.587421855951222
9.465641208225861,-3.1509227201342584,-3.2621458250284197,0.9514416085928679,4.63412888324984
9.47566920821555,-3.326350884139538,-3.1548336303234104,1.1221684650331736,4.719835537743914
9.485698208212852,-3.532596798241139,-2.3778053283691407,1.3603782565891744,4.470327428675088
9.49572620820254,-3.332601557672024,-1.1630176252126694,1.1969929448515177,3.7271484071307954
9.50575420819223,-2.8713690939545633,0.11918847441673279,0.8962634810060263,3.010357884627055
9.515782208181918,-2.549366436302662,1.210141505599022,0.9147373203188182,2.966556261948196
9.525810208171606,-2.7217818224430084,1.8455677860975266,1.1467232624441386,3.482698807346486
9.535838208161294,-3.1808671885728836,2.180444258451462,1.6005384600162507,4.175401369634385
9.545866208150983,-3.463787641525269,2.4314482694864274,2.234450311660767,4.785659171739315
9.555894208140671,-3.6931221637129785,2.4567544341087344,2.9254286491870882,5.313466518865584
9.565923208137974,-3.839201690554619,1.9886357045173646,3.3477519857883453,5.46823417058821
9.575951208360493,-3.936041814386845,1.4728457951545717,3.2634643721580505,5.320892745512836
9.585979208350182,-3.8879230302572254,0.8784897726774216,2.5452134513854983,4.7292495475516025
9.59600720833987,-3.7520021635293963,0.21252348482608796,1.170172863006592,3.9359866610608503
9.606035208329558,-3.2343370521068575,-0.30938085794448855,-0.6254836750030518,3.3087584544038675
9.616063208319247,-2.0056329756975173,-0.7138777881860734,-2.1200138694047928,3.0044373743081083
9.626091208308935,-0.6140088066458702,-1.1856375789642335,-3.1668426418304443,3.436806017424679
9.636119208298624,1.0206496185064315,-2.016332795619965,-3.6607312202453617,4.302124667339272
9.646147208288312,2.410639198422432,-2.4146193981170656,-3.059236332178116,4.582629716533137
9.656176208285615,2.8091497492790225,-2.3687573468685152,-0.8741832983493806,3.777106051109892
9.666204208275303,2.4785855984687806,-2.2749779480695724,2.567152789235115,4.231924464876154
9.676232208264992,2.7904611709713936,-2.3929905474185946,4.61090961098671,5.89691145833337
9.68626020825468,3.224636228978634,-1.2730060905218126,2.9410278511047365,4.54625869663407
9.696288208244368,3.6784912607073785,-0.22228190302848816,0.44655989930033685,3.7121587982166995
9.706316208234057,3.6918348991870884,0.32253124594688415,-0.22331919908523562,3.712619397695899
9.716344208223745,3.0692607986927034,0.48375827729702,0.04599639102816582,3.1074908832099197
9.726372208213434,1.8170316195487977,0.32067417025566103,-0.4240400791168213,1.8932104528040943
9.736401208210737,0.5807732328772545,0.43233903229236603,-1.0119578786194325,1.2442963212073477
9.746429208200425,-1.1921034300327302,0.47953775703907014,-2.473032205402851,2.7869257861094097
9.756457208190113,-3.1265462628006935,0.3556364268064499,-1.9411903734505178,3.6972948039724396
9.766485208179802,-3.259636200070381,0.7553123277425766,-1.5399136510491371,3.683348873231623
9.77651320816949,-3.1517568254470825,1.1677953851222993,-1.2750586093962193,3.594870179249959
9.786541208159178,-2.4083190232515337,1.3451513761281968,-1.0946445246040821,2.967773471426096
9.796569208148867,-1.0819190829992296,1.2038732904195786,-0.7440900591015817,1.7814403772221377
9.806597208138555,-0.6517844510078431,0.7255529236793519,-0.8295181721448899,1.2803712014700463
9.816625208361074,-0.3576209717988968,0.5652930217981339,-0.14024312853813173,0.6834596513812763
9.826654208358377,0.39173421263694763,0.49517321169376377,0.03479297965765,0.6323470205218523
9.836682208348066,0.6560920947790146,0.20668620944023133,-0.4624469304084778,0.8288746524345585
9.846710208337754,0.6116433155536652,-0.1881458580493927,-1.1456695210933685,1.3122747657883738
9.856738208327442,0.2142273634672165,-0.5760460513830186,-1.2921273627877237,1.4308443445171943
9.86676620831713,0.08960156321525574,-1.0688476324081422,-0.9033331301808357,1.4023103955677627
9.87679420830682,0.23705430865287783,-1.6717885369062424,-0.7477162098884583,1.8466594672304826
9.886822208296508,0.10962652266025544,-2.3075258892774584,-0.6371219730377198,2.39637603741228
9.896850208286196,-0.06714299261569977,-2.7608172494173053,-0.8612644600868226,2.892818095965623
9.906878208275884,-0.18566605389118196,-2.8400218784809113,-1.320196044445038,3.137373702571323
9.916907208273187,-0.15499857723712923,-2.4535448974370957,-1.376763762831688,2.817691534098722
9.926935208262876,-0.00959235727787018,-1.953714378476143,-1.3321208560466766,2.364664428856048
9.936963208252564,0.25218047082424166,-1.6072580802440644,-1.2188442090153695,2.032844000956609
9.946991208242252,0.9233741694688797,-1.5281224483251572,-1.129708961248398,2.112822853682379
9.95701920823194,1.3900533145666123,-1.1612365633249284,-1.3121833124756814,2.236636675653864
9.96704720822163,1.454445192217827,-0.9245254862308503,-1.6384646701812744,2.3779664983527784
9.977075208211318,1.7190492421388628,-0.8458219635486603,-1.777192200422287,2.6132273548547817
9.987103208201006,1.5748785388469697,-0.1752381294965744,-2.1769885540008547,2.692625109145526
9.997132208198309,1.9634137398004532,0.21774037063121796,-2.6041808670759203,3.26866369807053
10.007160208187997,2.455016056895256,0.6441245985031129,-2.9000751221179963,3.853885837948244
10.017188208177686,2.7932780671119692,1.2869183707237244,-3.0898845130205155,4.359581121727064
10.027216208167374,2.8558438593149185,1.751824055314064,-2.9538320839405063,4.466526127728355
10.037244208157063,2.9510985106229786,2.0400169426202774,-2.865182447433472,4.591287619247982
10.047272208146751,2.809338029623032,2.077621263563633,-3.0922976589202884,4.665961325478583
10.05730020813644,2.587184180617333,1.869348412156105,-3.0364941716194154,4.405483211265912
10.067328208358958,2.4333316576480866,1.7543903982639313,-2.953611643910408,4.209846834348752
10.077356208348647,2.6467216998338703,1.4770072585344316,-3.2804236364364625,4.466303329670513
10.08738520834595,2.727599802017212,1.5785400652885437,-3.4847849929332737,4.698437598250981
10.097413208335638,2.658938287496567,1.7352904683351518,-3.3725605523586273,4.631992066652914
10.107441208325326,2.682117235064507,1.629752611219883,-2.8634218508005143,4.24841513179326
10.117469208315015,3.5641884273290634,2.8445052310824397,-2.459160563349724,5.180938122724139
10.127497208304703,4.191879426240921,3.5293705970048905,-2.263629671931267,5.928939974969575
10.137525208294392,3.7479477041959766,3.0638492006063465,-1.9585143578052522,5.222074530986068
10.14755320828408,2.8664577251672747,2.2476837301254275,-1.8566383194923402,4.088492129165598
10.157581208273768,2.7592694914340976,2.003629719614983,-2.1920790481567383,4.053802009601745
10.167609208263457,2.693853181600571,1.9016864383220673,-2.507303028702736,4.1424418826894245
10.17763820826076,2.4153117084503175,1.9723775213956833,-2.5360420936346055,4.019392147647547
10.187666583340615,2.3971122497320176,2.0128917092084886,-2.449075285792351,3.9743993164117835
10.197694583330303,2.387172567844391,2.0768532317876818,-2.2768747848272324,3.898213821846844
10.207722583319992,2.584718994498253,2.1705782514810563,-2.183847337961197,4.020120821796632
10.21775058330968,2.7662300169467926,2.3137520045042037,-1.621098439693451,3.9539141361669974
10.227778583299369,2.440757621526718,2.4223523408174517,0.7645789951086045,3.522736105623842
10.237806583289057,1.6106354320049288,2.2113888931274417,5.444218533039093,6.092938762778061
10.247834583278745,-2.365019806623459,-0.13202135860919953,10.959057397842408,11.212122340308934
10.257862583268434,-9.981512868404389,-5.536853631734848,11.66127759218216,16.317865741674293
10.267891583265737,-15.807201411724092,-9.622720699310303,4.0340806174278265,18.940384804846335
10.277919583255425,-12.762327010631562,-9.892829318046571,-2.867338315844536,16.400204012749594
10.287947583245113,-8.90000835299492,-7.099184630513191,4.175220416486264,12.126047856896236
10.297975583234802,-0.11263316094875336,-4.669968827962876,5.275584248900413,7.046494465359098
10.30800358322449,11.012005105018616,-1.69138197183609,-2.8008274072408677,11.487804993677416
10.318031583214179,10.509801785945893,1.7828815412521364,-7.115090226531029,12.816360992952971
10.328059583203867,4.5544869035482405,6.640361804366112,-3.459515081048012,8.763903265296545
10.338087583193555,1.9029085063934328,7.8997298491001136,-0.9192597761750222,8.177519856812403
10.348116583190858,0.9532616275548935,5.405516982078552,-2.726392059624195,6.128746628544052
10.358144583180547,-0.2617915391921997,1.3669959890842438,0.8051428842544556,1.6079390250350336
10.368172583170235,-2.303814076781273,-3.314862567186356,-1.1999100476503373,4.211372372773643
10.378200583159924,-2.1863867837190627,-7.436105874180794,-1.390275508761406,7.874568161512686
10.388228583149612,-1.480098096728325,-9.840101466178895,-0.9750363662838937,9.99844903753632
10.3982565831393,-0.41088150501251225,-10.836286919116974,-1.3273480662703514,10.925007583229343
10.40828458336182,0.05608883142471314,-9.662537899017334,-0.723786479830742,9.689770455245196
10.418312583351508,-0.6134591683745384,-6.4861192721128464,0.5262678274512291,6.536285886460804
10.428340583341196,-0.1565033581852913,-2.469859798550606,0.9021712884306908,2.634124856434943
10.438369583338499,1.0376770028471947,0.8533789050579071,0.14371725171804428,1.351178658163737
10.448397583328187,1.8593713080883028,2.8427273851633075,-0.5773349238932133,3.4455298956831304
10.458425583317876,2.4958228978514674,3.9041695189476013,-1.1062721514701843,4.763980441105706
10.468453583307564,2.6737697499990465,4.350545377135277,-1.2408727169036866,5.255097987105382
10.478481583297253,2.874448237717152,4.159636124968529,-1.2138983416557312,5.199862935437142
10.488509583286941,3.1111850425601006,3.2691127824783326,-1.2266436637938023,4.676668197717088
10.49853758327663,3.390016829967499,1.927015991806984,-1.381586107760668,4.136953578818599
10.508565583266318,3.718191223740578,0.7007431876659393,-1.51859616458416,4.077023583749718
10.518593583256006,3.7411067542433742,-0.48993235230445864,-1.4022108453512192,4.025184307743007
10.52862258325331,3.0878838881850244,-1.7807502311468126,-1.3086635810136795,3.797196157813504
10.538650583242998,1.8124175816774368,-3.100377926230431,-1.3041547930240631,3.8207355967140715
10.548678583232686,0.5916952469944954,-3.840862299799919,-1.1002904498577117,4.038931238011894
10.558706583222374,-0.7375616428256035,-4.246802907586098,-0.5357312901690603,4.343540045644283
10.568734583212063,-2.6076383256912234,-3.62463635802269,1.5085295981168747,4.713112338350146
10.578762583201751,-3.548939765989781,-1.734672417640686,3.494947453737259,5.274345415644631
10.58879058319144,-3.9268374198675158,0.08666450679302216,2.9134020960330966,4.890345042221406
10.598818583181128,-4.146647997200489,1.4830257976055146,1.6850108456611634,4.715221805922394
10.608846583170816,-3.514516622722149,1.8541707944869996,1.001312291622162,4.097853429769357
10.61887558316812,-2.3419414311647415,2.1126902318000793,1.0516392767429352,3.3247698944344757
10.628903583157808,-1.126605259180069,2.7523247534036637,1.2536781191825868,3.227419988896381
10.638931583147496,-0.20675666838884355,2.9724431866407395,0.811904604434967,3.0882609838601573
10.648959583137184,0.3448287257552147,2.7235201996564866,0.24844000697135926,2.756481736762789
10.658987583359703,0.4667396637797356,2.433694769740105,-0.3782984805107117,2.506756048434366
10.669015583349392,0.09872380435466767,2.175659481883049,-1.1610137844085695,2.468034355158085
10.67904358333908,-0.3189480721950531,2.0321916139125826,-1.881823446750641,2.787972401792032
10.689071583328769,-0.7241776585578918,1.8685619616508484,-2.081239228248596,2.889206432722257
10.699100583326072,-1.0068303090333939,1.647351268529892,-1.8386628091335298,2.666112225471037
10.70912858331576,-1.4131091782450678,1.1213415956497192,-1.2634874081611633,2.20242705994013
10.719156583305448,-1.5263083496689798,0.3695832055807114,-0.5673974347114563,1.6697750665984028
10.729184583295137,-1.3417886424064638,-0.18928021788597107,0.9474454021453858,1.6534438459833989
10.739212583284825,-1.3160667407512665,-0.7310265022516251,2.9210748124122623,3.286199852841461
10.749240583274513,-1.2604956802725793,-1.0662929838895798,3.25570862531662,3.6504066541193754
10.759268583264202,-2.2261680230498313,-1.0414031410217286,1.8100091135501863,3.0522905432009986
10.76929658325389,-2.8387965944409372,-0.9906381994485856,-0.08539741516113282,3.007893426525016
10.779324583243579,-2.2157760590314868,-0.8797913628816605,-0.8259168720245361,2.5230606543389063
10.789352583233267,-0.9902069672942162,-0.6260064160823823,-0.7156850894540548,1.3728069850933802
10.79938158323057,-0.07189911782741547,-0.299763942360878,0.04972238302230835,0.3122502516532428
10.809409583220258,0.5110440167784691,-0.154993314743042,0.10003774680197239,0.543319855596428
10.819437583209947,1.5865215146541596,-0.14268492579460146,-0.263595916852355,1.6145873503439736
10.829465583199635,2.404927345812321,0.03419861018657684,-0.7075398449599744,2.5070815135891715
10.839493583189324,2.5387104704976085,0.42404183328151707,-0.3447119276225567,2.5968613059676864
10.849521583179012,1.3380028626322746,0.6874197220802307,-0.31060965031385424,1.5359934536270388
10.8595495831687,0.2302756315469742,0.540304360985756,-0.4403443090617657,0.7340700099497783
10.869577583158389,-0.16064143270254136,0.4427967774868012,-0.3671558801829815,0.5972253313502038
10.879606583155692,-0.37309124261140825,0.39561910271644596,0.044634135961532595,0.5456223564339377
10.88963458314538,-0.43034571647644043,0.2854265695810318,0.25783180475234985,0.5771854137573734
10.899662583135068,-0.6452206590771675,0.14637919664382934,0.234799622297287,0.7020451771367822
10.909690583357587,-0.5476499256491661,0.1536741828918457,-0.028031698018312456,0.5694927318630182
10.919718583347276,-0.11907065302133561,0.20107639074325562,-0.19988370493054392,0.30751102552920356
10.929746583336964,0.34458460450172423,0.36005575239658355,0.14432463124394418,0.518852863225385
10.939774583326653,0.8131453835964203,0.3300718152523041,0.5759006018936634,1.0496734355739428
10.949802583316341,0.9527935579419137,-0.12151742041110992,0.9598381371796132,1.3578922258792894
10.95983058330603,0.6202203038334847,-0.31470825612545017,1.1995260317623615,1.3865703056954524
10.969859583303332,-0.16205207347869874,-0.15704510271549227,1.0075129714608193,1.0324758720994283
10.97988758329302,-0.5099084874987603,0.10971832394599915,0.616915019005537,0.8078545146914725
10.98991558328271,-0.7976566940546036,0.43556260228157045,0.3438279747962952,0.9716937060251728
10.999943583272398,-0.8266571295261383,1.1576112896203996,0.35754554271698,1.466719033342712
11.009971583262086,-0.7842730021476746,0.8786786377429963,0.17333983093500138,1.1904650298568997
11.019999583251774,-0.7013805341720581,0.6395292717218399,0.03306980520486832,0.9497504699239883
11.030027583241463,-0.625121147632599,0.40133709490299224,0.0688404393196106,0.7460475313600253
11.040055583231151,-0.5626442331075668,0.2823024022579193,0.4151653213799,0.7540725584758206
11.05008358322084,-0.5832170766592026,0.40046176671981815,0.7167024318873882,1.0070621435564744
11.060112583218142,-0.5986768224835396,0.691174219250679,0.7126775009930134,1.1593295301843303
11.07014058320783,-0.7481538739800454,0.7917545145750046,0.4564500260353089,1.181082578302163
11.08016858319752,-0.8502275481820107,0.5451581346988679,0.3174570322036743,1.0587082897623439
11.090196583187208,-0.9059585300087929,0.08788423597812653,0.3622715547680855,0.9796556417554272
11.100224583176896,-0.8979121765494347,-0.34008400261402133,0.48087501525878906,1.0738455130650113
11.110252583166584,-0.9971496587991715,-0.6811976999044419,0.2204508474469185,1.2275733479260906
11.120280583156273,-1.0312991523742676,-0.9388897562026978,-0.20005195856094363,1.4089402762765757
11.130308583145961,-0.9627721238136292,-0.9262872523069382,-0.48659578487277033,1.421869788002717
11.14033658313565,-0.9092648380994797,-0.6973786997795105,-0.7261480240523815,1.3566099474592583
11.150365583365783,-1.0456072890758514,-0.8881236451864243,-0.9184103219211102,1.6509196623455091
11.160393583355471,-1.5262226879596712,-1.5811099165678024,-1.1107207131385803,2.4623088279310057
11.17042158334516,-1.7176017639040948,-2.111202700138092,-0.9399587734043598,2.879384509949419
11.180449583334848,-1.5809087723493578,-2.405894182920456,-0.4854580628871918,2.919463802948039
11.190477083204314,-1.6705337244272234,-2.873212428689003,0.06462708190083503,3.3241855009214913
11.200505083194003,-2.076129931211472,-3.6403162515163423,0.5036043119430542,4.2208808565670015
11.210533083183691,-2.6489959743618967,-4.352655052542687,0.9358642606437206,5.180601084136969
11.22056108317338,-3.78394696444273,-4.696036300063134,1.3177342204749585,6.173121984623076
11.230589083163068,-5.039494730830193,-4.462398519515991,1.2353611314296724,6.8436558076872185
11.24061808316037,-5.724357465505601,-3.9088244873285296,0.668224482536316,6.963741898195953
11.250646083150059,-5.301801409721374,-3.3283053159713747,0.4655061936378479,6.277213592093395
11.260674083139747,-4.271419393122196,-3.117027288079262,0.660412748605013,5.32888616364538
11.270702083362266,-3.730513061285019,-3.179539870619774,1.1031146550178528,5.024247548777239
11.280730083351955,-3.6123191982507707,-3.365865490436554,1.7379035890102388,5.2343298878134785
11.290758083341643,-3.5724438187479977,-3.3139281821250917,2.114428024291992,5.311805785634959
11.300786083331332,-3.4826033967733383,-2.788013234138489,1.9726084864139557,4.877779049282665
11.31081408332102,-3.2263804534077645,-1.9356382960081102,1.476007969379425,4.041636545853232
11.320842083310708,-2.9011241126060487,-1.0526274561882019,1.3010031437873841,3.349202122656997
11.330871083308011,-2.5728599640727046,-0.3006410247087479,1.6355597734451295,3.0635027652962887
11.3408990832977,-2.401561980843544,0.23008442759513856,2.227813721895218,3.2838381158515677
11.350927083287388,-2.408007366657257,0.42978613793849946,2.9769987523555757,3.8530166329470164
11.360955083277076,-2.6952041807770732,0.4639467412233353,3.5191900098323825,4.456912662378971
11.370983083266765,-3.1077214443683627,0.5080628138780594,3.8604288375377656,4.981864230218028
11.381011083256453,-3.6252181559801104,0.47009859681129457,3.6707445770502094,5.18049853963065
11.391039083246142,-3.8161025574803356,0.24643733561038972,2.5813784801959994,4.613771228356442
11.40106708323583,-3.508522057235241,-0.1739084726572037,0.9993452882766725,3.6522133273083814
11.411095083225518,-2.910080292820931,-0.8013854634761811,-1.401247808933258,3.3278042901853384
11.421124083222821,-2.1526878181099893,-0.979098134636879,-3.8154117089509967,4.488882322838162
11.43115208321251,-1.0040932273864747,-0.887020275592804,-4.968635247945786,5.146099921855909
11.441180083202198,0.8650821071863175,-1.1480920225381852,-5.326898828744889,5.517457156704835
11.451208083191887,1.6063567319512368,-0.37120229959487916,-4.14607292354107,4.461848695869233
11.461236083181575,1.8199104961752892,0.8775740987062455,-0.8176858196407557,2.179637725047592
11.471264083171263,1.8296937650442124,1.3584877055883409,1.926845253109932,2.9842923364691702
11.481292083160952,1.9354181483387949,1.4054086875915528,2.969000930786133,3.8126084922380774
11.49132008315064,2.0323965588212016,1.6285238188505173,3.3406335854530336,4.235865714718601
11.501348083140329,2.444502763152123,1.7759888434410096,2.583557152748108,3.9754871012998154
11.511377083137631,2.2356495755910872,1.5241445875167847,0.7864301861822606,2.817732809589295
11.52140508336015,0.48794137537479404,0.7545697313547135,-0.629290212392807,1.097027090227381
11.531433083349839,-0.10597844481468201,0.09008161962032318,-1.1779549223184587,1.186138241510257
11.541461083339527,0.02433377265930176,-0.4537111902236939,-1.4950758858025075,1.5625933191122339
11.551489083329216,0.2852529072761536,-0.24893351197242738,-2.308708196282387,2.339544966456917
11.561517083318904,0.7243808493018151,0.4081689816713333,-2.4641622716188434,2.600658615294128
11.571545083308592,1.5869009989500047,0.7558806771039963,-1.8442971861362458,2.5477524387737898
11.58157308329828,2.2741926670074464,0.9130965185165406,-1.5984135818481446,2.9258543226610043
11.59160108328797,2.4248672282695773,0.7829135245084763,-1.2157714971899987,2.8233021437624557
11.601630083285272,2.409890170097351,0.31179985105991365,-0.5898460650444031,2.500541573239923
11.61165808327496,2.3140525513887407,-0.25228221237659454,0.05855167865753174,2.3285003380596674
11.621686083264649,2.0543133848905564,-0.7963597816228867,-0.05594703644514084,2.2039787784853875
11.631714083254337,1.5081629776954653,-1.3799540036916733,-0.7678744858503342,2.183680344193226
11.641742083244026,0.6714843052625656,-1.7216682100296021,-1.5617611876130104,2.419531071256347
11.651770083233714,-0.6139716768264771,-2.2127600651979447,-1.8925601041316986,2.9757439530024947
11.661798083223403,-1.559724310040474,-2.8533693176507953,-1.718036212027073,3.6777853134839904
11.671826083213091,-1.828995607495308,-3.4615931814908985,-1.724807580113411,4.278178756760649
11.68185408320278,-1.4947880566120149,-3.6368470984697345,-1.3419012013077736,4.154725861703621
11.691883083200082,-0.6125654214620591,-3.371798075437546,-1.1511214649677277,3.6151541162452228
11.70191108318977,0.05507843255996704,-2.779838826656342,-1.0806531608104706,2.9830100217547093
11.711939083179459,0.7753846496343613,-2.0298661762475967,-1.2520064002275468,2.50780742374158
11.721967083169147,1.1392907935380936,-1.112009439468384,-1.713854575753212,2.339197728396997
11.731995083158836,2.0119824671745303,-0.38131798267364503,-1.9679365611076356,2.8401146386496716
11.742023083148524,2.808268573880196,0.17675138890743256,-2.1103718107938767,3.5172834142726175
11.752051083138213,3.534261208176613,0.6354736429452896,-2.209290912151337,4.216135122717802
11.762079083360732,3.6313723504543307,0.9198693484067917,-2.4598517042398456,4.481505904563132
11.77210708335042,3.518192474842072,1.2747456371784212,-2.628280166387558,4.572801259902622
11.782136083347723,3.102669450044632,1.220041426420212,-2.647119310498238,4.257029415265343
11.792164083337411,2.242904800772667,0.6397467881441117,-2.819208129644394,3.6589386953764103
11.8021920833271,1.8998989444971086,0.2717557793855667,-3.2451093775033955,3.7701726850226844
11.812220083316788,1.8736408531665802,0.28131948530673984,-3.286780144572258,3.7937572956400984
11.822248083306476,1.813323900103569,0.5403435373306275,-3.3091521763801577,3.811902783579787
11.832276083296165,1.906202827692032,0.9352504491806031,-3.2435546028614044,3.8767188555190613
11.842304083285853,2.0957122564315798,1.501100710630417,-3.3804478615522386,4.251204646907249
11.852332083275542,2.5992300295829773,2.036205142736435,-3.661042876839638,4.93004696489298
11.86236008326523,2.9049791818857194,2.5852411508560182,-3.7840682941675188,5.426006700161054
11.872389083262533,2.8413070964813234,3.0030112606287003,-3.8156765878200534,5.625876862393629
11.882417083252221,3.0422279512882233,2.8654332929849624,-3.51429939866066,5.460417486563886
11.89244508324191,3.2245289325714115,2.422352925539017,-2.9695330274105074,5.008343731588256
11.902473083231598,3.3550463873147964,2.436194454431534,-2.528962869644165,4.856648317191175
11.912501083221287,3.4089553767442706,2.566420133113861,-2.2087950682640076,4.804816824174803
11.922529083210975,3.142461506724358,2.771070342063904,-1.9857752466201783,4.636507143529482
11.932557083200663,2.8228369116783143,3.0325964176654816,-2.0298959970474244,4.613624065872753
11.942585083190352,2.5256673789024355,3.1371779626607896,-1.9771225368976595,4.4866351316064295
11.95261308318004,2.491050692796707,3.4611213111877444,-1.9595662719011309,4.693036784302188
11.962642083177343,2.5365829610824586,4.078786089420319,-2.132100648880005,5.255150070041491
11.972670083167031,2.693148592114449,3.933141303062439,-2.208878098726273,5.253740791483373
11.98269808315672,2.8350283563137055,3.8822126394510272,-2.139580407142639,5.2618214600692
11.992726083146408,2.8073926609754563,4.253270512819291,-1.7683371770381928,5.394328501288398
12.002754083136097,2.112188540697098,4.332338901758194,0.18663142919540407,4.8234149812661835
12.012782083358616,0.2257580727338791,3.7645725077390675,5.6879363286495215,6.824631312547244
12.022810083348304,-6.724510838985443,-0.6314250308275223,16.823082625865936,18.128261158475752
12.032838083337992,-19.205027782917025,-9.229372655153275,14.524000700712204,25.786837884948095
12.04286608332768,-20.90934613466263,-15.397851877212526,-5.612635885477066,26.566826679049445
12.05289408331737,-9.22154615700245,-15.135237050056459,-2.089656002819538,17.845979275378756
12.062923083314672,-0.7754910689592361,-12.066339948177339,2.119600178897381,12.275612044268817
12.07295108330436,4.333621780872345,-5.9174892443418505,1.2734966719150544,7.444377104226478
12.082979083294049,4.735973952412605,-0.273160280585289,1.6877517279982568,5.035133733296585
12.093007083283737,2.5995171278715135,3.579836745858193,-4.420051814317704,6.2537651432035055
12.103035083273426,3.369534618258476,6.107639527916908,-6.1243736743927,9.282509200114466
12.113063083263114,4.933577681779862,7.455118680596352,-0.17178944170475008,8.941392223597747
12.123091083252802,4.310049608051777,6.161801117062569,0.3810881870985031,7.529246232953656
12.13311908324249,3.622384302914143,2.2424346846342087,-2.1319100296497346,4.7639502230156054
12.14314708323218,3.3913584735989573,-1.5638781720399857,-2.5103868502378464,4.499896595621022
12.153176083229482,2.9316573956608774,-4.237177805900574,-2.675207287967205,5.805602886689924
12.16320408321917,2.747826490402222,-7.105987865924836,-2.144240345656872,7.914757142955802
12.173232083208859,1.731752025783062,-10.1239603972435,-0.6826834774017334,10.293667759067992
12.183260374935344,0.5672033071517945,-10.680112466812135,-0.33918323904275893,10.700540508079367
12.193288374925032,-0.5184392827749252,-7.981766869425774,0.053160399645566944,7.998762884088863
12.20331637491472,-0.7170691984891892,-4.658938055634499,-0.37061290025711063,4.72834494971531
12.213344374904409,0.19288590341806414,-2.1994997495412827,-1.1342684738337994,2.482250811401383
12.223372374894097,1.63451779961586,-0.4288874208927155,-1.4084743827581407,2.199862028388827
12.233400374883786,2.5173163855075837,0.7313609629869462,-1.5524696695804596,3.0466264486959047
12.243429374881089,3.173750250041485,1.6455514955520631,-1.5279731981456282,3.887831332298689
12.253457374870777,3.448032026588917,2.402697510123253,-1.2215798288583757,4.376544008668142
12.263485374860466,3.2392747333645824,2.9589671087265015,-0.8022240272909403,4.460039297887672
12.273513374850154,2.733773877024651,3.0271181613206863,-0.44769615948200225,4.103339594100744
12.283541374839842,1.8969870311021806,2.5822397750616073,-0.1733892033621669,3.2088293609855065
12.29356937482953,0.8707951292395593,2.0182343101501465,-0.0927918040752411,2.200037319383041
12.30359737481922,-0.13157463133335115,1.149684804081917,-0.03225091178901494,1.1576386109916195
12.313625374808908,-1.273014276623726,-0.04011891603469849,0.5048895299434663,1.3700687257791713
12.323653375031427,-3.263548572063446,-0.983973543047905,2.9580023181438446,4.513173044519783
12.33368237502873,-4.974316402673722,-1.3012481421232225,3.94205947637558,6.478958505544736
12.343710375018418,-4.948519071936608,-0.22316366314888,1.8733426451683046,5.295947100573849
12.353738375008106,-4.72216049015522,0.8209052234888077,0.8947817965596915,4.875789120151608
12.363766374997795,-4.0297560167312625,1.5918430656194689,0.4016300404071808,4.351345147112566
12.373794374987483,-2.749657253623009,2.521809970736504,0.04028735239058733,3.7311879625221667
12.383822374977171,-2.1140552642941475,3.3553562897443774,-0.21245737474411727,3.9714963965362116
12.39385037496686,-2.230698445737362,3.649660686850548,-0.5388898829743266,4.311199484010173
12.403878374956548,-2.5875855919718744,3.5443482398986816,-1.2065261721611023,4.55123159656406
12.413906374946237,-2.4192509776353837,2.797527238726616,-1.9245595765113832,4.169276137142849
12.42393537494354,-2.00490441262722,2.1806974428892136,-2.476060770750046,3.8608237439234343
12.433963374933228,-1.3353757086396219,1.5992854017019273,-1.2447330486774446,2.4269945285870578
12.443991374922916,-0.11811492562294007,0.5185626590251923,0.712345232963562,0.8889848693403628
12.454019374912605,1.3250296452641488,-1.0272423541545868,3.0239355218410493,3.457617164356111
12.464047374902293,1.3217227524518966,-2.2780079752206803,2.599343465566635,3.700386171942329
12.474075374891981,0.9443463778495789,-2.370596880912781,1.3504811131954193,2.887095234010919
12.48410337488167,-1.0185875979065895,-1.525039211511612,1.2459024918079378,2.217101330645558
12.494131374871358,-2.5266026410460474,-0.7861008417606354,1.3202825832366945,2.9571644422919396
12.504159374861047,-2.294882747232914,-0.35543235898017883,1.2573957788944246,2.6408072875806403
12.514187374850735,-1.6230841541290284,-0.2505467587709427,1.3444970726966858,2.122462774280229
12.524216374848038,-1.1554250156879426,-0.23209236145019532,1.0270727849006653,1.5632505674410033
12.534244374837726,-0.6714147233963013,-0.12836100161075592,0.7474612712860108,1.0129030701900097
12.544272374827415,-0.4043978199362755,-0.46921742141246797,0.35041318215429784,0.711682501930235
12.554300374817103,0.6506971612572671,-0.1025350195169449,-0.1675999116897583,0.6797131426521197
12.564328374806792,2.3020318454504016,0.39434733331203464,-0.4120277054607868,2.3716296647717527
12.57435637502931,1.8915210539102556,0.4025503921508789,-0.4022475063800812,1.975272581694887
12.584384375018999,1.034828531742096,0.49836228311061864,-0.26723522387444976,1.1792581228102514
12.594412375008687,0.5702315801382065,0.25370600938797,-0.012147955968976021,0.6242422342494208
12.604440374998376,-0.0027429288625717163,0.49237999677658084,0.07044981233775616,0.49740201139810036
12.614469374995679,-0.32048238158226017,0.7426396572589875,0.24715252317488196,0.8457582320912368
12.624497374985367,-0.5551866942644119,0.9727351945638657,0.30079714536666874,1.1597089923304829
12.634525374975055,-0.6489321792125702,1.0146708405017852,0.11734309315681458,1.2101401940658707
