Time (s),Linear Acceleration x (m/s^2),Linear Acceleration y (m/s^2),Linear Acceleration z (m/s^2),Absolute acceleration (m/s^2)
0.005186541471630335,-0.149924655854702,0.03832060486078263,-1.716630833745003,1.7235913931538736
0.015214541461318731,-0.2933647495508194,-0.39414443492889406,-1.6497614908218385,1.7213731984851883
0.025242541451007128,-0.4239541250467301,-0.6347009333968163,-0.7882502782344819,1.097233282458961
0.03527054167352617,-0.27967173993587496,-0.6866686472296715,0.6415278500318528,0.9804530052855557
0.045298541663214564,0.022169425785541534,-0.73169016122818,1.717107966542244,1.8666338002513028
0.05532654165290296,0.12106309175491334,-0.6061551189422608,2.1316930979490283,2.219503494984563
0.06535454164259136,0.2271187198162079,-0.45676782220602036,1.97257106423378,2.037463216783599
0.07538254163227975,0.49597398787736896,-0.37796811282634735,1.4827480548620224,1.6085371879946084
0.08541054162196815,0.6218084076046944,-0.28431618332862857,0.6414477431774139,0.937516183912492
0.09543854161165655,0.4422573718428612,-0.13357525616884233,-0.2834215593338013,0.5419978895762696
0.10546654160134494,0.19323439747095109,0.059341052770614626,-0.8589840459823609,0.8824480064922313
0.11549454159103334,0.05775996565818787,0.25108207136392596,-1.023107203245163,1.055048230900073
0.12552254158072174,0.10999051183462144,0.4105648782849312,-0.9812920099496842,1.069390219127636
0.13555054157041013,0.27160053580999377,0.5187187796831131,-0.9976191902160645,1.1567541104900254
0.14557854156009853,0.2901748010516167,0.5814646661281586,-1.0027740955352784,1.1949303158751443
0.15560654154978693,0.22903456002473832,0.5438030424714089,-0.6465073388814927,0.8753001301922191
0.16563454153947532,0.11720188289880754,0.419119939506054,-0.03714268326759339,0.436780704664138
0.17566254152916372,-0.05106256484985352,0.23923502773046496,0.3251975762844086,0.40693273110367467
0.18569054151885211,-0.13912660270929336,0.020863742530345918,0.27151253521442414,0.3057949707113674
0.1957185415085405,-0.30496036291122436,-0.068514164686203,0.0655829554796219,0.3193683418234122
0.2057465414982289,-0.41572416901588444,-0.1021961733698845,-0.03686084747314453,0.4296851924744831
0.2157745414879173,-0.3433049413561821,-0.19099549859762194,0.4075842601060867,0.5660940666800457
0.2258025414776057,-0.29927511513233185,-0.22083676367998123,0.7287361478805542,0.8181630912953158
0.2358305414672941,-0.30794215053319934,-0.1704919445514679,0.6291890555620194,0.7209540476833307
0.2458585414569825,-0.351987179517746,0.005795760154724121,0.4817988753318787,0.5967065624339087
0.2558865414466709,-0.43355729967355733,0.19577004253864289,0.5672249418497086,0.7402985724099529
0.26591454166918993,-0.43330411523580553,0.2714341825246811,0.6856263810396195,0.8552850437723155
0.2759425416588783,-0.32258270144462586,0.16551537930965424,0.6788354247808457,0.7695924077047035
0.2859705416485667,-0.26942975699901583,-0.04072702646255493,0.5188936114311219,0.5860901505955056
0.2959985416382551,-0.3613330766558647,-0.21021880477666857,0.23778638005256655,0.48093232445514383
0.3060265416279435,-0.46940014690160753,-0.2842699903249741,-0.08443496346473695,0.5552253491744619
0.3160545416176319,-0.619469521343708,-0.2828953099250794,-0.31591921448707583,0.7507177860777914
0.3260825416073203,-0.6962370309233665,-0.21184696197509767,-0.2692145794630051,0.7759520786250308
0.3361105415970087,-0.5781794080138207,-0.19314230382442477,0.3204116302728653,0.6886646427630316
0.3461385415866971,-0.3354992008209229,-0.2555247858166695,1.0794568204879762,1.1589131361824077
0.3561665415763855,-0.1691774904727936,-0.3055883538722992,1.4691907006502152,1.5101412451099148
0.3661945415660739,0.002687380313873291,-0.3963505893945694,1.5560540127754212,1.6057412937334783
0.3762225415557623,0.05936619579792023,-0.46649788141250614,1.4934385192394257,1.565727699606136
0.3862505415454507,-0.057874278724193574,-0.529346678853035,1.3435141557455064,1.445194666901018
0.3962785415351391,-0.1642433175444603,-0.5848870414495468,0.9092361867427826,1.0935168777372257
0.4063065415248275,-0.19506925374269488,-0.5439442527294159,0.36300742685794835,0.6824234431693589
0.4163345415145159,-0.124606212079525,-0.4703061729669571,-0.05032640039920807,0.48912917618638774
0.4263625415042043,0.10579484224319459,-0.5038501873612404,-0.30087023556232456,0.5963056754690066
0.43639054149389267,0.22460646361112596,-0.5366103824973106,-0.5193894553184509,0.7798488138067553
0.44641854148358107,0.21149554431438447,-0.49181661754846573,-0.668262489438057,0.8562643898654205
0.45644654147326946,0.15961378455162048,-0.37163528591394424,-0.7704858523607254,0.8701941131973163
0.46647454146295786,0.13142815858125687,-0.22698540329933167,-1.0245386016368867,1.0575798222465704
0.47650254145264626,0.18899224251508714,-0.1873047360777855,-1.4667418867349626,1.4906820231662046
0.48653054144233465,0.2645353451371193,-0.13213420987129212,-1.8812562668323518,1.9043538378518636
0.4965585416648537,0.3706023752689362,-0.14286560475826265,-2.2358431184291843,2.2708481128875753
0.5065865416545421,0.6651880234479904,-0.1352279716730118,-2.3536153972148894,2.4495442737106106
0.5166145416442305,1.1222905987501144,-0.32233536422252657,-2.5720007157325746,2.8246458108584576
0.5266425416339189,1.7731190299987794,-0.7787821742892266,-2.3245956659317017,3.0255904844514103
0.5366705416236073,1.5392760121822358,-1.5991532546281815,-1.617176127433777,2.746255705612509
0.5466985416132957,-1.1041627684235573,-2.604296057224274,-0.22005235970020295,2.8372445107632687
0.5567265416029841,-1.8500976240634919,-2.864101881980896,0.4408777213096619,3.4380683492448325
0.5667545415926725,-1.8318572348356248,-3.2089931729435923,1.1227344024181367,3.8618480875341814
0.5767825415823609,-1.4403750371932984,-3.244588682949543,1.5422499060630799,3.8704742270225005
0.5868105415720493,-0.24918903529644013,-2.812401970624924,1.103243293762207,3.031310902055117
0.5968385415617377,0.2996961146593094,-2.730029904842377,1.5385749310255052,3.148030155645861
0.606866541551426,-0.8492536944150925,-2.9902257388830185,2.831854487657547,4.205006735573959
0.6168945415411144,-1.6196337121725084,-3.315665389895439,3.9605559736490252,5.413211058120971
0.6269225415308028,-2.2681010377407076,-3.9754923936724667,3.018864816427231,5.482915909387115
0.6369505415204912,-4.242616301178932,-4.599298794865608,0.3608907347917557,6.267661813303265
0.6469785415101796,-5.3527622330188755,-4.631522800326348,-2.45612761259079,7.492371441840492
0.657006541499868,-5.661784656643868,-4.875380344390869,-3.658116345405579,8.319071714873255
0.6670345414895564,-4.90729912519455,-5.576661475896835,-3.912473149895668,8.395724153969185
0.6770625414792448,-3.1883101093769075,-5.5206433957815175,-4.332702598571777,7.708121474432776
0.6870905414689332,-2.684228664636612,-4.250152777433396,-4.428845441937447,6.699518945726757
0.6971185414586216,-2.8148145318031315,-2.9955086982250214,-4.022394372224808,5.751165942250115
0.70714654144831,-2.42827673971653,-2.4531581041216852,-3.592529296875,4.9820457000484675
0.7171745416708291,-2.0499987244606017,-2.0583669671416285,-3.0284320306777954,4.196518784200204
0.7272025416605175,-1.475294024348259,-1.6149459993839266,-2.45526163995266,3.288290248719972
0.7372305416502059,-0.879837555885315,-1.316850267648697,-1.5702703481912614,2.230237144018859
0.7472585416398942,-0.5969036543369294,-1.0189191350340843,-0.030026037096977234,1.1812670058894967
0.7572865416295826,0.18939365386962892,-0.5111361104249954,1.4056150943040848,1.5076086603764132
0.767314541619271,0.8628285902738572,0.11575952097773552,2.3743788599967957,2.528942153092998
0.7773425416089594,1.377532086968422,0.7231712065637113,3.0183245337009432,3.3957111531123205
0.7873705415986478,1.9274539482593538,1.1109734590351583,3.3604433673620226,4.030126595355104
0.7973985415883362,2.325639393925667,1.2647675098478794,3.170135793685913,4.130132733333684
0.8074265415780246,2.3134684145450595,1.3052967542409897,2.7697365921735764,3.837626416387477
0.817454541567713,2.500001610517502,1.7170527103543283,2.4936427634954454,3.9263892184370173
0.8274825415574014,3.1023975545167923,2.5820152419805527,2.7616674345731735,4.8906523404627364
0.8375105415470898,4.044361191987991,3.9438487243652345,3.309686611890793,6.547123466138772
0.8475385415367782,5.3143623983860016,5.169349696040154,3.826690987944603,8.34315215602268
0.8575665415264666,6.6239059853553774,4.793287483155727,4.806367412209511,9.484350431113018
0.867594541516155,6.677617338895798,3.5983800208568573,6.3473993432521825,9.890823551248998
0.8776225415058434,5.719921182990074,2.5025656145811084,6.917378908395768,9.318286535475334
0.8876505414955318,4.446291194558144,1.2213426511734724,6.038938252329826,7.598023326749738
0.8976785414852202,3.5750221484899525,0.45165552847087387,4.158419319391251,5.502474653687958
0.9077065414749086,2.6237023812532425,-0.46627400614321235,2.343799676299095,3.548890327527538
0.917734541464597,1.5986205732822418,-1.3910300919413567,1.232137561440468,2.4512681257504423
0.927762666484341,0.5168681359291077,-2.279298163354397,0.05325760960578919,2.337774403228524
0.9377906664740294,-0.5058075428009033,-2.8911706897616387,-1.0654866528511049,3.12249436109898
0.9478186664637178,-0.9721036952733993,-2.9348414969444274,-1.7583799535036089,3.5567091907315898
0.9578466664534062,-1.087260514497757,-2.864965808093548,-2.385367532372475,3.883315950631341
0.9678746664430946,-0.7492277151346207,-2.8523483937978744,-2.8759541881084445,4.119265228268953
0.9779026666656137,-0.036095446944236755,-2.901916995048523,-3.1581285363435745,4.289079269436409
0.987930666655302,1.408114778995514,-2.749783553481102,-3.158760035634041,4.418355099416468
0.9979586666449904,2.921501659154892,-2.273371133208275,-2.8912259459495546,4.697081617800713
1.0079866666346788,3.323163274526596,-1.7652643190324306,-2.1570229437947273,4.337317171393883
1.0180146666243672,2.8727510833740237,-1.4170655505359173,-0.4484896266460419,3.2344886004979823
1.0280426666140556,2.6444746148586273,-1.4348432788252832,1.65114026427269,3.431950669185713
1.038070666603744,2.6942975699901583,-1.1146608594059946,4.135624533891678,5.060148072188535
1.0480986665934324,2.076728101372719,-0.26209976054728035,7.2564659607410436,7.552336997969801
1.0581266665831208,1.308591075539589,0.18742606580257418,8.73271600484848,8.832206290302604
1.0681546665728092,0.18321314692497254,0.23848950773477556,8.064202085137367,8.069807901830105
1.0781826665624976,-0.6969845974445343,0.08601151898503304,5.331585956811905,5.377638359479647
1.088210666552186,-2.1059606713056565,0.37940506607294083,2.5500420820713043,3.3289237260085334
1.0982386665418744,-2.3846436470746997,1.3823022454977036,-0.07582786202430726,2.757360093658588
1.1082666665315628,-0.6136378008127212,1.9584076461195947,-1.9496492479741574,2.830732069464039
1.1182946665212512,-0.59541144490242,1.0182734562456608,-2.474744270145893,2.7414877025139472
1.1283226665109396,-1.0426205313205719,-0.4624407908320427,-0.5317715191841126,1.2584474585662826
1.138350666500628,-0.5040405142307282,-0.3217497655749321,1.5818928587436676,1.6911430359900708
1.1483786664903164,0.31130634605884555,0.7937006141245365,3.0388906529545787,3.156220636548225
1.1584066664800048,0.0412211161851883,1.638487474322319,4.379196149110794,4.675863481360153
1.1684346664696932,-0.5381888383626938,1.8904188537597657,3.856508864164353,4.328509129916073
1.1784626664593816,-1.11725263774395,1.8783668652176857,2.2887241673469543,3.164612748993396
1.18849066644907,-1.0850520211458208,1.8819310355186463,0.6526994671672582,2.2682634118376415
1.198518666671589,-0.8025858968496323,1.639283426553011,0.7160814575850964,1.9606547192941715
1.2085466666612774,0.049777931571006774,1.0279940137267114,0.5586839139461518,1.1710581755112053
1.2185746666509658,1.3104779720306396,0.20941181592643263,-0.14801415123045444,1.3353329220803387
1.2286026666406542,1.7962231332063676,-0.3035397818684578,0.08999858915805817,1.823911645199101
1.2386306666303426,2.446032979488373,-0.3853923225402832,0.4763831841945648,2.521615656122303
1.248658666620031,3.10607954621315,0.012680564224720001,0.7259119427204133,3.189802359503935
1.2586866666097194,3.0943137788772583,-0.27347222954034806,0.7787812972068787,3.20250919301704
1.2687146665994078,3.508155729174614,-1.1441056832671166,0.947246596813202,3.809647037429974
1.2787426665890962,4.128212018609047,-1.6243240562081338,0.7126615673303605,4.4931558641687905
1.2887706665787846,4.655221565365792,-1.7916112880408765,0.7720160686969757,5.047471410558811
1.298798666568473,5.041815490722657,-1.6277373683452607,0.9626189267635346,5.3847996788146055
1.3088266665581614,5.971875951290131,-1.902330801486969,1.0402664422988892,6.353291991311012
1.3188546665478498,6.757335938215256,-2.6244490706920627,0.9551485971361399,7.311746080736326
1.3288826665375382,6.749348641633988,-3.4711516249179843,0.9155816582590341,7.644664182450246
1.3389106665272266,5.3358193409442904,-4.109016779065132,0.5537185315042734,6.757336098046715
1.348938666516915,3.0252909064292908,-4.3563221338391305,-0.6250135588645935,5.340465293498784
1.3589666665066034,0.9916526913642884,-4.722338245511056,-2.0653907887637617,5.248780113094534
1.3689946664962918,-0.413918548822403,-5.332655412554741,-2.9709936618804935,6.118443074266744
1.3790226664859802,-1.0890895235538482,-5.993505971431732,-3.332241661548615,6.9434907871230624
1.3890506664756685,-1.1299159526824951,-6.248849201202393,-3.3851308965682985,7.196105723681071
1.399078666465357,-0.6714673483371735,-5.845753848552704,-3.042807995080948,6.62437823140257
1.4091066664550453,-0.15519621312618256,-4.63792696326971,-2.960500248670578,5.504454024112787
1.4191346664447337,-0.9784888547658921,-2.9730998289585115,-2.9205661046504976,4.280942583530826
1.4291626666672528,-2.704008041024208,-1.3937893930077554,-3.358009171485901,4.531063225531942
1.4391906666569412,-3.726404807567597,-0.4303828462958336,-4.319397844076157,5.720884539969178
1.4492186666466296,-4.539881728291512,-0.8705860912799835,-4.906770536899567,6.741279058976193
1.459246666636318,-4.579132917523384,-1.112596792280674,-6.176278238296509,7.768702773011366
1.4692746666260064,-4.298632627129555,-0.5781817469000816,-6.115375978946686,7.497356864879069
1.4793026666156948,-3.7952317982912067,0.14283402979373933,-5.562100739479066,6.735068715235308
1.4893306666053832,-3.2665306520462036,0.7332496136426926,-5.423741583824158,6.373762645782155
1.4993586665950716,-2.946782680749893,1.6071329498291016,-5.409887191057205,6.366575524248396
1.50938666658476,-2.206238080859184,2.4476321929693223,-5.452987017631531,6.371299493506097
1.5194146665744483,-1.6614161610603333,2.9068853741884233,-5.396042153835297,6.3503981894736725
1.5294426665641367,-1.49306897521019,2.7428505098819733,-6.018136782646179,6.780151489379416
1.5394706665538251,-2.268959993720055,1.6132871443033219,-6.1598171567916875,6.759750163148169
1.5494986665435135,-3.690134528875351,0.6970185112953187,-6.463902776241302,7.475624839903784
1.559526666533202,-4.816999989151955,1.3062153518199922,-6.771810720562935,8.412318816827574
1.5695546665228903,-4.7389513546228414,1.7678600442409516,-6.1675097537040715,7.976287710428965
1.5795826665125787,-5.7189914757013325,2.139897910952568,-6.000034972429276,8.56075033153158
1.5896106665022671,-6.1171260505914695,2.8974403667449953,-5.025915741920471,8.430552819510247
1.5996386664919555,-4.795571697950363,3.3894262611865997,-3.173183070123196,6.6749388826206015
1.609666666481644,-5.620561786293984,3.6391801375150683,-0.8545957106351852,6.750161531064903
1.6196946664713323,-6.313617639541627,2.92986785531044,4.172220794856549,8.115005835422794
1.6297226664610207,-7.011224380731583,4.111997104883194,7.550133011341095,11.093705242004372
1.639750666450709,-6.5507637494802475,4.8953462469577795,7.1610698068141945,10.870043300611734
1.6497786666732281,-5.923736409544945,4.475453013181687,5.301772173643112,9.122999556296268
1.6598066666629165,-4.537283810377121,3.668284653425217,4.986290330886841,7.67504709681712
1.6698356666602194,-3.2549578428268435,2.321942784190178,4.361345769166947,5.916714102427397
1.6798636666499078,-2.012638524770737,0.698406640291214,3.8601926100254063,4.40903307461953
1.6898916666395962,-1.5067450278997423,-1.1707318568229677,2.899391582608223,3.4709314612910704
1.6999186666216701,-1.5076881837844849,-1.4804834282398225,0.8248582336306572,2.268335501288199
1.7099466666113585,-0.3156864953041077,-1.4878819102048875,-0.43653265535831454,1.5824068064902008
1.7199756666086614,1.1726941823959351,-1.562000631093979,-1.3005914998054504,2.346613701981954
1.7300036665983498,2.713016846179962,-1.2894315040111541,-1.7305387285351754,3.4666782807397745
1.7400316665880382,4.831250823140144,-1.1264918231964112,-2.4701255545020104,5.54179470919165
1.750058666570112,6.2592888200283054,-1.650348551273346,-3.380887572169304,7.302927334218122
1.760087666567415,6.476052120923996,-1.9259740179777147,-3.6436930185556413,7.676270305579432
1.7701156665571034,6.3313697862625125,-1.0591932946443559,-2.466142431199551,6.876771938691889
1.7801436665467918,5.2110578852891924,-0.13362700402736666,-0.5796891590952874,5.244904191804899
1.7901716665364802,3.3976626491546633,0.5019378554821015,1.6917000603675842,3.8285639843777384
1.8001996665261686,1.7215331393480302,1.3131051260232927,3.2539313641190533,3.908451195072009
1.810227666515857,1.2928082710504532,1.4068646442890167,2.7838207805156707,3.376429992029718
1.8202556665055454,1.2046515548229217,0.7973187249898911,2.3158423840999602,2.729474027308297
1.8302836664952338,1.5765280383825302,0.16061073482036592,1.0695943218469621,1.9118756437783995
1.8403116664849222,2.875277665257454,-0.42809219956398015,0.39906603634357457,2.93423555377186
1.8503396664746106,4.4556508326530455,-1.279881831407547,-0.8863583707809448,4.719804339836808
1.860367666464299,4.71190505862236,-0.952655856013298,0.20747733771800997,4.811719994672796
1.8703956664539874,5.226118558645249,0.2357211434841156,-0.5479940342903138,5.260054857900203
1.8804236664436758,2.345017651319504,1.4088456809520722,0.5801203912496568,2.7965145460163456
1.8904516666661948,1.4397107934951783,1.324217759370804,-0.1585946148633957,1.9625167757252973
1.9004796666558832,-1.0826669418811798,0.6693448090553284,-1.850427407026291,2.2459456291561697
1.9105076666455716,-3.5933221793174743,0.9869895368814469,-1.7287737464904787,4.107891344332645
1.92053566663526,-7.314245222210884,1.815808966755867,-1.940017860531807,7.781967275282527
1.9305635415948927,-9.758898843526842,3.5270457440614704,2.364839712381363,10.642773378407886
1.9405915415845811,-9.316362267136574,4.284628545641899,3.5358159828186038,10.846872467721331
1.9506195415742695,-6.966714205741883,3.9950662404298782,3.177828390598297,8.63679653401658
1.960647541563958,-2.3286635738611223,3.1248871153593063,2.25817129611969,4.504101589283388
1.9706755415536463,-0.4542117118835449,0.9608179843425751,1.4749771052598954,1.817976055752432
1.9807035415433347,0.4240254610776901,-0.3371463614702225,0.291554451584816,0.6151985524476471
1.9907315415330231,0.957066410779953,-0.15500676333904267,-0.644300599694252,1.1640989966881856
2.0007595415227115,1.2197198295593263,-0.3366575342416763,-0.6064930880069733,1.4031709175229339
2.0107875415124,0.4432429200410843,0.04769632279872894,-0.6952169841527939,0.8258727991825215
2.0208155415020883,-0.8952198261022568,0.26413802683353427,-0.7693187481164933,1.2095613959074571
2.0308435414917767,-1.4631616365909577,-0.14223644435405733,-0.804603186249733,1.6758458963213883
2.040871541481465,-0.8940597385168076,-1.145217531323433,-1.0753842347860336,1.8075722011896576
2.0508995414711535,0.24768688559532168,-3.332519404292107,-0.3212711709737778,3.3571192321063297
2.060927541460842,1.3498215472698212,-4.440499527454376,0.9729515415430069,4.742013176382721
2.0709555414505303,1.1491930532455445,-2.834144842028618,2.5933585479855537,4.009804261760788
2.0809835416730493,1.039013968706131,-1.6504777747392656,2.834419368803501,3.4405755434698975
2.0910115416627377,1.059890867471695,-0.9530984902381897,2.502388736307621,2.8798810341129495
2.101039541652426,1.06644793510437,-0.2276946705579758,1.458412528038025,1.821022559779846
2.1110675416421145,0.03594634294509888,-0.5682584372162819,0.034213228225708006,0.5704211917734491
2.121095541631803,0.13337089598178864,-0.4164506855607033,-1.5939998111128808,1.6528927270778537
2.1311235416214913,0.5205360943078995,-0.013335452377796174,-2.694209277033806,2.7440661960350856
2.1411515416111797,0.5507328701019287,-0.40144497603178025,-2.748825194835663,2.832049560787237
2.151179541600868,0.27597980797290805,-0.7736489036679268,-1.9048655694723131,2.07441806739057
2.1612075415905565,-0.5774616622924805,-0.6082723957300187,-1.6979255908727646,1.8937815584077689
2.171235541580245,-0.5006368499994278,-0.5706025859713555,-0.9928826531767846,1.2498161983563498
2.1812635415699333,0.9525535297393799,-0.12979123055934907,-0.023841144740581514,0.9616508673794264
2.1912915415596217,1.7493150150775911,0.2246734142303467,0.8416423738002777,1.9542116186365284
2.20131954154931,2.035678893327713,0.2676972270011902,1.5042406654357912,2.5452682258722326
2.2113475415389985,2.8786246114969254,0.6404168790578842,1.0254639235138894,3.1222091043564917
2.221375541528687,3.054917578697205,1.2455113130807878,-0.4746450993418694,3.3330328252170984
2.2314035415183753,2.0826174169778824,1.3183494937419893,-0.6733042511343956,2.5551280413601654
2.2414315415080637,0.3679986101388931,0.23203447401523591,-0.039375734925270085,0.4368219576630613
2.251459541497752,-0.25513682305812835,0.05247232854366303,-0.20076765775680544,0.32887048536489644
2.2614875414874405,0.02461268484592438,1.1076708054542541,1.1496947443485261,1.596664774676771
2.271515541477129,1.5045950067043306,1.994114545583725,1.2735083663463593,2.8039476661061924
2.2815435414668173,2.4312512183189394,2.70149841606617,-0.42041772902011876,3.6586646806532825
2.2915715414565057,3.405407286286354,1.7980655908584595,-1.4191122221946717,4.104109910041844
2.301599541446194,3.513213570713997,1.5303367888927462,-2.935115438997746,4.826955864841783
2.311627541668713,-0.7797028183937074,0.7606835800409317,-2.318554322719574,2.56169282728367
2.3216555416584015,-4.32753950715065,-1.0584460204839707,-0.5700985559821129,4.491427226145486
2.33168354164809,-4.909847341775895,-0.043233727812767034,0.5109601092338563,4.936552471917287
2.3417115416377783,-3.8848959267139436,1.3104686164855959,1.6683556365966798,4.4264155799423275
2.3517395416274667,-1.9773435616493227,0.7660033768415452,1.4918410599231722,2.59272800004192
2.361767541617155,-0.32584252417087556,0.1345941334962845,0.43615989536046984,0.5608247370172961
2.3717955416068435,0.5243151497840881,-0.6677233761548996,-0.2694642555713654,0.8907142462021355
2.381823541596532,0.5408943450450897,-0.3696925485134125,-0.8887031042575837,1.1040980393267457
2.3918515415862203,-0.5002901101112366,-0.05478958010673523,-0.6355818164348602,0.810713474506266
2.4018795415759087,-1.882179542183876,0.9320631319284439,0.07202600240707398,2.101554009760042
2.411907541565597,-1.0692388111352922,2.121088587641716,0.9636889672279358,2.56339323113306
2.4219355415552855,2.06114000916481,1.1105938285589219,2.1529383713006975,3.180701246585724
2.431963541544974,-1.649466206431389,-1.0699907630681993,1.4281482169032098,2.4300671448859683
2.4419915415346622,0.7382583385705949,-1.0154438424110412,-0.17724313974380493,1.2678985377962058
2.4520195415243506,1.1861942338943483,-0.026006076335906982,-0.6431399273872376,1.349578468533879
2.462047541514039,1.7621414673328402,0.4701366037130356,-0.2752000817656517,1.844425672682037
2.4720755415037274,2.46000490128994,0.19393050849437715,-0.1490671616792679,2.4721355495171635
2.482103541493416,-0.20374038219451907,1.3530825394392014,0.38326247423887255,1.4209970534915648
2.4921315414831042,-1.8574212616682053,1.6067587280273439,0.8329741689562798,2.59336332193111
2.5021595414727926,-2.676303933262825,2.8652900362014773,1.352172420322895,4.14739195025445
2.512187541462481,-2.3613664662837985,4.4062781131267545,1.6301300489902497,5.258199537382588
2.5222155414521694,-2.3877689838409424,4.460292352437973,1.147318435907364,5.187676568829479
2.532243541441858,-2.4434923642873767,3.3325118029117586,1.1738238644599914,4.2958296422987585
2.542271541664377,-2.649029011130333,2.259551239013672,1.2806896242499353,3.709864204684561
2.5522995416540653,-1.5043669652938843,2.053173762559891,-0.2481467691063881,2.5573852436717095
2.5623275416437536,-0.11501882493495942,1.9623969089984894,-2.327029277086258,3.0461937257753053
2.572355541633442,0.2739525783061981,-0.06098061203956604,-2.709501207768917,2.7239980626106464
2.5823835416231304,-1.4289501625299454,-0.47435420036315923,-1.8730152010917664,2.4031430290179068
2.592411541612819,-2.2290638566017154,0.6019123792648315,-1.6107582235336304,2.8152382215012604
2.6024395416025072,-2.0901574015617372,1.4135076659917831,0.3958342802524567,2.554103886403964
2.6124675415921956,-2.1099484723806383,2.156138552427292,1.765399535894394,3.4953471264955627
2.622495541581884,-1.1140644434094429,2.903232618570328,1.384840521812439,3.404068520528584
2.6325235415715724,-0.26418334275484084,2.640582123398781,0.45249175339937214,2.692065299337439
2.642551541561261,1.770683079957962,-0.7279637306928635,0.4038090053200722,1.9566071336963056
2.652579541550949,2.5871292167901996,-2.4281475162506103,0.20080917298793793,3.5537954737153314
2.6626075415406376,-1.6902236384153366,-2.2139786249399185,-0.8750872778892518,2.919646390142555
2.672635541530326,-1.3028958874940872,-2.411064291000366,-0.7318831193447113,2.836621513238565
2.6826635415200144,2.167370468974114,-2.5298265033960345,0.3982047414779663,3.3550087784090237
2.692691541509703,1.8125821807980538,-2.6941478812694553,1.3159313777089119,3.503649862519684
2.702719541499391,1.2090249797701835,-2.5410285991430284,1.1294078296422958,3.0321823475886793
2.7127475414890796,2.060229597687721,-1.7865261107683184,-1.1325799441337585,2.9527883211465586
2.722775541478768,2.4596157690882685,-3.0697613203525544,-1.0840176486968995,4.080225307279818
2.7328035414684564,1.7916918334364893,-3.812178783416748,-1.5481857070326805,4.487732800222857
2.742831541458145,2.774689476191998,-3.7846957004070285,-1.3278842559456825,4.8770995305774205
2.752859541447833,2.344824985563755,-2.996377594470978,1.2528463527560234,4.0057592145791565
2.762887541670352,-0.004654383659362793,-1.4908014249801635,2.8825486779212954,3.245242276409566
2.7729155416600406,-0.9481070145964623,-0.764620510339737,2.3760115487873557,2.6700154149236863
2.782943541649729,-0.9187645170092583,-0.6298983228206635,1.2245214168727399,1.6554011100599042
2.7929715416394174,-0.28831860244274143,-1.0922136908769609,0.17469857767224312,1.1430564098478753
2.802999541629106,0.28236818343400955,-1.6326028364896774,-0.2233379101753235,1.6718264368203548
2.813027541618794,0.09793823093175888,-1.070528706908226,-1.0422638511657716,1.497310103098068
2.8230555416084826,0.6295293635129929,0.8104772990942002,-1.5534427924454213,1.8618177089266101
2.833083541598171,2.3035676166415215,0.7089544326066971,1.5738587844371796,2.878553738477408
2.8431115415878594,-1.7424816665053369,0.22631882071495057,1.2450219011306762,2.153495321799438
2.853139541577548,-3.469931018650532,-0.28274971425533296,-2.506620658636093,4.289931911045422
2.863167541567236,-1.2496014404296876,-0.5628038620948792,-3.231467238664627,3.5100758484220322
2.8731955415569246,0.3196874526143074,0.051725639104843145,-2.4010292994976044,2.4227705847120125
2.883223541546613,0.2411587616801262,1.3429118925333023,-2.2081121134757997,2.5956365317819503
2.8932515415363014,0.5618612909317017,1.5957735639810562,-2.8117295408248903,3.281463756998634
2.9032795415259898,0.7239238893985749,1.6772428196668625,-2.2072521342337135,2.865165136226059
2.913307541515678,0.48386323481798177,1.7454488360881806,-1.13525709182024,2.1376444825878447
2.9233355415053666,0.23010047089308502,1.3874366855621338,0.2064420881867409,1.4214587995871568
2.933363541495055,-0.7981583851575852,0.7189835768938065,0.8315280063450337,1.358467157121041
2.9433915414847434,-1.359713428169489,0.03419042408466339,0.477029155343771,1.4413696288223588
2.9534195414744318,-1.5070350497961045,-0.6180237972736359,0.1132009255886078,1.6327652938694492
2.96344754146412,-2.1265680134296416,-1.2488646912574768,-0.38551160573959353,2.4961117224538736
2.9734755414538085,-2.185312650203705,-1.5014304935932161,-1.3710162422060967,2.984890356884962
2.983503541443497,-2.2011431095004084,-1.693235539197922,-1.3587175011634827,3.091632388831496
2.993531541666016,-2.3339105728268623,-1.7152122992277146,-0.34694556400179866,2.9170983901396883
3.0035595416557044,-2.0317910796403886,-1.5373943781852724,0.24332603216171267,2.5594851090228086
3.0135875416453928,-1.6566055105626585,-1.1490076965093614,0.10558375775814056,2.01883838733234
3.023615541635081,-1.2517371359467506,-0.5822826915979386,-0.3669841182231903,1.4284874285308802
3.0336435416247696,-1.184503219127655,-0.11260626375675202,-1.5382257060706617,1.9447021287533004
3.043671541614458,-1.6925251024961472,-0.28539791822433475,-3.184334879815579,3.617468979979852
3.0536995416041464,-1.7100202640891076,-0.4155241942405701,-1.8767699906229973,2.5727602409275727
3.0637275415938348,-2.42522975564003,-0.40415603756904606,-2.306209973394871,3.371006661478331
3.073755541583523,-1.2140155783295632,-0.17079073727130892,-2.383730019629002,2.680517134219631
3.0837835415732116,1.583973298072815,0.6203784710168839,-0.051909534037113195,1.7019211074644052
3.0938115415629,2.5918043580651284,1.0034506183862686,0.7007961049675941,2.8662655415650047
3.1038395415525883,2.9036188271641734,1.0956536078453065,0.4390905198454857,3.1343674970342685
3.1138675415422767,2.5298738658428195,1.159189453125,0.48671053647995,2.8250432052680767
3.123895541531965,1.9250022107362748,1.4233689951896669,0.6293086311221123,2.475407473732673
3.1339235415216535,1.043107896745205,1.7490817111730577,0.6503974914550782,2.1378441976681404
3.143951541511342,-0.03198858194053173,2.1155729091167452,0.3457087317109108,2.1438718549261337
3.1539795415010303,-0.4144029175490141,2.4769016003608706,-0.09853230804204942,2.513260816483532
3.1640075414907187,-0.10137990206480027,2.7140307533740997,-0.07680434703826905,2.717009334273077
3.174035541480407,0.3435560061782599,2.6004205226898196,-0.31303449064493183,2.6416298409392795
3.1840635414700955,0.7441225842386484,2.673848687410355,-0.6914060613512993,2.8602845252200697
3.194091541459784,1.14352987870574,2.8041971576213838,-0.8647605103254319,3.149443287713388
3.2041195414494723,1.1403715782612562,2.1384261667728426,-0.6379572477936745,2.5060533229078232
3.2141475416719913,0.964359350502491,0.9104664409160614,-0.13592905282974244,1.3331972113453947
3.2241755416616797,0.7448756325244904,-0.2564577090740204,0.5179276514053345,0.9427933583572279
3.234203541651368,0.5356246150285006,-1.2788825422525407,0.8242624023556709,1.613022874307706
3.2442315416410565,0.9962129348516465,-0.9332682430744171,0.6028923726081848,1.4922831628233517
3.254259541630745,1.0374194329977036,-0.7446955382823944,-0.5220078384876251,1.3796023732008815
3.2642875416204333,1.442348180115223,-6.081159242391586,-1.1776151990890504,6.359846190053015
3.2743155416101217,2.5780125305056574,-14.02589627981186,-0.027108568847179413,14.260878301633083
3.28434354159981,2.837758421301842,-18.172133510112765,0.910357390344143,18.414886905576886
3.2943715415894985,2.583223276734352,-14.034160734415055,0.7522036555409432,14.289734789570751
3.304399541579187,3.11398790538311,-3.3299554002285006,0.9553672099113465,4.6581380559357655
3.3144275415688753,4.2010542923212055,3.514223384857178,1.4516551932692527,5.666209135379055
3.3244555415585637,5.815662907361984,7.029102242588997,0.8123536705970764,9.159155631114052
3.334483541548252,1.1095261269807817,0.8202661228179932,-0.30590527296066283,1.4133162330918634
3.3445115415379405,-1.7261717355251314,-2.304033932089806,-1.0911322483420371,3.0787677411781167
3.354539541527629,-1.6792861291766168,0.1389321827888489,-1.238672994375229,2.0913189240414662
3.3645675415173173,-1.0832230120897293,1.506995873451233,-1.3024602699279786,2.2673357517713724
3.3745955415070057,-0.6353192764520645,2.929674897193909,-1.0201707315444948,3.16660289707752
3.384623541496694,-0.35269845675677064,4.122319779396057,-0.4662502518296242,4.163568885262948
3.3946515414863825,-0.6688217025250197,4.006957722902298,-0.18498982340097428,4.066602254666266
3.404679541476071,-0.8263483965396882,2.206981846690178,0.17642482191324235,2.3632067750983663
3.4147075414657593,0.37772417429834604,1.059615463614464,0.41753622114658356,1.1999154047471976
3.4247355414554477,0.8185125428438187,1.2813085520267486,0.5374082350730897,1.6126134066830495
3.434763541445136,-0.09015463672578335,1.5288293766975403,0.17439408391714098,1.5413826319515367
3.444791541667655,-0.69153206884861,2.093879739046097,0.24175196170806887,2.218331123800838
3.4548195416573435,-0.2010471546649933,2.2723578107357025,0.6884511709213257,2.3828543793428483
3.464847541647032,0.4767961438000202,2.70439161837101,0.6780364027619362,2.8285688875698765
3.4748755416367203,0.9879777163267136,2.4270394688844683,0.0762476921081543,2.6215328077353846
3.4849035416264087,0.8643994447588921,1.2707245069742203,-0.5851261925697328,1.644475549819914
3.494931541616097,-1.037580085247755,0.2913597393035889,0.31528216034173967,1.122882795139167
3.5049595416057855,0.6268766279518605,3.909703323841095,1.6433146432042123,4.287101282183078
3.514987541595474,1.4509077729284765,3.600015487074852,0.5968676939606666,3.927021252402001
3.5250155415851623,1.6814643631875517,2.475790629386902,0.07602345138788223,2.9937670601418938
3.5350435415748507,1.6074387592077255,2.1235929501056674,0.2909480953216553,2.6792083115191065
3.545071541564539,0.7662438435852528,0.9437791979312897,0.5286897441744804,1.3256551768372524
3.5550995415542275,0.19411279544234278,-1.2439226245880128,0.319636581838131,1.2989190959276622
3.565127541543916,-0.1225450685620308,-3.4103756654262543,-0.21402680397033694,3.4192816418040493
3.5751555415336043,-0.18674574226140978,-5.353986639976502,-0.1495858097076416,5.359330445845407
3.5851835415232927,0.04841713830828667,-6.369376103281975,0.5390632894635201,6.392330200669289
3.595211541512981,0.754206473082304,-6.688900126218796,-0.12344203144311905,6.732417859706561
3.6052395415026695,0.8527744491398335,-6.81117242217064,-0.4966686370968819,6.882294222184872
3.615267541492358,-0.2691923600435257,-6.097723234891892,0.21453083395957948,6.107431264841679
3.6252955414820462,-1.3187014961242676,-2.138315069675446,1.0008983087539673,2.704285931174446
3.6353235414717346,-2.0233351287245753,2.848813751935959,0.6905655241012574,3.561812120175287
3.645351541461423,-1.9320238396525384,5.273185721039773,0.3240427511930466,5.625318432779094
3.6553795414511114,-1.0235860902071,6.811703349351883,0.30163212776184084,6.894781573344819
3.6654075416736305,-0.142804793715477,7.370041108131409,-0.16252452850341798,7.37321594468928
3.675435541663319,1.104500298947096,6.319267219305039,-1.0099723103642464,6.494082165099234
3.6854635416530073,1.6940535646677017,3.0836923116445543,-0.7117394614219665,3.5896446640028747
3.6954915416426957,0.9035347129404545,0.4857393139600754,0.4850432029366493,1.1347178359970542
3.705519541632384,1.2963334111869336,-0.6667778813838959,1.0189577266573906,1.778580305967978
3.7155475416220725,1.6191909317672253,-1.3582666808366777,0.3183905401825905,2.1372974022971305
3.725575541611761,1.8554529426991941,-1.5377604138851166,-0.3464501586556435,2.4346335300237167
3.7356035416014493,1.2761605171859265,-1.2303395426273347,-0.5373266664147377,1.8523069406059747
3.7456315415911376,0.07062398627400399,-0.5085919868946076,-0.5171584501862526,0.7287704845626517
3.755659541580826,-0.5405636849999428,0.4322905004024506,-0.47094059586524967,0.8371793231517576
3.7656875415705144,-0.8072091440856457,1.1246908807754517,-0.43600611358881,1.451419136804307
3.775715541560203,-0.6912668976187706,1.4725317996740341,-0.5648667597770691,1.7219971780162053
3.7857435415498912,-0.7266853831708432,1.2707543277740478,-0.6645041915774346,1.607623720991516
3.7957715415395796,-0.7350204429030419,0.8204596656560899,-0.7666839927434922,1.3420929398454453
3.805799541529268,-0.8446244537830353,0.3503125369548798,-0.7220445942878724,1.1650998831071921
3.8158275415189564,-0.8694567015767098,0.2132105326652527,-0.9610191285610199,1.313381685808141
3.825855541508645,-0.7514132581651212,0.025071106553077697,-0.9623248118162155,1.2211959254629183
3.835883541498333,-0.5252365247905255,-0.3608895653486252,-0.7870384427905083,1.0126915600426698
3.8459115414880216,-0.6060270649194718,-0.7862727499008179,-0.6027684116363525,1.161388564916202
3.85593954147771,-0.6534047144651414,-0.8470077788829804,-0.18488369643688202,1.0856066873328103
3.8659675414673984,-0.7021687388420106,-0.4789045035839081,0.37669751286506653,0.929672779830977
3.875995541457087,-0.8763999778032303,0.3827259922027588,0.2084456366300583,0.97877765076201
3.886023541446775,-1.1832796892523767,0.9351989936828614,0.06552857637405396,1.5096496199794998
3.8960515416692942,-1.3937424691021443,0.9267082518339158,0.10705637902021409,1.677130681397527
3.9060795416589826,-1.4407640232145786,0.7401697933673859,-0.12388817399740219,1.6245000994950378
3.916107541648671,-1.624618755877018,0.6564400041103363,-0.07419473469257355,1.7537971489313893
3.9261355416383594,-1.7985455010831357,0.44899599552154545,-0.04103049695491791,1.8541970836837003
3.9361630831845105,-1.661257409155369,0.3886065369844437,-0.5793234157562256,1.801778798882957
3.946191083174199,-1.322001956999302,0.5764436620473862,-1.6192092043161392,2.168366877898362
3.9562190831638873,-1.3007053743302823,0.49605672597885136,-2.4144372573494914,2.7870080760338447
3.9662470831535757,-1.7175647802650928,0.04807639181613922,-2.565173799097538,3.0874676894558153
3.976275083143264,-2.068199644982815,-0.37887443125247955,-2.206488926410675,3.047882705836441
3.9863030831329525,-1.9038382136821748,-0.38366154670715336,-1.5766806507110596,2.501543123878721
3.996331083122641,-1.5841756117343904,-0.255920934677124,-0.9361263620853425,1.857805280273253
4.006359083112329,-1.2072189210355282,-0.4983716386556626,-0.5930588176846504,1.4343885717461746
4.016387083334848,-0.6796538887917996,-1.0866401249170303,-0.659712983071804,1.441505251347706
4.026415083324537,0.16241489320993424,-1.7994157129526138,-0.8623730921745301,2.001989724165391
4.036443083314225,0.9825421446561814,-2.5305995053052905,-0.8982866907119751,2.8594128594848316
4.0464710833039135,1.555902423709631,-3.5025201827287678,-0.8966544404625894,3.936047404202488
4.056499083293602,1.7194126465916635,-4.370979641675949,-1.2590587270259859,4.862825490936854
4.06652708328329,1.5311931136250496,-4.973875522613525,-1.4603119960427284,5.405229060035572
4.076555083272979,1.0865725895762444,-5.520011311769486,-1.0779836145043373,5.728281901898801
4.086583083262667,0.6022825080156327,-5.7755305427312855,-0.8790087130665779,5.873002093233962
4.0966110832523555,0.7168221536278725,-5.8520495456457144,-0.7916834709048272,5.948704111210089
4.106639083242044,1.2977903911471367,-5.615922605395317,-1.1420474633574487,5.875978132847768
4.116667083231732,1.891101077646017,-5.142120382189751,-1.6719583985209465,5.728272880824544
4.126695083221421,1.9938781718909742,-4.2755641919374465,-2.1935814902186395,5.2026723016110505
4.136723083211109,1.607937526702881,-3.248252255916596,-2.185483388900757,4.232368539128861
4.146751083200797,1.1618961292505265,-2.3329349648952484,-1.6762283277511598,3.0987625872844147
4.156779083190486,0.8815972754359246,-1.479384736418724,-1.2388729691505433,2.1214615688474363
4.166807083180174,0.7446886678040028,-0.5110203355550766,-0.8441786035895348,1.236260696643269
4.176835083169863,0.5834141278266907,0.6190511530637741,-0.3718010544776917,0.9283492870509945
4.186863083159551,0.42144435390830043,1.5288363933563234,-0.21842186361551286,1.6008323371287916
4.196891083149239,0.3635646665096283,2.2562803065776826,-0.36949491262435913,2.31506081540849
4.206919083138928,0.07189414769411087,2.6967738658189777,-0.769745010137558,2.805399335650553
4.216947083128616,-0.2241438026726246,2.8609747910499572,-0.8435868653655053,2.9911629843118033
4.226975083118305,-0.42653888672590257,2.778451867103577,-0.5148046535253525,2.8577533187789466
4.237003083107993,-0.6100724610686302,2.4749690955877304,-0.35088322520256043,2.5730875363262
4.247031083330512,-1.0373084820806981,1.9283795624971392,-0.7664802172780038,2.319945807024758
4.2570590833202,-1.4601430115103722,1.335171348452568,-1.1034689962863922,2.2654677154081284
4.267087083309889,-1.3998070549964905,0.8387982881069184,-1.2883921614289284,2.0791817431337143
4.277115083299577,-0.8897197888791561,0.44342242956161504,-0.8278926461935043,1.2936889067247885
4.287143083289266,0.026904501020908356,-0.07686164975166321,-0.011203265190124512,0.08220145089140253
4.297171083278954,0.39960164129734044,-0.6860660916566849,0.7592094969749451,1.0985295690811223
4.307199083268642,0.44654191911220553,-0.946080077290535,1.3339533734321596,1.6952577387115844
4.317227083258331,0.45474263906478885,-0.7809938836097717,1.9264046654105187,2.1278574315340992
4.327255083248019,0.3506744796037674,0.06309905827045441,1.502721851170063,1.5443856525440698
4.337283083237708,-0.17244608402252198,1.251826890707016,0.44374782711267474,1.339298454512331
4.347311083227396,-1.029562821686268,2.0367729073762897,0.6219861629605293,2.3654408187344313
4.357339083217084,-1.089490130916238,2.4711578804254533,0.7052505138516426,2.7912341898595154
4.367367083206773,-1.5974879676103593,3.093955344557762,0.7153904628753662,3.5547589222267164
4.377395083196461,-1.9741854804754257,3.701412053704262,0.5785539221763611,4.234688199087725
4.38742308318615,-2.0000687652826312,3.755252630710602,-0.0867642018198967,4.255552304112303
4.397451083175838,-1.5267983463406563,3.300829249620438,-0.9291377699375153,3.75364941371232
4.407479083165526,0.2690230831503868,2.9568188416957857,-1.048677077293396,3.1487894013915203
4.417507083155215,1.19011742323637,2.7332973289489746,-1.0931393051147462,3.175255471598644
4.427535083144903,1.7933313927054406,2.759081211090088,-1.0434435269236566,3.452150200575297
4.437563083134592,2.792598620653153,2.5490515637397766,-0.3679176262021065,3.798899091888107
4.44759108312428,3.4456010466814044,2.333066527247429,0.4598501819372177,4.1865054858774595
4.457619083113968,3.62059300839901,2.0351555675268176,1.0643631103634834,4.287589153266183
4.467647083336487,3.473387600183487,1.527296236753464,1.1059821295738221,3.9522464101883052
4.477675083326176,2.8180956968665125,1.3471014225482942,1.2713147833943368,3.372326626797319
4.487703083315864,2.1642506870627405,1.1876911211013794,1.493064297437668,2.8851052375741224
4.497731083305553,1.2386465357244016,0.8952128094434738,1.2565052479505538,1.9784985854887593
4.507759083295241,0.24979100614786148,0.5549364334344864,0.7779354974627495,0.9876910600577311
4.517787083284929,-0.7203907093405724,0.25746752321720123,0.9333933734893799,1.2068452631923026
4.527815083274618,-1.139833707511425,0.06333645522594453,1.0739168760180473,1.5673320783854936
4.537843083264306,-1.348317643404007,-0.24598066806793215,1.2522604617476465,1.8565083411162229
4.547871083253995,-1.2840912419557573,-0.556512258052826,1.2647451442480089,1.8863129355781483
4.557899083243683,-1.0915418457984924,-0.7405112707614899,1.1211667639017107,1.7311370412915932
4.567927083233371,-0.7992079603672028,-0.7835046780109406,1.1477850437164308,1.603129268324442
4.57795508322306,-0.6542578232288361,-0.7628897345066071,1.2520362210273743,1.6055057598888285
4.587983083212748,-0.9259513297677041,-0.8334416538476944,1.2182112479209901,1.7424263255667871
4.598011083202437,-1.1797086484730244,-0.8682080286741257,0.989013550579548,1.7673837952086766
4.608039083192125,-0.9039821711182595,-0.82851069688797,0.6812152415513992,1.40273587887364
4.618067083181813,-0.7450618663430214,-0.47575519323349,0.3083055549860001,0.9362224649101341
4.628095083171502,-0.30128948092460633,-0.07595767021179199,-0.039930050969123845,0.3132719712170543
4.63812308316119,0.05463579833507538,0.1373470026254654,-0.3221663796901703,0.35445796054339307
4.6481510831508785,0.3127067542076111,0.4818152475357056,-0.5248478311300278,0.7780724212609303
4.658179083140567,0.5353143471479416,0.45918301463127137,-0.5335636907815934,0.8843645760141939
4.668207083130255,0.4724433302879334,0.19104373812675476,-0.4743278878927231,0.6961949119634308
4.678235083119944,0.7646123242378235,-0.061943063735961916,-0.28777071833610535,0.8193173596678164
4.688263083109632,0.744125434756279,-0.4129198443889618,-0.0678563529253006,0.8537153771449526
4.698291083332151,0.4589678370952606,-0.7563110321760178,0.09613991975784303,0.8898880474813108
4.70831908332184,0.5102116656303406,-0.7618816745281219,0.30102694094181065,0.9650890367732119
4.718347083311528,0.17335737258195877,-1.004271567463875,0.4695179682970047,1.1220790000702336
4.728375083301216,0.25140513002872467,-0.8042330574989319,0.6598933696746827,1.0702591319486359
4.738403083290905,-0.01630934625864029,-0.6636735945940018,0.7139561408758164,0.974916409765984
4.748431083280593,-0.2546035569906235,-0.6877939438819886,0.5247449201345444,0.9017985981803405
4.7584590832702816,0.06498858600854875,-0.6039162200689316,0.44552450358867646,0.7532797624200941
4.76848708325997,0.010627314448356628,-0.6126852893829347,0.27944545269012455,0.6734879098156278
4.778515083249658,0.2518673524260521,-0.7614758777618409,0.3285532933473587,0.8667352203531773
4.788543083239347,0.4754882678389549,-0.9777228695154191,0.4962157702445984,1.1950988214643152
4.798571083229035,1.0734198626875877,-0.9836537003517152,0.7071745401620865,1.6186107110980452
4.8085990832187235,1.3166061463952066,-0.6216730445623398,0.8286948841810227,1.6753102190725284
4.818627083208412,1.1353445076942443,-0.6329955929517747,0.8014269787073136,1.5270808014141843
4.8286550831981,1.2416179445385933,-0.6382721203565598,0.8691172707080842,1.6444972636242874
4.838683083187789,1.8628313979506494,-0.0928584623336792,0.963798310160637,2.099445330054166
4.848711083177477,2.0377947083115577,0.11233027517795563,0.9949160224199296,2.2704808423794365
4.8587390831671655,2.0735536479949954,0.027309420704841617,0.9088567024469376,2.2641534932851415
4.868767083156854,2.099602701365948,-0.012824113368988038,0.8925558346509934,2.281480194837645
4.878795083146542,1.7725424945354462,0.0730492651462555,0.6539906054735184,1.89075297226263
4.888823083136231,1.773835606276989,0.45524023711681366,0.5816547006368638,1.9214730345126327
4.898851083125919,1.7999694442749024,0.8114912062883377,0.7178796225786209,2.1008948404716086
4.9088790831156075,1.5365918478369713,0.5445745825767517,0.8549681782722474,1.8408276857668797
4.9189070833381265,1.6545211243629456,0.6654143106937409,0.7241846752166748,1.9247492822853403
4.928935458185151,1.8594946843385698,1.0471655720472337,0.6023304551839829,2.217448577443579
4.93896345817484,1.8611000373959543,1.5380925357341768,0.41810281634330754,2.4503534362843693
4.948991458164528,1.838186845779419,1.551555165052414,0.19567122459411623,2.4134086969122066
4.959019458154216,1.7794097569584848,0.9113844537734985,0.22359226405620575,2.011694362045301
4.969047458143905,1.5521825712919235,-0.1950695461034775,0.2320982086658478,1.5815158680535961
4.979075458133593,1.2270405435562135,-1.0057579296827317,-0.043507962226867675,1.5871579793541526
4.989103458123282,0.9244377779960633,-1.181273217201233,-0.47288713395595555,1.5727726665110657
4.99913145811297,0.6711258709430695,-1.1397457069158554,-0.5808945626020432,1.4445998421510489
5.009159458335489,0.3876329755783081,-1.307895841598511,-0.2834893870353699,1.3932756686270167
5.019187458325177,-0.22070637077093125,-1.6075609660148622,-0.22656557321548462,1.638381982481489
5.029215458314866,-0.9052290898561478,-1.8993861436843873,-0.18592040777206423,2.1122674608032406
5.039243458304554,-1.37585569024086,-1.9780124831199648,-0.2031761258840561,2.418014226979613
5.049271458294243,-1.6830417957901955,-1.9744632232189179,-0.3969645470380783,2.624636271529042
5.059299458283931,-2.1134141170978546,-1.692932653427124,-0.5998974287509918,2.7735207092088494
5.069327458273619,-1.9892040538787843,-1.1965625166893006,-1.198564603328705,2.6125182741305597
5.079355458263308,-1.9990186053514483,-0.5837380635738373,-1.4175884377956391,2.5192027489620727
5.089383458252996,-1.4913060396909714,0.32493854463100436,-1.0986140531301498,1.8805668293205482
5.099411458242685,-1.0524128633737564,0.9534510773420334,-0.5554948425292969,1.5248659980325752
5.109439458232373,-0.47878200441598895,1.2441231840848923,-0.4438182860612869,1.4050086746965307
5.119467458222061,-0.41181618243455886,1.203897848725319,-0.2250751179456711,1.2921383079990634
5.12949545821175,-0.3706930071115494,0.8582560676336289,0.1712298631668091,0.9504401344595396
5.139523458201438,0.4685952776670456,1.525494709610939,0.8081805127859116,1.7888184325273813
5.149551458191127,0.09145074516534805,0.8110362929105759,1.0291368520259858,1.3134937256825334
5.159579458180815,0.24745825946331027,0.5250758725404739,0.9877064055204392,1.1456457592148008
5.169607458170503,0.40483811527490615,0.5242420595884323,1.0724857699871064,1.2605353479556598
5.179635458160192,0.8603251048922539,0.6013071924448014,1.136989329457283,1.5474089185129571
5.18966345814988,1.3810602968931198,0.7163184159994126,1.1145009380578996,1.9137794955757987
5.199691458139569,1.6569506424665452,0.7423683464527131,0.921624682545662,2.036169995079641
5.209719458129257,1.808178350329399,0.711365824341774,0.7300687283277512,2.075704851544048
5.219747458118945,1.8374097508192064,0.696751293540001,0.5297103756666184,2.035222356290347
5.229775458108634,1.7308123782277107,0.7650520348548889,0.3286567890644074,1.9206851354816064
5.239803458331153,1.5374084115028381,0.8597102701663971,0.023739110827445984,1.7616157122857803
5.249831458320841,1.3963393637537957,0.9207897001504899,-0.29329750657081605,1.6981285929022696
5.25985945831053,1.1861275756359102,0.9002156871557236,-0.5927626562118531,1.6027022417418981
5.269887458300218,0.8976987531781198,0.885341539978981,-0.7529827970266343,1.4685624898137493
5.279915458289906,0.1490005034208298,1.0178353536129,-1.143797242641449,1.53833094272921
5.289943458279595,-0.7354496285319329,1.1950808322429658,-1.511307025551796,2.062317453057243
5.299971458269283,-1.0719779393076898,0.8802117776870728,-1.4246343326568605,1.9883391204032717
5.309999458258972,-0.8690874499082566,-0.021348184347152712,-1.0187112665176392,1.3392316398192394
5.32002745824866,-0.5764386919140816,-1.0952027875185013,-0.5442196565866471,1.35200804211336
5.330055458238348,-0.7061772975325584,-1.906215106844902,-0.4412496042251587,2.0801547111556316
5.340083458228037,-0.9970242360234262,-2.2363377928733827,-0.6568995952606201,2.535109687825254
5.350111458217725,-1.1997153353691101,-2.03624139547348,-0.8054504477977753,2.4968673033257573
5.3601394582074136,-1.2548238810896875,-1.5615948343276977,-0.8001288968324661,2.157166579265096
5.370167458197102,-1.1454025956988336,-1.0775325018167496,-0.6762532943487167,1.7118241489190942
5.38019545818679,-1.0919166523218156,-0.6178939890861511,-0.45997121930122375,1.3362815870735971
5.390223458176479,-1.0746501168608666,-0.23111763060092927,-0.25547888517379763,1.128520134341124
5.400251458166167,-0.9742431914806366,-6.607353687286377e-05,-0.04554688632488251,0.9753072948389038
5.4102794581558555,-0.6662028077244759,0.0763932877779007,0.18329208433628083,0.695167680216673
5.420307458145544,-0.11147804349660874,0.1598108357191086,0.3476982468366623,0.39857361710022937
5.430335458135232,0.4355330738425255,0.3092720997333527,0.4865316116809845,0.7225311752783349
5.440363458124921,0.7379086750745774,0.5251869696378708,0.5261119991540909,1.0474370632556602
5.450391458114609,0.6967097783088685,0.6302403849363327,0.5325111919641495,1.0798961188757783
5.460419458337128,0.5624802187085152,0.458736287355423,0.6032437902688981,0.9437828395732795
5.470447458326817,0.4734201076626778,0.0740573251247406,0.5827761965990067,0.7544794106311828
5.480475458316505,0.3857063180208206,-0.10238942384719849,0.332912392616272,0.519695698495216
5.490503458306193,0.45689266026020053,0.09246845304965973,0.1556797778606415,0.4914646589977542
5.500531458295882,0.8190066325664521,0.4148324686288834,0.13589513897895814,0.9280761445133063
5.51055945828557,1.1792059341073038,0.8616749346256256,0.13757095098495484,1.466947884060937
5.5205874582752585,1.2063314598798753,1.230454148054123,0.13160211324691773,1.7281701645875511
5.530615458264947,0.9519343096017838,1.3162731474637985,0.1799451380968094,1.6343604808168728
5.540643458254635,0.7309934654831887,1.1694583332538606,0.3618888545036316,1.4258147785774877
5.550671458244324,0.6585280448198318,0.9042911964654923,0.5208220231533051,1.2339600210787722
5.560699458234012,0.7631706932187081,0.7259844481945038,0.4648530596494675,1.1513345704327969
5.5707274582237005,0.8649259865283967,0.5652444899082184,0.2832636845111847,1.0713713690903701
5.580755458213389,0.8281396910548211,0.37260621607303623,0.20754633486270904,0.9315182345352047
5.590783458203077,0.6533216840028763,0.21047520518302917,0.28292571544647216,0.7424122811794607
5.600811458192766,0.4520081886649132,0.09330986738204956,0.3876581186056137,0.6027411972744484
5.610839458182454,0.08849936306476594,0.11264427065849304,0.47193345308303836,0.49319575536893406
5.6208674581721425,-0.7201951199769974,0.47326427936553955,-0.3612023913860321,0.9344127869978307
5.630895458161831,-1.655954276919365,0.9866311025619507,-1.4908230596780778,2.4368378885469695
5.640923458151519,-2.181011438369751,0.7298038494586945,-1.9198075443506242,2.9958447156570034
5.650951458141208,-2.0074523368477823,-0.2607022029161453,-1.5385737615823747,2.542644242349034
5.660979458130896,-1.6692640015482902,-1.2315165871381761,-0.8826564985513687,2.2543641910073964
5.6710074581205845,-1.6365616938471794,-1.619019169807434,-0.586661086678505,2.375653274489926
5.681035458110273,-1.6427667590975763,-1.7495775550603867,-0.338560802936554,2.423701232258646
5.691063458332792,-1.3310601711273193,-1.4666921854019166,0.015174109339714052,1.9806911418681088
5.70109145832248,-0.8407281616330147,-0.8192428600788116,0.47403669655323033,1.2659753138320033
5.711119458312169,-0.4167693588137627,-0.18665423333644868,0.7424613171815873,0.8716566461511494
5.721147458301857,-0.02800611644983292,0.6064047950506211,0.886377666592598,1.0743260612370558
5.7311754582915455,0.0900667092204094,1.1595794624090194,0.9281688863039017,1.488030249441593
5.741203458281234,0.063169224858284,1.4015495252609254,0.7075002300739288,1.571269549849097
5.751231458270922,-0.10996829241514207,1.258300343155861,0.2563296550512314,1.2888435401481217
5.761259458260611,-0.2516828727722168,0.7410842978954315,-0.1641617488861084,0.7996869917857776
5.771287458250299,-0.11341464132070542,0.07091386198997499,-0.32573025763034824,0.3521247753626128
5.7813154582399875,0.037693198621273044,-0.4179794400930405,-0.26177458226680755,0.49462462684722436
5.791343458229676,-0.04095389842987061,-0.6015486824512482,-0.19995606422424317,0.6352326084006444
5.801371458219364,-0.14347722351551057,-0.4688700968027115,-0.135965890288353,0.508833572659478
5.811399458209053,-0.154910284280777,-0.2699647772312164,0.05626717150211334,0.3162975999123289
5.821427458198741,-0.1634097969532013,-0.05825230121612549,0.3044984328746796,0.35045026460311945
5.8314554581884295,-0.28595018774271014,0.11183384656906128,0.36253321766853336,0.475083837887192
5.841483458178118,-0.4464036324620247,0.08532958745956422,0.1158345115184784,0.4690148991557031
5.851511458167806,-0.5299658989906312,-0.1450103634595871,-0.20481276154518127,0.5863788254152709
5.861539458157495,-0.5630085146427155,-0.4391118621826172,-0.5089381420612336,0.8768214456287113
5.871567458147183,-0.6466122964024544,-0.7736708307266236,-0.8460792410373689,1.316253812260557
5.8815954581368715,-0.834246815443039,-1.1327109217643738,-1.1339101856946945,1.806863052525931
5.89162345812656,-1.1465591749548913,-1.5857485127449036,-1.303068380355835,2.3509962763111925
5.901651458116248,-1.5327040341496467,-2.1465292382240295,-1.60607401907444,3.0880808249777334
5.911679458338767,-1.8013599121570587,-2.6421561938524247,-2.2405086117982864,3.9045826570046516
5.921707458328456,-1.531829290688038,-3.1040739512443545,-3.254582451581955,4.751219107213302
5.931735416641459,-1.1338657468557358,-3.8306916528940205,-3.9390838283300402,5.61036821234185
5.941763416631147,-0.9784759908914566,-4.280638990402222,-4.11981249332428,6.021141122001177
5.951791416620836,-0.7493396893143655,-4.278632810711861,-3.870555045604706,5.818024154293095
5.961819416610524,-0.31824786812067035,-3.5303160917758944,-3.327201361656189,4.861551430811153
5.9718474166002125,-0.1063234305381775,-2.187902382016182,-2.487581832110882,3.314556512802523
5.981875416589901,0.05948986440896988,-1.4815265715122223,-1.3670158696174621,2.0167281457474986
5.991903416579589,0.43509160906076433,-2.058818079829216,-0.30858914494514467,2.126796618034908
6.001931416569278,0.600456130206585,-3.036222276091576,0.2859662675857544,3.1082100926955216
6.011959416558966,0.45393046081066135,-3.7326484644413,0.39249084234237674,3.780577533085441
6.021987416548654,0.33521502614021303,-3.983682880997658,0.4787320107221604,4.0263237262041
6.032015416538343,0.48491164058446884,-3.4269326412677765,0.5583342504501343,3.505815705679147
6.042043416528031,0.914976252168417,-2.3728129756450653,0.6729306140542031,2.6306384340598994
6.05207141651772,1.3285197021067143,-1.1292645728588104,0.5753794687986374,1.8361003805660263
6.062099416507408,1.5690870179235936,0.1606721305847168,0.081387979388237,1.5793902641690205
6.072127416497096,1.5471158127486706,1.2570858764648438,-0.5716290646791459,2.073786880672727
6.082155416486785,1.3614338251948357,2.0039098012447356,-0.72585697889328,2.5290363591133755
6.092183416476473,0.7919428680092097,2.6199414521455764,-1.9623931083083155,3.3678262173688975
6.102211416466162,0.6368489080667497,3.032720378637314,-2.2443087172508243,3.8262110559972906
6.11223941645585,0.7051756694912911,3.1174699223041538,-1.8099249136447908,3.673107626294887
6.122267416445538,0.9437272308021785,2.9395356416702274,-1.2729362162947655,3.339439696350569
6.132295416668057,1.2353950452804565,2.4714367926120757,-0.8002972966432572,2.8765737433263676
6.142323416657746,1.3175840932130813,1.9722594076395035,-0.39587491840124134,2.404693736160564
6.152351416647434,1.2108940422534944,1.7013035273551942,0.11687180757522583,2.0914963765596473
6.162379416637123,0.8446823412179947,1.623102280497551,0.604612915813923,1.9270459383447187
6.172407416626811,0.5835901290178299,1.868228670358658,0.8363447964191437,2.1284568170236633
6.182435416616499,0.27855609118938446,2.1461187636852266,0.9675200629234314,2.3705514792849103
6.192463416606188,-0.03825716257095337,2.3776638257503513,1.0598663091659546,2.60347181126949
6.202491416595876,-0.18752751499414444,2.587528581619263,1.2101692798733712,2.862687621017303
6.212519416585565,-0.49589475810527806,2.7225232493877414,1.4310639309883117,3.1154435365046815
6.222547416575253,-1.005401761159301,2.76257199883461,1.4555710735917091,3.2804456862390206
6.232575416564941,-1.6927926126122474,2.6631956452131273,1.335952244102955,3.426795335662824
6.24260341655463,-2.395919125378132,2.4677144551277164,1.2442605936527253,3.6576259393650448
6.252631416544318,-2.7163392341136934,2.3399019223451614,0.8356241270899774,3.6812915563365576
6.262659416534007,-2.5822538083791735,2.357930057644844,0.4222043457627297,3.5222330129073938
6.272687416523695,-2.133792540729046,2.4220857077836992,0.5157209122180939,3.2688740939381624
6.282715416513383,-1.6877575752139093,2.497039995789528,0.9346247971057893,3.15551230145432
6.292743416503072,-1.0995825713127851,2.5431388592720032,1.2432624739408493,3.0368303653289006
6.30277141649276,-0.8731155236810446,2.8540551960468292,1.3382458144426346,3.270911744399099
6.312799416482449,-0.8471974479407073,3.1875394463539126,0.4525341457128525,3.3291047431547596
6.322827416472137,-0.4990320816636086,2.788285714387894,-0.5514801442623138,2.8857755618039156
6.332855416461825,-0.2943300517648459,2.232333034873009,-0.9517144542932511,2.444524771907197
6.342883416451514,-0.24171826712787153,1.658200192451477,-0.8064661091566087,1.8596890019913588
6.352911416441202,-0.029230742678046227,0.8616380971670151,-0.207982537150383,0.8868660454468956
6.362939416663721,0.4193582866340876,0.06551571249961853,0.2539673799276352,0.4946242121250415
6.37296741665341,0.8849722152203322,-0.6080133640766144,0.7336060014367104,1.3003975691886318
6.382995416643098,0.9677798985689879,-1.0702433627843857,0.9117393797636033,1.7068355176378158
6.393023416632786,0.9778840333968402,-1.293450295329094,0.6091284281015397,1.7321398012807296
6.403051416622475,1.1211226174235345,-1.2264476358890535,0.3155976176261902,1.691357911007535
6.413079416612163,0.8744645494222641,-0.914985169172287,-0.24897678136825563,1.2899129992608098
6.423107416601852,0.5721716862916947,-0.3999916505813599,-0.35944939613342286,0.7852245713866604
6.43313541659154,0.6209751062840224,0.05528776288032532,0.018189810812473298,0.6236967921724126
6.443163416581228,0.6802675540745259,0.10154391646385193,0.44423460781574253,0.8187914868136834
6.453191416570917,0.4821181333065033,0.010819103121757509,0.809189157485962,0.9419883439024856
6.463219416560605,0.9762919096648693,-0.08354677140712738,0.7681025272607803,1.2450331113163335
6.473247416550294,0.8525478695333004,-0.3112443655729294,0.7784018129110337,1.1956673062728815
6.483275416539982,0.8736069090664387,-0.24451594054698944,0.6788248997926712,1.1330402999579168
6.49330341652967,0.965968650430441,-0.005588768720626832,0.6338469475507736,1.1553738013602581
6.503331416519359,0.6684758397191763,0.22475469052791597,0.6806863608956337,0.9801574062934474
6.513359416509047,0.5796452318876982,0.40092895925045013,0.38982714325189594,0.8054177964458736
6.5233874164987355,0.9387428449094296,0.5533711338043213,-0.08189317882061005,1.092778217816348
6.533415416488424,0.7614387479424477,0.6672725558280945,-0.26987823843955994,1.047795731148376
6.543443416478112,0.7840530006587506,0.6939534008502961,-0.31793825805187226,1.0942555306356654
6.553471416467801,0.16894082441926003,0.6607090562582016,-0.095501988530159,0.6886204244649423
6.563499416457489,-0.4272116088867188,0.6574381238222122,-0.05521642684936524,0.785992047807394
6.5735274164471775,-0.3727427485585213,0.6581783813238145,-0.14379355788230896,0.7699431963031107
6.583555416669697,0.013130946010351181,0.36834476530551913,-0.26747795641422273,0.45540613197302643
6.593583416659385,-0.01159400537610054,-0.00023856639862060547,-0.3407716351747513,0.3409688918571039
6.603611416649073,0.06864280343055726,-0.1158333420753479,-0.07584306478500366,0.15453597663694027
6.613639416638762,0.377166313380003,0.07219966471195222,0.0862294739484787,0.3935768561673975
6.62366741662845,0.34205392956733705,0.09496696829795838,0.05270446300506592,0.3588835134424742
6.6336954166181386,-0.17548064276576042,0.026943969726562503,0.3266038316488266,0.3717384784197157
6.643723416607827,-0.17588687807321549,0.06665182650089264,0.30781848192214967,0.3607365765584411
6.653751416597515,-0.06216321140527725,-0.06488304376602173,0.2074966335296631,0.22611706513818014
6.663779416587204,0.14121098890900613,-0.14698672235012056,0.11423529803752899,0.23365646418110061
6.673807416576892,0.40663043305277824,0.016682106256484985,-0.08230833113193513,0.41521231090559796
6.6838354165665805,0.3979242943972349,0.028903956413269045,-0.19535284370183945,0.4442318272144318
6.693863416556269,0.19399731293320657,-0.08622304201126099,-0.12647819817066194,0.24711557015185706
6.703891416545957,-0.00480911560356617,-0.19189450800418856,0.03576069384813309,0.19525741220132453
6.713919416535646,-0.10947186380624771,-0.0880356788635254,0.2531189489364624,0.28948846614135576
6.723947416525334,-0.10294607877731324,-0.010648364424705506,0.5127201211452485,0.5230613782604718
6.7339754165150225,-0.12181942909955978,-0.17631577134132387,0.5149233520030976,0.5577394400326505
6.744003416504711,-0.037540659382939344,-0.28193110406398775,0.26973585873842243,0.3919845431072495
6.754031416494399,0.16142086654901505,-0.11368565976619721,-0.1577988088130951,0.2527480750801917
6.764059416484088,0.35199697360396387,0.17186779439449312,-0.6223314410448074,0.7353481017105328
6.774087416473776,0.22097899720072747,0.4412314778566361,-0.7106337529420853,0.8651689228560762
6.7841154164634645,-0.24423001170158387,0.35505345940589905,-0.4061651408672333,0.5921835689273653
6.794143416453153,-0.4465463045239449,0.12261962056159974,-0.05154554486274719,0.4659357430224257
6.804171416442841,-0.4151711685955525,-0.0812096393108368,0.14876427590847016,0.44843384633250455
6.81419941666536,-0.35647067829966544,-0.23626142621040344,0.2614494770765305,0.5012450848297554
6.824227416655049,-0.194875126183033,-0.25106540679931644,0.35587908625602727,0.4771373778384839
6.834255416644737,-0.0807697094231844,0.06683016657829285,0.2393198123574257,0.261273783055211
6.8442834166344255,-0.11921003602445127,0.3046317493915558,-0.170691334605217,0.3689811202969886
6.854311416624114,-0.12116424858570099,0.3097667741775513,-0.579871884584427,0.6684965460278748
6.864339416613802,-0.3298950831592083,0.07687626779079437,-0.8983831697702408,0.9601213705404583
6.874367416603491,-0.2810116294026375,0.04257591605186463,-1.082707872390747,1.1193911655110018
6.884395416593179,-0.3635770918428898,0.3436624985933304,-0.8169396418333054,0.9579575110886042
6.8944234165828675,-0.4429846192896366,0.6985212457180023,-0.4110633534193039,0.9236559880014515
6.904451416572556,-0.7242001703381539,0.6645179325342179,-0.47023776054382327,1.0895749266657309
6.914479416562244,-0.9857062923163176,0.3050410544872284,-0.8352449351549149,1.327516870452726
6.924507416551933,-1.1810328966379167,-0.06941872894763947,-0.893164529800415,1.4823631606874377
6.934535541571677,-1.1927504244446756,-0.4320612895488739,-0.5680113923549652,1.3899523282417336
6.944563541561365,-0.9368179415166379,-0.5189099836349488,-0.22120075285434723,1.0935379278867394
6.9545915415510535,-0.3256393334269524,-0.34201241433620455,-0.09488627672195435,0.4816812976906876
6.964619541540742,0.4126787929236889,-0.1225763511657715,-0.47091311395168306,0.6380344104244993
6.97464754153043,0.5685482398420573,-0.09699536740779877,-0.9952832275629044,1.1503233916573667
6.984675541520119,0.4436190421879292,-0.16497918963432312,-1.3575536128878594,1.4376953082864998
6.994703541509807,0.20012870326638224,-0.46989569842815404,-1.3600562211871148,1.4527926177063748
7.0047315414994955,-0.21756714686751366,-0.9367333030700684,-1.0607594713568689,1.4317874844228575
7.014759541489184,-0.5836041623353958,-1.2790749156475067,-0.5861599802970886,1.5232235491337962
7.024787541478872,-0.6874768786132336,-0.9573763132095338,-0.3096080222725868,1.2186266824495584
7.034815541468561,-0.919016239643097,-0.4350299209356308,-0.49144648879766467,1.1293190568606166
7.044843541458249,-0.956082762926817,-0.23452655732631686,-0.9504739674925805,1.3683923847121473
7.0548715414479375,-0.6769622692465782,-0.2204909008741379,-1.3017702984809876,1.4837452818321093
7.0648995416704565,-0.23345037728548051,-0.3537483608722687,-1.4328894317150116,1.4942587142108688
7.074927541660145,0.1828735698759556,-0.5233918744325639,-1.4280511531233788,1.5318981339234734
7.084955541649833,0.4883211520314217,-0.7759541684389115,-1.457874584197998,1.722196481906029
7.094983541639522,0.5776183676719666,-1.1176847469806672,-1.6164019560813905,2.0483206428508725
7.10501154162921,0.510268091261387,-1.461395777463913,-1.900644464492798,2.4512242907894026
7.1150395416188985,0.49130308583378796,-1.678322800397873,-1.9768608739972116,2.6393417852991643
7.125067541608587,0.5851921199262142,-1.8439258879423142,-1.8622916999459267,2.685264022984533
7.135094541590661,0.6874347786605358,-2.035367236733437,-1.7706792792677881,2.7839884111303803
7.145123541587964,0.7146490359306336,-2.243871930241585,-1.5636571472883225,2.8267840664169124
7.155150541570038,0.716873024404049,-2.4112262588739397,-1.2751806700229646,2.820284515044828
7.165178541559726,0.7239095637202263,-2.6479911303520205,-1.3269905090332033,3.0490663971013783
7.175207541557029,0.5072781175374985,-2.796985786557198,-1.4949956327676774,3.2117709321696344
7.185235541546717,0.04197131395339966,-2.5875344288349154,-1.3913847255706788,2.9382048033029284
7.195262541528791,-0.6399135799705983,-2.1854868972301484,-1.2060294511914254,2.5768875421594437
7.20529054151848,-1.1191054742038251,-1.7989602148532868,-0.9837802925705911,2.3359106534857514
7.215318541508168,-1.2786240953207018,-1.4831702238321305,-0.7978978917002678,2.1145483053306364
7.225346541497856,-1.168314471691847,-0.9983120852708817,-0.8643941822648049,1.7631684623698713
7.235374541487545,-0.855896277576685,-0.3173096823692322,-1.067704501748085,1.4047194650705226
7.245402541477233,-0.6211118580400944,0.35367351651191714,-1.1986447101831437,1.395569431354082
7.255430541466922,-0.45738762706518177,0.9490861308574677,-1.2189444887638092,1.6111466698801757
7.26545854145661,-0.3055847724527121,1.498288199901581,-1.0738671746850015,1.868539614775465
7.275486541446298,-0.2783966814726591,1.941115382909775,-0.7519136336445809,2.1001923136904743
7.285514541668817,-0.21696857471019032,2.2228874427080156,-0.3962900707125664,2.2683363431171584
7.295542541658506,-0.01471046168357134,2.2093657565116884,-0.13477802842855455,2.2135217551848223
7.305570541648194,0.09122500609606504,1.807476099729538,0.01566966086626053,1.8098445765044007
7.315598541637883,0.11693064518272878,1.0814518904685975,0.18615955889225008,1.1035698204227542
7.325626541627571,0.026382088847458365,0.19711431741714477,0.39481306403875355,0.44207174109916936
7.335654541617259,0.05267374685034156,-0.6911315345764161,0.4347746899724007,0.8182092353021951
7.345682541606948,0.1822925028204918,-1.4506059104204179,0.2809704065322876,1.4887687642068956
7.355710541596636,0.19900296807289125,-2.007030460238457,0.07587902516126634,2.018299055166562
7.365738541586325,0.2093443536758423,-2.2862081104516982,0.13350508958101273,2.299651319581974
7.375766541576013,0.2606092321872711,-2.3214720833301548,0.4101026558876038,2.371778656187915
7.385794541565701,0.47062192261219027,-2.110622071623802,0.8429676452279091,2.3209491537235
7.39582254155539,0.3621411618590355,-1.6755974131822586,1.351842637360096,2.183174621591317
7.405850541545078,0.16952835995703935,-1.1206755977869034,1.7654968920350076,2.0980068961016376
7.4158785415347666,0.49025336444377904,-0.43741032242774963,2.005358741283417,2.1102463914805316
7.425906541524455,0.984427360072732,0.3672256082296372,1.9590903085470202,2.223057964076118
7.435934541514143,1.2373483076691627,1.0326785105466842,1.6013523924350739,2.2719562551673818
7.445962541503832,1.438405694961548,1.6820778822898865,1.3580088186264039,2.596648781959879
7.45599054149352,1.4481445249915124,2.4154438555240634,0.755469617843628,2.9158576659255235
7.4660185414832085,0.6152926359325648,2.968657114505768,-0.6000058946013451,3.09055288983944
7.476046541472897,-0.08332808554172516,3.214696254730225,-0.620582538843155,3.27510889399629
7.486074541462585,-0.6753572085499764,3.6915559870004655,-0.8835540461540222,3.855432623814679
7.496102541452274,-1.5697543314099314,3.997372382283211,-1.3295933970808984,4.495657151650014
7.506130541441962,-1.25948381960392,3.8822635102272036,-0.7865493232011795,4.156552573048242
7.516158541664481,-0.5426938256621361,3.813005579710007,-0.19865798234939577,3.8565519746611203
7.52618654165417,-0.13220656916499138,3.6347181272506717,0.4109268209338188,3.6602616427869994
7.536214541643858,0.7047118391096592,3.2797395122051243,0.9906659737229347,3.4978177647775244
7.546242541633546,1.5824973146617414,2.829106296300888,1.3092404088377954,3.4960335574497434
7.556270541623235,2.076881006062031,2.3386471098661423,1.4001824462413788,3.426837594720384
7.566298541612923,2.072902560532093,1.9361850106716156,1.5577999913692475,3.2361208621001754
7.5763265416026115,1.9580942353606225,1.6175386548042299,1.7203724670410157,3.0676123874588797
7.5863545415923,1.9093838591873646,1.261999876499176,1.5867188581824303,2.7849716596261667
7.596382541581988,1.5056972068548202,0.6160468536615372,1.4299839502573013,2.165985203696037
7.606410541571677,0.8086167150735856,-0.04959140539169312,1.320774918794632,1.54944076540605
7.616438541561365,0.5117452441155911,-0.5566847509145737,1.0839036279916763,1.3216006134794525
7.6264665415510535,-0.09008746683597565,-0.6505173593759537,0.7049239468574524,0.9634346668993571
7.636494541540742,-0.40747053176164627,-0.9563162130117416,1.0771822535991669,1.49696177005033
7.64652254153043,-0.5255076894164086,-1.2306307339668274,1.017454115152359,1.681018504199158
7.656550541520119,-0.6310095861554146,-1.3294662201404572,0.6353216153383255,1.6028995861346653
7.666578541509807,-1.1060251066088678,-1.3700488203763963,0.5085121724009514,1.8327329145687996
7.6766065414994955,-1.459480083435774,-1.4570577281713486,0.7810292592644692,2.2052451203883776
7.686634541489184,-1.3071938833594323,-1.6377489709854127,1.1170608490705491,2.374616280829875
7.696662541478872,-0.9244627748429776,-1.8936605501174928,1.3870832213759423,2.522812233235824
7.706690541468561,-0.47309485629200937,-2.1312101179361345,1.4426405408978462,2.616693914099496
7.716718541458249,-0.1711219820380211,-2.1546346485614776,1.503481696844101,2.6329053181349837
7.7267465414479375,-0.0714588224887848,-1.89704491853714,1.3188798362016678,2.3115643639315793
7.7367745416704565,0.2779047113656998,-1.3983353108167649,1.0516717287898065,1.7716055134289947
7.746802541660145,0.4380713501572609,-0.8691675567626953,0.5241520124673844,1.1054836415483713
7.756830541649833,0.6676268970966339,-0.26048351705074313,-0.07500428169965745,0.7205574082994954
7.766858541639522,0.7312077659368516,-0.05194783329963684,-0.2695057708024979,0.7810228772876867
7.77688654162921,0.6597764253616334,0.11373536109924318,-0.48811737656593324,0.8285524950979022
7.7869145416188985,0.9744922828674317,0.3812560021877289,-0.6494777244329453,1.2315894864389452
7.796942541608587,0.7004049262404443,0.25969589710235597,-0.31842269986867905,0.8120357353376381
7.806970541598275,0.8331539708375931,0.10604568779468537,0.21579997211694718,0.8671567649439011
7.816998541587964,0.8916825529932976,-0.07735340058803558,0.7392459332942963,1.1608470501264727
7.827026541577652,0.5443105807900429,-0.2977782279253006,1.1178660106658935,1.2785031478992948
7.8370545415673405,0.5571914121508599,-0.04969548583030701,1.1258290413022043,1.257148734766901
7.847082541557029,0.09501140713691712,-0.0910545963048935,0.8241477969288826,0.8345883405470718
7.857110541546717,0.03571450084447861,0.09136274456977844,0.5036200994253159,0.5130846725551816
7.867138541536406,0.6483515506982803,0.17680459856987,0.4831200537085533,0.8276621204716772
7.877166541526094,0.9761762809753418,0.15286726713180543,0.5306693190336228,1.1215607246434787
7.8871945415157825,0.7158629179000855,0.09602882266044617,0.18517664194107056,0.7456350586758561
7.897222541505471,0.7062346002459526,-0.027571375966072086,-0.1540256005525589,0.7233611663497007
7.907250541495159,1.2734028241038322,-0.1042950314283371,0.12036405712366105,1.283323697382512
7.917278541484848,1.270939684510231,-0.5901664924621582,0.4584000724554062,1.4743523313357543
7.927306541474536,1.4037574338912964,-0.8367394834756852,0.4974156188964844,1.7082418430463546
7.937334791524336,1.4097894215583802,-0.5978380393981934,0.44094262540340423,1.593532846660851
7.947362791514024,1.5093192645907403,-0.26334222078323366,0.5890596145391465,1.641458192337772
7.9573907915037125,1.4850404557585717,-0.06505495190620422,0.6213891622424126,1.6111181809412594
7.967418791493401,1.4914633297920228,-0.04507150769233704,0.4800043648481369,1.5674496786797438
7.977446791483089,1.5119929039478304,-0.08951268553733827,0.3767384433746338,1.5607904783080404
7.987474791472778,1.6362956455349924,-0.11869672358036042,0.4360224857926369,1.69754763111445
7.997502791462466,1.4219071912765504,-0.032833285331726074,0.34901211619377137,1.464482004833005
8.007530791452155,1.369134023487568,0.02638848423957825,0.38843053579330444,1.4234123111412211
8.017558791441843,1.397758482992649,0.1452863520383835,0.4950355097651482,1.4899318966969506
8.027586791664362,1.4534768933057787,0.2353744035959244,0.7404495826363564,1.6481085442616663
8.03761479165405,1.3573109534382821,0.32310953557491306,0.8980528020858765,1.659274429272406
8.047642791643739,1.1125643402338028,0.4223268449306488,0.7833526504039765,1.424710760120765
8.057670791633427,0.8703826081752778,0.4158960771560669,0.6970114946365357,1.190109429953087
8.067698791623116,0.650474382340908,0.3976597809791565,0.4892388725280762,0.9058724512218703
8.077726791612804,0.45018999695777895,0.49903705179691316,0.1282463961839676,0.6842193731261745
8.087754791602492,0.19932281076908112,0.6183401316404343,-0.09632059872150421,0.6567737502580822
8.09778279159218,0.037845226228237154,0.659922605752945,-0.09967806994915009,0.6684802348318244
8.10781079158187,-0.06871560126543046,0.7220796775817871,-0.07884824126958848,0.7296149256869644
8.117838791571558,-0.08353127628564835,0.8257151430845261,-0.12347536057233811,0.8390644410922665
8.127866791561246,0.040608620345592504,0.8700803071260452,-0.10303232520818711,0.877100029034734
8.137894791550934,0.27175168633461,0.7663354986906052,0.05647942543029785,0.815051532773247
8.147922791540623,0.399674146771431,0.640928510427475,0.21494686335325242,0.7853221842923164
8.157950791530311,0.440836498439312,0.5154343986511231,0.2821199691295624,0.7345754655927079
8.16797879152,0.20951626181602478,0.6905351185798645,0.0006975728273391724,0.7216206070819472
8.178006791509688,-0.6200536581873894,1.3072386145591737,-1.1025366577506066,1.8190454684009496
8.188034791499376,-1.400282433629036,1.544381800889969,-1.839797168970108,2.780424367574242
8.198062791489065,-1.7674858224391938,0.8777816748619081,-1.5093838763237,2.4845012552528303
8.208090791478753,-1.7054378011822702,-0.45436081588268284,-0.8109079465270043,1.9423010946945471
8.218118791468441,-1.853621740937233,-1.6701887387037277,-0.4091039514541626,2.528400685109727
8.22814679145813,-2.0689507198333743,-2.2622199082374572,-0.46318718791007996,3.1004416403746373
8.238174791447818,-2.1186716410517694,-2.265116618871689,-0.680177068412304,3.1752423000583225
8.248202791670337,-1.9574674138426782,-2.069813184142113,-0.5306930002570153,2.897833734710507
8.258230791660026,-1.688333525955677,-1.5556201493740083,-0.23030866831541064,2.3072637965142953
8.268258791649714,-1.3731153926253319,-0.8204497253894806,-0.006048944592475892,1.5995687616001308
8.278286791639403,-1.1041586753726007,-0.09217082977294923,0.20710106939077377,1.1271879591285618
8.288314791629091,-1.0624794298410416,0.2988137698173523,0.3562457066774368,1.1597686025211704
8.29834279161878,-1.077376965880394,0.3075571113824844,0.34082513719797136,1.1711081408297004
8.308370791608468,-1.076545784175396,-0.0023038029670715333,0.10180177867412568,1.0813508843456618
8.318398791598156,-1.131159363090992,-0.5181860983371734,-0.46633532881736756,1.3287238148394585
8.328426791587844,-1.3488602650165558,-1.1611231273412705,-1.0592666772007944,2.0711535010267386
8.338454791577533,-1.5243986490368844,-1.9601270198822023,-1.5329493248462678,2.918188274906948
8.348482791567221,-1.2447780722379684,-2.8143210268020633,-1.931569218635559,3.6332953275786815
8.35851079155691,-0.5138176435232162,-3.4325933307409286,-2.1980601650476457,4.1083054942655055
8.368538791546598,-0.28708162397146225,-3.694176709055901,-3.0980489802360536,4.829830732074866
8.378566791536286,-0.6233892023563385,-3.407035151124001,-4.247144677340985,5.480396019347039
8.388594791525975,-0.4648746943473816,-2.4711222124099734,-4.20859544634819,4.902532927083025
8.398622791515663,0.6510655358433723,-1.262502152323723,-3.037195252776146,3.3529618280068454
8.408650791505352,1.562128685116768,-0.4042273736000061,-1.1633339595794678,1.98921886677737
8.41867879149504,1.6419671523571016,-0.5096111565828324,0.3423182237148285,1.7529807262547574
8.428706791484728,1.3450946581363679,-1.5087243103981018,0.9529254126548767,2.2346354347447117
8.438734791474417,1.4632008129358292,-2.717029205560684,0.799737133383751,3.187912138901989
8.448762791464105,1.4717780935764313,-3.2536118137836456,0.48622463285923007,3.603961013263472
8.458790791453794,1.1024885644018652,-2.7799540168046954,0.00555046945810318,2.9905946194522337
8.468818791443482,1.212273400425911,-1.8213538813591004,-0.5715618216991425,2.261331394233517
8.478846791666001,1.615248300433159,-0.8350619173049927,-0.45191726446151737,1.8736554356934683
8.48887479165569,2.0135487900674343,0.20550273299217225,-0.13765924394130707,2.028684344764304
8.498902791645378,1.9532252588868142,1.01378089427948,-0.042815651893615726,2.2010619695062292
8.508930791635066,1.593372843414545,1.3468651950359345,-0.03166559636592865,2.086596650462985
8.518958791624755,1.0238122312724591,1.409141550064087,0.06754645049571992,1.743110414171942
8.528986791614443,0.42350111201405527,1.4531617283821108,-0.31232990115880965,1.5455038556630962
8.539014791604131,-0.1823954138159752,1.3638536953926088,-0.6817689728736878,1.5356346967265422
8.54904279159382,-0.5172349025309086,1.0475380396842957,-0.43585671722888947,1.246931821285879
8.559070791583508,-0.5908377528190613,0.7334899342060089,0.005790205299854279,0.941875926125744
8.569098791573197,-0.38866764038801194,0.5620951795578003,0.26091445684432985,0.7314983795998952
8.579126791562885,0.03190986379981041,0.5856922030448913,0.39862047851085664,0.7091910053035959
8.589154791552573,0.5380292093753815,0.6450075280666352,0.5259664034843445,0.9910352158213076
8.599182791542262,1.2001483216881752,0.5307552731037141,1.006259036064148,1.6536669560824784
8.60921079153195,2.0153191807866095,0.3756982237100601,1.7575379544496537,2.700296320235314
8.619238791521639,2.809050638973713,0.5182995343208313,2.45660240650177,3.767531722922331
8.629266791511327,3.3686733233928683,0.7915691578388214,2.8616226625442507,4.490370358240761
8.639294791501015,3.441789831519127,0.9716177916526795,2.6479779741168024,4.449915249621302
8.649322791490704,2.951570380926132,0.9929221218824387,2.265464528203011,3.8509728098533813
8.659350791480392,2.3649898396432403,1.017734196782112,1.0541936329007149,2.7821365984731767
8.66937879147008,1.8649708941578866,1.1063218528032304,-0.15705913603305818,2.174104884833639
8.679406791459769,1.0015514427423478,1.2137088918685914,-0.11803189516067505,1.578013338009341
8.689434791449457,0.0947801497578621,1.616337051987648,0.09490966558456422,1.6218929024561448
8.699462791671976,-0.34188699156045915,2.1630148780345917,-0.10195672988891602,2.1922397798523097
8.709490791661665,-0.9408286929130555,2.3585644805431367,0.030874468088150028,2.539475983558012
8.719518791651353,-1.2054400518536568,2.5959789776802062,-0.23578721702098848,2.8718962695196737
8.729546791641042,-1.2916657251119614,2.7246726858615875,-0.49965159416198734,3.056451096624617
8.73957479163073,-1.3917767813801767,2.5461630392074586,-0.39541328072547915,2.928538969177158
8.749602791620418,-1.2082739049196245,2.3052571696043014,-0.020161491930484773,2.6027952153557172
8.759630791610107,-0.7784316337108612,2.088610228300095,0.4181531023979187,2.2678404950892244
8.769658791599795,-0.48450876742601395,1.8786852461099626,0.5049725604057312,2.0047953228264093
8.779686791589484,-0.3263653017953038,1.7313108533620836,-0.10407897680997849,1.7648750705359
8.789714791579172,-0.13807615041732788,1.4050777351856232,-0.4355731272697449,1.477508854263816
8.79974279156886,-0.2638591877371073,0.6121748274564743,-0.4658517640829087,0.8132635221278575
8.809770791558549,-0.791945133805275,-0.007516010999679566,-0.15149434089660646,0.8063399535573685
8.819797791540623,-0.9198561921715737,-0.12752192616462707,0.02477816104888916,0.9289839682115555
8.829825791530311,-1.1753467717766763,-0.1026706749200821,0.5297881436347962,1.2933123283068182
8.83985379152,-1.3052420827746392,0.19787854850292208,0.7629862135648727,1.5247822063145815
8.849881791509688,-1.2439960071444511,0.4497649043798447,0.6539046514034271,1.4756035470715654
8.859909791499376,-1.102428264990449,0.602349750995636,0.37278484851121907,1.3103975905250624
8.869937791489065,-1.0397696482390166,0.8095458376407624,0.2544702404737473,1.342103009432338
8.879965791478753,-0.653456169962883,0.797344452738762,0.3047732520103455,1.0750115708757733
8.889993791468441,-0.9691501204669476,0.6569364327192306,0.4832814368605614,1.2666405882684226
8.90002179145813,-0.6678263602405787,0.4015160197019577,0.27332020193338397,0.8257790832264934
8.910049791447818,-0.8960077384114266,0.610125378370285,0.11558775901794434,1.0901574999326626
8.920077791670337,-0.29443464383482937,0.6323576617240906,-0.17417773693799973,0.7189616511860318
8.930105791660026,-0.22808848053216935,0.38217050671577457,-0.49833012342453004,0.6681403767676168
8.9401327916421,-0.1625231397897005,0.2667447155714035,-0.8357749852538109,0.8922367063892739
8.950160791631788,-0.057535359486937526,0.2915410029888153,-0.96918827354908,1.0137220445467592
8.960188791621476,-0.046822675690054896,0.3764671325683594,-1.094929137825966,1.1587880227735063
8.970216791611165,0.10885805234313012,0.18394521832466126,-1.3758796638250352,1.392383125519603
8.980244791600853,-0.30211868919432167,0.0918743759393692,-1.38162981569767,1.417257051822118
8.990272791590542,-0.4697213783115149,0.34664925634860994,-1.2603035992383957,1.3889452985712463
9.00030079158023,-0.4539493911713362,0.6294375622272492,-1.2855553847551346,1.5016372204232058
9.010328791569918,-0.5315441355854273,0.8667000317573548,-1.3681005281209946,1.7045254964852838
9.020356791559607,-0.7537446892261506,0.7564671528339386,-1.30903254032135,1.6893607671168047
9.030384791549295,-0.9365847107023001,0.4535246640443802,-1.277285082936287,1.647523209035137
9.040412791538984,-1.0097178833931686,0.07576237320899963,-1.2153034275770187,1.5818446707305651
9.050440791528672,-0.8623217097669841,-0.22038974404335024,-1.0735715979337692,1.3945344550440533
9.06046879151836,-0.5568046919256449,-0.2230215758085251,-0.9999402424693108,1.1660405553565083
9.070496791508049,-0.5240385764837265,-0.2084532380104065,-1.1194693171977996,1.2535073730247546
9.080524791497737,-0.6633274394273758,-0.6879459714889526,-1.1656506264209747,1.5073202494694908
9.090552791487426,-0.7495774517208338,-1.6573464989662172,-0.8443575283885003,2.005393579702053
9.100580791477114,-0.5403696305304766,-2.720286104679108,-0.49791233986616135,2.8177779414107267
9.110608791466802,-0.2568579509854317,-3.7170855152606967,-0.5503364288806916,3.766373709511374
9.12063679145649,-0.1318251845240593,-4.554122037291527,-1.0269792294502258,4.670341716356664
9.13066479144618,-0.07986404880881309,-5.08453173995018,-1.3457334664463998,5.2602129085776355
9.140692791668698,-0.14240352854132654,-5.152652971744538,-1.4749709656834602,5.361497063486842
9.150720791658387,-0.029706486761569978,-4.629142983555794,-1.923186650276184,5.012832944489581
9.160748791648075,-0.027582778036594393,-4.052878831028939,-2.6115536212921144,4.8214935388871645
9.170776791637763,-0.13146346114575863,-3.813238298892975,-3.6258821073174476,5.26356248390056
9.180804791627452,-0.4579084677994251,-3.818829991221428,-4.106885176599026,5.626690725506733
9.19083279161714,-0.8701724007725716,-3.799123705029488,-4.10195509672165,5.658319233544887
9.200860791606829,-1.2399748769402505,-3.361765422821045,-3.37072861969471,4.919432475514544
9.210888791596517,-1.4508058851957322,-2.2855134612321857,-2.3001060649752616,3.552308743356647
9.220916791586205,-1.7370879024267198,-1.340560727119446,-1.1821947383880616,2.4924208800531056
9.230944791575894,-1.7261264196038246,-0.5828258979320526,-0.28249769926071167,1.8436386288647288
9.240972791565582,-1.4894255751371384,0.11984102368354797,0.3891427266597748,1.544079815470146
9.25100079155527,-1.2756849923729898,0.7460567700862885,0.7168051967024803,1.6424927987595384
9.261028791544959,-1.080202048122883,1.2354166799783708,0.6353985062241555,1.75977899170593
9.271056791534647,-1.146111570596695,1.6186198049783707,0.5265180882811547,2.0520046546270514
9.281084791524336,-1.3721447548270227,1.8249253606796265,0.12985730409622193,2.2869186080134365
9.291112791514024,-1.6965561729669572,2.0592653918266297,-0.8047593069076538,2.7868466667654426
9.301140791503713,-1.7523625838756562,2.0803370028734207,-1.6829347917437554,3.198569396488582
9.311168791493401,-1.2271846774220467,2.0603775322437285,-2.2164037576317788,3.2655142665005275
9.32119679148309,-0.692520833015442,1.8607980287075043,-2.034537224471569,2.842797236097329
9.331224791472778,-0.4213616888970137,1.434403275847435,-1.6457520550489426,2.2234114008275245
9.341252791462466,-0.16429089926183224,0.8536484616994858,-1.3299068078398706,1.5888232479671849
9.351280791452155,1.0912007338553669,0.28583119690418246,-1.0116662487387658,1.5152185035589207
9.361308791441843,2.908334606587887,-0.07357843816280366,-0.7153483629226685,2.995921769802299
9.371336791664362,4.292090469896793,-0.6376909071207046,-0.2019371008872986,4.343900193088933
9.38136479165405,4.73593769967556,-1.071505776643753,0.7277605399489403,4.90987432915507
9.391392791643739,4.700207118988037,-1.1281804990768434,1.7434511348605157,5.1385173016668455
9.401420791633427,4.289043193459511,-0.5003743100166321,1.712532227933407,4.645323734380257
9.411448791623116,1.5832273395359517,0.8640997749567032,0.3526084461808205,1.8378275071541303
9.421476791612804,-0.477860337048769,1.9062414193153383,-0.16884975403547287,1.972464724621345
9.431504791602492,-1.9119747604429722,2.404274504184723,0.41702546685934067,3.1000150993266
9.44153279159218,-2.243051565885544,2.552120182514191,1.0220710766315462,3.548130076378912
9.45156079158187,-1.456907308548689,2.374502820968628,1.0507753506302835,2.977410181681851
9.461588791571558,-0.9698061780631543,2.4101065170764926,0.8955399611592293,2.747931816602646
9.471616791561246,0.1724285423755646,2.1543703544139863,1.0336590886116028,2.39572417812923
9.481644791550934,1.102227340042591,1.933520434498787,1.2131794264912605,2.534799933056534
9.491672791540623,1.484271839261055,1.6767113077640534,1.4529886507987977,2.6693818988217757
9.501700791530311,1.823622016310692,1.2729423558712005,1.3775964063405992,2.6160564517048424
9.51172879152,2.606877310574055,1.1000483751296997,0.9974794417619706,3.0001468258652078
9.521756791509688,2.581171488761902,0.7539715611934662,1.227599829733372,2.9559974139784444
9.531784791499376,2.2585311922430993,0.47705619871616367,1.1818322110176087,2.5933131585034848
9.541812791489065,1.9513518109917642,0.5176136559247971,0.7901412677764893,2.167953184481646
9.551840791478753,1.3094593870639801,0.45727565288543703,1.0259711694717408,1.7252251301435964
9.561868791468441,0.8227026575803758,0.35928450465202333,1.2694521528482439,1.5548098875566438
9.57189679145813,0.6597857809066773,0.048116152882575994,1.8782124987244606,1.9913097778145006
9.581924791447818,0.27993281811475756,-0.31832300484180454,2.330732026398182,2.368966799460761
9.591952791670337,-0.21857009053230286,-0.9071235877275468,2.6678699094057086,2.826336133831116
9.601980791660026,-0.3919604998826981,-1.3525223761796952,2.542073496580124,2.906043267666564
9.612008791649714,0.23140882194042206,-1.3962285590171815,2.0154527896642684,2.462733071051861
9.622036791639403,0.6383770778775215,-1.3380388230085374,1.34485638409853,2.0016273077893616
9.632064791629091,0.750225542485714,-1.3484094446897508,0.7653002491593361,1.722420060986822
9.64209279161878,1.392888629436493,-1.0245304155349733,0.2859738689661026,1.752593038928655
9.652120791608468,1.5680753034353256,-0.6970875084400178,0.09001554608345032,1.718398658694659
9.662148791598156,1.6733415573835373,-0.38092504978179936,-0.01482853889465332,1.716215530399308
9.672176791587844,2.0215438342094423,-0.021110787391662597,-0.011190401315689087,2.0216850308730376
9.682204791577533,2.165442349612713,0.3500184220075607,-0.024305706024169923,2.193682801269642
9.692231791559607,2.1613425743579864,0.5349991822242737,0.07665231943130493,2.227891699968212
9.70226079155691,1.8310108503699303,0.5354225206375123,0.1143808937072754,1.9111151191447147
9.712287791538984,1.8621586757898332,0.6852895814180374,-0.044511344432830814,1.9847513708277598
9.722315791528672,1.888957342207432,0.6968419253826141,-0.04518962144851685,2.0138993548678084
9.73234379151836,1.3448139917850495,0.05148473381996155,0.5531615111231805,1.4550474245554446
9.742371791508049,1.4405665335059166,-0.23202979624271394,0.9742484539747238,1.754488476415228
9.752399791497737,1.3057914286851884,-0.26102730810642244,1.3094628953933716,1.8675972759717183
9.762427791487426,0.15950268745422364,-0.6436100435256958,1.4251792931556702,1.571881361004056
9.772455791477114,-0.45052884310483937,-0.8485929590463639,1.134411876797676,1.48659898924763
9.782483791466802,-0.9187928760051728,-1.0303524881601334,0.8273032468557359,1.6094214056963692
9.79251179145649,-0.5731411546468735,-1.1344475448131561,0.4996539330482483,1.365692523188559
9.80253979144618,-0.21841630876064302,-1.1279302382469178,0.3644733238220215,1.2053103791398487
9.812567791668698,0.14802752673625946,-0.9068505227565766,0.42291975259780884,1.0115093358110552
9.822595791658387,0.4902410852909088,-0.44445621728897095,0.5568619215488434,0.8648542365422622
9.832623791648075,0.7296582537889481,0.15102071642875672,0.6456939911842347,0.9859661020361797
9.842651791637763,0.9141460937261582,0.6638876026868821,0.7154986363649368,1.337291340103649
9.852679791627452,1.0033532622456551,1.1540012186765671,0.7223913341760636,1.691237955244227
9.86270779161714,1.168332744240761,1.3967834597826005,0.5495874005556107,1.9021177002585492
9.872735791606829,1.315309818685055,1.4594808143377305,0.28363469034433364,1.9850876061564546
9.882763791596517,1.334360339641571,1.4071365398168565,0.05758747279644013,1.9400688324694064
9.892791791586205,1.3275457021594048,1.2830059987306595,0.017662099599838256,1.846291941666604
9.902819791575894,1.333268372118473,1.0866518193483352,0.1841539639234543,1.7298350820275357
9.912847791565582,1.2956719449162484,0.9445305651426316,0.4718533462285996,1.6713914435819155
9.92287579155527,1.2365267738699914,0.8450723505020142,0.7253900787234306,1.6641323584350836
9.932904916582629,1.0967014288902284,0.7132901430130005,0.9234110069274902,1.6013196869970145
9.942932916572317,0.8578558257222176,0.6157398748397828,1.0058549934625627,1.4583540307712772
9.952960916562006,0.5665738543868065,0.5401096487045288,0.9878560942411423,1.2603904268232984
9.962988916551694,0.29090365648269656,0.4113656544685364,0.8690359944105148,1.0045248621176095
9.973016916541383,-0.10670086830854417,0.44633668184280395,0.5807817113399506,0.7402086902240498
9.983044916531071,-1.1918441060185434,1.0392823559045792,-1.120363941192627,1.937992659704982
9.99307291652076,-2.3262024807929995,1.1283746266365051,-2.733186231851578,3.7622804597301895
10.003100916510448,-2.8353870829939845,0.26614771485328675,-3.085841455757618,4.199127529214022
10.013128916500136,-2.4312863016128543,-1.7039669340848924,-2.1053902754187583,3.639687432279433
10.023156916489825,-1.908194974064827,-3.6661457419395447,-1.0397051095962524,4.261785937269524
10.033184916479513,-2.1939867022633552,-4.069446331858635,-0.6140970996022225,4.66380599353425
10.043212916469201,-2.5630533063411716,-3.7673937892913822,-0.49393506377935414,4.583281582225601
10.05324091645889,-2.655124441087246,-3.3541149258613587,-0.4424985694885254,4.300648522902587
10.063268916448578,-2.3585954707860948,-2.6718325674533845,0.05175545990467072,3.5643148697817324
10.073296916671097,-1.555507005751133,-1.3057937675714493,0.4900297084450722,2.089217203530561
10.083324916660786,-0.9568757915496827,-0.05382654368877411,0.2874564304947853,1.00056972605217
10.093352916650474,-0.4350237813591957,0.4999112105369568,0.09928689122200013,0.6700856628350648
10.103380916640162,-0.09734356909990312,0.48783612549304967,-0.705304600596428,0.8630842574185124
10.11340891662985,0.13881553083658218,0.18550525546073915,-2.1191625148057938,2.1317907297769665
10.12343691661954,0.08761409461498261,-0.42425934970378876,-3.5791672396659853,3.6052892193116093
10.133464916609228,-0.31507575362920764,-1.4292080247402192,-4.964411219358444,5.1756436375970525
10.143492916598916,-0.7788587728142738,-2.9780728858709336,-5.134947602748871,5.986921244222756
10.153520916588604,-0.9594593837857247,-4.27324635565281,-4.012401480674744,5.939744301512935
10.163548916578293,-0.962701664865017,-4.633991494774818,-2.6978441986441615,5.44784682139074
10.173576916567981,-1.1415475264191628,-4.364826031923294,-1.2004731345176698,4.668615725322404
10.18360491655767,-1.11600776553154,-3.8980966007709505,0.5435659378767014,4.090977190169669
10.193632916547358,-0.8335395947098733,-3.5060267579555515,1.9039113038778306,4.075768655908133
10.203660916537046,-0.34321284770965577,-2.7381095874309542,1.9318750280141832,3.368557598658376
10.213688916526735,0.2727047824859619,-1.399687187075615,1.1459925797581674,1.829423710602643
10.223716916516423,0.8293880715966225,-0.32343931853771213,0.8439567017555237,1.2266867899023637
10.233744916506112,1.3930696007609369,0.6794908976554871,0.4263579154014588,1.6075235191394164
10.2437729164958,1.827510999441147,1.878327981233597,-0.6151773726940155,2.6919055811893124
10.253800916485488,2.0649849919974805,2.6214757615327837,-1.249937947690487,3.563515547679767
10.263828916475177,1.9591841563582422,2.8360913801193237,-1.3893615889549256,3.716469090383457
10.273856916464865,1.816285953372717,2.7380756735801697,-1.4278324672579765,3.582549178061139
10.283884916454554,1.4863515476882458,2.1382811558246613,-1.8010497173666955,3.1662702520626294
10.293912916444242,1.2082626490294934,1.1765287864208223,-1.8654904192686081,2.5147908697741825
10.303940916666761,1.0615422673523427,0.27497817993164064,-1.6578631004691124,1.9877110063364667
10.31396891665645,0.7466188336908818,-0.4313362348079682,-1.2209342962503433,1.4947144162148729
10.323996916646138,0.37659957200288774,-1.041361625790596,-0.9656232261657716,1.4692479328597963
10.334024916635826,0.3412491334229708,-1.3539689773321153,-0.5011832723021508,1.483532148311992
10.344052916625515,0.38626765072345737,-0.9417081141471864,0.3311839556694031,1.0703736182935855
10.354080916615203,0.872468163818121,-0.04298171281814575,1.703935359120369,1.9147960289737407
10.364108916604891,1.6044145792722704,0.8698797476291656,3.501497504711151,3.948584770904028
10.37413691659458,2.2504437620937825,1.5447723948955536,4.7864401012659075,5.510066036027568
10.384164916584268,2.520104630291462,1.9786428129673006,4.497441175282002,5.522040551648057
10.394192916573957,2.5138343685865405,2.2717935544252397,3.2295677706599237,4.680867138885729
10.404220916563645,2.2999119374156,2.506432963013649,1.9197862020134926,3.9060696587989248
10.414248916553333,1.9198054978251458,2.7936908805370333,1.048563056588173,3.548217350884381
10.424276916543022,1.227993932068348,2.9324768829345707,0.6679943946003915,3.248631446834171
10.43430491653271,0.17566007919609547,2.83985230922699,0.8781988736987114,2.9777257871420484
10.444331916514784,-0.4610497382283211,2.4437455487251283,0.8787072890996933,2.6375340126624365
10.454359916504472,-0.926347186267376,2.0172601640224457,1.148421220779419,2.4992656879959445
10.464387916494161,-0.8460456195473671,2.086965991258621,0.8911580577492715,2.421855264650805
10.47441591648385,-0.6528211623430252,2.4506686520576477,0.36028788685798646,2.561593190496403
10.484443916473538,-0.48405034571886063,2.531090086698532,0.2128892281651497,2.5857384994702937
10.494471916463226,-0.6221893537044525,2.4694534170627596,-0.24393823564052583,2.5582856825838505
10.504499916452914,-0.8868062674999238,2.4287018322944642,-0.3362458902597428,2.607312648108048
10.514527916442603,-0.9002414149045944,2.1976596307754517,-0.2911755520105362,2.39268168796816
10.524555916665122,-0.9544196686148644,1.8325302493572235,-0.03952483892440796,2.0665541927421494
10.53458391665481,-1.0131125575304032,1.3408694601058961,0.2537188732624054,1.6996179658735124
10.544611916644499,-1.073014650642872,0.9178128826618195,0.5867026019096375,1.5290391987002105
10.554639916634187,-1.301738138794899,0.5320340591669083,0.7419371142983437,1.5899852526612246
10.564667916623875,-1.150103172361851,0.014763050079345703,0.6907280766963959,1.3416633447557331
10.574695916613564,-1.091238082945347,-0.7763073402643205,0.7241033989191056,1.522425489981267
10.584723916603252,-0.9146070004999638,-1.6019581639766693,0.8422996008396149,2.027866993190041
10.59475191659294,-0.3826569950580597,-1.7631074273586274,0.5459615421295166,1.8849530980261713
10.604779916582629,0.14415374636650086,-1.4079031097888948,0.35613987207412723,1.4593858563196074
10.614807916572317,0.39849622517824174,-0.49285362124443055,0.254988888502121,0.6831714768011057
10.624835916562006,0.43773740105330944,0.1671163469552994,0.035705145299434665,0.4699114417647687
10.634863916551694,0.0049016477912664416,0.3689283174276352,-0.358253348171711,0.5142738482825048
10.644891916541383,0.41224770694971086,0.40229837715625766,-1.251746199131012,1.3779189755521868
10.654919916531071,0.9459759237617255,0.09184513986110687,-1.5842039707303048,1.8474328672324254
10.66494791652076,1.4138959211111068,-0.20912157475948334,-1.233163455426693,1.8877302817310564
10.674975916510448,1.5663325408101083,0.15916004061698916,-0.6351488301157951,1.6976877166685618
10.685003916500136,0.9489766417443752,0.6219513720273971,-0.4930784466862679,1.2371364234916604
10.695031916489825,0.3498312380164862,0.32072094798088074,-0.2765329545736313,0.5492852597067613
10.705059916479513,-0.3338231329992414,-0.3364908885955811,0.28192028671503067,0.5514916593156763
10.715087916469201,-0.2621976648643613,-0.8857333034276963,0.49037937194108966,1.045821700236996
10.72511591645889,0.1300002319738269,-0.886296975016594,0.49021097213029863,1.021141119255192
10.735143916448578,0.4299925081059337,-0.2000092738866806,0.49456480890512466,0.6851945832209061
10.745171916671097,0.5531532519310713,0.30648180842399597,0.07215990364551544,0.6364877616348112
10.755199916660786,0.04626960217952728,0.19634482383728027,-0.3790445852279663,0.42937974279672925
10.765227916650474,-0.4010929736495018,-0.030273959040641785,-0.417930908203125,0.5800502824225529
10.775255916640162,-0.7994781017303467,-0.01615585684776306,-0.2366274619102478,0.8339177432978205
10.78528391662985,-0.7916679026931525,0.21254453480243685,0.1550874549150467,0.8342453872218807
10.79531191661954,-0.5727911256998778,0.5780352741479874,0.42363018929958346,0.9174295554024151
10.805339916609228,-0.4045731633156538,0.8341491669416428,0.25734590113163,0.9621388621264199
10.815367916598916,-0.2689733087271452,1.0771652966737748,-0.31927960932254795,1.1552364200002907
10.825395916588604,-0.1496341223269701,1.191310547590256,-1.0345063501596452,1.5848705246438866
10.835423916578293,-0.1552277880907059,1.1878829097747803,-1.7380918693542482,2.110953533322294
10.845451916567981,-0.24151222586631776,1.1184653502702713,-1.9667156624794007,2.2753600576699706
10.85547991655767,-0.3614219543337822,0.9270117223262787,-1.8414191865921021,2.0930363549528477
10.865507916547358,-0.692792436182499,0.7017149949073792,-1.6583147978782655,1.9293452937645914
10.875535916537046,-1.3129457893967629,0.4185495436191559,-1.4612729859352112,2.008563941173519
10.885563916526735,-1.780612529218197,0.12583968222141267,-1.311543334722519,2.2150761891378536
10.895591916516423,-1.6651727047562601,0.0515104615688324,-1.5137187096476556,2.2509548632199796
10.905619916506112,-1.3432329046726228,-0.07084544956684113,-1.5536619168519974,2.0550326191561537
10.9156479164958,-1.2330886110663415,-0.5072137981653214,-0.7432498142123223,1.5264971818242778
10.925675916485488,-1.0929174032807352,-0.9840495568513871,-0.07035720705986023,1.4723355994197045
10.935702833114192,-0.7715939728170633,-1.686672039628029,-0.09171211570501328,1.8570489870538374
10.945730833336711,-0.2820250249654055,-2.2361670541763305,-0.5408215472102166,2.317858743499534
10.9557588333264,0.28292491145431997,-2.446492570638657,-1.0671840995550157,2.6840741990590775
10.965786833316088,0.6836411782354117,-2.3953803044557573,-1.4477352198958398,2.881171520489628
10.975814833305776,0.9380644948035479,-2.4475403916835785,-1.7402348738908768,3.1462416279808574
10.985842833295465,0.9738077931851149,-3.010579896569252,-2.2818311771750452,3.901108362096988
10.995870833285153,0.49718304589390755,-4.11957509636879,-2.7135778865218163,4.9579829469217085
11.005898833274841,-0.3874698382616043,-5.505267557501793,-2.750499837398529,6.166307899446278
11.01592683326453,-1.1469373436272146,-6.4287218338251115,-2.643588469326496,7.045032979487205
11.025953833246604,-1.539099718630314,-6.6431094110012054,-2.156342912614346,7.151891032950853
11.035981833236292,-1.4674824365973473,-5.7632157218456275,-1.3500031033158304,6.0984152480142475
11.04600983322598,-1.2190300042927267,-4.378396250009537,-1.0266655263304711,4.659445243418891
11.056037833215669,-1.086300182417035,-3.518036354184151,-1.175512247979641,3.865030002578343
11.066065833205357,-1.194618463665247,-2.8934443795681,-1.1511012920737267,3.3352912670406987
11.076093833195046,-1.202393871769309,-2.216578297019005,-1.0054839876294137,2.7147685755996234
11.086121833184734,-1.0026135894656183,-1.593498412370682,-0.8119864654541016,2.0503153952720687
11.096149833174422,-0.6030926397442818,-1.1169526755809784,-0.3325311541557312,1.3122046258436126
11.10617783316411,-0.35327773310244087,-0.6842762589454652,0.17644353300333024,0.7900452364270657
11.1162058331538,-0.27625583309680224,-0.33426836192607884,0.3793957105278969,0.5761889692381484
11.126233833143488,-0.1934644854068756,0.023429793119430543,0.13996363162994385,0.23993182468861673
11.136261833133176,-0.3095475035905838,0.5401038014888764,-0.5455686092376709,0.8277541185324447
11.146289833122864,-0.3823149694874883,1.203461646437645,-1.104861510694027,1.6778568556803988
11.156317833112553,-0.27053371131420134,1.5908940625190735,-1.554524381160736,2.240687050602794
11.166345833335072,-0.30662828117609026,1.7538419294357301,-1.44585621714592,2.2935742013118645
11.17637383332476,-0.5206802281737328,1.7373293924331665,-1.1675781610608102,2.1570025683826595
11.186401833314449,-0.9701065787672997,1.8776280695199967,-1.6171810975670815,2.6611780556635543
11.196429833304137,-0.9977846664190293,2.18700834274292,-1.1953392791748048,2.6846630559729854
11.206457833293825,-0.5894619029760361,2.0460471761226655,-0.6330242443084717,2.221372115576761
11.216485833283514,0.045226458907127384,1.4234543645381927,0.19582091331481935,1.4375721166604332
11.226513833273202,0.8680975162982941,0.7906394505500793,1.2227486872673035,1.69523402242384
11.23654183326289,1.019483025893569,0.39377781450748445,1.2748143419623374,1.6791540172825916
11.246569833252579,0.8192055109888315,0.19423339426517489,1.8524660387635232,2.034810729639114
11.256597833242267,0.9858542999625206,0.6640928399562837,1.6756588089466096,2.0544489394570418
11.266625833231956,0.28181744880974297,1.7876078456640245,0.34677760273218156,1.842611622152071
11.276653833221644,-0.881437500268221,2.3961018508672716,-1.0252399751544,2.751245745705616
11.286681833211333,-1.2103463043272495,2.796346685886383,-0.663025430738926,3.118348230373402
11.296709833201021,-1.1243323002755643,3.140396854877472,-0.20864298015832902,3.342117206313478
11.30673783319071,-0.8722987407445908,3.2713815021514896,0.3461867415904999,3.403334730198689
11.316765833180398,-0.20989209160208702,2.8133954125642777,0.22131038814783097,2.8298810444004467
11.326793833170086,0.7896169187128544,2.496826572418213,0.3148143830895424,2.637564389138455
11.336821833159775,1.1434230208396912,3.0077515983581544,0.4790126770734787,3.253219793805715
11.346849833149463,1.3836985605955126,2.9041868841648104,0.9661018207669259,3.358909926276406
11.356877833139151,2.156199948191643,1.9262137538194657,1.3923907390236856,3.209088595240687
11.36690583312884,2.9382448688149454,1.2317364424467088,0.7628327241539955,3.2760298133272285
11.376933833118528,2.8668708309531215,0.7152431130409241,0.28440038323402406,2.968401025822821
11.386961833108217,2.8882792416214946,0.18326694130897522,-0.006744763255119324,2.894095582593939
11.396989833330736,2.4974346828460696,-0.23339278221130372,0.014556058645248414,2.5083588389052442
11.407017833320424,2.0732513469457627,-0.8449583297967911,0.4461826077103615,2.282850114687476
11.417045833310112,1.5940106284618378,-1.3669620752334595,1.1545359465479852,2.3963322913668135
11.4270738332998,1.030080300271511,-1.9874896502494812,2.0421216478943824,3.030089331959558
11.43710183328949,0.7823606702685356,-2.428023555278778,2.799715266823769,3.787583950047539
11.447129833279178,0.2868524131178856,-2.6206261610984805,3.2674545121192935,4.198359771614868
11.457157833268866,-0.07487242698669434,-2.3515139079093936,3.1270710504055024,3.9132846681142883
11.467185833258554,-0.4819503182172776,-1.9977205234766007,2.3767522448301315,3.141992143919909
11.477213833248243,0.15244831413030624,-1.6441902637481691,1.519997742176056,2.2443251208561015
11.487241833237931,1.199556291103363,-1.0545085054636003,0.88090467274189,1.8239836967690333
11.49726983322762,1.703858468234539,-0.4791851699352265,0.7063448202610016,1.9056954405072044
11.507297833217308,1.6635655975341799,-0.1872155660390854,0.6832755079865456,1.8081387074228736
11.517325833206996,1.81615366011858,-0.06851825773715974,0.5790187758207321,1.9074516013672247
11.527353833196685,2.5933664417266846,0.38784873783588414,0.7163938450813294,2.7183076142676392
11.537381833186373,2.975910585522652,0.9000566428899766,0.7870171004533768,3.207107994727054
11.547409833176062,3.17969540655613,1.4949845230579377,0.7787684333324433,3.598877863364078
11.55743783316575,3.1482590210437778,2.190880953669548,0.9758698868751526,3.9577539404118136
11.567464833147824,2.870503998398781,2.7072555845975876,1.095427320599556,4.094995362619369
11.577492833137512,2.4862910592556,2.9579684042930605,0.6601295971870422,3.9200754325921707
11.5875208331272,2.3245541507005694,2.9385457080602646,0.029253912270069123,3.7469265631023183
11.597548833116889,2.2813993602991105,2.7862046903371813,-0.29377522408962253,3.613035219855877
11.607576833339408,2.2318886464834216,2.539413013458252,-0.09432260513305664,3.38213573604931
11.617604833329096,2.290840859413147,2.223137703537941,0.47524473130702977,3.227406179377459
11.627632833318785,2.057971403002739,1.8792208510637285,0.8985907459259034,2.9281705263378046
11.637660833308473,1.5789172106981277,1.5249175894260407,0.9857171827554704,2.406240132895938
11.647688833298162,1.0604296883940698,1.197760611176491,1.0286731678247452,1.9019227355273982
11.65771683328785,0.30009547948837284,0.7404440277814865,0.8106182169914246,1.1381636739964
11.667744833277538,-0.4898852822184563,0.20317554116249084,0.2540486562252045,0.5880549379018594
11.677772833267227,-1.0181701067090034,-0.4512916123867035,-0.43374762654304505,1.1951868009387232
11.687800833256915,-1.425354124903679,-1.2384747737646105,-0.9034275627136231,2.0932356550808877
11.697828833246604,-2.749625386297703,-1.574450522661209,-2.6730292001366616,4.145409427072818
11.707856833236292,-5.624964154958725,-1.1892388790845871,-6.114970182180405,8.393293226442903
11.71788483322598,-7.235006094574929,-2.3657325822114945,-6.831920682191849,10.228252247907957
11.727912833215669,-7.594083023071289,-6.577075050473214,-4.012917205095292,10.818110633368777
11.737940833205357,-5.208637722730637,-9.551995117664339,-1.018995441198349,10.927436541280803
11.747968833195046,-5.077734936475754,-9.106575863957406,-0.7136725509166718,10.450954241649416
11.757996833184734,-3.901519560813904,-8.470250866413117,-1.8958953559398652,9.516376612138679
11.768024833174422,-0.1353349757194519,-5.757809386253357,-0.6673357057571412,5.7979325132549295
11.77805283316411,2.039217920601368,-1.979535682797432,1.2694580000638962,3.1126347137266666
11.7880808331538,1.8849066835641861,1.3433510184288027,0.2573236817121506,2.3288796966843384
11.798108833143488,1.6855540519952774,2.958365430235863,-2.485241776406765,4.215381971803952
11.808136833133176,2.933767655789852,2.900610142350197,-2.965433252155781,5.080780080760702
11.818164833122864,4.251188904047012,1.214429268836975,-1.0718735665082932,4.54932505867404
11.828192833112553,4.0750769081711775,-1.8911099946498873,-0.0016372203826904297,4.492499471326095
11.838220833335072,3.466964726150036,-4.7687581211328505,-0.43133594244718554,5.911594465580831
11.84824883332476,2.681897379755974,-6.451320152878762,-0.4829958003759384,7.003241407638495
11.858276833314449,1.5292474526166917,-7.1194586813449865,-0.5620820233225823,7.303507779666942
11.868304833304137,0.3596558028459549,-6.2064229738712315,-0.45397373020648957,6.233388370287463
11.878332833293825,-0.10290207847952844,-3.718909261822701,-0.13127174556255342,3.7226478757208707
11.888360833283514,0.25633301720023155,-0.7792286092042924,0.26945665419101716,0.8634296321051573
11.898388833273202,0.872634663283825,1.2821137136220933,0.5297384423017502,1.638880608059841
11.90841683326289,1.163397840410471,2.4971814984083176,0.359619257748127,2.7782613234913436
11.918444833252579,1.3453140749037267,3.365763748884201,-0.253744016289711,3.6335411927264474
11.928472833242267,1.423340490013361,3.7319666790962223,-0.38761601865291595,4.012944009366726
11.938501041615382,1.5498789145052434,3.674242381453514,-0.20305362671613694,3.9929202975541247
11.94852904160507,1.552681338787079,3.208809278011322,-0.0990354609489441,3.5661021220647267
11.958557041594759,1.1745081348717212,2.4384766227006915,-0.10697656452655793,2.7087047797232398
11.968585041584447,0.689518433958292,1.7554668706655503,-0.02985763728618622,1.8862637894199499
11.978613041574135,0.11193003326654435,1.3767269253730774,-0.25605191230773927,1.4048017444432175
11.988641041563824,-0.5057693166285754,1.2137404668331147,-0.4661473408341408,1.3950848955665542
11.998669041553512,-1.2637666127085687,1.3292165440320969,-0.4278434005379677,1.8833408209109186
12.0086970415432,-2.0403566658496857,1.5287948781251908,-0.3684397825598717,2.5760467729899292
12.018725041532889,-2.6261780923604965,1.9743293219804765,-0.38881118953228,3.308468193217461
12.028753041522577,-3.0975157141685488,2.58184216439724,-0.19380040794610978,4.037086964569948
12.038781041512266,-3.251367067694664,3.253267997503281,0.17459668993949892,4.6027844264755915
12.04880804149434,-3.1652483984827997,3.9698483687639237,0.4240965047478676,5.094933889700128
12.058837041491643,-2.8764012077450754,4.548215764760971,0.7625400710105896,5.435201735964764
12.068865041481331,-2.1409439778327943,4.735647677779198,1.726448893547058,5.476369767127114
12.078892041463405,-1.2833536157011987,4.4603479009866716,2.498942387402058,5.2712819082576345
12.088920041453093,-0.772268083691597,3.9517272627353672,2.6175812235474587,4.80252827310812
12.098948041442782,-0.32096273034811024,3.4312993419170383,2.1908464550971987,4.083704254463682
12.1089760416653,0.2592024103738368,2.8331116390228273,1.5054027995467187,3.2186868498804473
12.11900404165499,0.856277662217617,2.390885549783707,0.8942945042252541,2.692453863535065
12.129032041644678,1.5952870756387711,2.1094555521011356,0.6088422068953514,2.713933015549133
12.139060041634366,1.8750082245469095,1.3601091384887696,0.14907213181257248,2.3211581616086314
12.149088041624054,2.117494596540928,0.5693784713745117,-0.04566236883401871,2.19318495845023
12.159116041613743,2.5371644666790965,-0.13251077055931093,0.17739750623703004,2.5468082987363543
12.169144041603431,2.7574852135777475,-0.6832214212417603,0.8460140445828438,2.9641619350458823
12.17917204159312,2.5620540171861648,-1.0492805099487306,1.3922767183184623,3.098958669603333
12.189200041582808,1.68830487459898,-1.3580164200067522,1.3222785302996636,2.538307006312292
12.199228041572496,0.4384549275040627,-1.2544277322292328,0.7294401526451111,1.5158873952669742
12.209256041562185,-0.08081754695624113,-0.7356615900993347,-0.08035039097070694,0.7444364555639731
12.219284041551873,-0.185260220579803,-0.09436528980731965,-0.20155147701501847,0.28956718587683966
12.229312041541561,-0.1626633633300662,0.352504073381424,-0.34706879407167435,0.5207448889223127
12.23934004153125,0.23790186256170273,0.38866208553314213,-0.5842023324966431,0.7409101688030858
12.249368041520938,0.13912430036813023,-0.020693880915641786,-0.333357073366642,0.3618159007338473
12.259396041510627,-0.1850662026554346,-0.3357570630311966,-0.2723077565431595,0.470248677844187
12.269424041500315,0.09136007677763701,-0.7431302386522294,-0.48446725219488146,0.8917946701328697
12.279452041490003,0.07357686672359705,-0.7676335805654526,-0.21579880267381668,0.8007771179073813
12.289480041479692,0.11755063276737929,-0.7475156503915787,-0.11212591499090195,0.7649640642911948
12.29950804146938,-0.4440633209422231,-0.6484205478429794,0.02545322209596634,0.7863137455152949
12.309536041459069,-0.5695062330365182,-0.5890274548530579,-0.25636064529418945,0.8584937230369069
12.319564041448757,-0.5601979773491621,-0.5205132901668549,-0.5579439488053322,0.946603036692205
12.329592041671276,-0.32463324688375,-0.1937393045425415,-0.609735076725483,0.7174249277076621
12.339620041660964,-0.32978961400687695,0.12461235165596009,-0.2907788184285164,0.4569920666036968
12.349648041650653,-0.40649075768888,0.3082535147666931,-0.077602199614048,0.516020413198391
12.359676041640341,-0.47422636561095716,0.2565769922733307,-0.12794789582490923,0.5541597809753319
12.36970404163003,-0.5530415701121092,0.18990762412548065,-0.11961561352014542,0.5968482042955752
12.379732041619718,-0.5076509506255389,0.27984715640544894,-0.44180362790822986,0.728844540524317
12.389760041609406,-0.7119859946519137,0.8020561391115189,-0.8260311850905419,1.3537154891664038
12.399788041599095,-0.6141204153746367,1.3948205494880677,-1.0779005840420723,1.8666917043080125
12.409816041588783,-0.9887501335144043,1.6256814873218537,-1.0396747040748597,2.1682690365909147
12.419844041578472,-1.3397254523634912,1.2897320508956909,-0.9327232825756073,2.080443648041634
12.42987204156816,-1.0995805978775024,0.7502960014343262,-1.0645183539390564,1.7044708583223425
12.439900041557848,-0.5461868792027236,0.6281511747837067,-1.4479369488358498,1.6701543082001231
12.449928041547537,-0.3949261345714331,0.7801670873165131,-1.8619420364499093,2.0570501897131
12.459956041537225,-0.5293990114331246,0.8840522289276124,-1.921514346599579,2.1803736012358654
12.469984041526914,-0.6531222939491272,1.1315473258495332,-2.1837397491931916,2.544737191479101
12.480012041516602,-0.8970016188919545,1.3368068146705627,-2.5920230439305305,3.0512698707769745
12.49004004150629,-1.0452609146386385,1.2176621943712236,-2.8039933821558956,3.230735285727725
12.500068041495979,-1.2239202500134707,0.6033601498603821,-2.9686965832114223,3.26728995529992
12.510096041485667,-1.5068070083856584,-0.39240079522132876,-3.2987192818522453,3.6477382917465806
12.520124041475356,-1.9012209999561311,-1.487764381170273,-3.065164239406586,3.9017068007591384
12.53015104145743,-2.301626925766468,-2.8684036785364153,-2.028075174093247,4.199799409522768
12.540179041447118,-2.4186302956938746,-4.278122933506966,-0.8199223065376282,4.982407142155734
12.550207041669637,-2.1871285030245784,-5.538491436839104,0.09120048433542252,5.95539553791565
12.560235041659325,-1.3867451061308385,-6.289171015620232,0.15303537458181382,6.442061306675748
12.570263041649014,-0.17864033192396164,-6.420247464179993,-1.0560094857215883,6.508966577225105
12.580291041638702,1.029640735834837,-5.956527010202408,-2.765643833577633,6.647492751584414
12.59031904162839,1.330548247396946,-5.663323643803597,-3.8850441536307336,6.995510089248408
