Time (s),Linear Acceleration x (m/s^2),Linear Acceleration y (m/s^2),Linear Acceleration z (m/s^2),Absolute acceleration (m/s^2)
0.021081625018268824,1.0820086915791036,1.1111376196146012,1.2555088824033738,1.9954127824009986
0.03110962500795722,1.0598573921620846,0.8634764617681504,1.1019574910402299,1.7559042125947353
0.04113662499003112,0.5530976302921772,0.9670821064710617,1.259424178004265,1.681461878673747
0.05116462497971952,0.3318869371712208,1.755930554866791,1.0030009675025942,2.0492564489079523
0.06119162496179342,0.8070724654197693,2.016779522895813,0.926457406282425,2.3615861055795038
0.07121862494386733,1.790954353362322,1.5895614820718766,1.7236492466926576,2.950455884560581
0.08124662516638637,1.662308153808117,1.0847555673122407,2.5143495082855227,3.203422621017636
0.09127362514846027,0.9789138742536306,0.4526060664653778,2.956825273633003,3.1473703823036776
0.10130162513814867,0.6527395936846734,-0.2355425110459328,2.9490683573484424,3.029612752149571
0.11132862512022257,0.4391580551862717,-0.7276783865690232,2.601182999610901,2.7365176098792876
0.12135662510991096,0.4249019587039948,-0.9596692988276482,2.329822492003441,2.5553042249149054
0.13138362509198487,0.5194879809021951,-1.1405108150839807,1.9219587349891663,2.2944624774936986
0.14141162508167326,0.4870276017487049,-1.2856214582920076,1.1769720053672792,1.8097738865129638
0.15143862506374717,0.06893297150731087,-1.3898077315092088,0.46536235213279725,1.467269369920251
0.16146662505343556,-0.48232439383864406,-1.7441893458366395,-0.3978656029701233,1.852870835500586
0.17149362503550947,-1.0404162771999836,-2.4750149962306023,-1.492699431180954,3.0718588595957637
0.18152162502519786,-1.0622968505322934,-2.396563196182251,-2.2027174723148346,3.4240259950513185
0.19154862500727177,-0.8787217609584332,-2.1137766444683077,-2.344677928090096,3.2768457733549883
0.20157662499696016,-0.8156292808055878,-2.2867460542917253,-2.280586597323418,3.3309959274093117
0.21160362497903407,-0.6616621524095536,-2.1982636481523516,-1.9107122004032135,2.986801128881704
0.22163062496110797,-0.3641704380512238,-1.548032509982586,-1.3271214866638184,2.0712981920231064
0.23165862495079637,-0.1769876164197922,-1.0101801788806917,0.03118203163146973,1.0260413876964474
0.2416856251657009,0.29428963288664817,-0.7985805541276932,-0.6716380870342255,1.084174805744187
0.2517136251553893,0.31185627669095994,-0.5675903928279877,0.06580339550971985,0.6509556653127666
0.2617406251374632,-0.07834976613521576,-0.465323760509491,0.3970218497514725,0.6166775795569496
0.2717686251271516,-0.40732581317424776,-0.4330301731824875,0.3630623906850815,0.6965943930972199
0.2817956251092255,-0.606560038626194,-0.37098215192556383,-0.09593702137470246,0.7174585350915983
0.2918236250989139,-1.5270968466997148,-0.6461617684364319,-1.366308941245079,2.1485692758473856
0.3018506250809878,-2.201722568571568,-1.0389212903380394,-1.6446235424280167,2.937979971474196
0.3118786250706762,-2.315417291522026,-1.221366990208626,-1.4847051179409028,3.0095255183982714
0.3219056250527501,-2.032102736234665,-1.2106554758548738,-1.196048546433449,2.650596222976138
0.3319336250424385,-1.7010959511995316,-1.0049355188012123,-0.8781155508756638,2.162107710736302
0.3419606250245124,-1.394074444770813,-0.739717657417059,-0.6262894213199616,1.6978999409608697
0.3519886250142008,-1.0649329215288164,-0.5058835566043854,-0.6033057707548142,1.3243784025816274
0.3620156249962747,-0.8760684406757355,-0.5008822868764401,-0.47111835122108464,1.113701701045599
0.3720436249859631,-0.9700244253873825,-0.5790117591619491,-0.39397603511810303,1.1964192907769906
0.382070624968037,-1.0936480128765107,-0.639782602339983,-0.5341039735078812,1.3750108395363903
0.3920976249501109,-1.6475594294071199,-0.7530642195045948,-0.4966478794813156,1.8783548408965933
0.4021256249397993,-1.929615079164505,-0.6923598884046078,-0.6361577671766282,2.146502567794838
0.41215262515470386,-1.8384797912836075,-0.48498107627034187,-1.2447845041751862,2.272598303513672
0.42218062514439225,-1.644716513156891,-0.213662376254797,-1.9330970960855485,2.5470784052659607
0.43220762512646616,-1.5615387010574342,-0.03326320186257362,-2.1760798966884614,2.6785879250586406
0.44223562511615455,-2.075101990699768,-0.2898314233124256,-2.0963425862789156,2.9638999248949043
0.45226262509822845,-2.7279301697015765,-0.8467483086884022,-1.827914457321167,3.3911439032159163
0.46229062508791685,-2.8846525061130524,-1.3583011794090272,-1.8909123587608339,3.7069868793297243
0.47231762506999075,-2.829167692065239,-1.773047547787428,-2.6137404799461366,4.240227202998658
0.48234562505967915,-3.2025562655925754,-1.7701227705180647,-3.7998107528686527,5.275250042851908
0.49237262504175305,-3.722873089313507,-1.8222460202872754,-4.9177668106555945,6.431546859160182
0.5024006250314415,-3.934845766425133,-2.418344074487686,-5.947106561064721,7.529905425489921
0.5124276250135154,-4.01042395234108,-3.2814644408226017,-6.645741827487946,8.427181829741011
0.5224556250032037,-4.412964988946915,-4.051360309123993,-6.815154960751534,9.073814935685693
0.5324826249852777,-4.523456899523735,-4.598685129582882,-6.708151499032975,9.306388331510455
0.542510624974966,-4.143792509436608,-5.125465173125267,-6.599992042779923,9.327448984955172
0.55253762495704,-3.711825360059738,-5.626962148547173,-6.215890785455704,9.169386499732594
0.5625646249391139,-2.899032563567162,-6.048159311413765,-5.833311558365822,8.88887757806508
0.5725926251616329,-1.3647372096776964,-6.190385230779648,-5.123963608145714,8.150974175798577
0.5826196251437068,0.5086720937490463,-6.365241537094117,-4.4041123044490815,7.757013105229816
0.5926476251333952,2.2106579911708835,-6.0791489696502685,-3.991755546927452,7.6011297381082565
0.6026746251154691,3.582207207083702,-5.944345505833626,-3.4458653408288957,7.748641165671094
0.6127026251051575,4.350148351192475,-6.393459030389786,-2.902203508615494,8.259715143761037
0.6227296250872314,4.8955029523372655,-6.985584924817085,-1.5962354940176011,8.678266742301496
0.6327576250769198,5.938729255199433,-7.5993829393386845,0.011177537441253663,9.644648835629877
0.6427846250589937,6.962365631461144,-6.938439409732819,1.781270633339882,9.989464535093155
0.6528126250486821,7.789681742191315,-7.178781023025513,4.396612080931663,11.469273578190304
0.662839625030756,7.863231528997422,-7.886566012501717,6.4464885985851295,12.86800484923185
0.6728676250204444,7.6747342532873155,-7.829717627763748,8.532766372561456,13.892952384493787
0.6828946250025183,7.271662289500237,-7.150574054718018,9.874234002828599,14.195361175650403
0.6929226249922067,7.601244108080865,-6.0138718235492705,9.141577881574632,13.323438462559446
0.7029496249742806,9.021325213909149,-4.283709948062897,8.041242408156396,12.821702656081946
0.712977624963969,10.757965804338456,-2.7488155469298365,7.264943253993988,13.269107567659232
0.7230046249460429,12.318614559173584,-1.331492865085602,5.770612449645997,13.668251751824979
0.7330316251609474,13.02755437374115,0.3432195720076561,3.5879547277092936,13.516966810770928
0.7430596251506358,11.868304109573366,2.62016247689724,1.3548960533738137,12.229375992179824
0.7530866251327097,10.885628063678743,4.651292236447334,-0.6362118539214134,11.854795794641744
0.7631146251223981,10.09538271546364,5.450347584486008,-2.724969724416733,11.791882842124165
0.773141625104472,7.8501606631279,5.492737559080124,-4.25326261907816,10.482625207298874
0.7831696250941604,5.19933772623539,5.013129050731659,-5.182435179948807,8.889443743289865
0.7931966250762343,2.8855518078804017,4.1591683477163315,-5.437070896625519,7.428783919023321
0.8032246250659227,0.5441921746730805,3.367265606224537,-5.238767255544663,6.251344266924121
0.8132516250479966,-2.3848278343677523,1.8482607212662698,-4.122320656478405,5.108522201985565
0.823279625037685,-3.9655389708280566,0.6117713695764542,-2.6421860146522524,4.804259617653218
0.8333066250197589,-4.147083907127381,0.7601362806558609,-1.757559589147568,4.56783622816414
0.8433346250094473,-4.418939673900605,1.2249954798817635,-1.596400093138218,4.855526235607758
0.8533616249915212,-4.652000918984413,1.8091293999552727,-1.5807000267505646,5.235711442639251
0.8633896249812096,-4.720737862586975,2.3969052582979202,-1.6145770400762558,5.5351043172518315
0.8734166249632835,-5.02515326499939,2.58903950214386,-1.8436952152848245,5.945965264552048
0.8834446249529719,-4.68068618953228,3.022355019450188,-2.110072140991688,5.9578400036139945
0.8934716251678765,-4.463948031663895,3.005236126184464,-2.2788721936941148,5.843931440281653
0.9034986251499504,-4.267903169989586,2.7391243717074394,-2.4795962896943093,5.6450152835891085
0.9135266251396388,-3.3218359565734863,2.697624928057194,-2.6166725662350654,5.015849847607808
0.9235536251217127,-2.3953498989343642,3.0694897171854976,-2.669870241880417,4.7209824582083515
0.9335813750512898,-1.5056738179922105,3.631469121873379,-2.637934211790562,4.734270644464905
0.9436083750333637,-1.0685593646764755,3.686003471016884,-2.6574297058582306,4.668015996733952
0.9536363750230521,-0.9112774497270585,3.5073078829050064,-2.6675491896271706,4.499717086100994
0.963663375005126,-1.0016718953847885,3.232116279602051,-2.7535576388239864,4.362568268944142
0.9736913749948144,-0.8666152471303941,2.8359604024887086,-2.789124789834023,4.070983970038383
0.9837183749768883,-0.7871960252523422,2.0904333901405336,-2.5659348142147067,3.402001001114872
0.9937463749665767,-0.7749244737625123,1.0775383490324022,-2.3005536693334583,2.655963858781821
1.0037733749486506,-0.8657691550254822,0.157302964925766,-1.77620957583189,1.9822262509221487
1.013801374938339,-1.2022857713699342,-0.4725930190086365,-0.6212201777100563,1.4334398302155584
1.0238283751532435,-1.0199181318283081,-1.026675758957863,0.5533369275927544,1.54934756110488
1.033856375142932,-0.4561354458332062,-1.1879904985427856,1.5879444345831872,2.0349320619856357
1.0438833751250058,0.4809358263015747,-1.0643914693593979,2.6018639078736308,2.8520035526206624
1.0539103751070797,1.3770596319437027,-0.8508382898569108,2.857602117061615,3.284221199135433
1.0639383750967681,2.1974900615215303,-0.563737662434578,3.0890115237236024,3.8325911491092177
1.073965375078842,2.75799479842186,-0.1726407963037491,3.3482899296283724,4.341357576325774
1.0839933750685304,3.332292532324791,-0.283551367521286,3.683848187327385,4.975471069786862
1.0940203750506043,3.7027545744180683,-1.0099421972036362,4.024978841543198,5.5615491865969195
1.1040483750402927,3.436205740571022,-1.452100458741188,4.229588704705239,5.6396388399240385
1.1140753750223666,3.4569341200590133,-1.8571932202577592,3.8952507609128952,5.529243949962061
1.124103375012055,3.3495283699035645,-2.095720442533493,3.51562671661377,5.288763152629367
1.134130374994129,3.2689011132717134,-2.0730414319038393,3.157107612490654,4.995051926014924
1.1441583749838173,3.5900524163246157,-1.8914859706163407,3.3891724920272828,5.287029951656325
1.1541853749658912,4.064671495556832,-1.5305589830875397,3.8492755660414697,5.803540949353769
1.1642133749555796,4.329157431721687,-1.1811551034450531,4.32688637316227,6.233672844582298
1.1742403749376535,4.849492381811142,-1.293391238451004,4.612985372543335,6.816896016827959
1.1842683751601726,5.114187648296356,-1.644891929626465,4.717732393741608,7.149656194607977
1.1942953751422465,4.8656283581256865,-1.5494063133001328,5.163260990381241,7.261836083104868
1.2043233751319349,4.609512126445771,-1.0671145176887513,5.878546203374863,7.546101039803649
1.2143503751140088,4.58805050611496,-0.6397350937128067,6.491864161491394,7.975197096501493
1.2243773750960827,4.539481194019318,-0.12012812197208406,6.973668884038926,8.3218614492646
1.234405375085771,4.476272208094597,0.4448123127222061,7.119078027606011,8.42117229592484
1.244432375067845,4.321005828380585,0.9626019698381424,6.8982082271575935,8.196521863965225
1.2544603750575334,3.8856426161527637,1.3922161996364595,6.162428523302078,7.417008142896953
1.2644873750396073,3.3012028867006302,1.4751419967412949,5.041096283197403,6.203759839498717
1.2745153750292957,2.7501297086477283,1.2990992903709413,3.831937694549561,4.892302001669452
1.2845423750113696,2.3901803755760196,0.9733158230781556,2.803744583129883,3.8106809898852974
1.294570375001058,2.047772104740143,0.9176117384433746,2.0679485070705415,3.05152304978616
1.3045973749831319,1.7629729413986206,1.0921283215284348,1.6392563831806184,2.643478646137816
1.3146253749728203,1.539921544790268,1.2494804030656814,1.4322531084716321,2.44620289601682
1.3246523749548942,1.2603456991910935,1.2489944994449615,1.2989338141679765,2.1990196894757954
1.3346803749445826,0.9310047858953476,1.1153838676214218,1.2461738026142122,1.9141055952669197
1.3447073751594871,0.6136974424123764,0.6824297082424164,1.1277125756442548,1.4539843571309565
1.3547353751491755,-0.17396986842155457,0.1643184542655945,0.9560523574054242,0.9855466400081307
1.3647623751312494,-0.8119560599327088,-0.4206732523441315,0.7773801581561566,1.2002327019349743
1.3747893751133233,-1.5650914692878723,-0.920112007856369,0.6614406891167164,1.93225805715964
1.3848173751030117,-2.1997248673439027,-1.443554168343544,0.5645369768142701,2.6909738250573465
1.3948443750850856,-2.767743276357651,-1.842770478129387,0.37859888121485713,3.346571826772187
1.404872375074774,-3.062198531627655,-2.1950342309474946,0.29092236757278445,3.778871649856341
1.414899375056848,-3.830655400156975,-2.4877993485331538,0.49560868307948114,4.594419915512463
1.4249273750465363,-4.37640059530735,-2.6764781802892688,0.22979309007525445,5.1350971251201685
1.4349543750286102,-4.547890659570694,-2.920280760526657,-0.19216289520263674,5.4081675038782935
1.4449823750182986,-4.699866226315499,-2.862259424328804,-0.6166988182067872,5.537290762620091
1.4550093750003725,-4.795583392381668,-2.8505725944042206,-0.8011451429128648,5.636064028137735
1.465037374990061,-4.525909806489945,-3.1969169184565547,-1.1495440323650838,5.659115553011953
1.4750643749721348,-4.111296023726464,-3.485750075876713,-1.4194386430084707,5.573868911936239
1.4850923749618232,-3.4667211896181107,-3.707865333259106,-1.5499232071638107,5.3074177416363995
1.4951193749438971,-3.2115843665599826,-3.4471526053547863,-1.4435787266492843,4.927581026038146
1.5051473751664162,-3.120889958739281,-3.3031266206502914,-1.4778305464982988,4.778554460375203
1.51517437514849,-2.979681454896927,-3.2619528669118885,-1.7624023993313314,4.756563916923664
1.525201375130564,-2.565802667140961,-3.148974135518074,-1.9152831150591374,4.490845225979192
1.5352293751202524,-1.887685865163803,-3.05727751493454,-1.803453800082207,4.020292195586595
1.5452563751023263,-0.9816481053829194,-3.1101141250133515,-1.9956218115985394,3.823473458563205
1.5552843750920147,-0.6510453629493713,-3.0639424636960033,-1.989707645326853,3.7108678229397425
1.5653113750740886,-0.4659956055879593,-2.9633186066150667,-1.658200192451477,3.4275409475284855
1.575339375063777,0.08192358434200288,-2.9369649133086204,-0.8236979998648167,3.0513853854697954
1.5853663750458509,1.123804442882538,-2.8494394040107727,0.37333412133157257,3.0857121883160485
1.5953943750355393,2.2940194058418277,-2.601308130025864,1.68979269862175,3.8580731442046203
1.6054213750176132,3.2292417883872986,-2.33290280520916,2.4175750194489956,4.659947102820308
1.6154493750073016,3.5920492404699327,-2.04642549097538,2.5536626780033114,4.859204472863998
1.6254763749893755,3.2135192102193835,-1.8367794209718704,2.052249902486801,4.232280002316937
1.6355043749790639,2.170488204360008,-1.8043323442339898,0.9824977058172226,2.9886344700633707
1.6455313749611378,0.9300031578540803,-1.7404839652776718,-0.1039360123872757,1.9761055138018861
1.6555593749508262,-0.04472125947475433,-1.5824650087952614,-0.9011846438795329,1.821628188592468
1.6655863751657307,-0.6384837895631791,-1.3472429251670839,-1.1896394133567811,1.90734553313226
1.6756133751478046,-0.8360471731424333,-0.9477915573120118,-1.1114609706401826,1.6830416516200064
1.685641375137493,-0.6233693218231201,-0.4818751814961434,-1.079729300737381,1.3366407014613133
1.695668375119567,-0.32929179668426517,0.1771384745836258,-0.9422343635559083,1.0137143199180787
1.7056963751092553,0.15907174766063692,0.7584727478027344,-0.9281414043903351,1.2091448203614417
1.7157233750913292,0.8259554636478424,0.9281580689549447,-1.1792500805854798,1.7129829483847043
1.7257513750810176,0.7427180099487305,1.2592613330483438,-1.1578434240818025,1.8649317794231421
1.7357783750630915,0.5846964222192764,1.5150670775771142,-1.129858649969101,1.9783525278938734
1.74580637505278,0.4855609738826752,1.6010179316997528,-1.0087920498847962,1.9536348883281174
1.7558333750348538,0.3331287395954132,1.541873345375061,-0.8654218304157257,1.7992507092905692
1.7658613750245422,-0.1588606631755829,1.4199317094683648,-0.6643840312957764,1.5757058452957409
1.7758883750066161,-0.684067513346672,1.2047170436382295,-0.45058055441826583,1.456816513521386
1.7859163749963045,-1.159687051177025,0.9926660138368607,-0.31054799873381855,1.5577868696365385
1.7959433749783784,-1.7837399125099183,0.9608346489071846,-0.3221219773963094,2.0515101428808955
1.8059703749604523,-2.2152205735445025,0.9878476157784463,-0.4887196032330394,2.474245733963839
1.8159983749501407,-2.2823337453603747,0.9721045723557473,-0.7700467264652252,2.59750006462858
1.8260253751650453,-2.271258534193039,1.1519158092141153,-1.098919862508774,2.7736528666865334
1.8360533751547337,-2.239386531114578,1.421482975780964,-1.293492980003357,2.95103201871658
1.8460803751368076,-2.269948757886887,1.5858417758345604,-1.5010457468032838,3.1497142466278687
1.856108375126496,-2.3512782651185993,1.6575827264785767,-1.6211557424068452,3.3021562525534693
1.8661353751085699,-2.48044559776783,1.7190419331192972,-1.5978873324394227,3.414814703388562
1.8761633750982583,-2.641362726688385,1.739753648042679,-1.540507435798645,3.5180538610952827
1.8861903750803322,-2.917469419240952,1.7187071800231934,-1.4089006447792054,3.6675036754894568
1.8962183750700206,-3.112379336357117,1.604352014064789,-1.244907295703888,3.7162675755808117
1.9062453750520945,-3.202268582582474,1.3816382941603662,-0.9805289483070374,3.6228283797819127
1.9162733750417829,-3.113271621465683,1.1262316220998765,-0.6239260498434306,3.3689971165488566
1.9263011666480452,-2.8460421717166904,0.9266395470499993,-0.23531870886683465,3.0023310590422296
1.936328166630119,-2.654761621356011,0.782015099823475,0.019638458490371706,2.767614957256264
1.9463561666198075,-2.4986117273569106,0.4901270645856858,0.0814715214818716,2.547532671495586
1.956383166834712,-2.4650405234098436,-0.13396789669990541,-0.08218495488166809,2.470045859130509
1.9664111668244004,-2.383649035692215,-1.1727859836816787,-0.19510864935815336,2.663696130179077
1.9764381668064743,-1.9343846529722215,-2.5081713402271273,0.26574082173407076,3.1785823320982427
1.9864661667961627,-0.914726722240448,-4.047213171422482,1.314644697904587,4.3525797078336215
1.9964931667782366,0.6436807948350907,-5.194970440864563,2.851149129867554,5.960796440731775
2.006521166767925,2.3934249955415727,-4.977188555002213,4.419573512077331,7.073437576594831
2.016548166749999,3.876268944740296,-3.710815253555775,5.321656215190888,7.557488713234051
2.0265761667396873,5.086481201648712,-2.4514700129628184,5.528336577415467,7.902183340847731
2.0366031667217612,5.726934333443642,-1.6088660645484925,5.3404316246509556,7.994150161887339
2.0466311667114496,5.298834532499313,-1.0676664948463441,4.833228936195374,7.251045517489251
2.0566581666935235,4.31601581454277,-0.8308843740820885,4.020931398868561,5.957033713928784
2.066686166683212,3.0558443623781204,-0.7082577368617058,3.5177305448055267,4.713198698841413
2.076713166665286,1.9947934073209763,-0.400028780400753,3.464022699594498,4.017297229026761
2.0867401666473597,1.0856390815973282,-0.024648060500621797,3.6160678482055664,3.7756014653567407
2.096768166637048,0.4441556704044342,0.4600434324145317,3.718120472431183,3.7727091150487655
2.106795166619122,0.044088590741157535,0.9644973447918892,3.5883999931812287,3.7160211844131337
2.1168231666088104,-0.25214421808719634,1.4134743368625642,3.1107947409152987,3.4261538680844663
2.126850166823715,-0.6502787929773332,1.8469860282540322,2.1546194458007815,2.9114609482843026
2.1368781668134034,-1.1009827601909639,2.3236270746588708,0.9137362039089203,2.728794545336702
2.1469051667954773,-1.5621047115325928,2.7420587968826293,-0.3732090640068054,3.1777889452905104
2.1569331667851657,-2.0515745490789414,3.140091045498848,-1.4827772909402848,4.033330931002157
2.1669601667672396,-2.2717841988801957,3.4945606604218487,-2.177785529494286,4.702734041823376
2.176988166756928,-2.3207581382989884,3.7277885511517526,-2.3833631068468093,4.996273162834228
2.187015166739002,-2.1550369369983673,3.659687784612179,-2.1975719225406647,4.781926519239498
2.1970431667286903,-1.7762116223573685,3.246747767329216,-1.9593481707572937,4.187522423379318
2.207070166710764,-1.7263600158691408,2.9614165073633196,-1.2340589565038682,3.643241433476936
2.217097166692838,-1.4942606377601624,2.5521912261843682,-0.6276225864887238,3.0233102751194214
2.2271251666825265,-1.1393270462751388,2.029051951467991,-0.22037512600421907,2.33745227465535
2.2371521666646004,-0.7969731545448303,1.5351510939002038,0.19458598136901856,1.740608742455775
2.2471801666542888,-0.3610474401712418,0.945934189260006,0.48400159455835823,1.1222318334462915
2.2572071666363627,-0.07400762379169465,0.4150739586353302,0.5845297765731812,0.7207208746922694
2.267235166626051,0.06908075988292695,0.003678775727748871,0.4828337594121695,0.48776441445122504
2.277262166608125,0.12048480212688446,-0.29175121039152146,0.27008515678346157,0.41542911335535854
2.287290166830644,0.13965314447879792,-0.5002813392877579,-0.01641379214823246,0.519667039338704
2.297317166812718,0.13046015202999114,-0.5694755351543427,-0.14857782281935217,0.6028246891433298
2.3073451668024063,0.12698164343833923,-0.5783472231030464,-0.14846555627882482,0.6104521845668892
2.31737216678448,0.141310830116272,-0.548574370443821,-0.0935688990354538,0.5741582791205674
2.327399166766554,0.20667100667953492,-0.5135676750540734,0.00968715526163578,0.5536772551220086
2.3374271667562425,0.26087294161319735,-0.3887974485754967,0.04354070663452149,0.4702275415359804
2.3474541667383164,0.32492217242717747,-0.1722943487763405,-0.15274564504623414,0.39823484633523704
2.357482166728005,0.3167261302471161,0.061426169872283935,-0.5271411821991205,0.6180343371502737
2.3675091667100787,0.3635868859291077,0.27118129044771194,-0.9488183283805848,1.0516610367316266
2.377537166699767,0.5364446139335632,0.4065916952490807,-1.2380654686689379,1.4092181290255557
2.387564166681841,0.7874766916036606,0.417297654747963,-1.332758933454752,1.603278904988351
2.3975921666715294,1.0040786093473435,0.23846933484077454,-1.4295939409732819,1.7631733645548915
2.4076191666536033,1.283910562992096,-0.10771272897720338,-1.5373399990797043,2.0058520978668346
2.4176471666432917,1.7677015846967699,-0.48563230991363526,-1.6105173182487489,2.440158532831559
2.4276741666253656,2.241649988293648,-0.7482711106538773,-1.666757592558861,2.89188263894106
2.437702166615054,2.7781033730506897,-1.0393797120451929,-1.80382305175066,3.471591297833579
2.4477291668299586,3.4178852444887164,-1.2589862215518952,-1.731769859790802,4.0331145158340185
2.457757166819647,3.9518658417463306,-1.2259669947624208,-1.4909259706735611,4.398079007184516
2.467784166801721,4.42106455206871,-1.0966493886709214,-1.3974330854415895,4.764585069396664
2.4778111667837948,4.963588516116142,-0.9177000313997269,-1.289905128479004,5.209917422131328
2.487839166773483,5.294400004148484,-0.5470117020606995,-0.9070873349905014,5.399324090978331
2.497866166755557,5.917407968044281,-0.43384235143661504,-0.9460262829065323,6.008236178290926
2.5078941667452455,6.262407140135766,-0.3659123235940933,-0.8848015496134758,6.335180249967625
2.5179211667273194,6.5051028424501425,-0.3607179495692253,-0.6357373523712159,6.546040208492025
2.5279491667170078,6.53589018702507,-0.42473326653242116,-0.2677109679579735,6.555145158340501
2.5379761666990817,6.379829755425454,-0.3764642089605332,0.24147831201553346,6.395487845662296
2.54800416668877,6.190601577758789,-0.3471208342909813,0.7559812492132187,6.246242744027041
2.558031166670844,6.074523237347603,-0.3124857294559479,1.372259360253811,6.23542906655138
2.5680591666605324,6.159170454740525,-0.17428357154130936,2.0282807037234307,6.4868850819907875
2.5780861666426063,6.6659012728929525,-0.18660131603479385,2.50035916775465,7.121857608719549
2.58811316662468,7.063738809227944,-0.2699428501725197,2.628186318576336,7.541660190734141
2.5981411666143686,6.966667428016663,-0.35564519762992863,2.352496824860573,7.361737557816403
2.608168166829273,6.418186320662499,-0.47273715287446977,1.763770501613617,6.672891610449659
2.6181961668189615,5.760393855571747,-0.4526522594690323,1.2206103605031968,5.905668555843522
2.6282231668010354,5.215148597359658,-0.507045690715313,0.8842378780245781,5.313826008625873
2.638251166790724,4.414941347837448,-0.6125104576349258,0.5853606659173965,4.49550033642087
2.6482781667727977,3.3262979668378834,-0.7050824064016342,0.3902121824026108,3.422523179074521
2.658306166762486,2.2214221304655077,-0.8378334975242615,0.18171976804733278,2.3811138833316705
2.66833316674456,1.1633462387323381,-1.0082763254642486,-0.15588735401630402,1.5473514425645423
2.6783611667342484,0.007748730182647706,-1.140425153374672,-0.615190236568451,1.2957965119717811
2.6883881667163223,-1.1928840333223343,-1.238565113246441,-1.0985509032011032,2.0405464816147876
2.6984161667060107,-2.252894768714905,-1.3528147369623185,-1.585703196823597,3.069217682058734
2.7084431666880846,-3.102171267271042,-1.4548948431015016,-2.1948725554347037,4.069109375596315
2.718471166677773,-3.9942698496580125,-1.5745969954133034,-2.615994581580162,5.027621204974418
2.728498166659847,-4.841075314879418,-1.7025165322422982,-2.8924535688757897,5.8907436198662975
2.738525166641921,-5.525684865117073,-1.8887243306636812,-3.1939702141284942,6.655968641344765
2.748553166631609,-6.145278639793396,-2.0230519773066047,-3.3719737842679027,7.29571079918709
2.758580166613683,-6.7285594511032105,-2.0688171109557154,-3.4740114980936054,7.8499855040949
2.768608166836202,-7.116596469283104,-2.125705987662077,-3.5717047306895258,8.241458968885611
2.778635166818276,-7.374923533201218,-2.116706684231758,-3.6260168856382373,8.486338595800321
2.7886631668079644,-7.583114231228829,-2.109205875992775,-3.6641600275039674,8.682075764374872
2.7986901667900383,-7.82574912250042,-2.2445161472260953,-3.76667692065239,8.970398936950916
2.8087181667797267,-8.001444504261018,-2.449359606653452,-3.9933822423219683,9.271978126094066
2.8187451667618006,-8.097585008740426,-2.715755681991577,-4.150106917619706,9.495767442693726
2.828773166751489,-8.18539089202881,-2.9662316894531253,-4.226172468960286,9.677793561975891
2.838800166733563,-8.324159937500955,-3.254694133400917,-4.284266895353794,9.91158995306579
2.8488281667232513,-8.324371606707574,-3.489594620168209,-4.3141473367810255,10.004214137208427
2.8588551667053252,-8.294127468466758,-3.632494431138039,-4.273767342567444,10.012624708527712
2.868882166687399,-8.223621742129327,-3.830070970952511,-4.173997178971768,9.985972694245643
2.8789101666770875,-8.203420781493188,-3.7864469414949418,-3.9944815188646317,9.878723377215389
2.8889371666591614,-8.018747000098228,-3.7729088830947877,-3.8740475875139238,9.671783165582362
2.89896516664885,-7.4354638499021535,-3.77024109095335,-3.678742398619652,9.112298622329973
2.9089921666309237,-6.659092774987221,-3.6121999150514603,-3.127906325161457,8.19605409884353
2.919020166620612,-6.043814245462418,-3.4254068103432656,-2.5701500719785693,7.407210935466326
2.9290496667381376,-5.233197782635689,-3.525884194672108,-2.133062223494053,6.660943839706132
2.939077666727826,-4.14384513437748,-3.801447973251343,-1.494080835878849,5.818482339509255
2.9491046667099,-2.850198372602463,-3.862335614562035,-0.4864310395717621,4.824715775976745
2.9591326666995883,-1.4471104449033738,-3.748333035707474,0.5206650254130364,4.051570220915936
2.969159666681662,-0.08381632804870606,-3.3718635642528536,1.2798694060742857,3.607569094194659
2.979186666663736,1.144909383058548,-2.949405156970024,1.5432380855083467,3.5201409153527283
2.9892146666534245,2.565922535061836,-2.7816754370927814,1.3500726851820946,4.0180060911524595
2.9992416666354984,4.018294304609299,-2.844961021542549,1.1959317483007907,5.066630544962376
3.009269666625187,5.217193368673325,-3.0843784824013714,1.5504384930431843,6.255905752929749
3.0192966666072607,6.914928340315819,-3.3962368056178094,1.9354565937817099,7.943340016513774
3.0293246668297797,8.531824386119842,-3.7138856264948847,2.183665343374014,9.557895591296615
3.0393516668118536,9.293120169639588,-3.615308294892311,2.4027448725700378,10.25698393667168
3.049379666801542,9.61043102145195,-3.326873917579651,2.0861748629808425,10.381743593466894
3.059406666783616,9.471443290114403,-2.8329850468039512,1.4139504463970662,9.986656003794984
3.0694346667733043,9.119031018018722,-2.2472007501125337,0.6092775321006775,9.411581005868069
3.0794616667553782,8.57461138665676,-1.620720417201519,-0.07205626174807549,8.726734051624053
3.089488666737452,8.080574873685837,-0.9247924116253853,-0.3990041289478541,8.143103559992358
3.0995166667271405,7.599158990979195,-0.5975164425373077,-0.024392975717782976,7.622652969048685
3.1095436667092144,7.124504828453064,-0.8236016669869424,0.8480713143199683,7.221918977023149
3.119571666698903,6.450500957965851,-1.3914578157663346,1.8175126992166044,6.844594208102421
3.1295986666809767,5.584587376713753,-2.069870194494724,2.436067423671484,6.434780748625522
3.139626666670665,4.508858156204224,-2.636784649193287,2.526558494567871,5.802235171506218
3.149653666652739,3.570054354071617,-2.838042888343334,2.1362473480403423,5.0362017691025125
3.1596816666424274,2.815395745038986,-2.8392175939679145,1.5214436124265194,4.278130481048239
3.1697086666245013,2.193166630268097,-2.796703950762749,1.1153480534255504,3.7249878035523354
3.1797366666141897,1.8879408037662506,-2.574558287858963,0.919196333885193,3.3222872778158137
3.1897636668290943,1.920143759250641,-2.1520574882626535,0.8908078095316887,3.0185827870872104
3.1997916668187827,1.7362172520160677,-1.5541840732097627,0.8882698255777359,2.4937846263558963
3.2098186668008566,1.247826225757599,-0.9017347937822342,0.8702602551877499,1.7684877267782748
3.2198456667829305,0.7646479922533036,-0.37417151570320134,0.687743511646986,1.0943865921296585
3.229873666772619,0.0763242906332016,0.18654956817626955,0.6700895981490612,0.6997472459931403
3.239900666754693,-0.5157659357786178,0.7652128332853317,0.7854329435527325,1.2118044766182654
3.249928666744381,-0.9588147282600403,1.0557264804840087,1.0050135791301729,1.744688046316466
3.259955666726455,-1.5160695827007296,1.1420881015062332,1.321783855855465,2.312994762811325
3.2699836667161435,-2.0550086188316348,1.1271736085414887,1.6019792139530182,2.838999501444527
3.2800106666982174,-2.2281247937679294,1.1313397496938706,1.8064636543393136,3.0834689329211207
3.290038666687906,-2.0506962972879412,1.188792736530304,1.9383069652318956,3.061962992200291
3.3000656666699797,-1.5651797622442247,1.3594121503829957,2.0345144203305248,2.904657984906426
3.3100926666520536,-1.220089373588562,1.769250512123108,2.07891817599535,2.990111408739722
3.320120666641742,-0.9997089850902557,1.9395991998910904,1.6455684524774552,2.733012741074837
3.330147666623816,-0.8873021113872529,1.9470006054639817,0.9342157843708992,2.3347110155899644
3.3401756666135043,-0.8542998415231705,1.9957184368371965,0.91005391985178,2.3539155540069845
3.350202666828409,-0.8123057234287262,1.8177391326427461,0.8164970076084137,2.151902299382889
3.3602306668180972,-0.8269448125362396,1.677222354412079,0.9992391613125802,2.120233819799331
3.370257666800171,-0.5050994449853897,1.4141368263959886,1.1869742524623872,1.914109790242584
3.3802856667898595,0.12721026957035064,1.0523064440488816,1.1535498136281968,1.5665913562229976
3.3903126667719334,0.7929643034934998,0.7481477344036103,1.1844687205553055,1.6098085504438435
3.400340666761622,1.513503239750862,0.6887066942453385,1.2808360970020294,2.098940226594862
3.4103676667436957,2.848712010383606,0.952373435497284,1.6833367878198624,3.4432249447244074
3.4203946667257696,3.982824509739876,1.6007893055677416,2.054630888700485,4.758878603726605
3.430422666715458,4.8766100138425825,2.1526945424079895,1.7916678598523141,5.623654749364569
3.440449666697532,5.740991624593735,2.354122935533524,1.036431838274002,6.290872005107751
3.4504776666872203,6.798538928031922,2.8719219481945037,-0.028679423332214356,7.380304176780888
3.4605046666692942,7.821770092248917,3.5028476268053055,-0.7385904604196549,8.602066306466028
3.4705326666589826,8.655960189700128,3.899657807350159,-1.5865460729599,9.625492520475252
3.4805596666410565,9.401150987148286,4.016452431678772,-2.720869656801224,10.579067147362244
3.490587666630745,10.257239491939545,4.475348348021507,-4.045610741972924,11.89986012971202
3.500614666612819,11.061495938301087,4.3705042630434034,-5.727908479571343,13.201020243022025
3.510642666835338,10.840785766839982,4.449936933517456,-7.260920369625092,13.785700539647582
3.520669666817412,10.185388906002045,4.114176946878433,-7.776098660230637,13.458688995974912
3.5306966667994857,9.33342327296734,2.687427676320076,-7.7562754297256475,12.42959637516783
3.540724666789174,7.945367367267609,1.191956080198288,-6.981780141592026,10.64400656912102
3.550751666771248,6.133271382451058,-0.1321178376674652,-5.7763602626323705,8.426197888581857
3.5607796667609364,4.619690374732018,-1.3980335944890976,-5.0199925124645235,6.963932934406508
3.5708066667430103,2.9547840106487278,-2.2835645842552186,-4.73720596075058,6.03212533644825
3.5808346667326987,2.3196880978345873,-2.0883178675174716,-3.86829977452755,4.970489667290142
3.5908616667147726,1.11283038854599,-1.4581055492162704,-3.273514566421509,3.7523806953586814
3.600889666704461,-0.20117871701717377,-1.1937880128622056,-2.9003247982263565,3.142846899077479
3.610916666686535,-0.4658722293376923,-1.688876147568226,-2.8517461305856706,3.346908359845442
3.620943666668609,-1.356003223657608,-3.915896109938622,-2.1409661972522738,4.664410289005366
3.630971666658297,-2.541511579155922,-6.307572788000107,0.5302091431617737,6.8209880016310995
3.640998666640371,-3.002223055958748,-6.222905105352402,2.5458812034130096,7.3633825331733895
3.6510266666300595,-6.331204310059547,-7.8884546631574635,3.536027652025223,10.71519279081316
3.6610536666121334,-8.793473837971687,-9.821418442726136,2.6023957121372225,13.437183700789529
3.6710816668346524,-8.61813396692276,-10.283514540195466,0.41142003357410434,13.423567737910274
3.6811086668167263,-8.43797248184681,-9.154481517076492,-1.6242100355029108,12.555555331817366
3.6911366668064147,-7.57666709125042,-8.022927174568176,-4.140589989423752,11.7863365860889
3.7011636667884886,-4.85326909840107,-4.907054711580277,-4.701870359480381,8.351107217686593
3.711191666778177,-6.566395111083985,-8.455488985776901,-1.0405099788308143,10.756184256487458
3.721218666760251,-4.897061235308647,-11.492017071247101,2.1811646354198455,12.680896824554786
3.731245666742325,-2.6970212030410767,-8.807905350923539,-0.987673953473568,9.264373690587549
3.7412736667320132,0.2288722997903824,-2.8789038160443305,-4.068979431688786,4.9896957148860634
3.751300666714087,1.1448655289411545,0.36665024220943454,-3.6139830234646797,3.808677299714542
3.7613286667037755,0.9776831084489823,1.4617925110459329,-2.7580760747194293,3.2710373339104786
3.7713556666858494,-0.12036902725696565,2.5300101059675217,-2.648672915697098,3.664820330298328
3.781383666675538,-0.7228515100479126,3.2558416494727136,-3.779639028310776,5.040703357305384
3.7914106666576117,-1.2031687009334564,4.251527750194073,-4.510049818754196,6.313766902667609
3.8014386666473,-1.4331233203411102,4.583028624951839,-5.583434890508652,7.364288085414831
3.811465666629374,-2.088018490076065,4.460858655273914,-7.150495702028275,8.682664910150372
3.821492666611448,-2.491958765387535,3.8841159081459047,-7.818695041537286,9.078998129136473
3.831520666833967,-3.9306620836257937,2.253468965291977,-6.579730271100998,7.988809500396813
3.841547666816041,-4.912292647361755,-1.0461833859980108,-5.2321669185161594,7.252633273072444
3.8515756668057293,-6.310030957460404,-2.0347493322193624,-3.658259017467499,7.572288595131466
3.861602666787803,-6.886184012889863,-1.052933265566826,-2.910605372786522,7.549822670580476
3.8716306667774916,-7.4310515409708024,-1.7649153864383698,-1.848106500953436,7.858177330953902
3.8816576667595655,-6.878594326972962,-2.6495330411195757,-1.8327139981091023,7.595651772554744
3.891685666749254,-5.8638106352090835,-1.968294118344784,-0.46626223862171173,6.202891049911029
3.9017126667313278,-4.573689744472504,-1.2327845558524133,0.7924941873550415,4.802753655647218
3.9117396667134017,-3.7970596379041672,-0.6967569945752621,1.46762540102005,4.1300189492313155
3.92176766670309,-2.919570908546448,-0.13568449303507807,1.0553158597648145,3.1074098756926274
3.931791250128299,-2.2788926589488985,1.6368248185515404,1.1587023800611496,3.0356446503497136
3.9418192501179874,-2.080373255610466,1.9400181528925897,0.9593480674177409,3.0019946753234286
3.9518462501000613,-0.9503380197286606,1.5929397109150887,-0.17158303499221803,1.8628043408391497
3.9618742500897497,-0.46722293615341187,1.8259436532855036,-0.6077502759173513,1.980335298609567
3.9719012500718236,0.7014360827207565,2.033231248855591,-0.7845337879657746,2.2894399214492247
3.981929250061512,2.1377765411138534,1.4525524485111236,-1.051069757938385,2.790115551633127
3.991956250043586,2.4492594730854034,0.37015389382839203,-0.9805698788166046,2.664095185772708
4.00198325002566,1.6994218933582306,-0.4957684582471848,-0.666678478717804,1.891634565608154
4.012011250015348,1.3979248362779617,-0.984869921207428,-0.7390178918838501,1.862876822043353
4.022038249997422,1.7324633395671845,-1.2522858971357347,-1.0125553178787232,2.3653577874972354
4.0320662499871105,1.7947408640384674,-1.3251927825808525,-1.1700068751722574,2.519155963413992
4.042093249969184,1.3154399192333222,-1.2745871776342392,-1.5534824073314668,2.4017206840910026
4.052121249958873,0.41975290060043335,-0.9054162007570267,-1.8533907759189607,2.1050007986737804
4.062148249940947,-0.5088445866107941,-0.5131779581308366,-1.9667109847068787,2.0952867410932434
4.072176250163466,-1.3089226126670839,-0.02340465009212494,-1.6615377831459046,2.115309430891511
4.08220325014554,-1.6291073709726334,0.527304831147194,-0.3757631278038025,1.753065640335647
4.0922302501276135,-1.6318555623292923,0.7885964334011079,1.8185706067085268,2.5674960492008974
4.102258250117302,-1.149652059674263,1.4832444834709169,1.2501990258693696,2.2549305222877494
4.112285250099376,-0.41078736484050754,1.7859530836343767,1.0336544108390808,2.1040000278286204
4.122313250089064,0.15713047206401826,2.038272718191147,0.2440041629970074,2.0588306609658935
4.132340250071138,1.0836878657341005,2.205682010650635,-1.5700651109218597,2.9162504993537897
4.1423682500608265,2.1625734132528307,2.437000785470009,-2.8150168454647067,4.305811936945169
4.1523952500429,3.3716858088970185,2.3418303340673448,-2.775296709537506,4.955270561073858
4.162423250032589,4.431906459331513,1.7286030077934267,-2.0682396984100344,5.18724191385905
4.172450250014663,5.020775454640389,1.0833066272735596,-0.7034457707405091,5.184262277989697
4.182477249996737,4.6283033233881,0.6241078251600266,1.9534050607681275,5.062261704233182
4.192505249986425,3.0803096973896027,-0.1027121901512146,2.2421230280399325,3.8112954882434713
4.202532249968499,1.2909354078769684,-0.9297558206319809,0.8574696171283722,1.8072670687000856
4.212560249958187,-0.9885103976726533,0.5150701171159745,6.97083532333374,7.059390564127347
4.222587249940261,-2.1479588824510576,0.2237986707687378,6.076584380865097,6.448929441660213
4.23261525016278,-2.1663033521175388,-2.3165586680173873,3.4460302323102954,4.683421680540706
4.242642250144854,-0.6342895817756653,-6.193605877161026,1.338576182126999,6.36827003435866
4.252670250134543,2.171455333828926,-11.185654546022416,0.40555469155311585,11.401691124460738
4.2626972501166165,6.794679180979729,-17.987553284168243,-1.5647616863250733,19.29166186356743
4.27272425009869,5.029385479688645,-20.05330674648285,-2.301516705751419,20.802086648187256
4.282752250088379,-2.227033118605614,-14.48242115020752,-0.9437283271551132,14.683011340962022
4.292779250070453,-4.582327251434326,-7.506431506276131,0.4221876811981201,8.804685084420003
4.302807250060141,-3.6553839415311815,-2.549451513290405,1.2596001791954041,4.631212302416277
4.312834250042215,-2.5650632867217067,1.2742036002874375,1.6509063756465914,3.305848807949873
4.322862250031903,-1.6102840143442154,3.74030831694603,1.7550908946990968,4.434328016884164
4.332889250013977,-1.3498756340146065,4.242829724550248,1.002984595298767,4.563961699799868
4.342917250003666,-1.7028600561618805,3.5861283499002456,-0.3367638804763556,3.9841509539704183
4.35294424998574,-1.7212349313497544,3.958715270161629,-1.2283204990625383,4.488078378050755
4.3629712499678135,-1.9182264572381975,4.477108944654465,-1.6533084118366241,5.14368797150482
4.372999249957502,-2.193373036980629,4.778273879885674,-1.8502438044548035,5.573705112981374
4.383026249939576,-2.2384141391515735,4.693010365962983,-1.9967995870113373,5.569744405632842
4.393054250162095,-1.7892339563369752,4.307853101491928,-2.1659051567316054,5.142966229959074
4.403081250144169,-1.236444035768509,3.6396713036298753,-2.0954269123077394,4.377992119325691
4.413109250133857,-0.7117733752727509,2.6437945836782455,-2.1849688339233397,3.5029073558474124
4.423136250115931,0.0637679797410965,2.0688782143592834,-2.280451088100672,3.0797370969467925
4.433164250105619,0.2925198268890381,1.5202713918685913,-2.203612096309662,2.693083590433004
4.443191250087693,-0.03871266067028046,0.886408656835556,-2.2032828980684283,2.375220938340263
4.453218250069767,-0.29984989643096926,0.3394589352607727,-2.2817895157635215,2.32630731490196
4.463246250059456,-0.20254871964454652,0.05773833096027375,-2.4326161046326162,2.441716775387696
4.4732732500415295,0.23798050761222841,0.11852072238922119,-2.567391940355301,2.5811205432990523
4.483301250031218,1.09042151927948,0.23143981218338014,-2.68064315199852,2.9031760512803575
4.493328250013292,1.9874709391593934,0.21472613096237184,-2.69579562664032,3.3561081785208096
4.50335625000298,2.496646478176117,0.21142947077751162,-2.6432314968109134,3.642062438212136
4.513383249985054,2.7858620434999466,0.03975229561328888,-2.563870747089386,3.7862964461596125
4.5234112499747425,3.188209537267685,-0.22422142446041107,-2.4704638159275056,4.039572597010577
4.533438249956816,3.6073724538087846,-0.2631217807531357,-2.2290156170725823,4.248632687484125
4.54346524993889,3.9846546882390976,0.5178574848175049,-1.8091437256336214,4.4066597757356805
4.553493250161409,4.020637868642807,1.1973273324966431,-1.5511622321605683,4.472720188251157
4.563520250143483,3.849182302951813,0.654703381061554,-1.5677730023860932,4.207463975548877
4.573548250133172,3.7604946595430375,-0.29230114102363586,-1.791773840636015,4.175788971857051
4.583575250115246,3.829092439413071,-0.8164946687221527,-2.1299066273868084,4.457029806385446
4.593603250104934,3.7500275588035588,-0.9205745226144791,-2.403892096281052,4.5485010007732845
4.603630250087008,3.511228440999985,-0.8534274369478226,-2.6388215267658235,4.474420924001812
4.613657250069082,3.0617629140615463,-1.0124588388204576,-2.732434279918671,4.226779168149548
4.62368525005877,2.90131707072258,-1.5135149341821672,-2.6842064452171326,4.232414493100115
4.633712250040844,3.090470404028893,-2.4484630823135376,-2.4242778289318085,4.628509671101611
4.6437402500305325,3.123166864514351,-3.526888453960419,-1.9710081034898759,5.10666098094464
4.653767250012606,3.3695422196388245,-4.288029286265373,-1.4655016922950745,5.64700851247081
4.663795250002295,3.610567957162857,-4.8363507646322255,-1.1670580512285234,6.14723630477853
4.673822249984369,3.477820959091187,-4.7093200045824055,-0.7876047456264497,5.907051274907581
4.683850249974057,2.5385558116436004,-4.214540310502053,-0.284439047947526,4.928237130016527
4.693877249956131,1.3410650494694711,-3.743616671562195,0.24145199954509736,3.9838951189246044
4.703904249938205,0.12466702312231065,-3.0714499962329866,0.9613114893436432,3.220786662534153
4.713932250160724,-1.3417994597554208,-2.4915880519151687,1.568955894112587,3.235747117485696
4.723959250142798,-3.206411334872246,-2.6528098207712176,1.7858934420347214,4.5285636773573215
4.733987250132486,-4.627271582186222,-3.0331460559368133,2.0289382231235504,5.893064364590376
4.74401425011456,-5.329110245704651,-3.0969672453403474,2.3398568987846375,6.592840998869557
4.7540422501042485,-5.7447256565094,-2.893019871711731,2.570248889923096,6.9265876304878455
4.764069250086322,-5.743027625083924,-2.1151355373859406,3.098914368152619,6.859987966835857
4.774096250068396,-5.488327589035034,-0.8584022480249406,3.371394617557526,6.498068621619292
4.784124250058085,-5.334352274537086,0.5861196345090867,3.01964483499527,6.157686687736692
4.794151250040159,-4.981444158554077,1.617481936812401,2.3660711359977724,5.747114610072495
4.804179250029847,-4.324973456561565,2.4012333673238757,1.7404425962269308,5.244087863019916
4.814206250011921,-3.6730355161428454,3.163961133956909,1.3281663841009141,5.026516279083588
4.824234250001609,-2.7555100241303445,3.580573495030403,0.8788296420872211,4.602790847541109
4.834261249983683,-1.6290056294202806,3.667658416628838,0.12541809797286987,4.015109874094413
4.844289249973372,-0.730937332212925,3.606833340525627,-0.7613213650882245,3.758074819756733
4.8543162499554455,-0.3410338827967644,3.5851448482275012,-1.6819406189024448,3.9747316811957973
4.864343249937519,-0.4614280530810356,3.8206706947088245,-2.4864208674430848,4.58178230993501
4.8743712501600385,-0.9601107636094094,3.81794530749321,-3.107198118567467,5.015296521387072
4.884398250142112,1.1590824490785598,6.262114194631577,-2.9086161500215533,7.001256617103421
4.894426250131801,1.9729480634629728,4.578571000099182,-2.54194485783577,5.596187999375042
4.904453250113875,1.9058867856860162,3.059362047314644,-2.2079466372728347,4.226952676508958
4.914481250103563,2.2866878744959833,2.4995478665828705,-2.0334392635524274,3.9511461895584903
4.924508250085637,0.6272622518241405,1.9513228672742844,-2.846973633170128,3.508044716487654
4.934536666609347,0.6990957346558572,0.6170724552869797,-5.184345465302467,5.267537485855242
4.944563666824251,-1.4608594416081906,-0.6487760585546494,-4.6060184150934225,4.8754924184608495
4.954590666806325,-1.2406429213285446,-1.5457132118940353,-3.915160822570324,4.388269414958012
4.964618666796014,0.11252966523170471,-0.7039117938280106,-2.657091152071953,2.7510521858856816
4.974645666778088,1.8335247145593168,0.5892870712280274,-1.5138055408000948,2.449628409896774
4.984673666767776,1.7923113459348679,0.9197997665405274,-1.4355747655034066,2.4737191592104844
4.99470066674985,-0.31561472073197366,0.9453292948007584,-2.3105594247579577,2.516335626042171
5.004728666739538,-0.7174083369970322,0.5650983095169068,-0.9590989029407502,1.3243419222519024
5.014755666721612,-0.30688585102558136,-0.33451979219913486,-0.41502133369445804,0.6150813965274632
5.024783666711301,-0.016560849621891978,-0.057864630818367006,-0.24740051820874215,0.25461656201020977
5.0348106666933745,-0.4279960128664971,0.5774359345436096,0.8991427230834962,1.151117058341972
5.044837666675448,-0.9838280935585499,1.1777046614885331,1.900048779398203,2.4423536499572442
5.054865666665137,-0.443833781182766,0.9748711824417114,2.5645449310541153,2.77925402780488
5.064892666647211,0.10895555466413498,0.7255383056402207,3.0689339393377306,3.155413232821092
5.074920666636899,0.29227175876498224,0.727962561249733,3.102871178984642,3.2004939970145845
5.084947666618973,0.10707830607891083,0.7510374283790588,2.7783255672454836,2.8800374893512926
5.094975666608661,-0.16812711127102375,0.49842777192592624,2.1752248875796796,2.237923207109085
5.105002666823566,-0.43581892959773544,-0.021896653175354004,1.3262101981043817,1.3961558266798377
5.11502966680564,-0.2912161901593208,-0.6097879940271378,0.296447694003582,0.7379224229894303
5.125057666795328,0.06841724708676339,-1.256083078980446,-0.8464313896000386,1.5162030597186449
5.135084666777402,0.455321074873209,-1.9540026462078095,-1.9700946222245694,2.8118884122825687
5.145112666767091,0.9013094088435174,-2.533007973432541,-3.108452931046486,4.109862244464426
5.1551396667491645,0.9059450814127923,-3.0525979882478715,-3.735712405443192,4.908628947534448
5.165167666738853,0.8817311766743661,-3.8030571269989015,-4.060466762781143,5.6327687428818765
5.175194666720927,0.6588300535082817,-4.60045245051384,-4.277485002279282,6.316256623473172
5.185222666710615,0.3349782139062882,-5.333026710748673,-4.576674163341522,7.035576074405597
5.195249666692689,-0.5666826125979424,-6.085431218147278,-4.240390266180039,7.438717087222548
5.205276666674763,-1.3596311286091805,-5.869769532680512,-3.312319613099098,6.875627418060727
5.215304666664451,-1.1499119684100152,-5.337276467084885,-2.5158452260494233,6.0115135217868705
5.225331666646525,0.03807560652494431,-4.281347672939301,-0.7764131748676301,4.351345201946525
5.235359666636214,1.1275028067827226,-2.962633897662163,0.73865010201931,3.2548527100458715
5.245386666618288,1.6587033453583717,-1.5038027089834214,1.773730064034462,2.8563679236941146
5.255414666607976,1.166374950259924,-0.3246999782323837,2.506718891859055,2.7837924138234587
5.2654416668228805,0.6785435025393963,0.18978424787521364,3.4324489045143127,3.5040183828971982
5.275469666812569,0.47338297784328465,0.12445623099803925,4.089542627334595,4.118730350233279
5.285496666794643,1.0546611177921297,0.0774276602268219,4.541362828016282,4.662861937870216
5.295523666776717,1.8767267212271692,0.22425241470336915,4.91121208190918,5.262356548653756
5.305551666766405,2.4150596934556963,0.3634038680791855,5.216451357007027,5.759855940412892
5.315578666748479,2.1142818439006805,0.7510011756420136,5.470035744309426,5.912316088072974
5.325606666738167,1.218168563246727,1.237544481754303,5.5132858443260195,5.780291670326749
5.335633666720241,0.46712207168340686,1.616279749274254,5.22920354962349,5.493189694627589
5.34566166670993,-0.09883110076189042,1.890284367799759,4.7159051388502125,5.081604456887587
5.355688666692004,-0.33490658551454544,2.0301094204187393,4.091351171135902,4.579591803365125
5.3657156666740775,-0.4317581114172936,2.1233274865150453,3.296345019936562,3.9447211780080855
5.375743666663766,-0.5683332815766334,2.205691950917244,2.588595698475838,3.4480294939945617
5.38577066664584,-0.596517445743084,2.233561534881592,1.9279603171348574,3.0102593206607975
5.395798666635528,-0.6362992697954178,2.3226146292686463,1.147219471782446,2.6674947035133374
5.405825666617602,-0.7704080843925476,2.466321648359299,0.39472915649414064,2.613825203920434
5.4158536666072905,-1.0446531696617605,2.5895862168073656,-0.3085933841764927,2.8093570253566114
5.425880666822195,-1.6540140245854855,2.751345929503441,-0.9291308994591236,3.341998061886085
5.4359086668118834,-2.016906553655863,2.7466681569814684,-1.4948852665722372,3.7211261697194167
5.445935666793957,-2.1764234206080437,2.8426309061050414,-2.274541161060333,4.24156891579902
5.455962666776031,-2.279840492606163,2.939658433198929,-3.814499543309212,5.328195861781968
5.46599066676572,-1.6430062025785448,3.703404200077057,-5.199316676259041,6.591476765557573
5.4760176667477936,0.027793862521648408,6.5277520322799685,-7.012586781978608,9.580641547856292
5.486045666737482,1.0712091766297818,4.99378061413765,-5.973465809226036,7.859238366166618
5.496072666719556,1.4442125648260118,3.611176652312279,-2.9325341856479645,4.870944825862906
5.506100666709244,0.4434414330124855,3.041159664988518,-0.3304799509048462,3.091036947436137
5.516127666691318,-0.3288529631495476,2.7596442979574203,0.3247379851341248,2.7980771400392292
5.526154666673392,-0.5874346733093262,0.6268355512619019,-2.9120268309116364,3.0360998942197397
5.5361826666630805,-0.18067647859454156,-1.3565283036231994,-4.048323265314102,4.273375046603281
5.546209666645154,0.09703059688210487,-2.159823467731476,-3.5102028393745424,4.122593397613693
5.556237666634843,-0.42763787090778355,-2.524509045481682,-2.9271684882044795,3.8890018549353607
5.566264666616917,-1.0424702578783036,-1.9182410752773287,-2.617645250558853,3.40858617599956
5.576292666606605,-0.2028624227643013,-1.635279107093811,-2.316817699670792,2.843050329166755
5.58631966682151,0.7251366019248963,-2.270037635564804,-2.0498665773868563,3.143381450511461
5.596347666811198,1.2584007690846921,-2.7944662213325504,-1.705768022686243,3.5074575556976457
5.606374666793272,1.3744909501075746,-3.102420358657837,-1.9585833549499512,3.9179441307947784
5.616401666775346,2.21441672757268,-3.5351657724380496,-1.7522411079704763,4.524531730735548
5.626429666765034,3.055613689720631,-3.7961012792587283,-1.7460557770729066,5.176472806829719
5.636456666747108,4.172805808782578,-3.826400966048241,-1.8562968420982362,5.958144898940309
5.6464846667367965,5.0411793136596685,-3.7459391856193545,-1.904595428109169,6.5630048757869375
5.65651166671887,5.640750467777252,-3.566947143673897,-2.1396963281929495,7.008528957090428
5.666539666708559,5.716374846696854,-3.18335985660553,-2.279960360527039,6.928848433193689
5.676566666690633,5.025740325450897,-3.0496194165945054,-1.6616775315999985,6.108961992348436
5.686593666672707,3.339389005601406,-3.283756549358368,-0.7119885528087616,4.7372464265136385
5.696621666662395,1.4316936761140824,-3.172359489798546,-0.1567104957997799,3.483987613961014
5.706648666644469,0.6015578918159008,-2.3443089687824252,0.2149166040122509,2.4297830324948495
5.716676666634157,0.36268290638923645,-1.3030338817834854,0.981538177728653,1.6711832281355528
5.726703666616231,-0.022737190425395966,-0.7938460636138917,1.3384896433353424,1.5563621294093748
5.73673166660592,-0.4194469450414181,-0.7056063169240951,1.087984253615141,1.362910763880842
5.746758666820824,-0.6883967918157577,-0.8552582001686097,1.0394734136760235,1.511906647143653
5.756785666802898,-0.7495702157914639,-1.1754265862703324,1.1661884240806104,1.8175474157700553
5.7668136667925864,-0.9149224577844144,-1.8321852636337281,1.116290624588728,2.3324002020621504
5.77684066677466,-1.5368807002902032,-2.6321527773141864,0.8960138779878617,3.176959458286199
5.786868666764349,-2.5481475841999055,-3.487193461060524,0.8674835586547852,4.405235756490617
5.796895666746423,-3.5981446704268456,-4.072087519168854,0.9349925869703294,5.513869147049223
5.806923666736111,-4.3520270615816115,-3.8351431381702423,0.9595572515577079,5.8795588741001605
5.816950666718185,-4.510598872303963,-2.489155025482178,1.200850864648819,5.289937402922721
5.826978666707873,-4.203522986769676,-0.9059330946207047,1.9342969447374345,4.715063620212423
5.837005666689947,-3.538910036981106,0.4131291747093201,2.845249289274216,4.559605628007432
5.847032666672021,-2.6712297195196153,1.3611534512043,3.657901167869568,4.729529351433583
5.8570606666617095,-1.9334802348911764,1.9762454545497896,3.6979399770498276,4.617212577866306
5.8670876666437835,-1.2885531060397626,2.394585083127022,3.388157415390015,4.344423724601632
5.877115666633472,-0.46510478228330615,2.895950496196747,2.888260238170624,4.1164182171303265
5.887142666615546,-0.00639086052775383,3.271871498823166,2.2895018470287325,3.9933698370496082
5.897170666605234,-0.031038628667593004,3.4008979135751725,1.569342395067215,3.7456515545342484
5.907197666820139,-0.13064214661717416,3.595900801420212,0.7684492671489715,3.6794135701642805
5.917224666802213,-0.19506384506821633,3.920338824391365,0.03344855859875679,3.9253312226811383
5.927252666791901,-0.06951462328433991,4.292228171825409,-0.5591212856769562,4.329049731056355
5.937279250007123,0.2042783260345459,4.519859692454339,-1.0345145362615586,4.64123707643742
5.947307249996811,0.3218474140763283,4.5292772179842,-1.4266907984018327,4.759557175782509
5.957334249978885,0.24689210280776025,4.7182335001230244,-1.7455787904560567,5.036837141083881
5.9673622499685735,0.31202613830566406,4.867587760090828,-1.9940139734745026,5.26942716427351
5.977389249950647,0.2650232952833176,4.787339987754822,-1.8902960622310638,5.153841354590325
5.987416250165552,0.20834082528948786,4.391039099693298,-1.8649906285107136,4.775229870796842
5.99744425015524,0.21499875739216806,3.8268722516298297,-1.9405927880108358,4.2961699296994995
6.007471250137314,0.2822152787446976,3.002320704460144,-1.8736005073785782,3.5502047739864624
6.017499250127003,0.5049437628686428,2.319590449333191,-1.8059509997069836,2.982771709273164
6.0275262501090765,0.7696852223575116,1.870239527821541,-1.8903269062936308,2.7683112262892915
6.037554250098765,0.9978821687400341,1.221042469739914,-1.9454225881397724,2.504272864933515
6.047581250080839,1.0774655511975288,0.3848894619941712,-1.9955248939991,2.3002590103163767
6.057609250070527,0.9320651784539223,-0.38933802366256715,-1.9487997937202455,2.1950285259102866
6.067636250052601,0.8326484790444375,-1.0103696286678314,-1.7110264237225057,2.1544748081298177
6.077663250034675,0.7781582763791085,-1.782473405599594,-1.4081959091126919,2.4011991719157413
6.087691250024363,0.7040891106426717,-2.6996577125787735,-1.0630437592417001,2.985624771278931
6.097718250006437,0.6427200973033905,-3.674758690595627,-0.790358784198761,3.8133459802837075
6.107746249996126,0.8761874315142631,-4.2558257460594175,-0.7093372790515423,4.4026033856592175
6.1177732499782,1.5414166778326035,-4.243964084386826,-0.8571596416085959,4.595858915966458
6.127801249967888,2.748483132719994,-3.6092125725746156,-1.235839433670044,4.701901108136036
6.137828249949962,4.607840115129948,-2.7411542326211933,-1.3789775186777116,5.536036131623094
6.1478552501648664,5.856287022829056,-1.8234080082178117,-1.4984969455003738,6.313985077101687
6.157883250154555,5.152964043617248,-1.0368598544597627,-2.7952988648414614,5.953302657885495
6.167910250136629,2.843890981078148,-0.9187846899032593,-4.05004936337471,5.033366772293686
6.177938250126317,0.5915094517171383,-1.1996188563108445,-3.7513501989841465,3.982662067927135
6.187965250108391,-1.3853968843817712,-1.4661916637420656,-2.5909299069643024,3.2835895457385496
6.197993250098079,-2.9297468179464343,-2.3102565389871597,-0.9685550200939179,3.8547114704150447
6.208020250080153,-4.147857201397419,-3.5839935314655307,0.883432424068451,5.552493299830865
6.218047250062227,-4.921214329004288,-4.243460054397583,2.4448085725307465,6.94279429780149
6.228075250051916,-5.249846559762955,-4.199335795640946,3.0549362897872925,7.384304013261213
6.2381022500339895,-4.178269739449024,-3.5826106649637226,2.7500718212127686,6.15271746581425
6.248130250023678,-1.3877413254976274,-2.667707941532135,1.9975228875875475,3.6100677741897904
6.258157250005752,1.1316981840133669,-1.871133567094803,1.7087639898061753,2.7752037724221967
6.26818524999544,2.797764635682106,-1.3660797303915024,3.002739949822426,4.325518234006133
6.278212249977514,3.35297939658165,-0.8672286200523377,4.383965138196945,5.586922824441474
6.288239249959588,2.424728795439005,-0.50859783411026,4.267620749473572,4.934629504798725
6.2982672499492764,1.1662419261038304,-0.5367112469673156,3.8724799489974977,4.0797402059703805
6.308294250164181,0.6078296153247357,-0.8108936208486558,2.9929265677928925,3.159844101502383
6.318322250153869,0.3161890634894371,-1.1744764137268067,2.1842157125473025,2.500033729614348
6.328349250135943,-0.2925851695239544,-1.479429175257683,1.6098232537508013,2.2058666492664067
6.338377250125632,-0.9118741580843925,-1.2668805474042892,1.4740058827400209,2.1469033848605528
6.348404250107706,-1.1903706076741218,-0.41710411190986635,1.5059293413162231,1.9643780707449596
6.3584312500897795,-1.2258941969275474,0.9577938044071198,1.5106229013204575,2.1684480864929965
6.368459250079468,-1.1061027283966542,2.4397115546464923,1.6321578633785248,3.1368128740220507
6.378486250061542,-1.0206832399964334,3.647460379600525,1.8699886822700502,4.224052458123987
6.38851425005123,-0.9992797994613648,4.496469075679779,1.7725927805900574,4.935471551124179
6.398541250033304,-0.9633077287673951,5.136876014471055,1.4223673671483994,5.416510490664603
6.4085692500229925,-0.904722136259079,5.382008836269379,1.1235910195112229,5.571983312667505
6.418596250005066,-0.8684249603748322,5.298449200987816,0.8036670470237732,5.428959989696219
6.428624249994755,-1.089250321984291,4.891142098903656,0.45279778204858306,5.031377855720902
6.438651249976829,-1.6045544739067554,4.170104979872704,0.5091848580166698,4.497070137603679
6.448678249958903,-1.5142500753700734,3.8166817241907123,0.6313764989376068,4.1543530131586515
6.458706249948591,-1.64807544618845,3.3788357841968537,0.6372330701351167,3.8129712716688875
6.4687332501634955,-1.591566492319107,2.9390550005435947,0.42700344800949097,3.36948959640852
6.478761250153184,-1.3839477981626989,2.521400665640831,0.06168447062373161,2.876904203940329
6.488788250135258,-1.03748813778162,2.3515945994853973,-0.28872615337371826,2.5864534768691363
6.498815250117332,-0.6230507947504521,2.1037504237890245,-0.3868144384771586,2.227910130199616
6.50884325010702,-0.44847647041082384,1.7024133288860321,-0.5610736709833145,1.8477407694673147
6.518870250089094,-0.11976325571537018,1.3494280296564103,-0.9840653443336488,1.6744204509502474
6.528898250078782,0.41177700608968737,0.873591560125351,-1.2840555739402773,1.6067113099849413
6.538925250060856,0.8101548251509667,0.19621618509292604,-1.4204184901714325,1.6469487907123
6.548953250050545,1.0712189707159996,-0.5840163910388947,-1.370149977207184,1.8346378902292373
6.558980250032619,1.1786995652318002,-1.4213429349660873,-1.1828520385175945,2.1928719408303063
6.5690072500146925,1.331296837180853,-2.1554994517564774,-0.934588544368744,2.7003675495153443
6.579035250004381,1.5777357807755472,-2.808949774503708,-0.6976663827896119,3.296390057517253
6.589062249986455,1.951035184264183,-3.260870547294617,-0.4760001915693283,3.829672466259263
6.599090249976143,2.613982262313366,-3.573106015920639,-0.3846351446583867,4.443864766529641
6.609117249958217,3.4810109075903894,-3.892988473176956,-0.4796611332893372,5.244317972228641
6.6191452499479055,4.073208138048649,-3.842386084198952,-0.716843495965004,5.64524755467985
6.62917225016281,4.477177941799164,-3.4590046191215515,-1.0192983269691467,5.748808951165392
6.6392002501524985,4.863057922124863,-3.36241797208786,-1.2534126555919647,6.043693428538457
6.649227250134572,5.310271686315537,-3.6344093942642215,-1.4402113151550293,6.594097789682912
6.659254250116646,5.645576759576798,-3.973429788351059,-1.6374659657478334,7.09520796173105
6.669282250106335,5.559145556688309,-4.056815176606179,-1.7634758019447327,7.104343432128982
6.679309250088409,4.981393872499466,-3.9294996571540834,-1.822540866136551,6.6012807603742365
6.689337250078097,3.972792734205723,-3.6225132340192796,-1.807229347229004,5.672015704587601
6.699364250060171,2.514370850622654,-2.739745638370514,-1.5868279087543489,4.0430545073536726
6.709392250049859,1.192651606500149,-1.4192753595113754,-1.2089007995277643,2.213188094966715
6.719419250031933,0.3207332271337509,-0.27896013379096984,-0.8633899229764939,0.9623568560205004
6.729446250014007,-0.3160963851213455,0.2890524280071259,-0.5948033710196614,0.7329797275504621
6.7394742500036955,-0.7257470512390137,0.4730777531862259,-0.3684447526931763,0.941415359301614
6.749501249985769,-1.01859432220459,0.5257442092895508,-0.16520956993103028,1.1581172517606837
6.759529249975458,-1.4956212848424912,0.3994273942708969,0.05346226215362549,1.5489620668184634
6.769556249957532,-2.071050747334957,0.11372892916202545,0.29298875531181695,2.0947620098961584
6.779583249939606,-2.6103537726402286,-0.09689596474170685,0.4859813886880875,2.6569745118219523
6.789611250162125,-2.9555806937813762,-0.11060710072517396,0.6623000836372376,3.0308963309506187
6.7996382501441985,-3.3014224496483804,-0.057656469941139224,0.9592170166969299,3.4384315820864235
6.809666250133887,-3.7169194543361668,0.09060669958591462,1.297097788453102,3.9377864945731185
6.819693250115961,-3.7312501028180125,0.6220917052030563,1.384150550365448,4.028038997519618
6.829721250105649,-3.135610031783581,1.4488260179758072,1.2205624133348465,3.663457343361766
6.839748250087723,-2.4005433958768845,2.224373804926872,1.033291883468628,3.431929418851023
6.8497762500774115,-1.9667020677030087,2.7301100116968158,0.863679360151291,3.4738105498466405
6.859803250059485,-1.9637650112807752,3.01886247754097,0.6948784303665162,3.6678003913550175
6.869830250041559,-2.075926155745983,3.217816913723946,0.429479159116745,3.853344968008162
6.879858250031248,-2.023693563044071,2.9197568500041964,-0.19437489688396456,3.55782198835061
6.889885250013322,-2.236352410912514,3.229235356450081,-0.2618541043996811,3.9367246112894985
6.89991325000301,-2.239264909029007,3.4455922758579254,-0.2779427182674408,4.118697077826722
6.909940249985084,-2.1298873315751554,3.602063181996346,-0.2171176787093282,4.190276756815247
6.919967249967158,-1.7636839628219605,3.6634864282608035,-0.016131298542022707,4.065953043206368
6.929995041806251,-0.5664186108112336,3.532814607024193,0.6007096070051193,3.628010628736508
6.940022041788325,-0.299568352997303,3.4420231354236606,0.6874594831466675,3.522763830272692
6.950050041778013,-0.42746260061860086,3.331891413331032,0.489048216752708,3.394612323000328
6.960077041760087,-0.6492134302854539,2.873425267338753,0.09626972794532776,2.947425776090461
6.970105041749775,-0.19497613683342935,2.0978763109445575,0.3703871611878276,2.1392258784732414
6.980132041731849,0.19911362662911417,1.3861865508556366,0.44223073046654465,1.468580065591052
6.990159041713923,0.15063056096434593,0.984398050904274,0.1659544686600566,1.0095890125139084
7.000187041703612,0.020618159472942352,0.6692886757850647,0.05395342826843262,0.6717763113240106
7.0102140416856855,0.027678087651729584,0.25813059747219086,-0.019798745289444926,0.2603641146595348
7.020242041675374,0.22697721719741823,-0.19729090332984925,-0.08437064409255982,0.3123471838323267
7.030269041657448,0.5424497044086457,-0.5089428198337556,-0.16275256991386414,0.7614216142761702
7.040297041647136,1.111240238249302,-0.7438278114795686,-0.4964695394039154,1.4263999031796049
7.05032404162921,1.4705313210189344,-1.0592622917890548,-0.7941056799888612,1.9786618710367028
7.060351041611284,2.4183114762604236,-1.2529092103242874,-2.015991318225861,3.3885443601479297
7.070379041833803,3.3129405874013904,-1.6312562227249146,-1.4671845209598542,3.973562962679014
7.080406041815877,3.630069883167744,-2.164537492990494,-0.6323108839988709,4.273458431910446
7.090434041805565,4.8938309410214424,-2.691831214427948,-1.4925766396522522,5.7812906510141024
7.100461041787639,6.293323123455048,-3.486310531497002,-2.1436477303504944,7.507030215076914
7.110489041777328,6.915123637318612,-4.127212144732476,-4.921904300451279,9.438111937767564
7.120516041759402,5.578524398803712,-3.077201317548752,-6.634177204370499,9.197902456308245
7.1305430417414755,2.694204599261284,-0.1899608337879181,-4.592468662261963,5.327813055552179
7.140571041731164,0.6405253449082375,2.974537659287453,-4.010577149391175,5.034170842870525
7.150598041713238,0.4641791680455208,3.8260822927951814,-5.762059142589569,6.932221402551155
7.160626041702926,0.2633047986030579,1.3319015854597092,-5.248670099973679,5.421423158975435
7.170653041685,-0.6521785533428193,-1.7028308200836182,-3.0520056653022767,3.555236735901587
7.1806810416746885,-1.478641262948513,-4.205313404202461,-1.36615969106555,4.6623420202245125
7.190708041656762,-2.798896364271641,-5.498394740223885,0.9373089614510537,6.240569979294451
7.200735041638836,-3.893507705926895,-5.113776004314423,3.0987880682945255,7.13530621421524
7.210763041628525,-4.776195779442787,-4.4592462855577475,3.4685683250427246,7.397830072684648
7.220790041610599,-5.455655686855317,-4.1202580511569975,2.3650936277210715,7.23425001292654
7.230818041833118,-4.118300988078118,-3.3593318116664888,0.2357831970602274,5.3198784727938655
7.2408450418151915,-1.4669050240516663,-2.20621644616127,-0.9804587817192079,2.8249780139942327
7.250872041797265,0.6231747557222843,-1.215526791214943,-0.4916595832630992,1.4517511157720075
7.260900041786954,1.4194525301456453,-0.8194732403755188,0.5325141155719757,1.7233552043359577
7.270927041769028,1.6145100894570352,-1.0354787421226501,1.866772713661194,2.6765088116455824
7.280955041758716,1.200379432886839,-1.574082148075104,3.0484236609935764,3.6347671464196907
7.29098204174079,0.34685434743762017,-1.7866266828775408,3.7843168008327486,4.199213794434786
7.301010041730478,-0.4507864129543305,-1.4199635767936707,4.154781181812287,4.4138091959515435
7.311037041712552,-0.6223668166995049,-0.6578409969806671,4.057244946956635,4.157082124693033
7.321064041694626,-0.6331803649663925,0.09583937287330628,3.7159113943576814,3.770689598825256
7.331092041684315,-0.8368669527769089,0.8489923238754273,3.3346787810325624,3.5413580495790487
7.3411190416663885,-0.9842100629210473,1.7374907755851747,2.893820940256119,3.5159270864828
7.351147041656077,-0.9915918803215027,2.6219593262672425,2.4954594933986667,3.753031208092045
7.361174041638151,-0.7819054645299912,3.4095079386234284,2.0252158856391906,4.041982177402985
7.371202041627839,-0.7311650812625885,3.9720662176609043,1.6162534368038177,4.350193971022542
7.381229041609913,-0.8130205455422402,4.307613365650178,1.3152563166618347,4.576727487399781
7.391256041824818,-0.95893839687109,4.5284264481067655,1.0981199634075165,4.75731819399761
7.401284041814506,-1.0964488291740417,4.678417469859124,0.9415034615993501,4.896551728051459
7.41131104179658,-1.2219426485896112,4.700304182767868,0.8033162140846253,4.922531887839689
7.421339041786268,-1.280542274415493,4.495573282241821,0.640155508518219,4.718025723505323
7.431366041768342,-1.3899126890301705,4.066786433458328,0.5483343422412873,4.33258349364083
7.441394041758031,-1.2939552024006844,3.5367334109544757,0.45228096127510076,3.7930675388019925
7.451421041740105,-1.060878169834614,3.021098452806473,0.393556205034256,3.2260478668646986
7.4614480417221785,-0.8690082201361656,2.6548633629083636,0.35007513999938966,2.815320117859233
7.471476041711867,-0.7145095798373222,2.3868498015403747,0.2731854236125946,2.5064329614946868
7.481503041693941,-0.40108244866132736,2.130656386613846,0.0993324903678149,2.1703526699790543
7.491531041683629,-0.082585489153862,1.7789908039569855,-0.11233437736518681,1.7844460361468846
7.501558041665703,0.29110304653644564,1.2885374647378922,-0.3076220154762268,1.3563558110398655
7.511585041647777,0.672868633568287,0.6276477295160294,-0.4726713716983795,1.034462225521023
7.521613041637465,0.9676684360206128,-0.24064391434192658,-0.5853343169018627,1.156247360266545
7.531640041619539,1.3695477139949799,-1.2223580932617188,-0.6912449705600738,1.9615401750654757
7.541668041609228,1.7595479348301888,-2.204479823112488,-0.8054773449897766,2.9333485948258913
7.551695041824132,2.1755641722679138,-3.0358784598112107,-0.895142058134079,3.8406922285757257
7.561723041813821,2.583932836353779,-3.620084300637245,-0.9042181062698365,4.538648436507695
7.5717500417958945,3.006677757203579,-3.9332553237676624,-0.9370244944095613,5.038712482443595
7.581777041777968,3.1949113234877586,-4.029282976984978,-0.96338016115129,5.231699629037499
7.591805041767657,3.288107170164585,-3.6936913901567463,-1.0051352012157442,5.046315648166377
7.601832041749731,3.2876385158300403,-2.9603523141145707,-1.0683843867480756,4.5512303866426835
7.611860041739419,3.383562088608742,-2.5085946786403657,-1.222721863165498,4.385953536442904
7.621887041721493,3.580660910904408,-2.7459273147583008,-1.5350683557987215,4.766307190455637
7.631915041711181,3.7142636489868166,-3.2485177195072175,-1.8054307436943056,5.2543507684978366
7.641942041693255,3.5956256899237635,-3.522242841124535,-1.9743708372116089,5.406741989102536
7.651969041675329,3.0795758718252184,-3.1615199214220047,-2.017430902719498,4.852733581304856
7.661997041665018,2.2139523124694827,-2.166993908286095,-1.777445969581604,3.571660904288074
7.6720240416470915,1.3129203540086747,-1.0456295084953309,-1.4117868304252625,2.1932266138200722
7.68205204163678,0.6179433980584145,-0.5599141681194306,-1.1294762420654298,1.4039496074486078
7.692079041618854,0.29009995669126515,-0.8422440522909165,-0.9644584608078003,1.312902567259067
7.702106041833758,0.03096802353858948,-1.2254986327886581,-0.7593568468093872,1.4420224472056777
7.712134041823447,-0.31811045855283737,-1.3881594014167786,-0.5017378807067872,1.5099409553087246
7.722161041805521,-0.7581415030360222,-1.5029993015527725,-0.19397081773728134,1.6945235664420577
7.732189041795209,-1.285340207219124,-1.5676572275161744,0.10037564277648926,2.029710299757232
7.742216041777283,-1.83087373316288,-1.554673485159874,0.4491270096972585,2.4435268247114723
7.752244041766971,-2.6374936240911486,-1.5244515663385392,0.919777547121048,3.1821872872949353
7.762271041749045,-3.4104104563593864,-1.3181904494762422,1.2899565839767457,3.877178552824305
7.772298041731119,-3.815157647430897,-0.7844390630722047,1.3727671909332275,4.129801723924135
7.7823260417208076,-3.7269202396273613,0.09353264629840852,1.2981181275844575,3.947631378640998
7.7923530417028815,-3.237922857105732,1.1174988055229187,1.1496526443958284,3.6131218096929993
7.80238104169257,-2.7351304310560227,1.9239918118715287,0.8625274586677552,3.453496284056673
7.812408041674644,-2.210686934888363,2.6375292921066285,0.6279851138591767,3.4982942692168306
7.822436041664332,-1.941642217040062,3.151903005838394,0.5035043245553971,3.7360384984701827
7.832463041646406,-1.9627987588942053,3.5061875563859943,0.20314857088029387,4.023331889158951
7.84249004162848,-2.0741969878971576,3.8305074656009674,-0.11347347892820836,4.35751727696477
7.852518041618168,-2.2636343497037887,4.051362063288689,-0.3370528791099787,4.65308281468641
7.862545041833073,-2.229782479405403,4.216765760779381,-0.5473824155330658,4.801319703537709
7.872573041822761,-2.2200417490303517,4.3489064025878905,-0.7216294419765473,4.9358202274227
7.882600041804835,-2.2076767882704735,4.397506120204926,-0.6510922137647868,4.963448191482726
7.892627041786909,-1.8319671624898912,4.290868109464646,-0.5395319437980652,4.69667409297691
7.9026550417765975,-1.3391895550489425,4.039258326888085,-0.30258639335632326,4.266215538522556
7.912682041758671,-0.9926256680488587,3.607508109211922,-0.16088785629719496,3.7450374333513845
7.92271004174836,-0.8867320078611375,3.0370297765731813,-0.09623698353767396,3.165296996264019
7.932737666647881,-0.6985621762275697,2.4015929710865023,0.0165429425239563,2.501182036912796
7.94276566663757,-0.5486012676358223,1.813650759458542,0.16092410903424026,1.9016279859648264
7.952792666619644,-0.5179332062602043,1.2407867628335953,0.258692478351295,1.3692072141664984
7.962819666834548,-0.7358254583179951,0.6756124395132065,0.23441368779167535,1.0260804308425175
7.9728476668242365,-0.6631461757421494,0.23306416869163515,0.13183073937892914,0.7151650865181799
7.98287466680631,-0.34926778569817546,-0.1954425984621048,-0.21188617486506703,0.4528593010186231
7.992902666795999,0.12825735971331598,-0.6640940093994141,-0.6186342465877533,0.9166128597679706
8.002929666778073,0.7187901802361012,-1.1098079627752304,-1.124220179915428,1.735570237810107
8.012957666767761,1.4856947591900826,-1.462642988562584,-1.722720708847046,2.7045110593537296
8.022984666749835,2.2201029986143115,-1.8894599103927614,-2.1794069623947143,3.6398806004005455
8.033011666731909,3.1623344385623935,-2.387212913632393,-2.3276853346824646,4.595352392758014
8.043039666721597,5.197257871627808,-3.0325560718774796,-2.9448098301887513,6.69923806482905
8.053066666703671,7.545147675275803,-3.8883504617214206,-4.32452819108963,9.526282949315437
8.06309466669336,7.953229533433914,-4.23108442246914,-5.178678928613663,10.391085162157685
8.073121666675434,7.4031223154068,-3.473735509514809,-6.002750419378281,10.144262960130932
8.083148666657507,3.6664457041025162,-1.296703686118126,-5.8285805761814125,7.006897750343113
8.093176666647196,-0.26739814192056655,0.7442365318536759,-4.6422308063507085,4.709107839185647
8.10320366662927,-2.4832414439320565,0.5972813844680787,-3.7895734477043153,4.569912475818266
8.113231666618958,-2.691187143623829,-1.7365493738651276,-2.6956260573863986,4.186226440499617
8.123258666833863,-1.8343902486562729,-4.634246433377267,-0.9042308239638805,5.065457627168698
8.133286666823551,-2.3353372934460643,-6.164140003323555,1.7440678699314596,6.8185185333517255
8.143313666805625,-3.1890775564312936,-6.51663413643837,3.4186518144607545,8.020219221295854
8.153340666787699,-3.5931964641809464,-5.530220550298691,2.787373548746109,7.159877894587162
8.163368666777387,-2.673877338767052,-3.512480329871178,-0.2143039437197149,4.419622638958867
8.173395666759461,-0.6638194826245308,-0.7611957961320878,-2.538959269523621,2.7324694907465994
8.18342366674915,0.7120493638515473,1.6318660873174669,-1.8004360520839693,2.5321080547918804
8.193450666731223,0.8717241056263447,1.7394911080598832,-0.8627636861801148,2.1284016090814606
8.203477666713297,1.0829119402170182,0.08485654771327973,-0.5066167974472047,1.198565594120766
8.213505666702986,1.4357004806399347,-2.1651935505867006,-0.021605461835861206,2.598031134839058
8.22353266668506,0.9587115249037743,-3.7331846541166307,0.5746070516109467,3.8969178479249797
8.233560666674748,-0.44841258957982066,-3.6714708012342454,1.5822214722633363,4.022958672681149
8.243587666656822,-2.4596403273940086,-2.0776262336969378,5.111510792970658,6.041018448386344
8.25361566664651,-3.9880218073725704,-0.30597543954849243,9.06353509426117,9.906846486677276
8.263642666628584,-3.235777806043625,1.974750321507454,8.316492483615876,9.139690589534071
8.273669666610658,-2.5157452386617662,3.165690740346909,6.730942776203156,7.852143823561114
8.283697666833177,-2.454390404820442,3.795256356596947,4.442213931083679,6.337291825462837
8.293724666815251,-2.4189600786566734,4.16909925878048,2.606947184801102,5.479865884858957
8.30375266680494,-1.9242078664898874,4.533926339149476,1.3118193233013153,5.097051490742628
8.313779666787013,-1.5156151078641416,5.075905342698097,0.4290265115350485,5.314693589551241
8.323806666769087,-1.2523136714100838,5.5257041609287265,-0.08302059508860112,5.66644407233624
8.333834666758776,-1.1647720822691918,5.735448464155198,-0.4255259297043085,5.86797540941206
8.34386166674085,-1.295485564917326,5.59594910144806,-0.534642575159669,5.76877559609315
8.353889666730538,-1.5411297257244587,5.1672493761777885,-0.5076354555040599,5.416017051561609
8.363916666712612,-1.6555802012979985,4.466041919589043,-0.4170036128908396,4.781251744430586
8.3739446667023,-1.7713568253815175,3.5268878692388537,-0.18842714566737415,3.95122105610838
8.383971666684374,-2.0168388721346857,2.501019026041031,0.44695831395685676,3.2438413862560997
8.393998666666448,-2.306011752784252,1.4635422903299333,1.1500584411621095,2.963491295356122
8.404026666656137,-2.3626554849743844,0.6450624918937683,1.6814323496818544,2.970767797335292
8.41405366663821,-1.9491539888083935,0.04042121708393097,1.8478172099590302,2.6861242689605764
8.424081666627899,-1.1353604413568974,-0.3098691004514694,1.5811286276578904,1.9710479264624836
8.434108666609973,-0.015689833760261538,-0.42391377925872803,0.9349756300449372,1.0267075980564133
8.444135666824877,1.0715113314986229,-0.46731005966663364,0.1960489547252655,1.185306044042826
8.454163666814566,1.9989925852417947,-0.7226059269905091,-0.367474114894867,2.15712028099762
8.46419066679664,2.7716620802879337,-1.2347044891119003,-0.7779744545370341,3.1323872868231524
8.474218666786328,3.3251428493857387,-1.8900077944993974,-1.0315786492824555,3.9614213284811046
8.484245666768402,3.6949500033259395,-2.5585626447200776,-1.098538624048233,4.626627869470501
8.49427366675809,3.9252232959866524,-3.038013278245926,-1.0546915233135223,5.074374524165936
8.504300666740164,4.038877088427544,-3.0871737438440325,-0.9715078639984132,5.175615653225777
8.514327666722238,3.950465433597565,-2.963890464305878,-0.8518808484077454,5.011638934154815
8.524355666711926,3.8908004450798037,-2.6687253570556644,-0.7883450031280518,4.78350404816198
8.534382666694,3.929637943804264,-2.28420894742012,-0.738944216966629,4.604965085714414
8.544410666683689,3.886271191835404,-1.8488895893096924,-0.7414865863323212,4.367069823996211
8.554437666665763,3.7268451029062275,-1.5996906137466431,-0.8537847018241883,4.144554595832254
8.564464666647837,3.3786629989743235,-1.7072057068347932,-1.026863454580307,3.9222905986731855
8.574492666637525,3.0058594393730167,-2.123626279234886,-1.403728197813034,3.9389633657169627
8.584519666619599,2.9009829023480416,-2.163577380180359,-2.028261115550995,4.148567467524174
8.594547666609287,2.5480049121379853,-2.0079326856136324,-2.483940478563309,4.085839326659848
8.604574666824192,2.1115903705358505,-1.5863349884748459,-2.5985564303398134,3.7051002834281848
8.614601666806266,1.8988528776168825,-1.3737863606214524,-2.567465615272522,3.476321461123836
8.624629666795954,1.8868535140156746,-1.5596290004253388,-2.421724934577942,3.443459083694415
8.634656666778028,1.7372150793671608,-1.857266310453415,-2.0726765656471255,3.280753347283007
8.644684666767716,1.302927170097828,-2.1174399250745775,-1.521015157699585,2.914559684897679
8.65471166674979,0.5545002311468125,-2.1832865899801255,-0.955527423620224,2.4468844471325606
8.664739666739479,-0.2538694390654564,-2.162693281173706,-0.4691092479228974,2.227499810777116
8.674766666721553,-0.9574727922677995,-2.103490807414055,-0.009972974471747876,2.3111744168340786
8.684793666703627,-1.7075249648094177,-2.0390281784534454,0.44172439813613895,2.6959966361038568
8.694821666693315,-2.8659162729978562,-2.104004777669907,1.0540296185016633,3.7082732672998193
8.704848666675389,-4.042521365582943,-2.1571840345859528,1.7506598746776583,4.905123030778484
8.714876666665077,-5.048930382728577,-1.8732876813411714,2.148016769886017,5.797834146508149
8.724903666647151,-5.793158143758774,-1.1304275840520859,2.2413582122325897,6.31365460228281
8.734930666629225,-5.897470132112503,-0.023069604635238647,2.117018340826035,6.26597580758264
8.744958666618913,-5.1654127657413484,1.0921470326185228,1.6808944058418276,5.540729210576121
8.754985666833818,-3.7387093958258633,2.0425774383544923,1.0811747324466705,4.395339502267433
8.765013666823506,-2.4081931619346144,2.7143400710821153,0.5979461763426662,3.6775774575763203
8.77504066680558,-1.6310958628356458,3.245070785880089,0.2510215161368251,3.640600214345927
8.785067666787654,-1.345347550213337,3.7981361103057862,-0.14310475587844848,4.031907354395537
8.795095666777343,-1.4681838101148605,4.340896886587143,-0.5089287865161896,4.610635313057213
8.805122666759416,-1.8842412704229357,4.705521653294563,-0.8432643914222717,5.13842330181446
8.815150666749105,-2.1503666196763516,4.940435881018639,-1.0965038660913706,5.498572907748704
8.825177666731179,-2.397092223018408,5.019972631931306,-1.2942156958580018,5.711494604602184
8.835204666713253,-2.5117463278770447,4.931796035170556,-1.269962030053139,5.678405172749169
8.845232666702941,-2.3248567441105843,4.724136849045753,-1.2100216376781465,5.402460570221472
8.855259666685015,-1.79237508058548,4.360859865546226,-1.0270330238342287,4.825401955120603
8.865287666674703,-1.4391947767138482,3.914217959046364,-0.8527111530303956,4.256700617467
8.875314666656777,-1.3542839960753918,3.310634445548058,-0.7133280768245459,3.647358293239291
8.885341666638851,-1.395184684842825,2.5483750408887866,-0.5368083838373423,2.9544743855384765
8.89536966662854,-1.4030117677152159,1.743260807991028,-0.40164180792868137,2.273481120858743
8.905396666610613,-1.3884261806309224,0.9019020241498947,-0.2933934374526143,1.6814381431879404
8.915424666833133,-1.2640654054284097,0.030603157281875612,-0.2639842450618744,1.2916987203204147
8.925451666815206,-1.007662952542305,-0.8364746046066285,-0.29272444289177657,1.3419247331890087
8.935479750158265,-0.589028916656971,-1.4436974251270296,-0.5633803610131145,1.6578946743239653
8.94550675014034,-0.15286361262202264,-1.7895555531978609,-0.9286056733131409,2.021926026973912
8.955533750122413,0.40872446715831756,-1.9997869294881823,-1.277325428724289,2.407854585366673
8.965561750112101,1.0121082982420921,-2.24005428314209,-1.5389286875724792,2.900087568372252
8.975588750094175,1.5541144913434983,-2.344543442130089,-1.7959009516239166,3.337276738941911
8.985616750083864,2.1291852271556855,-2.4461464154720307,-2.0420394945144653,3.832360540792263
8.995643750065938,4.201766190826893,-2.8197811567783355,-2.9042628979682923,5.8344449500370885
9.005670750048012,8.358362056016922,-3.6815414607524874,-5.2032992148399355,10.511435986860068
9.0156987500377,10.233119727373124,-3.5620021533966066,-7.135925610065461,12.974052297102212
9.025725750019774,8.184340732097626,-2.273394522070885,-6.067596040964127,10.438748851676515
9.035753750009462,3.234859793186188,0.5786334443092347,-5.272064809799194,6.212390997286694
9.045780749991536,-0.5431592640280724,3.9603437197208406,-6.0447673416137695,7.246968785545596
9.05580774997361,-1.6323850277066232,5.274955673217773,-5.9904057776927955,8.147073070404385
9.065835749963298,-1.8746278631687165,3.6662591779232026,-4.295563423633576,5.950424448014884
9.075862749945372,-1.7834449204802514,0.37486382603645324,-2.0725081658363345,2.759798682859999
9.085890750167891,-2.27674965441227,-3.4774864983558658,-0.008319272249937058,4.156509418418837
9.095917750149965,-2.994371414780617,-6.709755975008012,1.2666355490684509,7.455967477663441
9.10594475013204,-3.7425030693411827,-7.369358738064767,2.0054581439495087,8.50503614345366
9.115972750121728,-4.3678288695216185,-6.062351088523865,2.297400265932083,7.817165581964974
9.125999750103801,-4.234134622514248,-4.929439022541047,1.7539378237724306,6.730792150124967
9.13602775009349,-2.8791724956035614,-4.209072579145432,0.79704332113266,5.161511822297436
9.146054750075564,-1.4428381767868996,-3.5578997468948366,0.27040799617767336,3.8488378892524056
9.156081750057638,-0.3599908483028412,-2.9929435247182847,0.31743832111358644,3.0311831750533194
9.166109750047326,0.19501165866851808,-2.822945085167885,0.7697976350784302,2.9325137510099606
9.1761367500294,0.5262362524867058,-2.977238488197327,1.3057300329208374,3.293296908556258
9.186164750019088,0.574703823029995,-3.1257256060838703,1.9089428329467775,3.707358599891915
9.196191750001162,0.23136993795633318,-2.723781570196152,2.4741463923454288,3.6869931463302223
9.206218749983236,-0.6373140540719032,-1.4968766820430757,2.8939449012279512,3.3198985068982316
9.216246749972925,-1.9581065145134926,-0.05370609104633332,3.353443665504456,3.883638742739548
9.226273749954998,-2.3415245246887206,0.8540764778852463,7.352170847654343,7.763156568232666
9.236301749944687,-1.7809279865026475,1.4331069481372833,12.656416393518448,12.861196520698618
9.246328750159591,-1.4524355041980743,2.7845715630054477,8.975990581512452,9.50956437502549
9.256355750141665,-2.126035624444485,3.7413280713558197,4.521961766481399,6.242251311141012
9.266383750131354,-2.8875296285748484,4.226725907921791,2.7429417264461518,5.807475232084445
9.276410750113428,-3.3443471521139148,4.735544182062149,1.729623931646347,6.049928554870618
9.286438750103116,-3.121434919238091,5.335294845700265,1.1616353434324265,6.2895249197937115
9.29646575008519,-2.387928320467472,5.780193697214127,0.9033019937574864,6.318923589736686
9.306492750067264,-2.0734130224585536,5.948678877353668,0.690377243757248,6.337384530409391
9.316520750056952,-2.102036312520504,5.814643152952194,0.3695538233220577,6.1939649404610435
9.326547750039026,-2.2112210780382155,5.307814101576805,0.10474000453948976,5.750944240853758
9.336575750028715,-2.7226001402735713,4.46304697573185,-0.12190845295786858,5.229359569039929
9.346602750010788,-3.053559270501137,3.417006992697716,-0.46507715418934825,4.606132625745527
9.356629749992862,-2.9463798075914385,2.285316410064697,-0.9894794274866582,3.857835481473112
9.36665774998255,-2.485913036763668,1.0886275935173035,-1.1676176297664642,2.9543534983241755
9.376684749964625,-1.2519973370432855,0.14680370450019836,-0.6819819577038289,1.4332299362809886
9.386712749954313,-0.024035857021808625,-0.44806277990341187,-0.18302895963191987,0.48460043048009055
9.396739750169218,0.8864642053842545,-0.7574073851108551,0.1060961200296879,1.1707865395251837
9.406766750151291,1.1035365316271784,-1.0372896248102188,0.21306669116020205,1.529431285562259
9.41679475014098,1.0719861254096033,-1.4068453484773638,0.25126421213150024,1.78647748149848
9.426821750123054,1.283492194712162,-2.028593237400055,0.14990046299993992,2.405205372836148
9.436849750112742,1.5423253351449968,-2.7840330344438553,-0.08456718362867832,3.183827725372664
9.446876750094816,1.8976255470514298,-3.472235698699951,-0.39314514577388765,3.97642635664162
9.45690375007689,2.400232324004173,-3.880236865282059,-0.6787611651420593,4.612815849260993
9.466931750066578,2.8672386208176612,-4.135405263304711,-0.9128749821335078,5.1142912249384
9.476958750048652,3.060527105033398,-4.197414400577546,-1.2425228011608125,5.3412523552276
9.48698675003834,3.2001276245713237,-3.939758597016335,-1.5814182110130788,5.316333151189119
9.497013750020415,3.303764259517193,-3.4602711260318757,-1.8799535071849824,5.140287904124652
9.507040750002488,3.4478203573822976,-2.9598734271526337,-2.173605939745903,5.037149859081298
9.517068749992177,3.7146881568431858,-2.7842534744739535,-2.4896508693695067,5.267763943464404
9.52709574997425,3.7835654336214066,-2.904631857275963,-2.836304803490639,5.549493540414407
9.53712374996394,3.4960560858249665,-3.0244816517829896,-3.1462031400203707,5.591823639518667
9.547150749946013,2.7225524854660037,-2.983355260491371,-3.206942846775055,5.1572456863039156
9.557177750160918,1.7926867371797564,-2.625289900302887,-3.1567614573240284,4.480068715626922
9.567205750150606,0.8117271414399148,-1.9761402046680452,-3.0836192214488984,3.751364893414767
9.57723275013268,-0.09088298052549362,-1.0936649698019028,-2.952451556324959,3.1498147524523827
9.587260750122368,-0.5543025952577592,-0.6082928609848023,-2.7499507838487625,2.8704530801643466
9.597287750104442,-0.34046319454908375,-0.8028928756713868,-2.5239085364341736,2.6703307766888593
9.607314750086516,0.21751203685998918,-1.1788857990503312,-2.096943680047989,2.415420462502279
9.617342750076205,0.10362523287534714,-1.379289175271988,-1.499179900288582,2.0397836138522716
9.627369750058278,-0.42097292214632037,-1.4886590051651,-0.9521407163143158,1.8165615262090893
9.637397750047967,-1.026863454580307,-1.5408670395612718,-0.49321782968938355,1.9162420555562458
9.64742475003004,-1.5987533050775529,-1.4144765496253968,-0.07334279537200929,2.135915542705176
9.657451750012115,-2.2600584849715233,-1.2794058680534364,0.3287749028205872,2.6177923270240577
9.667479750001803,-2.960176605284214,-1.127574727535248,0.7535470533370973,3.2560564279878785
9.677506749983877,-3.58333484262228,-0.786863318681717,0.9572360531240702,3.7915357492760364
9.68753374996595,-4.200864842534066,-0.11640987753868104,1.1278460383415223,4.351189879909862
9.69756174995564,-4.601333625912667,0.797463151216507,1.1277296787500382,4.804164114894124
9.707588749937713,-4.6981167393922805,1.7741148108243943,1.1203183329105377,5.14537631529511
9.717616750160232,-4.251454952359199,2.4934153068065643,0.9017738970369101,5.010507485827556
9.727643750142306,-3.569565819203854,2.9960799711942676,0.6965986812114716,4.71206377865214
9.73767075012438,-3.049955046772957,3.1550125551223758,0.5432401748746634,4.421701018602852
9.747698750114068,-2.523672893643379,3.121474095582962,0.40804677486419677,4.034727695146587
9.757725750096142,-2.155474016368389,2.980843296647072,0.43722087264060977,3.7044104910063185
9.76775375008583,-1.8345656651258468,2.9105615186691285,0.420586713552475,3.4661062761019106
9.777780750067905,-1.6897087910771371,2.7806328785419465,0.4150575864315033,3.280138381825708
9.787807750049978,-1.1346839185059072,2.8063869398832324,0.41189183078706265,3.054991019877507
9.797835750039667,-0.5394831195473672,2.786864840984345,0.6152924166619778,2.904521033869955
9.80786275002174,-0.19677590981125834,2.752436435222626,1.208677874431014,3.012561915174883
9.81789075001143,-0.0837391448020935,2.710693747401238,1.6540346360206606,3.1765867552655243
9.827917749993503,0.14630786061286927,2.3929999029636386,2.163799574375153,3.22953295752299
9.837944749975577,-0.4565052822232247,2.3060541450977325,1.9316639435291292,3.0426318185989323
9.847972749965265,-1.259241744875908,2.1766406446695328,1.4576687622070312,2.9065877740711183
9.85799974994734,-1.78700777515769,1.8317607557773592,1.1096026524156333,2.7892583783378493
9.868027749937028,-1.5040832291543484,1.2906149804592133,0.9233530464023352,2.1864432844941533
9.878054750151932,-0.9070773947238923,0.8216618531942368,0.6037910896539689,1.3647275482524701
9.888081750134006,-0.3749746307730675,0.36884119391441345,0.030977379083633426,0.5268865134604409
9.898109750123695,-0.18506481394171714,0.033789305090904234,-0.4260024777799845,0.46569175811097924
9.908136750105768,0.2654099424183369,-0.18393995583057404,-0.8405028245598078,0.9004006569180597
9.918163750087842,0.810869354903698,-0.6719626075029373,-1.3815450310707094,1.737155585858749
9.92819175007753,1.5837803399562838,-1.3263408833742143,-2.381640517115593,3.1527372007366172
9.938218000112101,4.516745757758618,-1.7455458998680116,-4.563705039024353,6.653970725213086
9.94824600010179,6.243141149282455,-2.7358151400089263,-5.508280627727509,8.763712190844933
9.958273000083864,4.800692981779576,-4.111579028964043,-4.3753077507019045,7.687330689522647
9.968300000065938,4.157089077830315,-4.303039673566818,-3.686157252788544,7.027467205586356
9.978328000055626,4.799309822916984,-3.0430155712366105,-3.531119499206543,6.690450168771351
9.9883550000377,5.218120737075806,-1.0464779394865036,-3.668199284076691,6.463713026754299
9.998383000027388,3.7580943775177005,0.902677949666977,-4.948605026006699,6.279075770729629
10.008410000009462,1.1056564396619797,1.9900442987680436,-6.219118448495865,6.622702375167317
10.018436999991536,-0.28923339933156966,1.7915365898609161,-6.157232687473297,6.419094459484844
10.028464999981225,-0.8501874947547913,0.38488127589225773,-4.596898512840271,4.69067461140964
10.038491999963298,-1.871431482732296,-1.3099914836883546,-2.071796121150255,3.0839378478676998
10.048519999952987,-3.7671751034259797,-2.874594710469246,0.8702201286703348,4.817902664196665
10.058547000167891,-5.7113865870237355,-4.138383250236512,2.5126538157463076,7.487294696354433
10.068574000149965,-5.982717858552933,-4.5079085683822635,2.334650537967682,7.846320524320633
10.078602000139654,-5.384976882934571,-4.76828098833561,1.739654245376587,7.40005922320351
10.088629000121728,-3.7632141995429995,-4.566690627336502,0.694380247592926,5.958070856048317
10.098656000103801,-1.5729173827171326,-4.113889848589897,-0.12164547443389893,4.406013663237436
10.10868400009349,-0.07347465008497238,-3.7736807155609133,-0.38069116115570073,3.7935458910343383
10.118711000075564,0.7042114636301995,-3.6710305058956147,-0.23615851521492007,3.745417146998838
10.128739000065252,0.8696879589557648,-3.55130350291729,0.23271450519561768,3.6636415977431116
10.138766000047326,0.6035186094045639,-3.2098079824447634,1.4002678155899049,3.5535689034322475
10.1487930000294,-0.5336171928048135,-2.5365046083927156,4.744861135482789,5.406691236964563
10.158821000019088,-1.9819412273168564,-1.171885512471199,10.630949077606202,10.877430072105005
10.168848000001162,-2.7145002847909927,-0.13795511305332184,9.288399127721787,9.677907922955807
10.17887599999085,-2.5222198605537414,0.6084016191959382,6.734135355949403,7.21666990705961
10.188902999972925,-1.933755492568016,1.8653027236461641,6.326529461145402,6.873408148700286
10.198929999954998,-1.458757806122303,2.9647301244735718,5.156931964159012,6.124667038366148
10.208957999944687,-1.5339801889657976,3.75648054599762,3.7143086725473404,5.500939031434406
10.218985000159591,-1.7236840376257898,4.2573963081836705,2.392522185444832,5.178867868013974
10.229012000141665,-1.661396280527115,4.538212348222733,1.2406470143795014,4.989470305834017
10.239040000131354,-1.56260143250227,4.960694729089737,0.5218183521553874,5.227093822070062
10.249067000113428,-1.4490891426801682,5.284362089037895,0.143764248713851,5.481332884500151
10.259095000103116,-1.3807960027456285,5.389535956978798,0.057165888547897344,5.563898217219573
10.26912200008519,-1.3129156762361527,5.255909537672997,0.1399706300161779,5.419218063371849
10.279149000067264,-1.351299431025982,4.763106202483177,0.25274819891899825,4.957526853228498
10.289177000056952,-1.459228214621544,4.118334901928902,0.34263276737183335,4.3826278144590605
10.299204000039026,-1.5961094865202905,3.360539261698723,0.4365624761581421,3.7458478903938413
10.309232000028715,-1.508796231150627,2.6207261484861375,0.4964011269807816,3.0644878350812736
10.319259000010788,-1.268765982091427,1.9144088101387025,0.45920464932918553,2.3421351625417874
10.329285999992862,-0.8962878200411797,1.314860460162163,0.2810119034908712,1.6159076631898208
10.33931399998255,-0.42356060743331914,0.8630385053157806,0.06558704853057862,0.9636081728389042
10.349340999964625,0.04747939109802246,0.5356797981262207,-0.18505330223590136,0.568728286062861
10.359367999946699,0.3989502614736557,0.1355834823846817,-0.3780915256217122,0.5661248922034867
10.369396000169218,0.7448411339521408,-0.3094124329090119,-0.5695439475774765,0.9873726128913644
10.379423000151291,1.1426102578639985,-0.9231537294387818,-0.684818880558014,1.6207245011788698
10.38945100014098,1.6260279348492623,-1.7078196644783021,-0.8212028467655182,2.496995988547985
10.399478000123054,2.0814324787259104,-2.440308555364609,-0.9148039054870606,3.335316056144481
10.409505000105128,2.416074185371399,-2.9586209535598758,-1.0115694773197175,3.9514712732736026
10.419533000094816,2.644411464929581,-3.2257691270112994,-1.033640377521515,4.297314380711873
10.42956000007689,2.694841068685055,-3.4134349286556245,-1.0343666017055513,4.470304314513915
10.439587000058964,2.7848098370432854,-3.48935283780098,-1.0936363184452058,4.596388740324863
10.449615000048652,2.9275737002491953,-3.3284491574764252,-1.1142898535728456,4.570656784541111
10.459642000030726,3.1444872745871546,-3.0533616346120835,-1.1815492057800294,4.539479707790414
10.469670000020415,3.39270391792059,-2.7520914494991304,-1.311123504638672,4.561084527335131
10.479697000002488,3.6466996568441394,-2.521900602579117,-1.506139841079712,4.682612332598514
10.489723999984562,3.8694858822226528,-2.4071764773130417,-1.66329370200634,4.851181868862845
10.49975199997425,3.90375144302845,-2.423219482898712,-1.8205048656463625,4.942216704788317
10.509778999956325,3.441515304744244,-2.0824753296375276,-1.8814310985803606,4.440778543233506
10.519805999938399,2.585864464044571,-1.3233921325206757,-1.896174852848053,3.4689394395693154
10.529834000160918,1.5371949881315232,-0.4513068151473999,-1.8511536312103272,2.448145428539396
10.539861000142992,0.5211208158731461,0.294803164601326,-1.790948359966278,1.8883780973791109
10.54988900013268,-0.0771262362599373,0.5239999848604202,-1.815498479604721,1.8911793066497946
10.559916000114754,-0.26139509797096255,0.2837507575750351,-1.9075278067588808,1.9461511306232107
10.569943000096828,-0.1912814274430275,-0.4690876132249832,-2.014129564762116,2.0768605338381736
10.579971000086516,0.30396867513656617,-1.4196525049209596,-1.8452233850955964,2.347905349688587
10.58999800006859,0.6464734250307084,-1.8643075275421144,-1.3918174195289612,2.414689664496327
10.600026000058278,0.21583271652460098,-1.9157127392292024,-0.8020859599113465,2.088032793768898
10.610053000040352,-0.481318234205246,-1.7604141998291016,-0.16530080476775766,1.8324982274466899
10.620080000022426,-1.150011371076107,-1.4972012025117876,0.32099459767341615,1.9149869780608453
10.630108000012115,-1.9053058648109438,-1.2348044764995576,0.7014390063285828,2.376331040336248
10.640134999994189,-2.5235196965932847,-1.0174997234344483,0.9069464170932771,2.8681020117425695
10.650161999976262,-3.0924634274840357,-0.7330414527654648,0.9769621467590333,3.324926293618977
10.66018999996595,-3.6854605570435526,-0.3315166622400284,1.037595434188843,3.843062203492948
10.670216999948025,-4.140331542491913,0.34832272946834564,1.1526382327079774,4.311873015421247
10.680244999937713,-4.232539794445038,1.3569153892993928,1.1237366151809693,4.584582474509184
10.690272000152618,-4.006903051435947,2.2965606057643893,1.0383415389060975,4.733668327098287
10.700299000134692,-3.534752666652203,2.907499331831932,0.8658346438407898,4.658078832467619
10.71032700012438,-3.1357076802849773,3.2057377356290817,0.7923819208145142,4.553821054265106
10.720354000106454,-2.850637790858746,3.275510805845261,0.8956273770332337,4.433650330413139
10.730381000088528,-2.2529447624087333,3.25804458796978,0.9473038995265961,4.072836765415773
10.740409000078216,-1.7161396676301957,3.0910843616724017,0.9248938608169556,3.6544994928945402
10.75043600006029,-1.4146674612164498,3.05862939119339,0.8738780736923218,3.4814021121061045
10.760463000042364,-1.0393548613786698,3.2517424589395523,0.5741872215270997,3.461759453299251
10.770491000032052,-0.918645233809948,3.384171953201294,0.19152554869651794,3.5118671544122364
10.780518000014126,-1.1891991180181505,3.3246712714433673,-0.13405794382095337,3.5334975785696394
10.790546000003815,-1.4695255999267103,3.1793200153112413,-0.4071556226536632,3.5260965598884444
10.800572999985889,-1.5410586820542813,2.8490856474637987,-0.4623158796876669,3.271985155945924
10.810599999967963,-1.3711600837111473,2.374342022538185,-0.3508691187947989,2.764179652930923
10.820627999957651,-1.298610024601221,1.8771386575698854,-0.141909475363791,2.2869577685073423
10.830654999939725,-1.2230740848183632,1.3659493374824525,0.07190788865089418,1.8349110479729684
10.84068200015463,-0.788773311674595,0.813924817442894,0.2937466458231211,1.1708646538314709
10.850710000144318,-0.3451289802789688,0.17751854360103608,0.4409443795681,0.5874170513556195
10.860737000126392,0.07065892338752747,-0.42500603914260865,0.4867994141578675,0.6500742160603019
10.87076500011608,0.5426847624778748,-0.8703726679086685,0.35157889768481254,1.0842799701946857
10.880792000098154,0.698042651116848,-1.2615391159057618,0.29102981016039847,1.4708646552761155
10.890819000080228,0.9679738068580628,-1.4943249571323396,0.2841371123492718,1.802973728839675
10.900847000069916,1.2190830677747726,-1.5515627664327623,0.2937407986074686,1.9949421548210842
10.91087400005199,1.94960495531559,-1.5642149716615679,-0.015963921993970873,2.4995965286755246
10.920901000034064,3.8860788184404376,-1.5750434303283691,-0.886420351266861,4.2858034753931555
10.930929000023752,5.869459630250931,-1.8742618274688723,-2.00707095220685,6.480103977271111
10.940956250065938,7.0772002691030504,-2.513658367395401,-3.2772836816310886,8.194255937353594
10.950984250055626,8.001281366944314,-2.7126613354682925,-6.546463122367859,10.688087501816087
10.9610112500377,7.515657827854157,-1.435035944581032,-8.345304054021836,11.322037824601114
10.971038250019774,4.919180082678795,1.049767583012581,-5.982232539653778,7.815846136066161
10.981066250009462,1.1744635498523712,3.2458946585655215,-3.191391592025757,4.701082541084416
10.991093249991536,-0.6353090438246727,2.6720366352796554,-2.8442988243699077,3.953913651529846
11.00112024997361,0.0219831919670105,-0.44482225298881534,-2.6765840148925784,2.7133838811088964
11.011148249963298,0.7756828576326371,-3.944776092767716,-1.2748940102756023,4.217617461924856
11.021175249945372,0.5780305963754654,-5.93186930179596,-0.32187431126832966,5.96865109184562
11.031203250167891,-0.6818829935789109,-5.356775761842728,0.33957354068756107,5.410667349702157
11.041230250149965,-1.466524370312691,-3.439778974056244,0.8020356738567352,3.8243998668051553
11.05125725013204,-1.5772302889823915,-2.446078587770462,1.1610067677497864,3.133511218552348
11.061285250121728,-1.2868976131081582,-2.563480737805367,1.1840592692792415,3.1031492572689303
11.071312250103801,-0.8734178978204727,-3.1455394810438158,1.0471708345413209,3.4283879896756866
11.081339250085875,-0.7102533915638924,-3.5141280752420427,0.9461521442234516,3.707932023305038
11.091367250075564,-0.41340077787637713,-3.4415939497947696,1.123636043071747,3.643902725883704
11.101394250057638,0.08211712718009949,-3.0141186314821247,1.6631633090972902,3.4435107869660344
11.111421250039712,0.3301910984516144,-2.4741539937257766,2.3842631395161153,3.451836448127451
11.1214492500294,0.4743989315629006,-2.0446806818246843,3.2577034029364587,3.8753586799674244
11.131476250011474,0.9305220982432366,-1.4944623667001724,5.043789510726929,5.342200086979246
11.141504250001162,1.7104076421260834,-0.8319055902957917,8.905286049842834,9.10613424252762
11.151531249983236,1.0007237693667412,0.0561473035812378,8.61604651093483,8.67414883783229
11.16155824996531,-0.45299432158470154,0.9871953588724137,5.461846718788148,5.568799521575909
11.171586249954998,-1.8787799710035324,1.588746964931488,3.846320675611496,4.565973481926886
11.181613249937072,-2.844088032245636,2.336498258113861,3.249595946073532,4.9099831627073325
11.191640250151977,-3.5334689104557038,2.9825518530607225,2.7322880995273593,5.370885993592845
11.201668250141665,-3.967087021172047,3.333147979974747,2.2333943045139315,5.642313799266814
11.21169525012374,-4.203027142882347,3.543861751556397,1.730194619894028,5.763502988691891
11.221722250105813,-4.318686237931252,3.7949189722537997,1.20941352725029,5.874958885606317
11.231750250095502,-4.412042005956173,3.9469074028730393,0.7650227987766266,5.9690411786001105
11.241777250077575,-4.461739538311958,3.843529214859009,0.470452938079834,5.9077205841304705
11.251805250067264,-4.3225395530462265,3.548586301803589,0.21469338655471804,5.596687071761962
11.261832250049338,-4.041541956961155,3.1432865488529207,0.005806294279173017,5.119994671006052
11.271859250031412,-3.511252706944943,2.7557512217760087,-0.25732309699058536,4.4709367636540085
11.2818872500211,-2.7453648126125336,2.39381032705307,-0.29221050918102265,3.654140503307558
11.291914250003174,-1.8521608141064645,2.0941142123937606,-0.23292851328849792,2.8053644519320216
11.301941249985248,-1.2043472072482109,1.9400465118885042,-0.19648047924041748,2.2919069009494826
11.311969249974936,-0.7480100324749946,1.8117691254615784,-0.1250544011592865,1.9640939325572908
11.32199624995701,-0.4271627846360207,1.517216221690178,-0.060266091423109173,1.577353831489066
11.332024249946699,-0.19506633013486863,1.1917549359798432,-0.1401600980758667,1.2157201790203378
11.342051250161603,-0.06527129888534547,0.7873001056909562,-0.3121968770027161,0.8494519932812095
11.352078250143677,-0.15295672953128817,0.35230936110019684,-0.5746321946382523,0.6911727758979739
11.362106250133365,0.1242372527718544,-0.2595415306091309,-0.8522328507900239,0.8994984897446572
11.37213325011544,0.7323087966442109,-1.045539461374283,-0.9866954219341278,1.6133805485994568
11.382160250097513,1.2125575751066209,-1.9636259937286378,-1.0073571431636812,2.518112652380374
11.392188250087202,1.6248122987151146,-2.929627534747124,-0.9638737392425537,3.485941061407354
11.402215250069275,1.983182591199875,-3.6589285236597062,-0.9819311106204988,4.276091654454246
11.41224225005135,2.378804617524147,-4.021389820575714,-0.935003696680069,4.76492596061991
11.422270250041038,2.6993054178357125,-3.9935845559835434,-0.8952554941177369,4.902698210607655
11.432297250023112,2.94576701939106,-3.588373680710793,-0.9298207247257233,4.734821600132309
11.4423252500128,3.1506037545204166,-2.9759287118911746,-1.094697003364563,4.469990743327302
11.452352249994874,3.3932132104039194,-2.366317303776741,-1.394695419073105,4.365607493281594
11.462379249976948,3.608208020925522,-2.11367548763752,-1.7577034306526185,4.536111830570204
11.472407249966636,3.7527719494700436,-2.3270930117368698,-2.1323742985725405,4.903639397347291
11.48243424994871,3.7413023436069492,-2.7157089042663576,-2.456386059522629,5.235097950602982
11.492461250163615,3.172524673640728,-2.728605523109436,-2.6662414598464967,4.961758199248217
11.502489250153303,2.1719286659359933,-2.424463185667992,-2.675991107225418,4.213813507326043
11.512516250135377,1.4513724803924561,-1.727773872613907,-2.6599007391929628,3.4880878105470736
11.522543250117451,1.0211501401662828,-1.0143463200330736,-2.612671608924866,2.98290110493263
11.53257125010714,0.968307390511036,-0.606582550406456,-2.604796578884125,2.8443851374844327
11.542598250089213,1.4368210995197297,-0.7148297148942948,-2.41500882267952,2.8996041121058
11.552625250071287,1.6039517721533776,-0.9214323091506958,-1.8353047531843187,2.605770965530489
11.562653250060976,1.1559264144301415,-1.0150538331270218,-1.1556238210201264,1.9240495252025973
11.57268025004305,0.5826072120666504,-1.157192628979683,-0.5265335834026337,1.3984861667416677
11.582708250032738,0.09537861227989197,-1.4200699961185457,0.007058777008205653,1.4232869351924144
11.592735250014812,-0.3115583610534668,-1.701687104701996,0.4792085587978363,1.795117950853504
11.602762249996886,-0.6409071680903435,-1.8679573595523835,0.7848588931560517,2.1250953337160285
11.612790249986574,-0.9946245387196542,-1.8037976163625717,1.0009942030906678,2.290186282475664
11.622817249968648,-1.5772949007153512,-1.6733058893680572,1.297685433626175,2.6404164989376255
11.632844249950722,-2.297255839705467,-1.3572311389446259,1.5987305009365083,3.1105304969098917
11.64287224994041,-2.9025996574759483,-0.7087778466939927,1.7551821112632753,3.4652727239341887
11.652899250155315,-3.515354236364365,0.14925485730171204,1.9355207669734955,4.015748131910007
11.662926250137389,-3.956647694706917,1.2421368849277497,2.0392842864990235,4.621325072107502
11.672954250127077,-4.219922380149365,2.10969119489193,1.9804425859451296,5.116707405013018
11.682981250109151,-4.0997007027268415,2.8618413484096528,1.5765566897392274,5.242443395151506
11.693008250091225,-3.6537651398777964,3.5996512055397036,1.2810337328910828,5.286637487452163
11.703036250080913,-3.278995161652565,3.992256068587303,1.024131635427475,5.266760236995457
11.713063250062987,-2.6762720659375194,4.100257065296173,0.8322166621685029,4.966600924698858
11.723091250052676,-2.0633616587519645,4.039740722179413,0.7448323631286622,4.596927418005002
11.73311825003475,-1.4093166741728784,3.8235738372802737,0.686263142824173,4.132414243324937
11.743145250016823,-0.8094777175784111,3.3945741498470308,0.5860360193252564,3.5386192293057244
11.753173250006512,-0.339477353990078,2.9319412779808047,0.5122336328029633,2.9956481478929295
11.763200249988586,-0.033202244639396666,2.5730578923225402,0.5111437118053437,2.6235466834822194
11.77322724997066,0.17475164115428926,2.194179368019104,0.5105297541618348,2.2595578914936825
11.783255249960348,0.2281218096613884,1.7048375844955446,0.5211529755592347,1.7972510045861803
11.793282249942422,-0.2640207901597023,1.2244110506772996,0.5105624985694885,1.35261356772833
11.803309250157326,-0.788511648774147,0.8459891939163209,0.47133937597274783,1.2488431221807204
11.813337250147015,-1.05739498347044,0.4623615610599518,0.368316113948822,1.2114120372559491
11.823364250129089,-1.158980707526207,-0.03944473206996918,0.1597459133528173,1.1706028037464054
11.833391250111163,-1.0545400804281235,-0.653541539311409,-0.030578580703586343,1.2410102233393265
11.843419250100851,-0.5632926893234254,-1.1050062292814256,-0.25655122797936203,1.266552783413976
11.853446250082925,0.017997145056724548,-1.3558166974782944,-0.5879235005378723,1.4779096240554925
11.863474250072613,0.3497664070129395,-1.35038755774498,-0.9842278969287873,1.7072163450131494
11.873501250054687,0.4854171323776245,-1.1880922400951386,-1.3064387154579162,1.8313861091062504
11.883528250036761,0.7267556959390641,-1.107596545815468,-1.5693412256240846,2.0537224331261354
11.89355625002645,1.0741010633111001,-1.1730379986763002,-1.8406122708320618,2.432604524389876
11.903583250008523,2.0815038147568705,-1.3053394389152528,-2.101843646764755,3.2333134548138625
11.913610249990597,4.101824411451817,-1.4268083274364471,-2.9601119935512545,5.255759556904218
11.923638249980286,7.340588682889939,-1.3587385511398316,-6.288003326654435,9.760604412521934
11.93366524996236,6.825254856348038,-1.0068291395902633,-7.481130019426346,10.176694705944195
11.943692416651174,3.0097346815466883,0.050481936335563665,-5.541817917823792,6.306567776018423
11.953720416640863,-0.23503146439790726,1.1426979660987855,-3.3928761184215546,3.5878415218538624
11.963747416622937,-1.7910936632752419,0.6649956500530243,-2.410126397609711,3.0755397863902414
11.97377441660501,-1.837874019742012,-1.3670989000797273,-2.109076798707247,3.11367070479315
11.98380241682753,-1.0022352746129037,-4.292145141363144,-1.7896479392051698,4.7570815850169055
11.993829416809604,-0.7220326074957848,-6.554536373019219,-1.1284189192950727,6.690037922832886
12.003857416799292,-1.6940579500794413,-6.429120029211044,-0.239675030708313,6.652883646102268
12.013884416781366,-3.1093645119667053,-4.408078470826149,0.9898820082843304,5.484447999896068
12.02391141676344,-3.542081274390221,-2.573651384711266,1.5319447731971743,4.638628675862965
12.033939416753128,-2.571485868394375,-1.5801924884319307,1.0517538821697237,3.1962062043159474
12.043966416735202,-0.9314102903008461,-0.7937466609477998,0.64554079413414,1.3835757324900664
12.053993416717276,-0.002352042496204376,-0.3339280539751053,0.8099247372150421,0.8760659548734672
12.064021416706964,0.7156983187794685,-0.5755250644683838,0.8573983541876078,1.2564175743353456
12.074048416689038,1.2416860646009447,-1.305883229970932,1.1062721514701843,2.1144629025977175
12.084075416671112,1.5289068523049356,-1.9908927297592165,1.9132276725769044,3.156208192047402
12.0941034166608,1.1971478229761123,-2.2262039834260943,3.253694844245911,4.120155000160926
12.104130416642874,0.7303935411572456,-1.903532989025116,6.791046305894852,7.090502273751785
12.114157416624948,-0.13529258340597153,-0.763769155740738,9.156840283870698,9.189633909503838
12.124185416614637,-0.9446302601695061,0.5478086775541305,8.796247172355653,8.863768103510285
12.134212416829541,-1.496551284492016,1.2527963590621949,7.1282961630821235,7.390654277735194
12.144239416811615,-2.0465555915236475,2.0211549943685534,5.001523497104645,5.769635568434762
12.154267416801304,-2.5361298018693925,2.668556372523308,3.419013172388077,5.024221189222069
12.164294416783378,-2.8196943256258966,3.1051925235986713,2.350435681343079,4.808060377190647
12.174321416765451,-2.893357548415661,3.267290790081024,1.7144889986515046,4.688942262005281
12.18434941675514,-2.7289519706368446,3.1966236805915833,1.2874124604463577,4.395794883371395
12.194376416737214,-2.5738884893059732,3.0642883265018463,1.0384573137760162,4.134387318074127
12.204404416726902,-2.4621791884303095,2.832593575716019,0.9004735493659973,3.8596327978494016
12.214431416708976,-2.411817412376404,2.4894052863121034,0.8298321676254273,3.564073980234778
12.22445841669105,-2.291776998639107,2.0939440584182742,0.9649964046478272,3.250855516976985
12.234486416680738,-2.1268361082673075,1.682420529127121,1.0201520204544068,2.89735755699831
12.244513416662812,-1.9976743304729463,1.307025775909424,1.065209494829178,2.6141328155616725
12.254540416644886,-1.8854218232631685,0.9444592291116715,1.1865088140964508,2.4196325863692176
12.264568416634575,-1.6279221403598787,0.7754659259319305,1.201363080739975,2.1667374435128033
12.274595416616648,-1.3385127398371697,0.7767131370306015,1.074184970855713,1.8838187289531372
12.284622416831553,-0.965905354321003,0.8918073910474777,0.8573725533485413,1.5695162539675365
12.294650416821241,-0.5028611308336258,0.9642327582836152,0.580870589017868,1.2328928462102724
12.304677416803315,-0.04197862297296524,0.8762280696630478,0.29266483783721925,0.9247651281046573
12.31470441678539,0.4345025020837784,0.72535879611969,0.06142967820167542,0.8477684900898542
12.324732416775078,0.8557993599772453,0.490644543170929,-0.0872825574874878,0.9903246220923869
12.334759416757151,1.221926276385784,0.2146840310096741,-0.25253656625747684,1.2660836368067108
12.344786416739225,1.4704858589172365,-0.12460124194622041,-0.40476765632629397,1.5302584704480429
12.354814416728914,1.7883194518089296,-0.4437171292304993,-0.5161547756195068,1.9134751382982664
12.364841416710988,2.0606146368384364,-0.7414918488264084,-0.5901571369171142,2.268089127367576
12.374868416693062,2.3013474288582803,-1.1143518340587617,-0.6403578221797943,2.635913150847272
12.38489641668275,2.5772292959690097,-1.5683518767356874,-0.6748318362236023,3.0914780381626827
12.394923416664824,2.808710038661957,-1.9544195526838304,-0.681913983821869,3.489070728793718
12.404950416646898,2.885469362139702,-2.117056932449341,-0.7698631238937378,3.660676539194652
12.414978416636586,2.8696567368507386,-2.007545599937439,-0.8587688684463501,3.605919174439941
12.42500541661866,2.58078674197197,-1.6919631850719452,-0.8503009307384491,3.200970368496367
12.435032416833565,2.324645074903965,-1.1088402485847473,-0.9658033204078674,2.750686727867717
12.445060416823253,2.3889828658103944,-0.3159373408555985,-1.1354801630973816,2.6639014128285994
12.455087416805327,2.527400493621826,0.3186668211221695,-1.2793035417795182,2.850599822853706
12.465115416795015,2.7692237913608553,0.6300936198234558,-1.4356177425384522,3.1822345418074414
12.47514241677709,3.279287814795971,0.5513257777690888,-1.6361854255199433,3.7060479533036137
12.485169416759163,3.80439321577549,0.369084438085556,-1.7770091825723648,4.215138514642432
12.495197416748852,3.889264381527901,0.39709260106086736,-1.7942040896415712,4.301537896906806
12.505224416730925,3.681205830574036,0.7196729636192322,-1.682595945596695,4.111001661122895
12.515251416713,3.2807121965289117,1.0989280486106874,-1.6666470801830293,3.8403681935928313
12.525279416702688,2.8099856087565422,1.3145733618736268,-1.6904265367984772,3.532939869496663
12.535306416684762,2.2809771913290025,1.1945896661281585,-1.6489651000499725,3.057611374744368
12.545333416666836,1.879148930311203,0.774072534441948,-1.3943668055534364,2.4646800561728925
12.555361416656524,1.7533200654387475,0.2325981456041336,-0.9450895589590073,2.0053497010900485
12.565388416638598,1.6080147099494935,-0.43266413748264315,-0.5259055924415589,1.7462778288230256
12.575415416620672,1.2452578362822533,-0.9890354776382447,-0.10618662396445872,1.5937797382193186
12.58544341661036,0.7319123554229736,-1.2565988034009934,0.20064720511436462,1.4679903097942504
12.595470416825265,0.15159725189208986,-1.438593390583992,0.4479914438724518,1.5143411121659822
12.605497416807339,-0.3948653966188431,-1.6753149926662445,0.7046386027336121,1.8598695025623795
12.615525416797027,-0.891177061200142,-1.9634254342317583,0.9679925179481507,2.3635239590495147
12.625552416779101,-1.2792813223600388,-2.193911565542221,1.13766826428473,2.7828219020842493
12.635579416761175,-1.8862451112270355,-2.4750456941127776,1.3699419625103475,3.400075409196213
12.645607416750863,-2.8281128543615344,-2.687951586842537,1.7629916524887086,4.2815237494330365
12.655634416732937,-3.7295032471418383,-2.531247961521149,2.05855437040329,4.9552050218989905
12.665661416715011,-4.827299859523773,-1.8520821690559388,2.3767469823360443,5.690514784510861
12.6756894167047,-5.686069312691689,-0.6442941677570343,2.460123599767685,6.2288608372216645
12.685716416686773,-5.74352873146534,0.7165704309940338,2.1865616154670717,6.187297242736671
12.695743416668847,-4.68252952426672,1.9699585282802583,1.7693241870403291,5.379342657576254
12.705771416658536,-3.1040470540523533,2.775648711919785,1.3525720775127412,4.37821711551862
12.71579841664061,-2.056410781145096,2.867048878669739,1.0832844078540802,3.6908399696804732
12.725825416622683,-1.6155628806352615,2.744867214560509,1.3251234930753708,3.449679944394254
