Time (s),Linear Acceleration x (m/s^2),Linear Acceleration y (m/s^2),Linear Acceleration z (m/s^2),Absolute acceleration (m/s^2)
0.007206249982118607,1.095178229212761,-1.0964397659897804,-2.9428521823883056,3.3259546722066036
0.017231249948963523,1.1181015072762968,-0.966170817911625,-2.9836259865760804,3.329513636813887
0.02725624991580844,1.2688145139813425,-0.8794364368915558,-2.7874554097652435,3.186409637641047
0.03728224989026785,1.5022178211808206,-0.7684305560588837,-2.5487399071455004,3.0566679597290696
0.047307249857112765,1.5695020240545274,-0.6719453582167626,-2.5584965711832046,3.0758335248671256
0.05733224982395768,1.400710157454014,-0.23951920241117478,-3.7039322036504747,3.967174329766414
0.06735725002363324,1.4221866881847383,-0.37582043051719666,-3.460024958252907,3.7597378477464405
0.07738324999809265,1.6891981829702856,-0.4551560372114182,-1.8261433357000352,2.5289043086051652
0.08740824996493757,1.3459360724687577,-0.1072586926817894,-0.6413477557897568,1.4947826872776488
0.09743324993178248,0.9995522797107697,-0.09519910275936128,0.010181756615638733,1.0041271319952292
0.1074582498986274,0.8589926706254483,0.07465900361537933,0.5480910980701447,1.0216879302374176
0.11748324986547232,0.6231110210716725,0.18522195786237716,0.556932088136673,0.8560069328291854
0.12750924983993173,0.4455563709139824,0.5462088793516159,0.1632782346010208,0.7235498610593553
0.14872149983420968,-1.028914657831192,-0.5834217292070389,0.669443626999855,1.3591177494763034
0.1587464998010546,-0.8182236903905868,-0.2698063176870346,0.6736045056581498,1.093630873111759
0.16877049976028502,-0.7011545392870904,-0.009966871440410615,0.2364251482486725,0.7400093764362776
0.17879549972712994,-0.5990603998303413,-0.08747493088245392,-0.4114989709854126,0.732022287433813
0.1888204999268055,-0.7550952498614788,-0.19107092767953873,-0.8663258099555969,1.1649881307390688
0.19884449988603592,-1.0874765691161157,-0.28697578936815266,-1.1474289482831956,1.606721377034087
0.20886949985288084,-1.3645234939455986,-0.35425853043794636,-1.2470684266090393,1.8821804197692371
0.21889349981211126,-1.5999399974942208,-0.4452347740530968,-1.3079987525939942,2.113977941321849
0.22891849977895617,-1.8680123233795167,-0.47275294035673143,-1.8739525097608567,2.687873395782005
0.2389434997458011,-1.8888523846864702,-0.35640621274709705,-2.548745754361153,3.192317910233017
0.2489673332311213,-1.6555683606863023,-0.2716873669624329,-3.078891162872315,3.5063216360005742
0.2589923331979662,-1.3805947123467923,-0.308040968477726,-3.3806063210964203,3.664618683609209
0.26901633315719664,-1.057127619534731,-0.27575293600559236,-3.583322855830193,3.746166196902364
0.27904133312404156,-0.7715075071156026,-0.09586568534374237,-3.6484836423397065,3.730395012807969
0.2890663330908865,-0.8474843269586564,0.0762324893474579,-3.6817724257707596,3.7788211484586802
0.2990903330501169,-0.8016000562906266,0.12179370135068894,-3.6638442778587343,3.752486009078785
0.30911533324979246,-0.548857668042183,0.05518719077110291,-3.6225845700502397,3.664342960608353
0.3191393332090229,-0.29312632933259014,-0.05297928214073182,-3.36438497543335,3.3775458712215602
0.3291643331758678,-0.022558265626430513,-0.08765853345394135,-2.6340700793266296,2.635624798153023
0.3391893331427127,0.07330873534083367,-0.060172234475612645,-2.190349441766739,2.192401775571012
0.34921333310194314,-0.05275270253419877,-0.0832471016049385,-1.9386537051200867,1.9411571589972114
0.35923833306878805,-0.2714240960776806,0.002783274650573731,-1.8681900787353516,1.8878063875394018
0.36926333303563297,-0.12786442682147026,0.12285789459943772,-1.8708482229709626,1.8792329412037772
0.37928733322769403,0.38917488634586334,0.09062833428382874,-1.7856238853931428,1.829787760157959
0.38931233319453895,1.0456287775933744,-0.07987179636955262,-1.7968645727634431,2.080490648197935
0.3993363331537694,1.6242671920359135,-0.2599622377753258,-2.0202305495738986,2.605217025436661
0.4093613331206143,1.5321535187959672,-0.38666876971721653,-2.4899028843641284,2.9490038175964264
0.4193853330798447,1.054248012006283,-0.5072979980707168,-2.4782534766197206,2.740534696741402
0.42941033304668963,0.8577644629776479,-0.6781667956709863,-1.7726717180013658,2.082795020279216
0.4394353332463652,1.587849124968052,-0.7723019975423814,0.13711545288562776,1.7710211366581121
0.4494593332055956,2.790752654671669,-0.587027414739132,1.29680776655674,3.132828107096551
0.45948433317244053,2.9591015946865085,-0.391756432056427,1.6505836093425752,3.410891613810703
0.46950933313928545,2.2155550342798236,-0.12970732301473617,2.7798318099975585,3.557101768496457
0.47953333309851587,1.4371864043176175,-0.31221821933984756,6.42598007440567,6.592132044634865
0.4895583330653608,1.0713041938841343,-0.5942937496304512,6.112359400391579,6.233924540467174
0.49958233325742185,0.7805442327260972,-1.240866869688034,3.890009316802025,4.1570629502496
0.5096073332242668,1.6029896128177643,-2.2228213691711427,2.924021809101105,4.00754464456036
0.5196323331911117,3.149221180379391,-2.443254674971104,1.5724800109863282,4.284831482645482
0.5296563331503421,3.175980085730553,-1.7619011467695238,1.2523051929473878,3.841798205557888
0.539681333117187,2.5437417072057724,-0.7949324762821198,2.4383111464977265,3.612187808234951
0.5497053330764174,1.9537459534406663,-0.16603402733802797,3.5097245371341708,4.020305569901563
0.5597303330432624,1.5268246588110925,-0.10258442848920822,3.6059375470876693,3.9172059809536064
0.5697553332429379,0.8173444153368473,0.18498777687549592,3.111581191420555,3.2224540154481383
0.5797793332021683,0.26285134702920915,0.4142325443029404,2.258215734958649,2.3108911131876355
0.5898043331690133,0.0004883886873722076,1.006000589132309,2.6829867160320284,2.8653891781505685
0.5998283331282437,0.568834972679615,0.7619781535863877,1.039552497267723,1.4088482271919491
0.6098533330950886,-0.34962695091962814,-0.821701321899891,0.3903484225273133,0.9745788619660013
0.6198783330619335,-0.25444217383861545,-3.818242638409138,-0.10217950880527497,3.828075014627193
0.6299023332539946,-0.15549325168132783,-5.517568345069885,-2.1092614245414736,5.909037345532214
0.6399273332208395,-0.39175029247999194,-4.864363605380059,-3.994528881311417,6.306485753621845
0.6499513331800699,0.13056043177843094,-4.522200625240803,-4.9748537617921835,6.724322603243565
0.6599763331469148,2.065531268119812,-4.574559810161591,-3.387721797823906,6.055549178710179
0.6700013331137598,4.386425061821938,-4.035031374692917,-4.380522882342339,7.396700868661693
0.6800253330729902,1.8723942267894746,-4.1677397811412815,-10.782031774520874,11.710171826689814
0.6900503330398351,1.0939549916982652,-5.1784006011486055,-10.499107228517532,11.757713336603631
0.7000743332318962,1.8496813023090364,-6.2825274091959,-6.2587725108861925,9.058901970461655
0.7100993331987411,1.3265461206436158,-6.759235113859177,-3.0308533626794816,7.525493740658285
0.720124333165586,1.233314021229744,-7.828673315048218,-0.7405615568161011,7.959750044325753
0.7301483331248164,2.387528078556061,-8.39895342707634,1.3983130913972854,8.842962653865728
0.7401733330916613,3.714257217049599,-7.342583168148995,2.9094914782047274,8.727793244419571
0.7501973330508918,4.595969974994659,-5.591152045726776,4.389755051136017,8.4648609332027
0.7602223332505673,5.219855605959893,-3.829245344102383,5.117052783966065,8.251923511902879
0.7702473332174122,5.889975755810738,-2.3214051327109337,4.940028914809227,8.030231744686214
0.7802713331766427,6.811059570908546,-1.1385619381070138,3.6185032135248187,7.796179915295719
0.7902963331434876,7.557400515675545,-0.6988191613554955,2.162320813536644,7.891659019196431
0.8003213331103325,7.18816346526146,-0.8963366442918778,1.5678092551231384,7.41155444179356
0.8103453330695629,5.768646031022072,-1.1600445353239774,1.4790713256597519,6.067176636752108
0.8203703330364078,4.1377271926403045,-1.2326591330766679,1.5491227233409883,4.586939728298568
0.8303943332284689,2.8177381396293644,-1.0245089270174503,1.724138658642769,3.45860100030155
0.8404193331953138,1.9947004365921022,-0.7235666245222092,2.0134846168756484,2.925149362726297
0.8504433331545442,1.3056785774230957,-0.7035559907555581,2.2612241274118423,2.7042415080867097
0.8604683331213892,0.7468332803249359,-0.7592963281273842,2.2113731056451797,2.4544779230784375
0.8704933330882341,0.031755643486976626,-1.0290513364970684,2.020678153932095,2.2678393408304065
0.8805173330474645,-0.5392851912975312,-1.0289585119485856,1.918410059809685,2.2427396849485812
0.89054233324714,-0.9300230383872986,-1.015382739007473,1.949106772542,2.3864119865133415
0.900567333213985,-1.5927505534887314,-1.295758045166731,2.1822378918528558,2.996331999944493
0.9105913331732154,-2.336598245501518,-1.2047796088457108,2.3405383917689324,3.5198444894789738
0.9206163331400603,-2.911479531526566,-1.2424456179141998,2.2933247566223147,3.908928576388823
0.9306403330992907,-3.0950657308101657,-1.467753455042839,2.02945862531662,3.981511571589072
0.9406653330661356,-3.0808575814962387,-1.4039653024077416,1.7817366564273835,3.825883887506879
0.9506903330329806,-2.987721961140633,-1.378708546757698,1.8364721497893335,3.768282066265291
0.9607143332250416,-2.5627738094329837,-1.3046556070446969,2.3448556834459304,3.7105638422613745
0.9707393331918865,-2.4586617958545687,-1.3919893276691437,3.1807122373580934,4.25436040452841
0.980763333151117,-3.639333334565163,-1.746001105606556,3.4802361515164377,5.329663277466828
0.9907883331179619,-6.113303725719452,-1.9206542211771012,2.8624058970808983,7.0181737367967925
1.0008133330848068,-8.12333556175232,-2.694097302854061,1.9787007004022599,8.784190195336608
1.0108373330440372,-9.054376600384712,-3.4246998819708825,0.3457560941576958,9.686581036661634
1.0208623332437128,-10.243126652240754,-3.4066404640674595,-1.5578572940826416,10.90659260328326
1.0308863332029432,-10.497006908655168,-3.816098172068596,-2.74913802087307,11.502500561053214
1.0409113331697881,-10.491790022850036,-4.302779764831066,-3.7796106693148617,11.953117936330003
1.050936333136633,-10.169311401844025,-4.352917592525483,-5.143615515232087,12.199162533695867
1.0609603330958635,-9.871458914279938,-4.279975916147232,-6.737453066110612,12.694769346355233
1.0709853330627084,-9.617790327072145,-4.278460317850113,-8.153835808038712,13.315109907597268
1.0810093332547694,-9.340950393676758,-4.265147377252579,-9.063958432674408,13.696721464498868
1.0910343332216144,-8.920565993785859,-4.5271868383884435,-9.230578351020814,13.61159413931742
1.1010593331884593,-8.494146097898483,-4.861715986132622,-8.617003115415574,13.039921125273084
1.1110833331476897,-7.854302245974541,-4.594736797213555,-7.632814979553223,11.876932875068423
1.1211083331145346,-7.314493728876114,-3.890962412953377,-6.278571183085442,10.395280809571952
1.131132333073765,-6.846436979770661,-3.1379416090250016,-4.527571585178375,8.787450217129896
1.14115733304061,-6.522460886836052,-2.4537127125263214,-2.861988698244095,7.533537111131553
1.1511823332402855,-6.818633469343186,-1.5541273552179338,-1.61948680087924,7.178566132850338
1.161206333199516,-7.714085429906845,-0.47909102976322177,-0.5751410485804082,7.750318023182199
1.1712313331663609,-8.87922442495823,0.7352060920000076,0.9209305449575186,8.957079181023492
1.1812553331255913,-10.37074096441269,2.1552912908792496,3.2571376848220828,11.081809175282507
1.1912803330924362,-11.092313103675842,3.2260147100687027,5.821527664661407,12.93587125979447
1.201305333059281,-10.393804721832275,4.078013087511063,7.64286283493042,13.530510694391955
1.2113293332513422,-8.977961677908898,4.715099977254868,8.68175635099411,13.349489017319584
1.221354333218187,-7.758301489949226,5.098467993736267,8.719382014274597,12.736296188568984
1.2313783331774175,-6.501707949042321,5.202758932113648,8.104475952386856,11.619958572350647
1.241403458174318,-5.419155612587929,5.136338655352593,7.667948559522629,10.70264721680565
1.251428458141163,-3.8670747828483583,4.821245067715645,7.7752414584159855,9.932424231565266
1.2614524581003934,-1.9682534801959992,4.400236185193062,8.506998277902603,9.77778706804479
1.2714774580672383,0.050735120773315434,4.4028215315937995,9.587840888500214,10.550549956980557
1.2815014582592994,2.992917796969414,4.157612111270428,9.634527397155763,10.911801573239122
1.2915264582261443,5.892749090194703,3.1326299983263017,8.158719402551652,10.540520140675087
1.3015514581929892,10.641702107191087,1.9293943467736245,8.224464325904847,13.587133609839814
1.3115754581522197,14.327136644124986,0.3597864881157875,12.422878600358963,18.966396691404416
1.3216004581190646,12.937626535892488,1.3146543458104134,14.897764080762864,19.775082074096577
1.331624458078295,4.623115673661232,2.640239768922329,7.206604413986207,8.959866726081179
1.34164945804514,5.407153033018113,2.8173305886983875,3.7771799817681315,7.172290023636974
1.3516744582448155,4.996716501116753,4.029550779461861,4.547839204072952,7.866847952191337
1.361698458204046,1.8099073719978334,3.486221946179867,4.980952992439271,6.343453386455044
1.3717234581708908,-4.187906243205071,1.2163594347238542,5.129733055830002,6.732922857154444
1.3817474581301212,-5.21858149766922,-0.22302362233400347,3.608295729160309,6.348474655616971
1.3917724580969661,-2.7918156784772874,-0.9912246751785279,1.0354448282718658,3.1382968520631263
1.401797458063811,1.3515575855970383,-1.3590417292714119,0.043158298730850225,1.9171763006659734
1.4118214582558721,4.342764487266541,-0.5793105518817901,0.9296125638484956,4.4787703252399504
1.421846458222717,6.115386503934861,0.8514472773671151,-0.34241660311818123,6.183863168662087
1.4318704581819475,7.343159118890763,1.3037611292302609,-1.876706986874342,7.690501156753265
1.4418954581487924,7.883340103626252,0.7215021188557148,-2.4684196293354037,8.292207906428997
1.4519204581156373,8.565627139806749,0.8074554580450058,-1.625969170331955,8.755896776332541
1.4619444580748677,9.068195325136186,-0.5405112062394619,-0.15300160691142084,9.085578039432036
1.4719694580417126,9.572689583301544,-0.38359503462910655,2.9933580923080445,10.037117299186457
1.4819934582337737,8.811742878556252,-0.11694899082183839,4.713915331363678,9.994072612078952
1.4920184582006186,4.710970088839531,-1.2559219881892205,3.1386918067932132,5.798445091262722
1.5020434581674635,2.357178690433502,-1.3205845919251442,1.5106749415397644,3.095540957903815
1.512067458126694,3.356083683371544,-0.8438011658191681,1.447489929199219,3.7510698730313807
1.5220924580935389,4.435392569303513,-0.3997814431786537,1.9501154172420503,4.8616337363799795
1.5321164580527693,4.681149873733521,-0.94965477257967,2.067245671749115,5.2046626206512325
1.5421414582524449,4.317748929262161,-2.2119549036026003,1.7484309160709381,5.156812094694627
1.5521664582192898,4.310835181474686,-3.167349010705948,1.2611764423549177,5.495995427237076
1.5621904581785202,3.989266387224198,-3.411831914484501,1.34424900457263,5.418657463544479
1.5722154581453651,4.6651431208848955,-3.0665801426768304,0.9978997103869915,5.671267754372911
1.5822394581045955,4.579492521286011,-4.064702193439007,0.4216883289813996,6.137701257039275
1.5922644580714405,2.0426797646284105,-5.976039168834687,-0.5870423251390458,6.342728392401287
1.6022884580306709,0.1943468302488327,-6.04465039730072,-2.3028570337593557,6.471376950383161
1.6123134582303464,-1.7107257306575776,-5.368546791672707,-3.8050837719440462,6.799010199391169
1.6223384581971914,-5.183732677102089,-4.957327317595482,-5.280602914094925,8.906792112639781
1.6323624581564218,-7.56304366350174,-3.6331054651737213,-6.100602988600731,10.373834469550454
1.6423874581232667,-6.868311413526535,-2.1237888318300246,-5.715656808614731,9.184384216116436
1.6524114580824971,-2.8339860901236538,0.3281662076711655,-4.837943253815174,5.616481562865437
1.662436458049342,0.23870380818843842,2.1276468247175218,-3.4208141148090365,4.035570557783738
1.6724614582490176,1.3184038728475571,3.335688595175743,-2.21728434830904,4.216794642519505
1.682485458208248,2.5244953045248986,2.5622077989578247,2.89921178072691,4.619893320966867
1.692510458175093,2.5437355676293376,1.2370907378196716,4.620467177331448,5.417536439048565
1.7025344581343234,1.4913336677849294,0.48006868422031407,1.7889035886526108,2.3779651174338245
1.7125594581011683,1.0863015711307527,-3.902202515602112,2.1107267367839815,4.567537950973954
1.7225844580680132,3.355153099000454,-9.802619644403459,4.478637114465237,11.287452972820859
1.7326084582600743,8.06784548521042,-13.232586990594864,6.34824718952179,16.74788737770116
1.7426334582269192,8.37962487101555,-15.044521007537842,8.348951547145845,19.137939211466286
1.7526574581861496,2.992098894417286,-14.148648047447205,5.744001186490059,15.560541346460411
1.7626824581529945,-1.3604336589574815,-11.519538745880128,-0.6935242152214051,11.620306729831034
1.7727074581198394,-2.958102305531502,-6.804276216030122,-4.728027001619339,8.797885166451398
1.7827314580790699,-1.697768593132496,0.9476126325130463,-5.734646810889244,6.055292060897441
1.7927564580459148,-0.4253509517759085,4.968734065890312,-5.410968341231347,7.358520234362575
1.8027804582379758,0.1882041109353304,6.104826432466507,-5.134739441871643,7.9793405550726435
1.8128054582048208,0.7679748386889697,6.7402012574672705,-4.700531054735184,8.253186690033893
1.8228304581716657,1.1964653067290782,6.950812118053436,-4.333484956026077,8.277947221068104
1.832854458130896,1.4900798785686493,6.923671681880951,-4.058815509080887,8.162815135708446
1.842879458097741,1.8989234827458858,6.493422444462777,-3.4667308375239374,7.601885827570428
1.8529034580569714,2.3655884483456613,5.726406329870224,-2.481534349322319,6.674260325203892
1.862928458256647,2.680930250287056,4.39131450355053,-1.3442433035373689,5.317708165657693
1.872953458223492,2.9969035515189173,2.8770616507530216,-0.09707255065441132,4.155518947066775
1.8829774581827223,3.1262693971395494,1.162708307504654,1.640319991707802,3.717001564033556
1.8930024581495672,2.63821487814188,-0.12244186520576478,3.7001262509822848,4.545998683107207
1.9030264581087977,1.252597115188837,-1.670564129948616,5.556511386036873,5.935874226127756
1.9130514580756426,0.6530224527418613,-3.4130484277009967,6.457881313562393,7.333455457945837
1.9230764580424875,0.19878822907805443,-3.8389987921714783,6.066207911968232,7.181664634159691
1.9331004582345486,-0.9776554803550244,-2.9848568254709247,4.148817606568337,5.203639883716013
1.9431254582013935,-2.435653733164072,-1.7147111928462984,2.3624297824501994,3.801804579374925
1.953149458160624,-3.2521429932117463,-1.4438757652044296,1.800511481165886,3.9878631956789974
1.9631744581274688,-3.4319726487994195,-2.318032166361809,1.7601706632971765,4.499990016691965
1.9731994580943137,-1.169332106485963,-2.8711787670850755,2.908659711778164,4.251035921600817
1.9832234580535442,-0.7522329647094012,-3.8128909742832184,3.833653559982777,5.459019292229562
1.9932484582532197,-2.910571458935738,-4.410644813776017,4.53545597076416,6.963876417168878
2.00327245821245,-5.417150017619133,-4.6283167719841005,6.028162418603897,9.333036622680138
2.013297458179295,-7.3146141815185555,-4.0123558723926545,7.195366065502167,11.01707189264808
2.0233214581385255,-7.915138431787491,-2.9546273052692413,7.5551113307476045,11.33397309540625
2.0333464581053704,-7.310052183866501,-1.1876607155799865,8.088385584354402,10.966739819443855
2.0433714580722153,-6.39286202967167,0.6189926809072495,6.843939049243927,9.385698619666007
2.0533954580314457,-4.979781210422516,1.1825397241115572,4.336033172607422,6.708040308221989
2.0634204582311213,-3.4133448815345764,0.5916066616773605,2.6201680317521094,4.343524172495768
2.0734444581903517,-2.2527807480096818,-0.5899659329652787,2.2154904225468637,3.2142617679740293
2.0834694581571966,-1.2379502785205843,-1.3660200887918472,2.003908924162388,2.7228996954367854
2.0934944581240416,-0.17955710224807264,-1.8564301586151124,1.4228725665807724,2.34587724050335
2.103518458083272,0.1443014616519213,-1.8292195558547975,0.8438812726736069,2.019654103485478
2.113543458050117,0.00040798947215080265,-1.4966375309228899,0.2206090146303177,1.512809440332302
2.123567458242178,0.4301314525678754,-1.2754057878255844,0.014185637533664704,1.3460587737611558
2.133592458209023,0.6937257979810239,-1.4655443769693375,-0.16851792454719544,1.6301760931091298
2.143617458175868,0.7762956458330155,-2.3243664550781253,-0.12384841293096543,2.453701851614672
2.153641458135098,1.2130410667508842,-3.164862189888954,0.12371977418661118,3.3916261428904004
2.163666458101943,1.3277322283387185,-3.5766067439317704,-0.22126974999904633,3.821511346728171
2.1736904580611736,1.6549754530191423,-3.6628350484371186,-0.9246839457750321,4.124359919033418
2.183715458260849,1.982884675562382,-3.151489607691765,-2.0581582215428353,4.254378174172308
2.193740458227694,1.8601207749545574,-1.6902522897720338,-3.0733801621198658,3.9702226286959124
2.2037644581869245,2.2562450771033764,-0.13290779650211335,-3.694766108393669,4.3312357273714355
2.2137894581537694,2.706276760697365,0.8829892051219941,-4.662372125387192,5.462720721164507
2.223813458113,2.928299632072449,1.664125760793686,-4.989899232387543,6.020244814981746
2.2338384580798447,2.815132912695408,2.3734883290529254,-4.062855935096741,5.483175951366342
2.2438630831893533,2.632309775054455,2.8892098259925842,-3.478557123541832,5.232298522848534
2.2538870831485838,2.1605271801352504,3.292378268837929,-3.5953611034154895,5.332377877192544
2.2639120831154287,1.6439087203145029,3.674028958082199,-3.731930426359177,5.488918779936357
2.273936083074659,1.085928591862321,3.94957665681839,-3.8725430989265446,5.6369306122882525
2.283961083041504,0.40821787901222706,4.197244831323624,-3.942796810269356,5.773140626893505
2.293985083233565,0.02356895685195923,4.261932578086853,-3.7110196137428284,5.651220343383286
2.30401008320041,0.020784220397472384,4.08168163061142,-3.3259664297103884,5.265226453729098
2.314035083167255,0.40736206591129304,3.7484698605537417,-2.8082270586490634,4.701394406040837
2.3240590831264853,1.035461785197258,3.298989715576172,-2.3148752546310427,4.161028922824784
2.3340840830933303,1.5696508356928827,2.6291654348373417,-1.7068753391504288,3.505672268358051
2.3441080830525607,1.981493038237095,1.770099527835846,-1.9326018369197846,3.2855010057969065
2.3541330832522362,2.2949116909503937,0.8047780179977417,-2.5903644812107087,3.553065644345907
2.364158083219081,2.3928075295686724,-0.3461013722419739,-3.672743155360222,4.397084979696625
2.3741820831783116,2.278975397050381,-1.6253096044063569,-5.129479286670685,5.843536422657096
2.3842070831451565,1.2030433512479068,-4.176479614377022,-8.298159123659135,9.36748312599793
2.394231083104387,0.9931770604848862,-4.829277387857437,-6.1662110871076585,7.894965480172409
2.404256083071232,1.1538340613991023,-4.013155186772346,-1.7976086309552193,4.546223090043782
2.4142810830380768,0.42559017598629,-3.866431589126587,0.4071521508693695,3.9110347870160322
2.424305083230138,-0.7217990112304687,-3.8776705223321914,0.9999633389711381,4.069059986245422
2.4343300831969827,-1.1279510689526797,-3.6706504368782045,1.0814565682411195,3.989423085196343
2.444354083156213,-0.9295149153470994,-3.6508377313613893,1.092700179219246,3.922576678696093
2.454379083123058,-0.675719151198864,-3.9712405908107757,0.8647599256038666,4.1200919808094625
2.4644030830822885,-0.5500101542472839,-4.3184581965208055,0.8191639226675034,4.429742870311195
2.4744280830491334,-0.7301315858960152,-4.50659645318985,0.786773271560669,4.632657542433786
2.484453083248809,-1.283941553235054,-4.550895543694496,1.0008228796720506,4.833301418100999
2.4944770832080394,-1.8898999133706094,-4.319474442601204,0.9874871349334717,4.817126942950781
2.5045020831748843,-2.2264010345935823,-3.803644187450409,1.1729994070529939,4.560756327684185
2.5145260831341147,-2.3236396461725235,-3.1685944676399234,1.3897194385528566,4.167806644209249
2.5245510831009597,-2.2049528628587725,-2.3411602431535723,1.4691541555523873,3.535712423872852
2.5345760830678046,-1.966919437944889,-1.5505131912231447,1.738660803437233,3.0489021993057475
2.5446000832598656,-2.025445827394724,-1.2522993457317353,2.353317189216614,3.3479525450778445
2.5546250832267106,-2.157919029593468,-1.51250219643116,3.2725509452819828,4.2016505235391355
2.564649083185941,-2.111812710911036,-2.0621954315900806,4.235690566599369,5.162700601430932
2.574674083152786,-1.8563228622078896,-2.5132800525426866,4.720433222651482,5.6608304161824625
2.584699083119631,-1.3805279079079629,-2.794152810573578,4.547419373989105,5.5129094130305125
2.5947230830788612,-0.6605750088393688,-2.789232378602028,4.008365732431412,4.927795901726802
2.604748083045706,0.14392095409333708,-2.1695707762241363,3.3523224619030954,3.9957247756387035
2.614772083237767,0.8757276941835881,-1.2534734666347505,2.684951965212822,3.089831998898587
2.624797083204612,1.682917250096798,-0.5992133045196534,2.5799967831373216,3.1380966294850863
2.6348210831638426,2.3796284902095795,-0.0024961763620376587,2.649731261730194,3.5614201860639585
2.6448460831306875,2.9566828939318657,0.6260917854309083,2.5345054453611375,3.9443228204114624
2.6548710830975324,3.7119750487804413,1.2849928826093675,2.273509127497673,4.538591105612018
2.664895083056763,3.8634413230419162,2.1699262869358065,1.7560249873995781,4.766380461492198
2.6749200832564384,3.847502690255642,3.244321172833443,1.0024729639291763,5.1316516705081145
2.684944083215669,3.709820349812508,4.3021280926465995,0.2529558116197586,5.686392511606482
2.6949690831825137,3.5636887827515604,5.0663451451063155,-0.1690269246697426,6.1964748826179346
2.7049940831493586,3.1439496231079103,5.57990843474865,-0.3760955420136452,6.415703019119731
2.715018083108589,2.508900195658207,5.962871239185334,-0.6409942916035652,6.50086819499871
2.725043083075434,1.9006836408376695,6.1710058039426805,-0.6918159511685372,6.494037283934657
2.7350670830346644,1.0430447468161583,6.286498838067055,-0.6844987455010414,6.409098884981547
2.74509208323434,0.06426470071077348,6.309626914858819,-0.6023479968309403,6.33863903892267
2.7551160831935704,-0.5415274523198604,6.196189177036286,-0.3801649117469788,6.2314153817059275
2.7651410831604153,-1.3703031742572784,5.932372162342072,0.04034900397062302,6.088710725928122
2.77516608312726,-2.0531296160817147,5.701404220461845,0.4300799605250359,6.0750572077946075
2.7851900830864906,-1.7619398845732213,5.7873793405294425,0.48008154809474946,6.068662956604029
2.7952150830533355,-1.0002726566791535,5.975056251883507,0.3347414016723633,6.067445459735566
2.8052390832453966,-0.06916569069027902,5.980371955633164,0.2972759521007538,5.988155443222037
2.8152640832122415,0.8246164512634278,5.714463976621628,0.6396295514702798,5.808977258942803
2.8252890831790864,1.7646975776553155,5.073091077804565,1.071394094824791,5.47707001331079
2.835313083138317,2.088611251562834,3.994725932478905,1.5777720335125924,4.775928896613599
2.845338083105162,2.005843767821789,2.5420980548858645,2.2645628875494004,3.951444901960558
2.855362083064392,1.312105252146721,0.3725728869438172,3.0843814060091974,3.372512328595988
2.865387083031237,0.09164690097793937,-2.247722906470299,3.7840481212735178,4.402235523327186
2.875411083223298,-1.017587724030018,-4.278497155308724,3.7928739085793497,5.8074878536647345
2.885436083190143,-1.4782416057586671,-5.398593878746033,3.2353924745321274,6.465120151775157
2.895461083156988,-2.118271399140358,-5.6397973716259004,2.4216547679901126,6.492980819988898
2.9054850831162184,-3.233698536157608,-5.316488445997239,2.0800037115812304,6.561118125697912
2.9155100830830634,-4.717877989411354,-4.936775524020195,1.9950594556331636,7.114097801481807
2.925534083042294,-6.042928977012634,-4.412894822359085,2.215054804980755,7.8036593418402695
2.9355590832419693,-7.19215886771679,-3.5266264986991884,2.1951412349939345,8.305593818708886
2.9455840832088143,-7.454754399061203,-2.7081964015960693,1.685278063416481,8.108504982484321
2.9556080831680447,-6.982452571392059,-2.164732789993286,1.131039787530899,7.3972943002688245
2.9656330831348896,-5.574302124381066,-2.3353171205520633,1.216042223274708,6.164844597896183
2.97565708309412,-3.943671553730965,-2.651448004245758,1.7716607344150543,5.071637171643266
2.985682083060965,-2.68827844619751,-2.5869233947992325,1.7445571357011795,4.118554753135569
2.995706083253026,-1.3104300248622895,-2.5693109965324403,1.6289945197105409,3.3124324887022345
3.005731083219871,0.041348877847194675,-2.695006252527237,1.702984017133713,3.1882476367862336
3.015756083186716,0.9537194645404816,-2.985874825716019,0.836423733830452,3.244169224069996
3.0257800831459463,1.6921700303256513,-3.550160372257233,0.48843838870525363,3.9630354704240176
3.035805083112791,2.4185988669097425,-4.492730950713158,0.8656545495986939,5.175288366241437
3.0458290830720216,4.43293147623539,-5.391408820152283,1.7370639288425447,7.192743679007351
3.0558540830388665,7.343755534887314,-5.794356822967529,2.528300380110741,9.690078387718364
3.065879083238542,9.01499267935753,-5.508202275037766,2.442599494457245,10.843277991544985
3.0759030831977725,9.419988377094269,-4.5402091723680496,1.563425597548485,10.5732672316799
3.0859280831646174,8.656537309885026,-3.215907797813416,0.8582461273670197,9.274388798007614
3.095952083123848,7.076003344058991,-2.0443865668773653,0.48347936511039735,7.381266290850792
3.1059770830906928,5.7463862657547,-1.0050024694204331,0.19927544832229616,5.837010860286236
3.116001083049923,4.4862092587351805,0.025859895944595337,-0.5092012667655945,4.515088944578524
3.1260260832495987,3.318006030321121,1.2017665386199952,-1.4165178126096727,3.8026214042466155
3.1360510832164437,2.4862094905972483,2.328102825880051,-2.1696444511413575,4.0383978807659595
3.146075083175674,1.8025354948639871,3.246308641433716,-2.8778866928815843,4.69785970658519
3.156100083142519,0.9995752300322056,3.937524960637093,-3.5146063774824143,5.371751245615729
3.1661240831017494,0.408193686157465,4.398352212309837,-3.9403895115852356,5.919357547230999
3.1761490830685943,0.11150128617882729,4.625800715088845,-4.080256664156914,6.16919437511357
3.1861730832606554,-0.10007787331938744,4.648444642424583,-4.08214531481266,6.18724199831079
3.1961980832275003,-0.0917398899793625,4.529087183475495,-4.07539821267128,6.093432326265688
3.2062230831943452,-0.3556533837318421,4.057724418640137,-4.592431240081788,6.138569986720644
3.2162470831535757,-0.46923861756920815,3.0290956896543504,-5.536664766669274,6.328527657818819
3.2262720831204206,-1.3717600080370904,-0.7439663904905319,-10.448853918313981,10.564741346388697
3.236296083079651,-2.1602643477916716,-6.139865287542343,-15.817582558393479,17.104403111278124
3.2463219582568854,1.1639327144622804,-0.08113771855831146,-7.219388766288757,7.313063438257916
3.2563469582237303,3.9628480821847916,3.826985102891922,-2.910403643846512,6.230604246005955
3.2663709581829607,3.9737414449453357,4.095699745416641,-2.3633393168449404,6.1766293560830805
3.2763959581498057,3.0340781021118164,3.6784114462137225,-1.8040987479686739,5.09814799606413
3.286419958109036,1.7055272635817529,2.6232866442203524,-1.1194219547510147,3.3231854563572165
3.296444958075881,0.6468610954284668,1.2699982827901841,-0.0605268681049347,1.4265302018644836
3.3064689580351114,-0.2811146865785122,-0.2829426723718643,0.6977920979261398,0.8037386607518832
3.316493958234787,-0.651987057030201,-1.8384873926639558,0.9591597139835358,2.1737318998552215
3.326518958201632,-0.4721205639839173,-3.1242199480533603,0.7322965174913407,3.243440503582728
3.3365429581608623,-0.20682858914136887,-4.223485381007195,-0.011412010788917543,4.2285620561673145
3.3465679581277072,-0.02999446213245392,-5.298690690994263,-1.1374904358386995,5.419493260279267
3.3565919580869377,0.14000251561403276,-6.1922902536392215,-1.7379626458883286,6.433084287353672
3.3666169580537826,0.3717672868072987,-6.062277998328209,-1.800876932144165,6.335028269020062
3.376641958253458,0.2552034813165665,-4.970102899074555,-1.7252081143856048,5.267199890094102
3.3866659582126886,-0.23284869879484177,-3.9901528251171112,-1.3563932329416275,4.220822276131791
3.3966909581795335,-0.8629335477948189,-3.4929938989877702,-0.7707630103826523,3.679638067045408
3.406714958138764,-1.464025855064392,-3.271878515481949,-0.23817931294441225,3.5923933678655042
3.416739958105609,-1.9881512627005578,-3.3012268602848054,0.4151868098974228,3.8759804325559353
3.4267639580648392,-2.5871911972761157,-3.575541381239891,1.2028681540489197,4.574379330165672
3.436788958031684,-3.1666850593686107,-3.906362224817276,1.6872620236873628,5.304188272797765
3.4468139582313597,-3.666609133780003,-4.230645881295205,2.102641791701317,5.9802583236050895
3.45683795819059,-3.9977568367123606,-4.663675469756127,2.6005345433950424,6.670435407383563
3.466862958157435,-4.0395620897412305,-4.756635088920594,2.9226898133754733,6.8909908569982825
3.4768869581166655,-3.5472461199760437,-4.1479925644397735,2.6515947693586353,6.0679281613432785
3.4869119580835104,-2.6934614181518555,-3.3284947657585144,2.079860454797745,4.760192362519178
3.496935958042741,-1.7109939716756344,-3.1041949886083606,2.050022113323212,4.094644986262642
3.5069609582424164,-1.0197127483785153,-3.3685008305311204,2.380579832196236,4.248973084399802
3.5169859582092613,-0.5973442420363426,-3.4314098542928697,2.692741041183472,4.402527461187043
3.5270099581684917,-0.13946793392300608,-3.1951876044273377,2.7897194516658783,4.243961563337
3.5370349581353366,0.3018540295958519,-2.6169248735904693,2.664209552407265,3.746655066634486
3.547058958094567,0.8262506018579007,-1.7293432652950287,2.5351392835378648,3.1780889498610154
3.557083958061412,1.3483036100864412,-0.5976772409677505,2.358332930803299,2.7815238488738925
3.567107958253473,2.0456764626502992,0.7338261491060257,2.0517885571718217,2.9888341021700158
3.577132958220318,3.125703094303608,2.1396026265621186,1.5617185029387475,4.097179995527645
3.587157958187163,4.190901479423046,3.5623623418807986,0.9306662321090698,5.578550017761678
3.5971819581463933,4.8937707147002225,4.694172792434693,0.2849055826663971,6.787151184725896
3.607206958113238,5.605843175053597,5.468463428020478,-0.29785073339939117,7.8369818824774
3.6172309580724686,5.51955815255642,6.185275933742523,-0.5516514676809311,8.308277794933256
3.6272559580393136,5.00725026011467,6.720658108592033,-0.7568241253495217,8.415021291518718
3.6372799582313746,4.442843091487885,7.0451744842529305,-0.742570952475071,8.362102000610248
3.6473049581982195,3.5807471573352814,7.217106013298035,-0.5746219620108605,8.077039049749144
3.6573299581650645,2.609031717181206,7.249472690820694,-0.28825866848230364,7.710057967108142
3.667353958124295,1.6892600172758103,7.290759880542756,0.07720341950654984,7.484299526988614
3.67737895809114,0.89050258487463,7.34371168076992,0.47189310729503636,7.412542020700964
3.68740295805037,0.0977566566132009,7.291819396018982,0.8828684601187706,7.345722781724295
3.6974279582500458,-0.39817989081144334,7.0663367271423345,1.2728517240285875,7.191092648420669
3.7074529582168907,-0.7815818211436272,6.591616491079331,1.682454735338688,6.847695382029983
3.717476958176121,-1.0909680877625942,5.8374279981851585,1.9533916121721269,6.251521078346995
3.727501958142966,-0.9886090694367886,4.887592254281044,2.298084974884987,5.490637530202924
3.7375259581021965,-0.4057811249792576,3.8485741925239565,2.6588570111989975,4.695285107717413
3.7475509580690414,0.620157592445612,2.845534633398056,3.066615518331528,4.2291599079022175
3.7575749582611024,1.399826058447361,1.5911039775609972,3.570171883106232,4.151776985369156
3.7675999582279474,1.4500593419373036,0.08500565171241761,4.006857443153859,4.262018843895482
3.7776249581947923,0.969206546097994,-1.3834623330831528,4.216581573486328,4.542344055872862
3.7876489581540227,0.3189755541086197,-2.4875487953424456,4.058485141396523,4.7708433275747915
3.7976739581208676,-0.19056236609816551,-2.839931246638298,3.7372291731834415,4.697702139759276
3.807697958080098,-0.38350509714335207,-2.691665153503418,3.3606787177920343,4.322765191673013
3.817722958046943,-0.6401236411929131,-2.4297250950336458,3.173279256820679,4.047594786440304
3.827746958239004,-1.8181610092520715,-2.6568941009044647,3.3010368257761002,4.611034574161791
3.837771958205849,-4.427140393853188,-3.289362275004387,4.20925179630518,6.938103265865029
3.847796958172694,-7.472373813986779,-3.7013395482301714,5.329305542707443,9.896351976096057
3.8578209581319243,-8.877253913283349,-2.9463634353876116,5.485199328660965,10.843159420087686
3.867845958098769,-8.68064304113388,-1.275283581018448,4.673313727676868,9.940813498748195
3.8778699580579996,-6.622867519855499,-0.1155345493555069,3.669200619757176,7.57223583928011
3.887894958257675,-4.372812159061432,-0.1848696631193161,3.09554988026619,5.360792108634075
3.8979189582169056,-2.724520950615406,-0.6406531065702439,2.9120268309116364,4.038978964695119
3.9079439581837505,-0.5364860560745001,-1.2982075899839403,2.836133772432804,3.1649352300147013
3.9179689581505954,2.487992306649685,-2.6276434046030044,2.98451973348856,4.690626143627769
3.927992958109826,5.587043792009354,-4.25901891052723,3.1931521886587144,7.71689842579224
3.9380179580766708,7.351915909051895,-5.267742547988892,2.6823961472511293,9.433717622255319
3.948041958035901,7.529509297013283,-5.6981514143943786,1.3882588040828705,9.544092534247964
3.9580669582355767,8.023958623409271,-6.110814566016198,0.9239284855127335,10.128159284725019
3.968090958194807,7.678877005577088,-6.087050312161446,0.9042455881834031,9.840477308205859
3.978115958161652,6.274744180440903,-5.321430512666702,0.8769984403252602,8.274005287371414
3.988140958128497,4.303856529593468,-4.18095507323742,0.9496424934267998,6.074980429357441
3.9981649580877274,2.9071157544851305,-2.964728370308876,1.0285819512605667,4.277723360638105
4.008189958054572,2.469272153377533,-1.990903839468956,1.06770391702652,3.3467887175457793
4.018213958246633,2.3730497878789905,-1.0227826827764512,0.8349552056193352,2.7156214587697494
4.028238958213478,1.9126835891604423,0.1523725926876068,0.15457991659641265,1.9249599657813585
4.038262958172709,1.643774234354496,1.281913738846779,-0.8451337462663651,2.249343819083703
4.048287958139554,1.7211232495307924,2.188957219719887,-1.8992563354969025,3.3706043342054217
4.058312958106399,1.7725752389431,2.894350113272667,-2.728800235390663,4.354955370676469
4.068336958065629,1.9553078909218313,3.4862655079364777,-3.247387452721596,5.150029262851079
4.078361958032474,2.0125351752340794,3.8594237011671066,-3.610083222985268,5.65492263550657
4.088385958224535,1.7340398950874807,4.0660058301687245,-3.904101691246033,5.897567955039704
4.09841095819138,1.365247963964939,4.191902230381966,-4.202848218083382,6.090967037871604
4.10843495815061,1.1521359568834306,4.303253096938134,-4.458369787931442,6.302576111828495
4.118459958117455,1.2554262904822826,4.31986854493618,-4.603542703986168,6.436611285745584
4.1284849580843,1.509770815819502,4.22929575920105,-4.726068184375763,6.519361243133034
4.138508958043531,1.2270762115716936,3.671163822412491,-5.259517269730568,6.530366126840785
4.148533958243206,0.9623824068903923,2.8396476566791535,-5.884782843589783,6.6045777932721945
4.158557958202437,-0.20643039375543595,0.7211745285987854,-8.10018877387047,8.134848761993236
4.1685829581692815,-2.0979189956188202,-2.2501828300952913,-10.734557061195375,11.166705072719232
4.178606958128512,-0.4529038359224796,-0.3190422123670578,-7.844547920823097,7.8640855730310655
4.188631958095357,1.458628290295601,2.4234644812345505,-4.33413048863411,5.175467483577099
4.198655958054587,1.2691340643167497,2.347631356716156,-3.128387843370438,4.112041434469506
4.208680958254263,0.5850536870956421,1.5434526783227922,-2.0536801314353945,2.634793363673612
4.218705958221108,-0.06385510325431824,0.34858117640018466,-1.2948770159482956,1.3424949896306202
4.228729958180338,-0.21110334232449532,-0.9214440035820007,-0.9004501605033874,1.3055397981020629
4.238754958147183,0.4258399982750416,-2.210042279362679,-0.6112474590539932,2.332219980383805
4.248778833076358,0.6485615388303996,-3.7075101149082186,-0.05579822480678558,3.7642232616687865
4.258803833043203,0.20432261869311333,-5.4315376764535905,0.6148891049623489,5.470049165651611
4.268827833235264,-0.447123059257865,-6.679255144000054,0.9734368604421616,6.764609939238093
4.278852833202109,-0.7635998788475991,-6.706935278177261,0.7145367693901062,6.787976752718383
4.288877833168954,-1.1965124499052764,-5.996305618286133,0.14559859335422518,6.116250653877333
4.298901833128184,-1.7942985221743584,-5.082229106426239,-0.3447834098339081,5.400688426171226
4.308926833095029,-2.314184113740921,-4.2196478533744814,-0.5615122121572494,4.845221572145122
4.318950833054259,-2.7672556185722352,-3.5093052917718888,-0.3964885836839676,4.486661396447197
4.328975833253935,-3.1671531289815906,-3.185005847811699,0.16386237144470214,4.494660395378952
4.338999833213165,-3.7517551186680795,-3.4051617032289507,0.9929753315448762,5.163021664165848
4.34902483318001,-4.057409253716469,-3.5481009829044345,1.4282128286361695,5.57596469867882
4.359049833146855,-3.9605811166763307,-2.8866183400154117,1.3829162031412126,5.09227114827922
4.369073833106086,-3.874562727212906,-1.9698000687360764,1.314244748353958,4.540879639065114
4.379098833072931,-3.6746622115373615,-1.782174612879753,1.5094534581899643,4.354048513985047
4.389122833032161,-3.4212555795907975,-1.9413662284612656,1.8861305058002473,4.362497089832998
4.399147833231837,-2.9747855812311172,-2.2246801990270617,2.1999236726760865,4.317199949949537
4.409171833191067,-2.4485206773877146,-2.888976522088051,2.6725775027275085,4.6350953993263575
4.419196833157912,-1.9284332107007505,-3.6257139998674393,3.2180350148677825,5.217317894654632
4.429221833124757,-1.3604643568396568,-3.775078784823418,3.6186412078142167,5.4033922020103375
4.439245833083987,-0.7521156549453736,-3.319019937515259,3.541970177292824,4.9119368930055956
4.449270833050832,-0.2005713374912739,-2.4345092868804934,3.197561573982239,4.0238618699873605
4.459294833242893,0.3356684046238661,-1.414289438724518,3.005963227450848,3.3389673282524286
4.469319833209738,0.8972306835651398,-0.5287385684251785,2.996292809844017,3.172121998850932
4.479343833168969,1.5004870453476906,0.45752299010753633,2.7249258702993395,3.144202547286004
4.4893688331358135,2.162784205377102,1.5304344373941423,2.154625877737999,3.4150077246192034
4.499393833102658,3.1334342828392985,2.547668112516403,1.4809582221508026,4.301425400046081
4.509417833061889,4.40453564286232,3.482521535754204,0.9597420966625214,5.696401966885991
4.519442833261564,5.564569433927536,4.207924770712853,0.3407616949081421,6.98478220087757
4.529466833220795,5.746737683415414,4.93759179532528,-0.1667576202750206,7.578430895849752
4.53949183318764,5.409449819326401,5.53376220881939,-0.5932333570718765,7.761223959370767
4.54951583314687,4.837416127324104,6.004218655228615,-0.8037196719646454,7.752238499929785
4.559540833113715,3.877592754364014,6.328917464017868,-0.7281397318840027,7.4579561076875995
4.5695648330729455,2.806974585056305,6.453266690969468,-0.4669182962179184,7.052784556561407
4.57958983303979,1.7505531629920006,6.553390318751336,-0.17951419830322266,6.785542453905766
4.589614833239466,0.6536330482363701,6.728242532014847,0.0013355040550231934,6.75991756716984
4.599638833198696,-0.6513079029321671,6.821031412482262,0.4745579758286476,6.868469755841853
4.609663833165541,-2.3789671701192856,6.697262229323387,1.0476780804991723,7.1840403343234
4.619687833124772,-3.100572638511658,6.669252312183381,1.1764899024367332,7.448261916768644
4.629712833091617,-2.47496237128973,6.638464382886887,1.30194776147604,7.203451677895141
4.639736833050847,-0.9160043388605118,6.436799762248993,1.3651011988520623,6.643414514480286
4.649761833250523,0.5226318825781345,5.957049751281739,1.4372377136349679,6.150222603241907
4.6597868332173675,1.626964074075222,5.253354889154434,1.7000653794407845,5.756298462042025
4.669810833176598,2.3230862072110177,4.2678400200605395,2.229617587924004,5.3462493910539255
4.679835833143443,2.47219283759594,2.9708416342735293,2.9807573425769807,4.880835151643647
4.689859833102673,2.3727811083197596,1.2802297407388687,3.718831493854523,4.593341491415124
4.699884833069518,1.7479489593207838,-1.10393794298172,4.514874356389046,4.965691794737641
4.709908833261579,1.039049636721611,-3.6300777769088746,4.92019925236702,6.202052039202184
4.719933833228424,0.3714031514525414,-5.109823286533356,4.430866239666939,6.773537477147938
4.729958833195269,-0.51053925588727,-5.429019280672073,3.459951283335686,6.458030935569084
4.7399828331544995,-1.6671588577330114,-5.158909492492676,2.8911616265773774,6.144312928199721
4.7500078331213444,-3.6511704379320147,-4.481365132927895,2.7567604511976245,6.404171078815574
4.760031833080575,-6.152789388298989,-3.897576783299446,3.136675686836243,7.9301107434177185
4.77005683304742,-6.769846640825272,-3.015722522735596,3.4820578515529634,8.18841454470825
4.780080833239481,-5.647738475203514,-2.865827980041504,3.7617947879433635,7.366207974397732
4.790105833206326,-4.586641911864281,-3.6519639050960544,4.437687601447106,7.353039891081227
4.800129833165556,-3.0064593636989594,-3.8521216982603077,4.492071384787559,6.637495371735355
4.810154833132401,-0.6189359629154205,-3.310227479338646,3.832708357572556,5.101993830392707
4.820179833099246,2.5800014609098434,-3.5060741204023365,2.859596017599106,5.208286921812259
4.8302038330584764,5.436189721226692,-4.3456448256969455,1.9221245035529138,7.22020430759656
4.840228833258152,7.173166526556015,-5.132328634858132,1.1636760216951372,8.896586824021707
4.850252833217382,7.47397770524025,-5.813449736237526,0.8111620080471039,9.503395413087235
4.860277833184227,6.083634368777275,-6.053475599884988,0.7049034816026688,8.611159207083942
4.870301833143458,4.316743208169937,-5.65107138812542,0.7836713236570358,7.154230951157043
4.880326833110303,2.806703566610813,-4.820886633396149,0.5507661992311478,5.605521942611503
4.890351833077148,1.8090279507637024,-3.979767585396767,0.46195927262306213,4.395968440512461
4.900375833036378,0.9079702645540237,-3.118558673858643,0.4714633369445801,3.2820871228071016
4.910400833236054,0.4525028631091118,-2.1401312148571017,0.1981200385093689,2.196399783187622
4.920424833195284,0.4371194234490395,-0.9113148719072343,-0.4273121809959412,1.0973440144928241
4.930449833162129,0.41881120651960374,0.3790270435810089,-1.16840174138546,1.2977776988932817
4.940473833121359,0.35091246128082276,1.4020746052265167,-1.899712418317795,2.387019067040333
4.950498833088204,0.407288171723485,2.164687181711197,-2.6864067524671555,3.473979776739029
4.960522833047435,0.6558412492275238,2.7341714876890184,-3.3483384615182876,4.372321113683503
4.97054783324711,1.0018283814936877,3.0328338146209717,-3.8477655225992207,5.000704007435144
4.980572833213955,0.8386700148135424,3.1695890790224075,-4.353453197479248,5.449974042713208
4.990596833173186,0.0638852895051241,2.8803986567258835,-5.385590255856514,6.107811404739022
5.0006218331400305,-0.99525654964149,1.9983859366178514,-6.664904907345772,7.028871842282945
5.010645833099261,-4.931380298137665,-1.2396781307458877,-11.315585525035859,12.405554775466955
5.020670833066106,-6.954426866769791,-2.967901069521904,-13.467118810415268,15.444603551323663
5.030694833258167,-0.36726419985294345,2.009978041648865,-7.653725207448006,7.921767749153547
5.040719833225012,3.1193916097283365,4.44962410748005,-5.3780777531862265,7.645487494727055
5.050743833184242,3.187644696235657,4.88499842941761,-4.8731888079643255,7.600806373202819
5.060768833151087,4.482793315351009,4.994263009428979,-5.073668782711029,8.41309775482032
5.070793833117932,6.317214846611023,4.644125304222107,-5.199006189107895,9.4076973066708
5.0808178330771625,7.337821780443192,4.127481116652489,-4.263006711602211,9.436787327954088
5.090842833044007,6.982851351499558,3.4305175691843033,-2.361963467001915,8.130654045590248
5.1008668332360685,4.719391833543778,1.3918197584152223,-0.25053974211215974,4.926722204550642
5.110891833202913,2.125973351597786,-1.1056394827365876,1.5179459542036058,2.8366108787376967
5.120915833162144,0.3829459206014872,-3.42479431450367,2.9313647425174714,4.524241696509649
5.130940833128989,-1.0140025037527085,-4.390859590172768,2.0326927202939986,4.943651354349854
5.140965833095834,-1.8021387612819673,-4.261243776082993,0.7615390276908874,4.688906516962919
5.150989833055064,-2.051268447339535,-3.9877794402837754,0.08353273808956146,4.485205104087601
5.16101483325474,-2.315338061749935,-4.106859156489373,-0.2319186991453171,4.720261513353027
5.17103883321397,-2.6491731449961664,-4.76408385694027,-0.08537051796913148,5.4517796611259035
5.181063833180815,-3.2051021432876587,-5.31523480296135,0.21327309787273407,6.210465858033112
5.191087833140045,-3.688186528980732,-5.144638777971268,0.3271651643514633,6.338538086430164
5.20111283310689,-3.5830337110161783,-4.386173631548882,0.3564684855937958,5.674832110432397
5.211136833066121,-3.1677314186096193,-3.6737547236680985,0.4131087094545365,4.868434544691689
5.221161833032966,-3.0446679943799975,-3.1795480567216874,0.5044398790597916,4.431025686293235
5.231186833232641,-3.2828154399991036,-2.777126888036728,0.8160865330696107,4.376677757707397
5.241210833191872,-3.62412034124136,-2.4817167824506763,1.1849990630149843,4.549438340657352
5.251235833158717,-3.7969052714109424,-1.87234803378582,1.3844201070070268,4.454076316406711
5.261259833117947,-3.7447302737832073,-0.8112327593564987,1.1913713586330414,4.012538987650182
5.271284833084792,-3.6844837796688084,0.16338523864746093,1.0654053765535356,3.838906624970138
5.281308833044022,-3.792688259482384,0.13373751640319825,1.480918461084366,4.073756183829574
5.291333833243698,-3.8562109485268596,-0.9292862892150879,2.3748077532649043,4.62316425750034
5.301358833210543,-3.70752590239048,-2.262086006999016,3.3981745728850368,5.514559986776778
5.311382833169773,-3.216922582089901,-3.481769583821297,3.9805347400903703,6.189989269057693
5.321407833136618,-2.4682582461833955,-4.321059622764587,3.969488765001297,6.365586861304329
5.331431833095849,-1.5186695471405984,-4.245558620095253,3.373513063788414,5.6313156172983625
5.3414568330626935,-0.6448823976516724,-3.3885655510425567,2.468562301397324,4.241703624299247
5.3514808332547545,0.10768451616168023,-2.4323347073793413,1.941563864350319,3.1140838657772316
5.3615058332215995,0.6021591317653656,-1.4702964091300965,1.6390803819894793,2.282750895146479
5.37152983318083,1.0385286498069763,-0.5760618388652802,1.4879748809337616,1.9038009993054925
5.381554833147675,1.582876214236021,0.4329535746574402,1.2795122873783111,2.0808886565491416
5.39157983311452,2.3427189646661284,1.487494239807129,0.9761873906850815,2.9417534027512016
5.40160383307375,3.5858137696981434,2.3944505971670154,0.6158632510900498,4.35554148152368
5.411628833040595,5.914763857126236,2.9647646230459213,0.16569839715957643,6.618286539161984
5.421652833232656,7.135408131480217,3.752420824170113,-0.5243236282467842,8.07896196993137
5.431677833199501,7.00772014439106,4.557417528033257,-1.1327892744541168,8.435722120082389
5.4417018331587315,6.5031282377243045,5.16963796377182,-1.401778736114502,8.425011405201825
5.451726833125576,5.353432323932648,5.6075400370359425,-1.358476011157036,7.8707814089057955
5.461750833084807,3.6370394718647003,5.967544333934784,-1.263698200285435,7.1018712068569405
5.471775833051652,1.9338911479711534,6.348174099326134,-1.0917488372325899,6.725411875205493
5.481800833251327,0.9419718235731125,6.7621055120229725,-0.9562521860003472,6.894040913380741
5.491824833210558,0.08139064718037844,7.125829807519913,-0.8182280758023263,7.17311453046854
5.501849833177403,-0.46583276063203816,7.3567919021844865,-0.5679400563240051,7.393371569216755
5.511873833136633,-0.7745207235217095,7.379864430427552,-0.1468820571899414,7.421849884050385
5.521898833103478,-0.9279782670736313,7.130026938915253,0.464130928516388,7.20512632315518
5.531922833062708,-1.019735113978386,6.668015626072884,1.149394051283598,6.8427625106647385
5.541947833029553,-0.8969400769472122,6.0045700728893285,1.9115483522415162,6.365012204609625
5.551971833221614,-0.36572671104222537,5.223871473670006,2.5584457004070282,5.828227312187147
5.561996833188459,0.4533574336767197,4.455726261734963,3.132155789136887,5.465293164104583
5.572021833155304,1.2515567493438722,3.5678359204530716,3.636973398327828,5.2462770563750905
5.582045833114535,1.6334123834967613,2.477567598223686,3.882540960609913,4.886768004432193
5.5920708330813795,1.5987392717599869,0.9778158402442932,3.9347925567626953,4.358289061232104
5.60209483304061,1.2824242007732392,-0.9843319773674012,3.9637801283597947,4.28077962272959
5.6121198332402855,1.0062531888484956,-3.0041748565435413,3.9997872823476794,5.102539598355549
5.622143833199516,1.0516033163666725,-4.605015617609024,3.858884295523167,6.099428364990586
5.632168833166361,1.2243923395872116,-5.632435142397881,3.499039627611637,6.742902976474975
5.642192833125591,0.8900915256142616,-6.248082631230354,2.8258184069395065,6.914914978483169
5.652217833092436,0.26244204193353654,-6.409041860103607,1.8938219332695008,6.68814285918499
5.662242833059281,-0.6858760571479797,-5.665642064809799,1.0597797703742982,5.804572261071931
5.672266833251342,-2.128323347568512,-4.230254117846489,0.5584032475948334,4.768293652900047
5.682291833218187,-4.664774453938008,-2.9128261452913287,0.3285377982258797,5.5093206426626224
5.6923158331774175,-6.804399007558823,-2.2145592534542087,1.0034430170059205,7.225719094284326
5.702340833144262,-8.214590717554092,-1.891818677186966,2.9114666676521304,8.918246280582787
5.712364833103493,-8.145743846297265,-2.4798889428377153,3.7327303254604343,9.297110715749838
5.722389833070338,-5.714376268386841,-3.5028207296133043,4.023480200171471,7.81743193905027
5.732413833029568,-3.3577249968051914,-2.672137207388878,3.852842075228691,5.76706393808279
5.742438833229244,-1.618425677418709,-1.8367998862266541,2.7843090230226517,3.707494063522666
5.752463833196089,-0.27399935603141784,-1.311000128388405,1.9359303644299508,2.354065283644854
5.762487833155319,1.0008440758287906,-1.480261818766594,1.2443333914875985,2.177436452664187
5.772512833122164,2.1206491693854335,-2.8876375097036364,1.3290536990761757,3.8212546397865994
5.782536833081394,3.5190075767040256,-4.6385833132267,1.755911843776703,6.08137286159637
5.792561833048239,4.816882752478123,-5.088714253306389,1.565261038541794,7.17965279952323
5.8025858332403,5.5565897387266165,-4.4681340533494955,1.1632538527250291,7.224477210781618
5.812610833207145,5.714965083003045,-3.366381799578667,0.3064733299612999,6.639825165051869
5.822634833166376,4.608501727581024,-2.1863692420721055,-0.41680385738611225,5.117833925727581
5.832659833133221,3.8403065219521526,-1.4513783276081087,-0.558997324705124,4.1432995597019335
5.842684833100066,3.5176223713159565,-0.9170591765642166,-0.4654278409481049,3.6648721335993084
5.852708833059296,3.4545133727788926,-0.30131637811660766,-0.5722687500715256,3.514533500300991
5.862733833258972,3.3036528700590133,0.5126663267612458,-1.053290238082409,3.505191774223448
5.872757833218202,3.0500240439176562,1.5367880219221115,-1.6924730622768402,3.8116701272974596
5.882782833185047,2.6435563096404078,2.524696741104126,-2.191219507455826,4.261915828197028
5.892806833144277,2.124195505678654,3.3008555620908737,-2.6111226814985278,4.714426332648301
5.902831833111122,1.5139982065558435,3.8156724947690965,-2.9029876202344895,5.027811082372372
5.912855833070353,0.8490955272316933,4.143728774785996,-3.061804429292679,5.2216949103323325
5.922880833037198,0.3244720830023289,4.249977945685387,-3.1569614320993424,5.3041493337973415
5.932905833236873,0.07223767161369324,4.169565281867981,-3.073999382257462,5.180730172772776
5.942929833196104,0.11496883124113083,3.8714601945877076,-2.8559192883968354,4.812244471374156
5.9529548331629485,0.32772883594036106,3.3645884585380554,-2.6773079001903537,4.3122893313941715
5.962978833122179,0.5992147663235665,2.661698758006096,-2.606817376613617,3.773485848597567
5.973003833089024,0.9746197521686555,1.8765480887889863,-2.515452877879143,3.2861557436745676
5.983027833048254,1.5016994655132294,1.0458142805099488,-2.3229461663961413,2.9571790081115803
5.99305283324793,2.0320340314507486,0.1518428349494934,-2.08161520421505,2.912960763539177
6.00307683320716,2.433519353270531,-0.6510617351531983,-1.8058090585470201,3.099490955246263
6.013101833174005,2.3116847214102747,-1.483706998229027,-1.5754422104358674,3.166589784960872
6.02312683314085,1.6723147863149643,-2.255529524087906,-1.28873334646225,3.089479538181742
6.0331508331000805,0.5273999945819379,-2.8974883139133456,-1.2605024045705795,3.203506765324157
6.043175833066925,-0.784856261909008,-3.2740840852260593,-1.5442262649536134,3.7040870273740776
6.0531998332589865,-1.7985772222280503,-3.481980083584786,-1.8017738950252533,4.313404049656507
6.063224833225831,-2.428808543980122,-3.625611673593521,-2.0187933039665222,4.808294641049831
6.073248833185062,-2.777996076643467,-3.8626577961444855,-2.2130553495883944,5.247380435255679
6.083273833151907,-2.891001997590065,-4.0095948171615605,-2.357664594054222,5.476616244172623
6.093297833111137,-2.8393947646021847,-3.9788103961944583,-2.5605968910455705,5.518129324014402
6.103322833077982,-2.6623659253120424,-3.829614595770836,-2.7019457280635835,5.39023663578926
6.1133468330372125,-2.372602037340403,-3.6072590178251267,-2.518512141108513,4.998445903896882
6.123371833236888,-2.1206779669225218,-3.3119869065284733,-2.09078071475029,4.453975337333876
6.133396833203733,-2.1249243611097337,-2.8419327485561374,-1.591487554907799,3.889051031444542
6.143420833162963,-2.3714622688293456,-2.257137508392334,-1.0924265295267106,3.4513618684059417
6.153445833129808,-2.6889555537700653,-1.588801344037056,-0.886422690153122,3.246616217938784
6.163469833089039,-2.9164575585722923,-0.9039327621459962,-0.9219445252418519,3.1894828479014854
6.173494833055884,-2.9983220860362056,-0.20381815016269686,-0.9478161156177521,3.1511636833038317
6.183518833247945,-2.9533947122097017,0.38590103030204775,-0.9577850335836411,3.1287077367266543
6.19354383321479,-3.1011447885632517,0.4374968612194062,-0.7378268140554428,3.2175908550884857
6.20356783317402,-3.2920689511299135,-0.3495652627944946,0.0038188165426254273,3.310578262978536
6.213592833140865,-3.3030473908782008,-1.5811789137125016,1.2366375786066055,3.8651676967989816
6.22361783310771,-3.2222333157062533,-2.776752081513405,2.255157641172409,4.814444479851714
6.23364183306694,-3.0661524188518525,-3.682826678752899,2.842589390873909,5.57178763472497
6.243666833033785,-2.6347378313541414,-3.9704623264074326,2.794748057126999,5.524222228350755
6.253690124722198,-1.8901317554712296,-3.598075380921364,2.201755020618439,4.62238787540073
6.263715124921873,-1.112214969098568,-2.9441461712121964,1.5721040350198747,3.5180292653524265
6.273739124881104,-0.4930209977924824,-2.2959478175640107,1.3498478597402572,2.7086039447816272
6.2837641248479486,0.04708558112382889,-1.681282076239586,1.7657451063394547,2.4386025203784225
6.293788124807179,0.7782926161587239,-1.0628092128038407,1.6268626248836517,2.0933190916416056
6.303813124774024,1.4810824754834175,-0.4913286674022675,1.2110577642917633,1.9752645562168982
6.313837124733254,2.1965599156916142,0.13870589554309845,0.8943082451820374,2.375689800054321
6.323862124700099,3.0228885778784753,1.0635430383682252,0.4218310010433197,3.2321696338792116
6.333887124899775,3.6649926710128784,2.065184528231621,-0.12592739045619966,4.208683419062603
6.343911124859005,4.139686594605446,2.994162669181824,-0.650081741809845,5.150205963076873
6.35393612482585,4.678263688087464,3.681685302257538,-1.067339050769806,6.048154301060372
6.3639601247850806,5.34569470345974,4.072242470383644,-1.3121730798482896,6.846999984786939
6.3739851247519255,5.387723904848099,4.5124875229597095,-1.4043123346567155,7.166743029647965
6.384009124711156,4.821635076999665,4.810404914617538,-1.3650254774093629,6.94632671361683
6.3940341249108315,4.136342864334583,4.967509658932686,-1.064251720905304,6.551191970044157
6.404058124870062,3.580817323923111,5.071523439288139,-0.48375243008136753,6.2270875307937095
6.414083124836907,3.218755976557732,4.9635715591907505,0.0916445803642273,5.916572604890736
6.424108124803752,2.6019501543045047,4.940607789158821,0.3892014911770821,5.597430458033089
6.434132124762982,2.023623981177807,5.029985404014588,0.6052411991357803,5.455467357699891
6.444157124729827,1.5070473289489748,5.069555851221085,0.9365458998084069,5.3710991801297165
6.454181124921888,1.0213527461886407,5.0380873060226445,1.1169479978084564,5.2605187923874865
6.464206124888733,0.7343676012754441,4.862149849534035,1.364076181948185,5.102989394784711
6.4742301248479635,0.6447882574796677,4.451022176742554,1.6783397573232652,4.800434840287868
6.484255124814808,0.7113178771734238,3.719967607855797,2.1174682840704917,4.339101757268123
6.494279124774039,0.47682991147041326,2.496295645236969,2.665001265406609,3.682538588734783
6.504304124740884,0.3516507088020444,1.0665999627113343,3.168822801411152,3.3619535464072112
6.514328124700114,0.3444846171140671,-0.13164655208587647,3.354437692165375,3.374648529361849
6.52435312489979,0.3393729811906815,-0.9874766099452973,3.0903253930807115,3.2619618499716947
6.534378124866635,0.270347769856453,-1.7071437263488771,2.6687428987026216,3.179562277807176
6.544402124825865,0.3350274036079645,-2.347019153237343,2.3803415581583978,3.3595785748107123
6.55442712479271,0.29048470348119737,-2.8445248192548753,2.3044192636013032,3.6723358986849655
6.56445112475194,-0.17910386994481087,-3.0914463043212894,2.239951956868172,3.8218455251106787
6.574476124718785,-0.7586963307112455,-3.0593433362245563,2.3064830383658412,3.9057733904318654
6.584500124910846,-1.5717007233202458,-2.926350170373917,2.532811506986618,4.177188362194918
6.594525124877691,-2.77265581458807,-2.681655889749527,2.603610763549805,4.653782073246422
6.604549124836922,-3.680133743584156,-2.202346174120903,2.7175621792674067,5.077288374665785
6.614574124803767,-4.120924926102162,-1.9191941714286804,3.1439867529273036,5.527203743014934
6.624598124762997,-4.726377502083778,-1.8080356782674791,3.6362834268808366,6.231387844348968
6.634623124729842,-5.112235262989998,-1.699448790550232,4.176017391979695,6.816318422284713
6.644648124696687,-4.988037478923798,-1.7041593074798584,4.457291561365127,6.903051854030613
6.654672124888748,-4.459215295314789,-1.4055437582731247,3.964540266394615,6.13006801187835
6.664697124855593,-3.010479032099247,-0.3488337761163712,2.4164984008669856,3.8760977190289623
6.674721124814823,-1.1889500266313553,0.5459328907728196,1.2304041543602944,1.7959786385481702
6.684746124781668,0.0036868156492710115,0.40639902949333195,0.7029674685001374,0.8119957053779566
6.694770124740899,0.7528370551764966,-0.47738247334957123,0.7124604231119156,1.1411649801886594
6.7047951247077435,1.4311735662817955,-2.166218567490578,1.3361180126667023,2.9199267118777317
6.714819124899805,2.3144431453943253,-3.9085683792829515,1.6858350107073785,4.845161868515858
6.7248441248666495,4.05833223670721,-4.915260694026947,1.3109323006868363,6.507564193362007
6.73486812482588,5.2976124644279485,-4.791499696969987,0.762782730460167,7.18366234334647
6.744893124792725,5.860097068548203,-3.8695323675870896,0.3021501910686493,7.028891316173143
6.75491812475957,5.4389958000183105,-2.8886221808195116,-0.015330814719200135,6.158494008279885
6.7649421247188,4.61504213064909,-2.2125080502033234,-0.11469488918781282,5.1192734501573955
6.774967124918476,4.003262867331505,-1.6495387119054794,-0.17668999314308168,4.33339484708086
6.784991124877706,3.350493452847004,-0.8353671419620514,-0.4944961041212082,3.4882905607806722
6.795016124844551,2.863888750970364,0.30545913040637973,-1.0993338453769685,3.0828069939382394
6.8050401248037815,2.567342239022255,1.4782421904802323,-1.7738739055395127,3.4529805644888305
6.815065124770626,2.081767816543579,2.510458770990372,-2.297957505583763,3.989582582214317
6.825089124729857,1.5340078170597553,3.2870707511901855,-2.7133653402328495,4.529941012387178
6.835114124696702,1.093034639954567,3.82079173207283,-2.9593933707475664,4.954915065552724
6.845138124888763,0.7726814818382264,4.098620429635048,-3.059072610139847,5.172393192005546
6.855163124855608,0.544145981669426,4.1537006163597106,-3.086911788582802,5.203686006111965
6.865188124822453,0.5122948823869229,4.051226407885552,-3.014329131245613,5.075535593998434
6.875212124781683,0.6597056740522385,3.8328288102149966,-2.8830304884910585,4.8412449909460085
6.885237124748528,0.9888242469727994,3.516391532421112,-2.858509604930878,4.63830356511584
6.895261124707758,1.3734400592744351,3.191959941387177,-2.9263285356760025,4.542944481561694
6.905286124907434,1.6719813488423825,2.756202626824379,-2.930536192059517,4.3566290780787265
6.915310124866664,1.944076120555401,2.240452478528023,-2.8827065527439117,4.136309507313105
6.925335124833509,2.034809997081757,1.7033909833431244,-2.744279569387436,3.8174681297053166
6.93535912479274,1.784017947614193,1.183881660103798,-2.5830607241392136,3.3550705696200014
6.945384124759585,1.2817732594907285,0.7059694290161134,-2.3495030504465104,2.7679414927899546
6.955408124718815,0.7095086024701596,0.2972753673791885,-2.1970895272493363,2.3278697325620055
6.965433124918491,0.21001283660531045,-0.1670461803674698,-2.1563104605674743,2.1729437683168618
6.975458124885336,-0.24527183935046198,-0.7433126717805862,-1.9979754620790482,2.145828033715176
6.985482124844566,-0.6521154034137726,-1.283583118915558,-1.7039815521240236,2.2307831029738177
6.995507124811411,-1.0875502440333367,-1.9026605844497682,-1.4302383041381836,2.6169570954717183
7.005531124770641,-1.4895913437008859,-2.674337514638901,-1.1888658267259598,3.283955765139108
7.015556124737486,-1.8404099571704866,-3.4639180344343186,-0.9209662860631943,4.0291457977835226
7.025580124696717,-2.147353110909462,-4.218940340280533,-0.6119672513008118,4.773372695950279
7.035605124896392,-2.505369646847248,-4.743557791113854,-0.45677747011184694,5.3839449516300055
7.045629124855623,-2.7986738777160647,-4.872088946700097,-0.4982318902015686,5.640750056045859
7.055654124822468,-2.9860835713148117,-4.5850660872459414,-0.6236979353427887,5.507134030858508
7.065678124781698,-3.0762517297267915,-4.128919531702995,-0.6334914368391037,5.187736751655198
7.075703124748543,-3.099430092573166,-3.803845916390419,-0.37988073706626896,4.921383954619085
7.085727124707773,-3.1670218589901924,-3.6173554050922396,0.1087085098028183,4.8090648906180595
7.095752124907449,-3.368782081604004,-3.5294349163770677,0.6728461217880249,4.925274149312197
7.105777124874294,-3.7050115996599198,-3.5286701005697254,1.0979661816358566,5.2329870407144465
7.115801124833524,-4.013122734725475,-3.3199321031570435,1.3129332178831101,5.371303090327721
7.125826124800369,-4.161080094873905,-2.857006870508194,1.3091003680229187,5.21448171802765
7.1358501247596,-4.247242033481598,-2.2289486664533618,1.1060025948286056,4.922450486132362
7.1458751247264445,-4.129812986254692,-1.6117803168296814,0.9508209997415543,4.53401054969075
7.1558991249185055,-3.8191638672351838,-1.2252600663900377,0.9921368408203125,4.131780534587701
7.1659241248853505,-3.357311598658562,-0.9961269807815553,1.0731570303440094,3.6627143137439835
7.175948124844581,-2.85873940050602,-0.9965023720264435,1.0872710394859315,3.21676331904675
7.185973124811426,-2.370975488126278,-1.290094578266144,1.3575691080093384,3.021400779305621
7.195997124770656,-1.8513718785345554,-1.6405345845222474,1.7358582329750063,3.021942315900365
7.206022124737501,-1.3044018378853799,-1.8844003146886827,2.0194011220335963,3.0545719163817555
7.216047124704346,-0.8486915577203036,-1.805202117562294,2.053647679388523,2.8629531670034303
7.226071124896407,-0.3686359566450119,-1.3477492940425873,1.7955173742771149,2.2751270886380963
7.236096124863252,0.10781388580799103,-0.7415930056571961,1.5686986166238786,1.7385049237233592
7.2461201248224825,0.5380466048419476,-0.023475401401519776,1.4598222917318344,1.5559969045245863
7.256145499879494,0.884928288012743,0.8154041630029679,1.154841171205044,1.6678249772317155
7.266169499838725,1.450955866277218,1.725308101773262,0.7419771677255631,2.3732869799825678
7.27619449980557,1.9532929404079915,2.794826409816742,0.3373799577355385,3.4264023709918354
7.2862184997648,2.5265701889991763,3.8105497491359714,-0.00605859249830246,4.5720764448030184
7.296243499731645,3.259637369513512,4.530514488816261,-0.32557472169399265,5.590777782519098
7.306267499923706,4.292190749645234,4.957196924686432,-0.5369217467308045,6.579132750110244
7.316292499890551,5.008153070211411,5.37666506588459,-0.8335854953527451,7.394929964741668
7.326316499849781,4.886886202991009,5.815222027301789,-1.1357093739509583,7.680384089997054
7.336341499816626,4.589329292178154,6.009174755215645,-1.213170655667782,7.657931028060964
7.346366499783471,4.225776320099831,5.9426293480396275,-0.9555028653144837,7.354251477976705
7.356390499742702,3.6319693511724473,5.701755053400993,-0.48945317298173907,6.77796256004573
7.366415499709547,3.105002489089966,5.551723101139069,-0.15084997773170472,6.362815851866038
7.376439499901608,2.8067570686340333,5.423852096199989,0.06187845200300217,6.107363240106357
7.3864644998684525,2.5823143270611766,5.059884556531906,0.45997969776391984,5.6993298142439945
7.396488499827683,2.3338576555252075,4.579770264029503,0.8317152634263039,5.20700849883681
7.406513499794528,2.126189113855362,4.031597889661789,1.2003865957260131,4.713320450701515
7.416537499753758,1.8449298548698427,3.4863853758573535,1.5590580198168755,4.24138079728022
7.426562499720603,1.434864328801632,2.8499855339527134,1.898201205432415,3.7127376694444982
7.436586499912664,1.1372483611106874,1.9909944713115693,2.337320376634598,3.2742112581007166
7.446611499879509,1.1493196454644203,0.9517407667636871,2.9207587704062465,3.279874681977255
7.45663549983874,1.0815419375896453,-0.023180117011070252,3.212895604670048,3.390128087122657
7.4666604998055845,0.801954397559166,-0.7486418241262436,3.2486782255768776,3.428921936984405
7.4766854997724295,0.38624250769615176,-1.3091781359910966,3.2878773745894434,3.5599534121734946
7.48670949973166,-0.2563094821572304,-1.8169673001766207,3.460321412086487,3.9167446936836523
7.496734499698505,-1.5178094217181206,-2.358437595963478,3.69060581445694,4.635358088908952
7.506758499890566,-3.3635976478457454,-2.72790268778801,4.147101156413555,5.996139609128621
7.516783499857411,-3.4500712430477143,-2.820094567537308,4.42276960015297,6.2782812845551526
7.526807499816641,-2.4516553696990013,-2.522083620429039,3.662664309740067,5.078053730126738
7.536832499783486,-3.0212469720840454,-2.35141099691391,3.495015281438828,5.183840155736441
7.5468564997427166,-3.864396758079529,-2.273240740299225,3.544429808557034,5.7152575125710126
7.5568814997095615,-4.871939257979394,-1.9661098909378052,3.5198501604795456,6.323822055443381
7.566906499909237,-4.911496256589889,-1.3465073454380037,3.3206793773174286,6.079703038533729
7.5769304998684675,-4.501789457201958,-1.3507711350917817,3.508800677061081,5.865353626825593
7.586955499835312,-3.725471591949463,-1.9758379036188127,4.002189903259278,5.813828173032787
7.596979499794543,-2.596706371307373,-2.348818341493607,4.286578592061996,5.5348520852909235
7.607004499761388,-1.0427577947080136,-2.14230988740921,4.114648232460022,4.754699312154446
7.617028499720618,1.0642188303172588,-2.2176658791303634,3.205695635676384,4.04067917296777
7.627053499920294,3.2438627511262896,-2.4762356024980545,1.8347679787874223,4.474456597533069
7.637077499879524,5.087351267337799,-2.7699143475294115,0.9886478072404862,5.876307760549494
7.647102499846369,6.1632915723323825,-3.780893840789795,0.5755928921699525,7.253456308438215
7.6571264998055995,6.598839556574822,-5.2384316253662115,0.3578928673267365,8.432907961761282
7.667151499772444,6.182097972035408,-5.826911196112633,0.38184130847454073,8.503942156910794
7.677175499731675,5.094708818793297,-5.609169656038285,0.3304928147792816,7.5847259462113445
7.68720049969852,3.7171966123580935,-4.790177056789399,0.1845457273721695,6.066086383807055
7.697225499898195,2.5849645775556565,-3.7175720036029816,0.2717961251735687,4.536105885321632
7.707249499857426,1.934910317659378,-2.4735833054780962,0.16074463605880737,3.1445716949286333
7.717274499824271,1.7800532430410385,-1.1887079519033432,-0.20577112019062044,2.1503390190580793
7.727298499783501,1.7184589657187463,0.023375998735427856,-0.5614648497104645,1.8080073096191884
7.737323499750346,1.7911113511025907,1.0093855422735214,-0.9021978932619096,2.2451948876669006
7.747347499709576,2.0051713380217553,1.8045390433073045,-1.3860438787937166,3.032851939608317
7.757372499909252,2.4000586616992954,2.429756085276604,-1.913895424604416,3.91497023103091
7.767396499868482,2.4450632187724115,2.9057340574264527,-2.378598210811615,4.480999219455178
7.777421499835327,2.2545066998898986,3.2519085198640827,-2.8087685108184814,4.8525137845016495
7.787445499794558,1.9666703465580941,3.4131530928611755,-3.0426220536232,4.977444650474077
7.797470499761403,1.7763518093526365,3.409957589507103,-3.2459057682752612,5.031812871058511
7.8074954997282475,1.657543403953314,3.335078730583191,-3.5136035799980165,5.120118201033293
7.817519499920309,0.8678916943073273,2.833724427223206,-4.696025190353394,5.5530066370321185
7.8275444998871535,0.11880767449736596,2.045505139231682,-7.606497246623039,7.877626984125776
7.837568499846384,2.5635298544168474,2.827147479057312,-5.824774623513222,6.963651886585815
7.847593499813229,3.6095502492785454,2.784162257909775,-3.8245666944980625,5.9504388813851286
7.857617499772459,3.9818269747495654,2.734995945096016,-3.2922420287132264,5.845853782995322
7.867642499739304,4.183250690102577,2.4807835668325424,-3.5066652739048005,5.99587981741795
7.877666499698535,3.6115573060512545,1.781638423204422,-3.554689625501633,5.3715360912479655
7.88769149989821,2.633038630485535,1.0768916469812393,-3.179717041254044,4.266519484475428
7.897715499857441,1.4740959298610687,0.509235765337944,-2.938638094067574,3.3268414033490377
7.9077404998242855,0.25983462229371074,-0.17948437750339508,-2.6216932779550555,2.6406446781770962
7.917764499783516,-0.9800737425684929,-0.8039874744415284,-2.5153400266170505,2.8167136612429995
7.927789499750361,-1.9721092803776266,-1.4193022567033768,-2.3627709674835207,3.38914746719848
7.937814499717206,-2.719375400841236,-2.266911714076996,-2.120153617858887,4.126613945287355
7.947838499909267,-3.037839323580265,-3.181543711423874,-1.9105689436197282,4.795931800173519
7.957863499876112,-3.1460797637701035,-4.0612081897258765,-1.67150962471962,5.4023304476707645
7.967887499835342,-3.1250107839703563,-4.8290622103214265,-1.5250070518255234,5.950729429171104
7.977912499802187,-2.9804936331510548,-5.315824787020683,-1.6088736659288407,6.303158726898505
7.9879364997614175,-2.855775154531002,-5.410734452605248,-1.674490535259247,6.3431394121932065
7.997961499728262,-2.719571867287159,-5.034560265541077,-1.5715128815174104,5.934013898322109
8.007985499920323,-2.5457636743783953,-4.576194106936455,-1.2704426711797714,5.3885517322281435
8.018010499887168,-2.5544076132774354,-4.239295667409897,-0.6698435765504838,4.994528649185626
8.028034499846399,-2.8346032637357714,-4.0730195653438575,0.09182467460632325,4.963153817213598
8.038059499813244,-3.0671522927284243,-3.9684883064031604,0.6178846335411072,5.053523923482907
8.048083499772474,-3.3547531494498255,-3.8082781058549884,1.0409616762399674,5.180825420401493
8.058108499739319,-3.7902362295985226,-3.5995208126306535,1.457008611559868,5.426353734404169
8.068133499706164,-4.06482293844223,-3.1894228345155717,1.5401636195182802,5.3914105309374385
8.078157499898225,-4.041834025382996,-2.29668105840683,1.2883924537897111,4.824015058825035
8.08818249986507,-3.83912713855505,-1.161447063088417,0.8420306289196015,4.098398717351124
8.0982064998243,-3.429871451854706,-0.14650725066661835,0.586013799905777,3.4826562742288836
8.108231499791145,-2.927148607671261,0.4211211490631104,0.7300342297554017,3.046061714771157
8.118255499750376,-2.595519971251488,0.35312387824058533,1.228037493824959,2.8930082061392226
8.12828049971722,-2.3457307192683223,-0.1331984031200409,1.9159255778789521,3.0316604760235943
8.138304499909282,-2.0372044318914413,-0.6597296476364136,2.4095750051736835,3.2235844662186772
8.148329499876127,-1.6469788008928299,-1.0365938061475755,2.6290607696771624,3.270936627357579
8.158353499835357,-1.1296620373427868,-1.1829151153564454,2.526942071914673,3.010126363388193
8.168378499802202,-0.5343521878123284,-1.026082851290703,2.14662513256073,2.4385195791861203
8.178402499761432,-0.037644008919596676,-0.5528741204738618,1.6012991827726364,1.6944751214596212
8.188427499728277,0.36562215551733973,-0.0002789121866226196,1.0878727179765701,1.147670113279458
8.198452499927953,0.6747907595336438,0.5301617807149888,0.6140435975790024,1.0552078575383352
8.208476499887183,0.9931482629477978,1.0862670725584032,0.3876318061351776,1.5220308939862066
8.218501499854028,1.4515954054892064,1.6756254798173906,0.36423007965087895,2.24666720294153
8.228525499813259,2.0512617230415344,2.276273691058159,0.3764759033918381,3.0872043467923467
8.238550499780104,2.6762454611063005,2.9025888401269913,0.17341847598552704,3.951883817970231
8.24857470812276,3.649893406033516,3.408845449090004,-0.03947192162275315,4.994347525331529
8.258599708089605,5.258274151682854,3.6422043174505236,-0.26537588238716125,6.401993728774189
8.268623708048835,5.918024849295616,4.094970597624779,-0.4533536329865456,7.210917544171056
8.278648708248511,5.5811948221921925,4.451484106779099,-0.568742586672306,7.161627924296721
8.288672708207741,4.598384290337563,4.6437580990791325,-0.4995732414722443,6.5543268752772335
8.298697708174586,3.297792205810547,4.833674494028092,-0.20376026272773742,5.855028675556542
8.308721708133817,2.436057629585266,5.123234460353852,0.09948920488357545,5.67378235503497
8.318746708100662,1.6791487196087838,5.374961771965027,0.3003825777769089,5.639147467984956
8.328770708059892,1.1038826867938043,5.533235959410668,0.4320925721526146,5.658795027179184
8.338795708259568,0.7184009018540383,5.645038815736771,0.5838950613141061,5.720445483490469
8.348820708226413,0.3944051842018962,5.662112685441971,0.7126443180441857,5.720396615271435
8.358844708185643,0.17772409150376917,5.550434959530831,0.8370543560385705,5.616010513491406
8.368869708152488,0.21771990537643435,5.219770821332932,1.0602381920814514,5.330808044601112
8.378893708111718,0.6134547829627991,4.692634974718094,1.527616664171219,4.973003363093677
8.388918708078563,1.1235825410485267,4.101121283769608,1.9950977548956872,4.69702550156234
8.398942708037794,1.6149632486701013,3.4688571774959565,2.309840509593487,4.46950104510329
8.40896770823747,2.0282631620764735,2.717156090140343,2.383746099472046,4.14475984100061
8.4189917081967,2.2180345460772517,1.7986982595920564,2.4654232236742977,3.7727051764594832
8.429016708163545,2.0740316578745843,0.5989899408817292,2.751963980197907,3.4976709415624274
8.439040708122775,1.6339500349760057,-1.035468801856041,3.21319118142128,3.7505447504034337
8.44906570808962,0.7209587663412095,-3.1458014363050464,3.7198284441232685,4.924730639652454
8.45908970804885,-0.015059430822730065,-4.6565219861269,3.506041668355465,5.828872272917351
8.469114708248526,-0.030350265204906465,-4.996381455659867,2.5278419584035876,5.599529779876655
8.479138708207756,-0.07534919433295727,-4.889359867572785,1.4715591153502465,5.106564759766432
8.489163708174601,-0.5227784284204244,-4.756836233139039,0.7176951429247856,4.838995200690321
8.499187708133832,-1.4672289597988128,-4.299699159264565,0.6869703635573388,4.594790741813909
8.509212708100677,-2.6146848052740097,-3.6506605607271196,0.7863812157511711,4.558760201750639
8.519237708067521,-4.843957407474518,-2.8201518702507022,0.5999126315116883,5.637115849630293
8.529261708259583,-7.63613912165165,-1.7322388064861298,0.70669682264328,7.861977637150174
8.539286708226427,-8.843966299295426,-2.447814041376114,3.1950501948595047,9.716783378870964
8.549310708185658,-8.039632084965707,-3.866452639102936,5.915097733139992,10.703902151301364
8.559335708152503,-7.480520154833794,-3.6940270203351977,6.2780998975038536,10.44119512971954
8.569359708111733,-5.738645721673966,-1.7333497774600983,4.412615033090114,7.443636718712216
8.579384708078578,-3.1512703371047976,-0.5349208295345307,2.9550550290942192,4.353044366459126
8.589408708037809,-1.4935820683836938,-0.5482232451438904,2.562970568239689,3.016646193237829
8.599433708237484,-0.4351288850605488,-0.6500039738416672,1.935173442363739,2.0872801835532093
8.609457708196715,0.3468446995317936,-1.1797237050533296,1.3349830681085588,1.8150011179045031
8.61948270816356,0.9198479329794645,-1.9495002901554108,0.636129115819931,2.247516819317816
8.62950670812279,1.3334256622195244,-2.7826408123970032,-0.13009002327919006,3.0883713024245987
8.639531708089635,1.8559581421315672,-3.645129094719887,-0.4939534825086594,4.120137957083514
8.649555708048865,2.403663323968649,-4.4836198192834855,-0.46611021101474764,5.1085910765763884
8.65958070824854,2.8022664070129397,-5.144838168025017,-0.2539474993944168,5.864004273829352
8.669605708215386,2.8477314323186875,-5.336709287166595,-0.09961608946323396,6.049790384106377
8.679629708174616,2.4688643100857735,-4.711498677134514,-0.3553540062904358,5.331021218870006
8.689654708141461,2.013348669111729,-3.5654613661766055,-0.9178356868028641,4.196249511776057
8.699678708100691,1.7554927445948125,-2.2846907579898836,-1.5956303071975708,3.293569904103575
8.709703708067536,1.6401800970733167,-1.111886647939682,-2.1990898597240447,2.9601484557101347
8.719727708259597,1.5456388060748578,-0.006427844166755676,-2.7923162001371384,3.1915623756357094
8.729752708226442,1.5284640718996525,1.0017268592119217,-3.282739133834839,3.7571312647238395
8.739776708185673,1.5415461936593056,1.7532794272899628,-3.5191596043109894,4.223131271693788
8.749801708152518,1.4510020592808723,2.4046908259391784,-3.7877362525463107,4.715388728752588
8.759825708111748,1.3385085006058217,3.0054407787323,-4.024635609984398,5.1982661603476545
8.769850708078593,1.3224616943299772,3.529174130558968,-4.201439039111138,5.644117732307139
8.779874708037823,1.2613869421184063,3.9209627223014833,-4.273089065551758,5.935009338624724
8.789899708237499,1.1811885787546634,4.173517414927483,-4.158554390072823,6.008912437910657
8.79992370819673,1.2370613555610181,4.327319067120552,-3.9861381268501286,6.012096828263481
8.809948708163574,1.5505166995525361,4.475384016036988,-3.797680027484894,6.07087619028327
8.819972708122805,2.0853534753620626,4.686129362583161,-3.6295895344018936,6.283504413009387
8.82999770808965,2.2218679806590083,4.690617685317993,-3.80617193877697,6.436267273880794
8.84002170804888,2.0717398416996002,4.373704444169999,-4.238054888248444,6.432923578937061
8.850046708248556,1.9352360075712205,3.865276764035225,-4.208500136733055,6.032990657084839
8.8600717082154,1.5151109316945077,3.2670990014076233,-3.7375449228286746,5.190254239485894
8.870095708174631,1.4257081738114357,2.763382422924042,-3.0170381462574007,4.332602611383899
8.880120708141476,1.8583477529883385,2.314072431921959,-2.16959124147892,3.67634516147764
8.890144708100706,2.4750076872110367,1.8615189903974534,-1.3602272522449494,3.3824745647401286
8.900169708067551,2.3732599952816966,1.213001378774643,-0.6737407457828523,2.749120212475565
8.910193708259612,1.4538721650838853,0.07782994866371155,-0.09900680959224702,1.4593163199458627
8.920218708226457,0.25566658079624177,-1.369277572631836,0.2763470131158829,1.4200894841898677
8.930242708185688,-0.4894224750995636,-2.904702608585358,0.7964024662971497,3.0514076246511785
8.940267708152533,-0.7555161032080651,-4.3961823105812075,1.3188219487667086,4.651506726064431
8.950291708111763,-1.1564201387017965,-5.246262801289559,1.34015551507473,5.536840048436912
8.960316708078608,-1.6196018448472025,-5.429245567917824,1.082268746495247,5.768112621319749
8.970340708037838,-2.038517570346594,-5.265223567485809,0.747722641825676,5.69536849109156
8.980365708237514,-2.3276084437966347,-4.936901823878289,0.7887905609607697,5.51479385247599
8.990389708196744,-2.4264260959625243,-4.524428706765175,1.0250116413831711,5.235326884420853
9.00041470816359,-2.241959744542837,-4.231155173778534,1.3121923756599427,4.964967918474753
9.01043870812282,-2.1993373431265355,-3.8421188664436343,1.6174351590871812,4.7132853326108295
9.020463708089665,-2.4605726659297944,-3.5893449032306672,1.9244578349590302,4.758293038181236
9.030487708048895,-2.873936606347561,-3.4915472978353503,2.400165958106518,5.119688542946656
9.04051270824857,-3.229774762094021,-3.1545260667800905,2.8618694150447848,5.345350902291012
9.050536708207801,-3.428055599033833,-2.473906071782112,3.0373963969945907,5.2055310309845755
9.060561708174646,-3.424729995131493,-1.715312871336937,3.1317292347550394,4.947605661928495
9.07058670814149,-3.263100090622902,-1.321464890241623,3.1971844285726547,4.755636648007494
9.080610708100721,-2.873505958914757,-1.3921682524681092,3.2806774055957795,4.577992265031187
9.090635708067566,-2.3340813115239145,-1.5124829006195069,3.2496786841750147,4.2773767245653085
9.100659708259627,-1.6492172612249851,-1.8211194080114366,3.1813741421699526,4.019643629157437
9.110684708226472,-0.984838492423296,-2.2125723695755006,3.1253969925642013,3.9539208019252094
9.120708708185703,-0.49204743638634685,-2.2945216816663745,3.008446832299233,3.8154544644200317
9.130733708152547,-0.07310876056551933,-1.9642528152465821,2.7049921274185182,3.3437428762498635
9.140757708111778,0.3269334684312344,-1.5120566385984422,2.3542813950777055,2.81706259396541
9.150782708078623,0.6727435031533242,-1.0123003792762757,2.1205722784996035,2.4442100292853106
9.160806708037853,1.0897898007184268,-0.27189845144748687,1.8461218097805978,2.160957268017357
9.170831708237529,1.6377388845384122,0.8045482224225998,1.3910198593139649,2.2944329898993194
9.18085570819676,2.2646599513292314,1.973363361954689,0.8829079288244248,3.1308743290398398
9.190880708163604,3.234394939541817,3.034756963849068,0.5222095674276352,4.465844073283021
9.200904708122835,4.98165056526661,3.7966731369495395,0.32872724801301956,6.272131285842286
9.21092970808968,5.6244928693771366,4.590605739355087,-0.049684083759784704,7.260237571874158
9.22095370804891,5.4916762894392015,5.270260943770409,-0.540242965221405,7.630597705612038
9.230978708248585,5.193197565078735,5.709369297623635,-0.7585122165083885,7.755097646656654
9.241002708207816,4.433653315007687,6.0084573018550875,-0.8175983306765556,7.511811226077201
9.251027999911457,3.1266099974513057,6.244876602888108,-0.8611223727464676,7.0367396997690825
9.261051999870688,1.961077192425728,6.509073686599732,-0.6976886022090912,6.8337861685810655
9.271076999837533,1.1698746550083161,6.747013848423959,-0.5067129841446877,6.866408131443711
9.281100999796763,0.569688666164875,6.854572210907937,-0.24490916579961777,6.882563902384104
9.291125999763608,0.12711262106895446,6.790987833738328,0.10798754811286927,6.79303574898325
9.301149999722838,-0.19141532868146896,6.596134634613991,0.49256126046180726,6.617268963954556
9.311174999922514,-0.3729152779653669,6.242364054322243,1.0267748692631722,6.337226635002477
9.321199999889359,-0.46050594717264176,5.701111274957658,1.6096507608890533,5.941860909585599
9.33122399984859,-0.4051804697513581,5.021874731183052,2.19141948223114,5.494152926144755
9.341248999815434,0.04466158133000136,4.131340863704682,2.582787366807461,4.8724493400243025
9.351272999774665,0.6569925659894944,3.122845852375031,2.7711270600557327,4.226458403017179
9.36129799974151,1.046885198056698,1.9361440801620484,2.8495443615317346,3.600628498664373
9.37132199970074,1.2224972569942476,0.3743592113256455,3.1144773173332214,3.3666917474942606
9.381346999900416,1.1455119386315347,-1.468369751572609,3.344770782887936,3.8282892940504842
9.391370999859646,0.8642550185322762,-3.1497383666038514,3.3389878866076472,4.670827402294708
9.40139599982649,0.5168632388859987,-4.067873430848122,2.801194904744625,4.966028065917373
9.411419999785721,0.13511665530502798,-4.463182046413422,2.2470662641525267,4.9987555736863465
9.421444999752566,-0.2999624553322792,-4.481164573431015,2.0561447328329088,4.9394882904141655
9.431468999711797,-0.7694238518178463,-4.3647675597667694,1.84344173848629,4.800154826433406
9.441493999911472,-1.624518329948187,-4.089736170172691,1.6150430631637573,4.6875756891841025
9.451517999870703,-2.4201564189791682,-3.7617915719747543,1.0341218957304954,4.591039208995672
9.461542999837548,-3.1623701065778733,-3.1898514354228973,0.5283418348431588,4.522707371198396
9.471566999796778,-5.0990901374816895,-2.2534730583429337,0.341890207529068,5.585315565735276
9.481591999763623,-7.086501435041428,-0.9207306432724,1.1394995391368867,7.2363462262386395
9.491615999722853,-7.556947356462479,-1.7462592601776123,3.065181196331978,8.33979679119632
9.501640999922529,-6.644540224671364,-2.36685992538929,4.632972909808159,8.438979718349007
9.51166499988176,-5.175862909555436,-0.6535450476408005,3.467271412611008,6.264076072056996
9.521689999848604,-3.1691192552447323,0.7104712003469468,1.971678486764431,3.799421302732172
9.531713999807835,-1.7408441537618637,0.7795735949277878,1.485705284178257,2.417766231261966
9.54173899977468,-0.5732462583482266,0.010210992693901062,1.4083454516530038,1.5205763539769188
9.55176299973391,0.19956620112061502,-1.076634954214096,1.5121689051389695,1.866982670228755
9.561787999700755,0.7413453760743142,-2.4875248217582704,1.4470566505193712,2.971758007527299
9.57181299990043,1.5098547233641149,-4.079667264819145,1.0588646811246873,4.477112986092169
9.58183699985966,2.3545019812881947,-5.41242429792881,0.8445349913835526,5.962487376286128
9.591861999826506,3.900133185982704,-6.037585791349412,0.6371172952651978,7.215912936298078
9.601885999785736,5.563064360618592,-6.017685377597809,0.24853005409240725,8.198901729617596
9.611910999752581,5.5226998615264895,-5.216286465525627,-0.11517026782035829,7.597573457461294
9.621934999711812,4.296434658765793,-4.076281142234802,-0.6262519991397858,5.955468939891264
9.631959999911487,3.2745758360624313,-2.955102683901787,-0.8401758921146393,4.490141902904422
9.641983999870718,2.5003249615430834,-1.8072135597467422,-0.936246230006218,3.2240041512145683
9.652008999837562,2.149192644953728,-0.6196762204170227,-1.3574053859710693,2.616405363306075
9.662032999796793,1.721482853293419,0.5890245312452317,-2.0173379319906237,2.7166349486893013
9.672057999763638,1.23966833665967,1.7473743242025377,-2.6529220873117447,3.4099985652702745
9.682081999722868,0.7304216077923775,2.7673994600772858,-3.1385011875629427,4.247611705547019
9.692106999922544,0.42506655782461167,3.599837146997452,-3.573812944293022,5.090348516976021
9.702130999881774,0.3204481753706932,4.1543794780969625,-3.806690586805344,5.643797401112482
9.712155999848619,0.4997967512905598,4.546424177885056,-3.791184940338135,5.940778808347023
9.72217999980785,0.8899164015054704,4.7632085287570956,-3.6232377040386203,6.050451069966589
9.732204999774694,0.9550438588857652,4.781816707849503,-3.8507107651233676,6.213360861603087
9.742228999733925,0.5268598580360413,4.35054128408432,-4.738422181606293,6.454257164513228
9.75225399970077,-0.2502669695019722,3.527597721219063,-5.30335443019867,6.374335059524364
9.76227799989283,-1.4056826296448708,2.660349220633507,-6.006803124547005,6.718265059379415
9.772302999859676,-0.30411163955926895,2.8178556686639786,-5.688057950735092,6.355060795118946
9.782326999818906,2.9676639649271968,3.2964222031831745,-4.872502929568291,6.588984257760675
9.792351999785751,5.712747818827629,3.2090542763471603,-3.9486054342985155,7.650163518895109
9.802375999744982,7.1084711784124375,2.74594953417778,-2.1644141167402267,7.921823641518149
9.812400999711826,6.3452768039703376,2.026508705019951,-0.7074423426389694,6.698488629436059
9.822424999903888,3.5682496109604838,0.8086535525321961,-0.6995024085044861,3.7250006004893694
9.832449999870732,1.5707828566432,0.0008560323715209961,-0.8283083832263947,1.7757968051662658
9.842473999829963,0.3225945420563221,-0.5522011059522629,-0.7496545618772507,0.9853807701202633
9.852498999796808,-0.5618621680140495,-1.3956075847148897,-0.4343241620063782,1.565901371115601
9.862522999756038,-1.2016025242209436,-2.5677989065647124,0.2282232588529587,2.844209153112784
9.872547999722883,-2.134393342137337,-3.7679042512178422,0.5848373401165009,4.369756526363937
9.882572999922559,-2.9805734476447108,-4.800986219644547,0.6020065194368363,5.682930459495873
9.892596999881789,-3.3657005989551547,-5.311984335780144,0.2633802276849747,6.294004071313911
9.902621999848634,-3.4057911559939384,-5.291800332069397,-0.2272420960664749,6.297158337135965
9.912645999807864,-3.502720742225647,-4.936348677277565,-0.496155543923378,6.0731179130199395
9.92267099977471,-3.5472043123841286,-4.642255364656449,-0.49582576096057895,5.863363922673594
9.93269499973394,-3.455394840538502,-4.29918928205967,-0.1841124486923218,5.518757050347507
9.942719999700785,-3.489833771288395,-3.8484011149406436,0.27151721298694614,5.202196890703924
9.952743999892846,-3.5856442004442215,-3.484795517921448,0.6378628152608872,5.040586583424318
9.96276899985969,-3.8220605778694154,-3.048664566278458,1.0852765542268754,5.0080263475484905
9.972792999818921,-3.9907852014899254,-2.5252937418222428,1.380201925635338,4.920206536563792
9.982817999785766,-3.9637234103679657,-1.754100376367569,1.528482052087784,4.596110180122577
9.992841999744996,-3.973726534545422,-1.262931922674179,1.78776338160038,4.536694558954911
10.002866999711841,-3.7968485534191134,-1.5212554782629013,2.294935664534569,4.690096680463893
10.012890999903902,-3.252694970369339,-1.88733444750309,2.559689987897873,4.54907339148781
10.022915999870747,-2.5445009681582453,-1.9837696516513825,2.318002345561981,3.9727776280333313
10.032939999829978,-1.8246714453399182,-2.2133237367868426,2.2256332951784135,3.630657159781086
10.042964999796823,-1.2494630075991153,-2.531454368233681,2.4089826822280886,3.711147610791418
10.052988999756053,-0.8546828341484071,-2.6174347507953644,2.4954448753595355,3.716004917598645
10.063013999722898,-0.4669346684217453,-2.314340234398842,2.466758435368538,3.4145418263060203
10.073037999914959,-0.17680225968360902,-1.740472270846367,2.251311342716217,2.8511235551019243
10.083062999881804,0.21456694051623346,-1.0312664079666138,1.9213517940044404,2.1911508602757004
10.093086999841034,0.7527230344712734,-0.12731025695800782,1.491875266134739,1.6758555062579097
10.10311199980788,1.3828752726316453,0.9501082241535187,1.0090124899148942,1.957844698147546
10.11313599976711,2.2153407338261606,2.1081387591362,0.5749213394522668,3.1116744915365646
10.123160999733955,3.234518900513649,3.0501655465364457,0.24825757384300234,4.452780502341027
10.133184999926016,5.142813277244568,3.501627312898636,0.06986691802740097,6.22212211622975
10.14320999989286,6.4059288024902346,4.00538423717022,-0.2527271854877472,7.559292145447892
10.153233999852091,6.400938788652421,4.657373925447464,-0.8171998429298402,7.958075448297635
10.163258999818936,6.05371884405613,5.051353468894959,-1.0451310333609583,7.953362973452901
10.173282999778166,4.996266265511513,5.326532793045044,-0.9033702600002289,7.358716329491543
10.183307999745011,3.2677275770902634,5.649554035663605,-0.7430837532877922,6.568689198337777
10.193331999704242,1.83228466629982,6.028851805329323,-0.6361577671766282,6.33316807717269
10.203356999903917,1.1012105092406272,6.266987848877907,-0.4784659624099732,6.3809663030633725
10.213380999863148,0.39677538961172104,6.425092467069626,-0.39932799160480503,6.449705944078033
10.223405999829993,-0.24895543903112413,6.503744534254074,-0.2785821112990379,6.514466959790245
10.233429999789223,-0.7056130412220956,6.39233051776886,-0.014386489391326905,6.431173002137231
10.243454999756068,-0.926387532055378,6.011863889694214,0.49047351211309437,6.1025622122057435
10.253479958046228,-1.0551066756248475,5.346310415267944,1.0882580494880676,5.5570307481267545
10.263503958238289,-0.9118206560611726,4.524584827423096,1.5893170684576035,4.881517542061872
10.273528958205134,-0.17101585507392883,3.5707203519344333,2.048851500749588,4.120325560745081
10.283552958164364,0.395223246216774,2.372442262172699,2.4204502415657045,3.412222600240013
10.293577958131209,0.9350817570090294,0.8726641917228699,2.967440016567707,3.2313497080529334
10.30360195809044,1.3325807395577431,-0.8099949038028718,3.4014574921131135,3.7418947396044313
10.313626958057284,1.4652028995752335,-2.3646221959590914,3.541906735002995,4.5037052507913575
10.323650958249345,1.5490671747922897,-3.4782951682806016,3.387794888019562,5.096596961992837
10.33367595821619,1.5467967009544374,-4.189922947883606,3.227739053964615,5.510565646444435
10.34369995817542,1.1598803016543389,-4.515743252635002,3.1217214328050615,5.610918297562244
10.353724958142266,0.4603533348441124,-4.246499437093735,2.9047008544206623,5.165459293790981
10.363748958101496,-1.1430974771082403,-3.552439032196999,2.7719070786237716,4.648651823074357
10.373773958068341,-3.438915340304375,-3.053623589873314,3.1007001078128815,5.546629328249938
10.383797958260402,-5.992019609212876,-2.7694892549514774,3.73731483489275,7.585637211572455
10.393822958227247,-8.33672969698906,-1.8944329673051834,3.882565811276436,9.389582290345224
10.403846958186477,-7.79456592142582,-0.7991524118185044,3.8619382962584496,8.735471932579012
10.413871958153322,-5.838261811137199,-1.1889096808433532,4.2163646417856215,7.29907788676666
10.423895958112553,-4.349662447571754,-2.195090364217758,4.841776980757714,6.868827370540974
10.433920958079398,-2.868697208762169,-2.3981875526905063,4.561336624324322,5.898009750232864
10.443944958038628,-1.126847772449255,-2.0060896432399753,3.754107161164284,4.403124133668445
10.453969958238304,0.8992834948003292,-2.049960132837296,3.3823695489764214,4.056041310944153
10.463993958197534,2.9024157625436784,-2.443045637011528,2.440674883425236,4.511029054413844
10.474018958164379,4.557570140361786,-2.667882773280144,1.2154256343841554,5.4190685130380505
10.48404295812361,5.95150308251381,-2.8689539015293124,0.3345057588815689,6.615374481690101
10.494067958090454,6.351105308532715,-3.809119520187378,-0.11298691749572755,7.406665660246191
10.504091958049685,5.913263461589813,-4.848459763526916,-0.06725701332092285,7.647141318855921
10.51411695824936,4.796238572895527,-5.308258489966393,0.07028937935829163,7.154470856833634
10.52414095820859,3.2781058001518253,-5.269130676984787,0.150288645029068,6.207439279200069
10.534165958175436,2.1127174213528632,-4.791534780263901,0.17726594388484956,5.239637742041706
10.544189958134666,1.4235686776041985,-4.046974312663078,0.06137062132358551,4.290491256298305
10.554214958101511,1.0895140314102174,-3.0149717402458194,-0.330220919251442,3.222753678864073
10.564238958060741,0.9906832230091095,-1.8556092095375063,-0.7338004213571548,2.227824464641697
10.574263958260417,1.0766804163157941,-0.7625231140851975,-1.0388210105895996,1.6792353350363185
10.584287958219647,1.5644605547189714,0.21548393011093142,-1.4987109535932541,2.17717814471578
10.594312958186492,2.3942358581721783,1.0694440484046936,-2.0357578307390214,3.3196966522019653
10.604336958145723,3.0918263733386997,1.6671312296390535,-2.4687464886903765,4.293416598133894
10.614361958112568,3.2038116627931594,2.054418634772301,-2.8638065975904468,4.763027747762102
10.624385958071798,2.7797262677550316,2.407916734814644,-3.180085415840149,4.861880744885353
10.634410958038643,2.152048278898001,2.7413238018751147,-3.5427010792493823,4.969597460393509
10.644434958230704,1.4610221403837205,3.084201019406319,-3.8645177954435352,5.155713278887623
10.654459958197549,1.0229705245792866,3.412496450543404,-4.133232437968254,5.456666666143567
10.66448395815678,0.28382180124521256,3.5346582341194153,-5.107402539253235,6.217710538844717
10.674508958123624,-1.4884175151586534,2.8738766723871234,-8.117654407024384,8.739042676369326
10.684532958082855,-2.5872496694326403,1.62236436188221,-8.61609328866005,9.141279480115326
10.6945579580497,1.1284610192477704,2.488789574503899,-7.743837817311287,8.211852529054664
10.70458195824176,4.989099918007851,3.8914874929189684,-4.272317817807198,7.6346245772640025
10.714606958208606,6.131113759875298,2.9302607882022857,-2.042507856488228,7.095690422166417
10.724630958167836,6.4900211191177375,2.6005322045087818,-2.3674002081155776,7.381580157301499
10.734655958134681,5.568848426342011,1.9154309034347534,-2.3806032210588457,6.352024876960143
10.744679958093911,3.9089347073435787,1.3685893553495407,-2.289553887248039,4.732321245695807
10.754704958060756,2.3106439170241355,1.1113335013389587,-1.937117641568184,3.213496883420557
10.764729958260432,0.6475522363185883,0.8779155761003494,-1.5463873958587648,1.8924517525135656
10.774753958219662,-0.89995950601995,0.28696204841136935,-1.0751807516813279,1.4311841176068671
10.784778958186507,-2.179589395523071,-0.6801259052753449,-0.43264016389846804,2.3238671845700063
10.794802958145738,-3.057428665459156,-1.7653153359889986,0.014500510096549988,3.5304983422517515
10.804827958112583,-3.50439275354147,-2.889685789346695,0.3702176284790039,4.557204584464342
10.814851958071813,-3.5949325025081635,-3.815618700385094,0.47322627246379856,5.263689663085014
10.824876958038658,-3.6891989743709566,-4.419164791703224,0.2484429305791855,5.762024854032122
10.834900958230719,-3.629690983593464,-4.601373386979104,0.05693083047866822,5.860932929341389
10.844925958197564,-3.4409566032886505,-4.244867479205132,-0.029890966415405274,5.464428216346367
10.854949958156794,-3.2430441409349444,-3.6180880612134936,-0.017372077703475954,4.85882684480851
10.86497495812364,-3.1188033798336985,-3.0375110024213794,0.18931296229362488,4.3576653163804835
10.87499895808287,-3.3029085195064547,-2.6076131826639175,0.4574259263277054,4.232976455959533
10.885023958049715,-3.6539768090844156,-2.5558588922023775,0.9869842743873597,4.567066800044054
10.895047958241776,-3.9925305953621866,-2.660715256333351,1.383244231939316,4.993302598018827
10.90507295820862,-4.384072142243386,-2.669953272342682,1.5607364630699159,5.36513162299341
10.915096958167851,-4.637688104510308,-2.4742048645019534,1.4308364742994308,5.447672317827786
10.925121958134696,-4.7047381263971335,-2.1234514474868775,1.1741384446620942,5.293600662596533
10.935145958093926,-4.673442951142788,-1.7109917789697648,0.9577604752779008,5.068122632029821
10.945170958060771,-4.456273853480816,-1.5436713641881943,1.0593394750356675,4.833580252897457
10.955194958252832,-3.9870438605546954,-1.7644908785820008,1.4929953002929688,4.608576979207666
10.965219958219677,-3.3221593075990676,-1.8926869887113573,1.7976989704370498,4.225012200055144
10.975243958178908,-2.5842623269557956,-1.8624258935451508,1.7278557336330416,3.623882920255429
10.985268958145753,-1.9091354987025262,-2.080107207298279,1.7826827359199524,3.339101987542075
10.995292958104983,-1.3870191943645478,-2.4671157002449036,1.9293876224756241,3.425349430597223
11.005317958071828,-0.9422334133833647,-2.75551733314991,2.0047295808792116,3.5354802037400517
11.015341958031058,-0.4306727220118046,-2.7201410937309265,1.9608684468269348,3.38077677894448
11.025366958230734,0.24264629334211352,-2.267940239310265,1.7232364332675936,2.858666464926642
11.035390958189964,0.9196869152784348,-1.6061517870426179,1.2272223919630052,2.2207256436782004
11.04541595815681,1.7924537256360056,-0.6138097089529038,0.7577786833047867,2.0405590533533653
11.05543995811604,2.74859306037426,0.37788859069347386,0.5130288541316986,2.821482270666524
11.065464958082885,3.4170028996467594,1.2605871891975404,0.17688821375370026,3.6464062195438802
11.075488958042115,3.922591171860695,1.871596081852913,-0.35018389821052553,4.360300695792959
11.08551395824179,4.404957519471646,2.333308601975441,-1.0323224151134491,5.090547057944563
11.095537958201021,4.8749792253971105,2.8979607689380646,-1.7325209346413613,5.930027643723769
11.105562958167866,5.027322582006454,3.4585561376810077,-2.1752685955166817,6.478223241266399
11.115586958127096,4.720959472060204,3.952890858650208,-2.393385819196701,6.606141094221891
11.125611958093941,3.80575620174408,4.483585905432701,-2.3539141899347307,6.334606132356168
11.135635958053172,2.9304712879657746,4.931662718653679,-2.177553979754448,6.136016661882105
11.145660958252847,2.461882149875164,5.181765673756599,-1.9925790667533876,6.0730495267912925
11.155684958212078,2.151939666867256,5.293588995337487,-1.7986859804391861,5.99067609186337
11.165709958178923,1.7048831927776338,5.398461731672287,-1.5357217821478844,5.8658722421741585
11.175733958138153,1.3429741653800011,5.5578638470172885,-1.3577585577964784,5.876813630882768
11.185758958104998,1.1113384714722634,5.5880085825920105,-1.1729991146922112,5.816944218433334
11.195782958064228,0.8448212125897407,5.49397424519062,-0.9915240526199341,5.646290449045577
11.205807958031073,0.6684083774685861,5.142380583286285,-0.6861067298054695,5.230830743497092
11.215831958223134,0.7502623799443245,4.5146591788530355,-0.2347256550192833,4.582590672652961
11.22585695818998,0.9301417368650436,3.6353566431999207,0.21870136052370073,3.7588311825634086
11.23588095814921,1.1887061977386475,2.573327448964119,0.7328762689232826,2.927822434794393
11.245905958116055,1.4660033833980561,1.5528082233667375,1.1632804575562479,2.4317896129439704
11.255929208127782,1.3106238600611688,0.6747166460752487,1.375366863012314,2.016088158520109
11.265954208094627,0.987171092927456,-0.10747767090797425,1.4854032754898072,1.7867515516409211
11.275978208053857,0.41481083393096924,-0.7979905700683594,1.5454769843816758,1.7881152331765449
11.286003208253533,0.027701147608458997,-1.5556166410446168,1.6950826746225358,2.3008728259682782
11.296027208212763,-0.37106573056429626,-2.2565861159563068,1.8941891384124756,2.9694819695033985
11.306052208179608,-0.9950464153289795,-2.705307292342186,2.107959249615669,3.5710358599010337
11.316076208138838,-1.360822791159153,-2.841642726659775,2.159623200595379,3.8197832953541244
11.326101208105683,-2.027647157907486,-2.75293286383152,2.1297494834661483,4.028129244706313
11.336125208064914,-2.921181231737137,-2.61042861700058,2.1834877341985703,4.485003460255573
11.346150208031759,-4.196511590480805,-2.4385216462612154,2.5666177690029146,5.490412017370439
11.35617420822382,-6.433335871696473,-2.0026199054718017,3.4087559866905215,7.551020745610952
11.366199208190665,-9.224568582773209,-1.2707315236330032,4.524992963075638,10.352921590513724
11.376223208149895,-10.835785228013993,-0.5054543709754944,5.111082776784897,11.991367427442615
11.38624820811674,-10.564023016691209,-0.43617655992507937,5.118764848709107,11.746939425441406
11.39627220807597,-7.915330805182458,-0.9383722776174546,4.240036217272282,9.028339349551056
11.406297208042815,-4.517387489676476,-1.3258146339654924,2.9483590900897982,5.554943339012355
11.416321208234876,-0.6911262720823288,-1.5863314801454544,2.2983831828832626,2.876919940530755
11.426346208201721,3.5428519374132157,-2.3643193101882938,2.69921040058136,5.042572997743157
11.436370208160952,7.553296939730645,-3.3515029746294025,3.350137357413769,8.916741958935077
11.446395208127797,9.975238806009292,-3.453179622888565,3.2910708314180375,11.057168984973375
11.456419208087027,11.230853523015977,-3.4015370142459873,3.213468339443207,12.166712936669862
11.466444208053872,10.419788578748703,-3.4410109823942188,2.7363273561000825,11.309289898420731
11.476468208245933,8.733762656450272,-3.5254512083530427,2.058085423707962,9.64070184026881
11.486493208212778,6.590348814725876,-3.324147360920906,1.5007030999660493,7.5322482016409875
11.496517208172008,4.014514372050763,-2.80245702624321,1.2819774734973908,5.060983824306971
11.506542208138853,2.688985374569893,-2.1080715161561967,1.7572432547807695,3.842201415640828
11.516566208098084,2.365350466668606,-1.5335083186626435,2.1717178738117218,3.55849534452558
11.526591208064929,2.3912419375777247,-1.3319349145889283,2.1682048666477205,3.49187642457266
11.53661520825699,2.7944729456305506,-1.106757470369339,1.5625350666046143,3.3875517673459266
11.546640208223835,3.0691356682777404,-0.5624144375324249,0.44731258213520053,3.1521409067451325
11.556664208183065,3.028425598740578,0.16773498237133028,-0.7798203474283218,3.131711418007982
11.56668920814991,2.924020639657974,0.9226187092065812,-1.7972218376398088,3.55402987007893
11.57671320810914,2.9815730291605,1.644297267794609,-2.4336275267601013,4.185216144011994
11.586738208075985,2.9458991664648058,2.1561952704191207,-2.8064044815301896,4.604715632599754
11.596762208035216,2.7051207661628727,2.4105509054660796,-3.1109625560045244,4.7756174524590165
11.606787208234891,2.2338737761974334,2.5843745934963227,-3.4050897824764252,4.823258288150989
11.616811208194122,1.7184398160874845,2.826779104471207,-3.6797972363233566,4.948193933895764
11.626836208160967,1.3227860686182977,3.0595076429843906,-3.934582641720772,5.156674370690956
11.636860208120197,1.0907907709479332,3.171951938867569,-4.132490426301956,5.322460026336341
11.646885208087042,0.20839388877153397,2.419022351503372,-5.830826491713524,6.316140809578146
11.656909208046272,1.6040722247958183,2.63461620926857,-6.663952980637551,7.343195462511548
11.666934208245948,2.382725467979908,2.4527876830101016,-4.670163540244102,5.788261877827528
11.676958208205178,2.740801645517349,1.800091651082039,-3.194501726031304,4.577899615542356
11.686983208172023,3.147322881817818,1.4476402026414872,-2.7716047775745394,4.436563593795531
11.697007208131254,2.7462225991487506,0.8762467807531358,-2.8657057732343674,4.0647037485657345
11.707032208098099,1.715148126035929,0.3422726154327393,-2.9917822676897052,3.4654934388600824
11.717056208057329,0.505316230505705,-0.03839574158191681,-3.0917790108919143,3.1330362554518745
11.727081208257005,-0.7170959495007992,-0.4179081040620804,-3.135149563550949,3.243152258230397
11.737105208216235,-1.8129505553841592,-0.9625838434696198,-2.9825237864255905,3.620608444525715
11.74713020818308,-2.705792611241341,-1.7343239235877992,-2.7806135827302936,4.2498241167654704
11.75715420814231,-3.219481616020203,-2.647297650575638,-2.531082485318184,4.876435714137922
11.767179208109155,-3.4252661848068238,-3.588147393465042,-2.2510037791728976,5.447409307906074
11.777203208068386,-3.508445166349411,-4.324635779857636,-2.0926354515552523,5.949015485507772
11.78722820803523,-3.4387106877565388,-4.693124386668205,-2.0158112239837647,6.15740550829404
11.797252208227292,-3.320446365773678,-4.765220555663109,-1.939498627781868,6.123262687429112
11.807277208194137,-3.3677865931391717,-4.570915825366974,-1.798014135360718,5.955511132596022
11.817301208153367,-3.5404127714037896,-4.207852849960327,-1.6112967520952226,5.730342522236425
11.827326208120212,-3.7186701107025146,-3.846765648722649,-1.1050740569829942,5.4632684374687
11.837350208079442,-4.040881221592427,-3.6278149044513706,-0.402280250787735,5.445327485849832
11.847375208046287,-4.629247063994408,-3.683328369855881,0.24475918471813204,5.920873526616653
11.857399208238348,-5.189281100034714,-4.000513506531716,0.8173197108507156,6.6030870175142535
11.867424208205193,-5.472708506584167,-4.067456524372101,1.1353977173566818,6.912587717510328
11.877448208164424,-5.511384329795837,-3.7381723290681843,1.0953922373056413,6.749012797889749
11.887473208131269,-4.9174171471595765,-3.4207819551229477,1.1290084648132326,6.095687057034157
11.897497208090499,-4.013327679634094,-3.048499090075493,1.3816075962781906,5.225799969038414
11.907522208057344,-3.2793737688660625,-2.5788296788930896,1.4414415693283082,4.413888152916235
11.917546208249405,-2.5746091586351394,-2.0816637361049652,1.368777050971985,3.582664768745464
11.92757120821625,-1.8605078606307508,-1.7240854489803314,1.3460442459583284,2.8715492764241484
11.93759520817548,-1.2498242193460465,-1.6128304767608643,1.4154600512981415,2.4833062402477806
11.947620208142325,-0.6453491516411305,-1.4670617294311523,1.2990887653827667,2.063098947173686
11.957644208101556,0.08241328865289689,-1.3406051659584046,0.9963070750236511,1.6723163423476823
11.9676692080684,0.9072493759542704,-1.2879790556430817,0.7168914431333542,1.7308740044216044
11.977693208260462,2.072117864191532,-1.1641315197944642,0.5455919981002808,2.438553929457313
11.987718208227307,3.526080661118031,-1.0396741193532943,0.39095127046108247,3.696891937701013
11.997742208186537,5.638743118643761,-0.8884376406669617,0.2872953397035599,5.715530072672318
12.007767208153382,7.638506074547768,-0.5478396677970887,0.3208770686388016,7.6648460810177665
12.017791208112612,9.02618658900261,0.04902422547340393,0.21838911920785906,9.028961264816802
12.027816208079457,8.835221203565599,1.2103865039348602,-0.0680785471200943,8.918004479333971
12.037840208038688,7.216647591590882,2.5859270292520526,-0.5189222627878189,7.68350840284877
12.047865208238363,5.196418211460114,3.7653028249740603,-0.3409675168991089,6.4262373469809155
12.057889208197594,3.3216979622840883,4.738055561184884,0.05670688211917878,5.786714397997964
12.067914208164439,1.887208732366562,5.599665591716767,0.21003315567970277,5.912861021964077
12.077938208123669,0.8791271191835404,6.189774196743966,0.5373980024456978,6.274947466823446
12.087963208090514,0.31937696546316147,6.509844934344292,1.157645203471184,6.619684670163401
12.097987208049744,-0.22643137961626053,6.697784970402718,1.632582955956459,6.8976026115968
12.10801220824942,-0.8789347457885742,6.686565917730332,2.0484848803281785,7.048331743358881
12.11803620820865,-1.4992936286330223,6.382985497713089,2.3614838491380215,6.969002168073627
12.128061208175495,-1.6089841783046723,6.014336092472076,2.4461598640680315,6.689152920947792
12.138085208134726,-1.3272664976119997,5.7358694636821745,2.3600794941186907,6.3428550415916325
12.14811020810157,-0.9201620015501977,5.417575110197068,2.1880409610271454,5.9147562444158455
12.158134208060801,-0.6863700006902218,4.830445076823235,1.8441752716898918,5.215868657353807
12.168159208260477,-0.546814723983407,3.8304074782133104,1.6058410075306893,4.189242548836804
12.178183208219707,-0.6768904215842486,2.3590568161010745,1.34105043143034,2.79673845113642
12.188208208186552,-0.5817712794989348,1.0701889836788179,1.5281648406386377,1.9542389983319446
12.198232208145782,-0.3581676864624024,0.08352981448173523,2.013129690885544,2.04644874694142
12.208257208112627,-0.04533317059278488,-0.4982190263271332,2.4064660406112672,2.457917024467185
12.218281208071858,0.022877523601055147,-0.9400855118036271,2.3656495517492298,2.5456987159286024
12.228306208038703,-0.20919643739238383,-1.4210213381052017,2.088145082294941,2.5344456351400617
12.238330208230764,-0.7851974469423294,-1.7535945922136307,1.8210355004668237,2.647224833384217
12.248355208197609,-1.6990231132507325,-1.9918130815029145,1.8813925069570543,3.2239163537909135
12.258379833074287,-3.2757277375459672,-2.346106402873993,2.2707808166742325,4.625046268039928
12.268404833041131,-5.256250430345536,-2.9061889708042146,2.663680087029934,6.570334430344584
12.278428833233193,-8.33259045302868,-3.6415143460035324,3.2483183294534683,9.65630686958102
12.288453833200037,-11.040569922924043,-4.122050807476044,3.565104686021805,12.312410751135765
12.298477833159268,-11.20764592409134,-3.5934192430973053,3.146227698326111,12.182887085833867
12.308502833126113,-9.070597361326218,-2.1183345490694045,2.2465631112456323,9.581759940944508
12.318526833085343,-6.243949234485626,-0.45121033608913425,1.4661653512716295,6.429629355374753
12.328551833052188,-3.8188615661859515,0.4004032945632935,1.873738794028759,4.272578089191315
12.33857583324425,-1.1529854111373425,-0.08905777215957641,3.432165022194386,3.621748663926331
12.348600833211094,1.9034922046959402,-1.09259142100811,4.394376398026943,4.91198356207907
12.358624833170325,4.571343256831169,-1.8087274038791656,4.721707623302937,6.816391778153331
12.36864983313717,7.595346606373787,-2.2881827151775362,5.20051126241684,9.485272141563227
12.3786738330964,10.57595133662224,-2.7093371933698656,5.230503385663033,12.105759801409057
12.388698833063245,12.21208296775818,-2.787520898580551,4.382330549061298,13.270646714183474
12.398722833255306,11.887439707517624,-2.7843815284967426,3.4129732909798625,12.677239051979832
12.40874783322215,9.309067865610123,-2.6607275354862217,2.5147114509344104,10.003098981120312
12.418771833181381,5.341463658213616,-2.174257904291153,1.4965506997704507,5.958044598974799
12.428796833148226,2.125054461658001,-1.3788389396667482,0.9368707126379013,2.7008850436019207
12.438820833107457,1.250908000767231,-1.0696685814857483,1.60582434296608,2.299485490509485
12.448845833074301,1.3910230752825739,-1.4378619039058687,2.715878473520279,3.3731866141088664
12.458869833033532,1.7357453817129136,-2.129919637441635,3.334843672513962,4.3209434169176095
12.468894833233207,2.357354983985424,-2.620415076613426,2.9328306394815447,4.585323680411841
12.478918833192438,3.1810560536384584,-2.534530003666878,1.6767917069792748,4.399385228014475
12.488943833159283,4.102058007717133,-1.9441495031118394,0.3670174473524094,4.5542616301424035
12.498967833118513,4.704837529063225,-1.1943820899724962,-0.7857994177937508,4.917268090793283
12.508992833085358,4.914208195209503,-0.2995382398366928,-1.9053663834929466,5.279165312654425
12.519016833044589,4.549722592234612,0.7660367059707642,-2.8450422978401186,5.420429279834204
12.529041833244264,4.034771173596383,1.8560056507587435,-3.415444031953812,5.602623790184526
12.539065833203495,3.4452086985111237,2.709722524881363,-3.784270023107529,5.790747684534044
12.54909083317034,2.7046488958597186,3.2888722783327102,-4.083289614915848,5.899581391280249
12.55911483312957,1.9876036709547045,3.64827782034874,-4.274112913012504,5.960582236696463
12.5691388330888,1.3109974971413614,3.811913319826126,-4.4271526730060575,5.987409989760467
12.579163833055645,0.7806114757061005,3.6988515579700474,-4.534088891744614,5.903288846240153
12.58918883325532,0.4530476774275303,3.4969045168161395,-4.5623952627182005,5.76619839504548
12.599212833214551,0.6334858819842338,3.234765068292618,-4.463437569737435,5.5486290512759195
12.609236833173782,1.0476856818795204,2.7567054873704913,-4.244911333322525,5.168785414377729
12.619261833140627,1.4733831542730331,2.248721026182175,-4.111307718157769,4.912275982299143
12.629285833099857,1.832273410409689,1.615238944888115,-3.89932802438736,4.6011935127040955
12.639310833066702,2.0529470367729665,0.9228549367189408,-3.6101183062791824,4.254316273545433
12.649334833258763,2.223269412070513,0.32321887850761416,-3.352325677871704,4.035527818339265
12.659359833225608,2.1731586277484896,-0.33955599904060363,-3.0515472435951234,3.761629604006109
12.669383833184838,1.6068870744109154,-1.1490316700935364,-2.830803743004799,3.451928400212958
12.679408833151683,0.8288726395368576,-2.047480328679085,-2.5495251882076264,3.373319468150881
12.689432833110914,-0.010306594669818878,-3.024128479957581,-2.376579751968384,3.8462437008918644
12.699457833077759,-0.8659895950555802,-3.9089531260728836,-2.247884874343872,4.591605267102504
12.709481833036989,-1.559143681526184,-4.622438566088677,-2.219007230401039,5.359277974268461
12.719506833236665,-2.007221956551075,-5.206474252939224,-2.175027982592583,5.988911491618534
12.729530833195895,-2.305735764205456,-5.551524295806885,-2.275934552550316,6.427730354391249
12.73955583316274,-2.551734266281128,-5.629427919387818,-2.572518779039383,6.694748638582827
12.74957983312197,-2.718158595263958,-5.5703827357292175,-2.8755273413658142,6.832730600752513
12.759604833088815,-2.923256993293762,-5.267426798343659,-3.1666479295492174,6.8057972078565605
12.769628833048046,-3.1847096863389015,-4.7893467521667485,-3.3392817091941835,6.650640603138154
12.779653833247721,-3.4109106856584552,-4.270335611701012,-3.234843420982361,6.3509282707627674
12.789677833206952,-3.366200828254223,-3.868147746920586,-2.74183484852314,5.814768554699502
