Time (s),Linear Acceleration x (m/s^2),Linear Acceleration y (m/s^2),Linear Acceleration z (m/s^2),Absolute acceleration (m/s^2)
0.004003791604191065,-0.6749282421916724,1.0236998185515405,-0.582418931722641,1.3574613300714462
0.014031791593879461,-0.6542649129778147,1.0675340554118158,-0.7851910150051117,1.4779094917695814
0.024059791583567858,-0.4446797271072865,0.9618318915367127,-0.8275307035446168,1.344495337510082
0.0340877918060869,-0.6419290421158076,0.8200617626309396,-0.7675546431541443,1.2937211136363849
0.044115791795775294,-1.005396864116192,0.96138691842556,-0.18593093276023864,1.4034450374174114
0.05414379178546369,-1.19832442894578,1.0861597761511803,0.8144873195886613,1.810832430156842
0.06417179177515209,-1.1458143858611585,0.9849883273243905,1.7639891874790192,2.322660213064876
0.07419979176484048,-1.1658878771960737,0.9088719052076341,2.582456706762314,2.975638641463405
0.08422679174691439,-0.8305259397625924,0.7413108775019646,2.7212549883127215,2.940160516900079
0.09425479173660278,-0.5963245972618461,0.6764991697669029,2.289604758024216,2.46080151575903
0.10428279172629118,-0.49428600635379555,0.9756526628136636,1.8779543441534043,2.1732301519298916
0.11431079171597958,-0.5358778360113502,1.2885324946045875,1.4481646978855134,2.011134514890033
0.12433879170566797,-0.4092003208771348,1.3517093208432198,0.8080191296339035,1.6271010738472025
0.13436679169535637,-0.26953328926116227,1.2244022798538208,0.3324247348308563,1.2970409944402452
0.14439479168504477,-0.036825544908642774,1.0795831203460693,0.2266532814502716,1.1037334571743986
0.15442279167473316,0.4571360506117344,0.7804524314403535,0.4823964607715607,1.025078393038787
0.16445079166442156,0.7489408361166716,0.6972974234819412,0.7508678591251373,1.2692275661459846
0.17447879165410995,0.3964914342015982,0.781543229520321,0.988898652791977,1.3213386479241727
0.18450679164379835,-0.20280672803521158,0.6185228571295739,0.9018663561344147,1.112233796490309
0.19453479163348675,-0.4718132197111845,0.343132740855217,0.47999968707561497,0.7554783198303816
0.20456279162317514,-0.6913367718458177,0.10536799550056458,-0.05592803299427033,0.7015531993060906
0.21459079161286354,-0.7634801571071148,-0.09992628425359726,-0.7857073241472244,1.1001014552302106
0.22461879160255194,-0.6830291940271854,-0.14534716308116913,-1.2062648016214372,1.393818298538219
0.23464679159224033,-0.4604425048828125,-0.03400916039943695,-1.1830700665712357,1.2699679939709905
0.24467479158192873,0.009852777644991876,0.2108254534006119,-0.691624454855919,0.7231105279164743
0.25470279180444777,0.5093633077293634,0.3787647959589958,0.028678253889083863,0.635402386023994
0.26473079179413617,0.9548853993415833,0.38479853779077533,0.8603236430883408,1.3416530145378307
0.27475879178382456,1.0411206474155188,0.2686778050661087,1.5984153360128404,1.9264089783353617
0.28478679177351296,0.7296192967146635,0.03494763851165772,1.920706261396408,2.0549156182537787
0.29481479176320136,0.27959645703434943,-0.1858537495136261,1.7898356348276139,1.821051178493675
0.30484279175288975,-0.1715782841295004,-0.3838305312395096,1.179113255739212,1.2518278851968239
0.31487079174257815,-0.6189084079116584,-0.6020293235778809,0.3579396450519562,0.934669841886056
0.32489879173226655,-1.1228155325353146,-0.8322361041605473,-0.44794817447662355,1.467647512241215
0.33492679172195494,-1.5016988807916642,-0.8263766093552113,-0.9995347380638123,1.9842045060065372
0.34495479171164334,-1.6582854156196118,-0.609388921558857,-1.113608068227768,2.0883937145560836
0.35498279170133173,-1.3644932346045973,-0.31883799836039545,-0.8200410050153732,1.6235660462040968
0.36501079169102013,-0.7499827368557453,-0.14597106099128723,-0.13595068752765657,0.7760568572390807
0.3750387916807085,-0.4532610277086497,-0.2618517655134201,0.4804569393396378,0.7105285194146741
0.3850667916703969,0.00452442929148674,-0.2867303524911404,1.0081921255588533,1.0481822969021113
0.3950947916600853,-0.04983457647264004,-0.34251790612936023,1.5628291815519333,1.6006989260138005
0.4051227916497737,-0.3432149673253298,-0.5220360513031483,1.7328194350004198,1.8420047087267406
0.4151507916394621,-0.5080794053524733,-0.883941862732172,1.6271386134624481,1.9201765455952855
0.4251787916291505,-0.43762688867747784,-1.1805149795114995,1.1579217767715455,1.7105308391450704
0.4352067916188389,-0.3199540125578642,-1.2886140632629395,0.53678082883358,1.4321419037211942
0.4452347916085273,-0.1906103863567114,-1.1361889918148518,-0.058763347864151,1.1535644219377206
0.4552627915982157,-0.06920552484691143,-0.8532251232862473,-0.5429268372058869,1.0136824286898516
0.4652907915879041,0.18696969062089921,-0.526513556689024,-0.9322075581550598,1.086823408870834
0.47531879181042314,0.3398763168230653,-0.6268196175992489,-1.1720135664939881,1.3718726412427793
0.48534679180011153,0.5982826836034656,-0.8730251111090184,-1.3509646779298783,1.7161644953619273
0.49537479178979993,0.9057511000335217,-0.9598464694619179,-1.5049487632513048,2.0016395979701427
0.5054027917794883,0.9093002137541771,-0.9817540861666203,-1.8528879153728486,2.28557686183882
0.5154307917691767,0.8196378394961358,-1.0836046890914441,-2.3754810601472856,2.736588309788911
0.5254587917588651,0.49811417844146494,-1.589863198399544,-2.723167612552643,3.192401066665231
0.5354867917485535,0.39191291816532614,-2.20644711881876,-2.9927511513233185,3.7387917937905444
0.5455147917382419,0.26907621972262863,-3.011959839463234,-3.0106067937612537,4.267090033406962
0.5555427917279303,-0.01742350579239428,-3.3127648785710337,-2.1937577837705615,3.973322027359698
0.5655707917176187,-0.054758005142211914,-3.449527451992035,-1.7712830042839052,3.878102830307473
0.5755987917073071,-0.6199609798192979,-3.9768930941820146,-0.5733013683557511,4.065550978404978
0.5856267916969955,-0.7913109301775695,-4.374061124324799,0.7876497691869736,4.514307905587334
0.5956547916866839,-0.2010635268688202,-4.855225576758385,1.2791708099842072,5.024929840720303
0.6056827916763723,0.42207453757524493,-5.594069806337357,1.316250343322754,5.762315409602454
0.6157107916660607,0.5714989641308785,-6.445686945319176,0.8892381244897842,6.531786563039765
0.6257387916557491,0.8551807245612145,-6.977511674165726,0.6200071728229523,7.057011557956522
0.6357667916454375,1.369319380223751,-6.996446127891541,0.012149344682693483,7.129196419802242
0.6457947916351259,1.5159453293681147,-6.657694121003152,-0.9994072687625886,6.900854739764374
0.6558227916248143,0.9475997686386108,-6.1799309939146045,-1.5573047322034836,6.443189461750575
0.6658507916145027,0.15636974930763245,-5.529515376091004,-1.4314469236135483,5.7139331539709195
0.6758783333934844,-0.36831640630960466,-4.942935565710068,-1.4026856392621996,5.15129071054146
0.6859063333831728,-1.1250069227814674,-4.81229298055172,-1.7234065872430802,5.233921529018793
0.6959343333728611,-2.608425653278828,-5.022338415384293,-2.647530369758606,6.247974440258381
0.7059623333625495,-3.88127006828785,-5.012744888663292,-4.025608001947403,7.5098194683461
0.7159903333522379,-4.607000162601471,-4.902651465833188,-5.00564870774746,8.385520906838174
0.7260183333419263,-5.343909548521042,-4.89296467602253,-5.2335217183828355,8.938021154616019
0.7360463333316147,-6.509473051428795,-4.750092931687832,-5.17630028128624,9.577614884144822
0.7460743333213031,-7.57188816189766,-4.596742976903916,-5.43057580947876,10.390124636138745
0.756101333303377,-6.837571431398392,-4.550914254784584,-5.88432442188263,10.103884279614515
0.7661293332930654,-5.72977491080761,-4.432240627706051,-6.108616597652436,9.475773015829542
0.7761573332827538,-5.180062964558601,-4.311764596402646,-6.38349595963955,9.282962184470934
0.7861853332724422,-4.723032310009003,-3.744110176563263,-6.305163735151291,8.722412793642626
0.7962133332621306,-4.617830375432969,-3.0277508300542832,-6.160041105151177,8.272710491871328
0.806241333251819,-4.799965295791626,-3.0264872467517856,-6.159271026849747,8.374718590958501
0.816269333474338,-4.705745016932488,-3.353792159557343,-6.020997825264931,8.345320414803634
0.8262973334640265,-4.277755728363991,-3.3754476150870323,-6.095956206321716,8.176400353648294
0.8363253334537148,-3.851174449324608,-3.2090361499786377,-6.301709200143814,8.052390731588824
0.8463533334434032,-3.114824057221413,-3.2183908179402354,-6.49723658323288,7.891403650995617
0.8563813334330916,-1.5909396708011627,-3.1938614559173586,-6.393745543956757,7.322009431610311
0.86640933342278,0.6964010453224182,-2.9087120443582535,-5.713609113693238,6.449101431749957
0.8764373334124684,2.9704411000013353,-2.6632707819342616,-4.636673904955387,6.11680279945137
0.8864653334021568,5.210110051631927,-2.731227999329567,-3.143270761370659,6.669707955654844
0.8964933333918452,7.60923666715622,-2.2841934522986413,-1.4045985558629037,8.06789436516436
0.9065213333815336,9.377611266374588,-1.3231696459650995,0.253663324713707,9.473896561475843
0.916549333371222,10.51669916152954,-0.7866703605651856,1.654161520600319,10.675020461176768
0.9265773333609104,11.587373464107515,-0.7563373446464539,2.4507739019393924,11.86783732168743
0.9366053333505988,12.103135306835176,-0.7777083331346513,2.7270057249069217,12.430899996808854
0.9466333333402872,11.694564621448517,-0.7108816748857498,2.6745848518610003,12.017553768164635
0.9566613333299756,10.967961537837983,-0.46629732191562656,2.1244652085006237,11.181545774625645
0.966689333319664,10.347816370725631,-0.563854022026062,1.3366599033772946,10.449014053857375
0.9767173333093524,9.928841149806976,-1.1880817151069643,0.6805428117513657,10.02280216598623
0.9867453332990408,9.614855609536171,-1.6511338323354723,0.2825225499272347,9.75968802348361
0.9967733332887292,9.72875644683838,-1.6359702479839326,0.040631132125854494,9.86543215186673
1.0068013332784176,9.975857441425324,-1.1389791369438171,0.04798283636569977,10.040782216471982
1.016829333268106,10.15893844127655,-0.45600446820259094,0.170945103764534,10.170604335887235
1.0268573332577944,10.295468587875368,0.5652620315551758,0.2671259540319443,10.31443410389362
1.0368853334803134,10.578629361391068,1.7762917292118074,0.4508371375501156,10.736194185908982
1.0469133334700018,10.845351272821427,2.984949796199799,0.6110490922629833,11.26520974105134
1.0569413334596902,10.643950946331024,3.861129333972931,0.7819409863650799,11.34960101447293
1.0669693334493786,10.14444787144661,4.498010986447334,0.9120545446872712,11.134350854144273
1.076997333439067,9.351582970619202,4.731592049002647,0.8664021161198616,10.516212245926624
1.0870253334287554,8.501912369728089,4.422152718901635,0.6013128934800626,9.602058415136307
1.0970533334184438,7.540385702848435,3.7988833844661714,0.08253929615020753,8.44368072891812
1.1070813334081322,6.5222685134410865,3.234072757959366,-0.4505191951990128,7.293982500009351
1.1171093333978206,5.619326269626618,2.811813740730286,-0.8228248643875122,6.33720482504154
1.127137333387509,4.7245297819375995,2.4625338220596316,-1.228945566415787,5.467683393395778
1.1371653333771974,3.862334445118904,2.229658518433571,-1.7217876394093037,4.780539420399962
1.1471933333668858,3.08540145277977,2.035638547539711,-2.051493126600981,4.227546625353312
1.1572213333565742,2.501326589584351,1.9446207886934281,-2.173936161249876,3.8424189194790017
1.1672493333462626,1.9471725136041642,1.7660409754514694,-2.087077526897192,3.3565270932897944
1.177277333335951,1.4511584722995758,1.6276660323143006,-1.8327442574501038,2.8485275385175672
1.1873053333256394,1.128808490037918,1.533222389817238,-1.6343014526367188,2.5091673403559707
1.1973333333153278,0.7277386128902436,1.3194598799943924,-1.4196234150230884,2.070243585689387
1.2073613333050162,0.30503169894218446,1.0861741018295288,-1.2016273748874664,1.6482496367127408
1.2173893332947046,-0.019340250492095947,0.8576310002803803,-1.004319953173399,1.3208192708592805
1.227417333284393,-0.21355259478092195,0.5509205657243729,-0.8265856473147869,1.0160521703251921
1.2374453332740813,-0.40507755875587464,0.17052059590816498,-0.5494834662973881,0.7036314248032756
1.2474733332637697,-0.8737137669324875,-0.15832798182964325,-0.2031253281980753,0.9108805603992111
1.2575013332534581,-1.3295545130968094,-0.12091808080673218,0.1456026864051819,1.3429581258738053
1.2675293334759772,-1.488414006829262,0.11065504789352418,0.550468429774046,1.5907973747551132
1.2775573334656656,-1.3653266090154648,0.1963313752412796,0.9070884313434363,1.6509004150665467
1.287585333455354,-1.1417688435316087,0.17357810497283938,1.3433287990093232,1.7715241214370467
1.2976133334450424,-0.8559119188785553,0.005856571197509766,1.784024087190628,1.9787272313234374
1.3076413334347308,-0.4745886737108231,-0.06818730533123017,2.077671841979027,2.1322767645818064
1.3176693334244192,-0.3130330288410187,-0.2418291449546814,2.2617053532600404,2.296036175120074
1.3276973334141076,-0.4494748824834824,-0.4033882981538773,2.3311351919174195,2.4080990577770853
1.337725333403796,-0.6829857784509659,-0.4895616388320923,2.341627435684204,2.4878422818440917
1.3477533333934844,-0.893349301815033,-0.5704245382547379,2.21305710375309,2.4537886774065436
1.3577813333831728,-1.0680588430166245,-0.5346875256299973,2.011304190158844,2.339227433910791
1.3678093333728611,-1.1140542107820512,-0.3970142483711243,1.7758029019832613,2.1335915833783843
1.3778373333625495,-0.8567895859479905,-0.33510275959968566,1.535340251326561,1.789874839597384
1.387865333352238,-0.4209129881858826,-0.5501744610071182,1.2118389523029327,1.3958557688696607
1.3978933333419263,-0.15394432425498963,-0.8444309109449387,0.9705132526159287,1.2956304997308352
1.4079213333316147,-0.11300738275051117,-0.9678229486942291,0.834142735004425,1.2826714430967796
1.4179493333213031,-0.33390115678310395,-1.011973519921303,0.9264995062351228,1.4120841768736498
1.427976333303377,-0.7010829108953476,-1.037384349703789,1.1504665768146516,1.700369630794278
1.4380043332930654,-0.933644803762436,-0.9116458243131638,1.297213563323021,1.8399874340466118
1.4480323332827538,-0.9285998260974885,-0.562281705737114,1.4860651803016662,1.8403391192223102
1.4580603332724422,-0.8459815925359726,-0.049737585783004766,1.6682246589660645,1.8711312607969717
1.4680883332621306,-0.6735173821449281,0.3670765042304993,1.743078374862671,1.9043878399431486
1.478116333251819,-0.4926618325710297,0.4956754875183106,1.752022860646248,1.8862645557889866
1.488144333474338,-0.3878382128477097,0.4654711103439331,1.621165097951889,1.7306814001216624
1.4981723334640265,-0.11344475448131562,0.3671390694379807,1.0741843861341478,1.1408474499430272
1.5082003334537148,0.10935638129711152,0.04231746912002564,0.7107565444707871,0.7203641105935091
1.5182283334434032,-0.4577685731649399,-0.7902699065208435,0.7892641854286194,1.2070694040237413
1.5282563334330916,-0.5848712539672852,-1.6646198505163194,0.7226065117120744,1.9066184204551604
1.53828433342278,-0.7005829739570618,-2.1873609298467636,0.8005025339126587,2.432317546624866
1.5483123334124684,-0.8250684410333634,-2.3353709149360657,0.994672778248787,2.6690951984722653
1.5583403334021568,-0.5837380635738373,-2.2231131452322006,0.9738257002830506,2.4962609394654467
1.5683683333918452,-0.1378919631242752,-2.059323279261589,0.9506994507461787,2.2723679296390484
1.5783963333815336,0.6532813382148743,-2.070823583006859,0.7567981052398682,2.299528253988595
1.588424333371222,1.631854392886162,-2.309275376200676,0.46312761940062047,2.8653426871074816
1.5984523333609104,2.3257072216272356,-2.956148166060448,0.1530367998406291,3.7644583039976793
1.6084803333505988,2.8493978887796403,-3.8216998046636586,-0.32755345601588487,4.778257945328618
1.6185083333402872,3.0661278605461124,-3.785228381752968,-0.05445680044591427,4.8715561684496755
1.6285363333299756,2.491552383899689,-3.698256311416626,0.4639315384626389,4.4833208115223515
1.638564333319664,2.361761738061905,-3.8276768285036087,0.4978477281332016,4.52513875712602
1.6485923333093524,2.6275252908468247,-3.930318852066994,0.4556455222517252,4.749621908626091
1.6586203332990408,2.757759740352631,-3.633227671980858,0.8103872519731522,4.632743204637816
1.6686483332887292,2.651614065170288,-3.208906341791153,1.146718511581421,4.317765672868306
1.6786765833385289,2.3804646420478823,-2.6724786847829822,1.325301248431206,3.8164351994698986
1.6887045833282173,1.927827000617981,-2.037042464017868,1.4640357953310013,3.1637730251290446
1.6987325833179057,1.4247202867269517,-1.4427221095561982,1.6247722452878952,2.598299411128649
1.708760583307594,1.1281044852733613,-0.9447819954156876,1.5827202397584916,2.1610729061965266
1.7187885832972825,0.848953732252121,-0.4806539905071259,1.262879297733307,1.5958116488917484
1.7288165832869709,0.4888985645771027,-0.1113695776462555,0.8389789670705796,0.977399967494103
1.7388445832766593,0.2138595736026764,0.053696735501289374,0.4163784359022975,0.4711584218810672
1.7488725832663476,-0.04302732110023499,-0.0007753407955169679,0.01128746509552002,0.044489980700091365
1.758900583256036,-0.4410133767127991,-0.09498743355274201,-0.2664939431101084,0.5239603350320857
1.768928583478555,-0.8760865670442581,-0.2198120391368866,-0.4037414699792862,0.9893695872048749
1.7789565834682435,-1.2796467733383179,-0.37860312044620514,-0.4475394541025162,1.4075253995239838
1.7889845834579319,-1.4335530906915666,-0.5300805044174195,-0.41873906649649145,1.5847404237934746
1.7990125834476203,-1.4901529687643051,-0.6093418514728547,-0.41814725518226625,1.6633401604271756
1.8090405834373087,-1.7061292344331742,-0.5013136652112007,-0.6150348468124867,1.881611069883645
1.819068583426997,-1.966939026117325,-0.3082108300924301,-0.9654600157588721,2.2126807474822834
1.8290965834166855,-2.255364047884941,-0.23613951176404954,-1.2859629356861115,2.606938727601121
1.8391245834063739,-2.571747531294823,-0.3314149206876755,-1.4368585216999055,2.9645039426111532
1.8491525833960623,-2.74941108584404,-0.4651293405890465,-1.481869803071022,3.1577752826464165
1.8591805833857507,-2.915864943265915,-0.6436363559961319,-1.4051163268089295,3.3001345454378272
1.869208583375439,-3.0507619625329974,-0.8683384215831758,-1.254461646080017,3.4109872746642624
1.8792365833651274,-3.244051616191864,-1.1132268297672272,-1.1057230979204178,3.6035771716872333
1.8892645833548158,-3.411733388900757,-1.1828908494114876,-0.9840881484746934,3.7426708327783813
1.8992925833445042,-3.487546632885933,-1.031504389643669,-0.8629040924459697,3.7378585172753893
1.9093205833341926,-3.478964674472809,-0.7892375805974007,-0.7124394462257624,3.637809935853632
1.919348583323881,-3.538350750803948,-0.5759890410304069,-0.5452990525960922,3.626160568406229
1.9293765833135694,-3.4106288498640063,-0.3690476006269455,-0.42560486711561685,3.4568373965180488
1.9394045833032578,-3.1412423622608188,-0.17184323608875277,-0.30322556711733345,3.1605188531007076
1.9494325832929462,-2.9239276689291,-0.11629527211189271,-0.18320854224264624,2.9319691289976806
1.9594605832826346,-2.737481011748314,-0.09102389842271805,-0.04731442652642727,2.739402543388643
1.969488583272323,-2.561293879151344,0.10640821516513825,0.032173792496323586,2.5637051695849054
1.9795165832620114,-2.4646464210748675,0.3140498596429825,0.10247479319572449,2.486686626517189
1.989543583476916,-2.3118920052051544,0.4603106501698494,0.12432057559490205,2.3605478482563207
1.9995715834666044,-2.0560979551076892,0.5587961804866791,0.11558772247284652,2.1338117287874727
2.0095995834562927,-1.8198312664031984,0.7354095751047135,0.0068962061405181884,1.9628195635344317
2.019627583445981,-1.5906432169675828,1.0638418310880662,-0.17244908072054388,1.9213651320608351
2.0296555834356695,-1.3423640084266664,1.2844321346282959,-0.389152666926384,1.898195679523327
2.039683583425358,-1.222055207490921,1.3828857976198197,-0.5914634048938752,1.937942470442025
2.0497115834150463,-1.2187029987573623,1.3895340818166733,-0.7652642156928778,2.0004177772481246
2.0597395834047347,-1.242246812582016,1.3322980266809463,-0.9280905336141587,2.0443940945552392
2.069767583394423,-1.176397808790207,1.2743679070472718,-0.995261008143425,1.9996174237511313
2.0797955833841115,-1.0445401722192764,1.178840190768242,-0.9880362615734339,1.859285890048754
2.0898235833738,-0.8989328080415726,1.0853742027282716,-0.9407363069057465,1.6944326933968787
2.0998515833634883,-0.6575527292490005,0.98537278175354,-0.8539115864038468,1.4603082236837035
2.1098795833531767,-0.39192950963974,0.7922550362348557,-0.6047821927070618,1.0709987318300154
2.119907583342865,-0.20859941840171814,0.5901816952228547,-0.3021601678803563,0.6950747569773648
2.1299355833325535,-0.10567614376544952,0.5182065635919572,0.0018781073950231077,0.5288752378381014
2.139963583322242,0.043677531480789185,0.5087697422504426,0.3441167907044292,0.6157684167205664
2.1499915833119303,0.24926095604896548,0.5801467037200928,0.6124970090389252,0.8796896089697562
2.1600195833016187,0.6248726409673692,0.6744693088531495,0.8753720372915268,1.2695081211580719
2.170047583291307,1.025760669708252,0.7298816174268723,1.1211182320117952,1.6857693250048307
2.1800755832809955,1.4813733744621278,0.9052478009462357,1.1984359645843508,2.1095472066044243
2.190103583270684,2.00994295835495,1.141731421351433,1.1286979776620865,2.5724269589475806
2.2001315832603723,2.2750007522106173,1.3596314209699631,0.9839565861225129,2.8270826989710693
2.2101595832500607,2.323244959115982,1.6331524747610093,0.814740504026413,2.9543960863054646
2.2201875834725797,2.499318655729294,1.8699231934547424,0.6455782163143158,3.187471996061462
2.230215583462268,2.7430645179748536,1.9129101687669754,0.5526577734947205,3.3895514272760128
2.2402435834519565,2.875469453930855,1.9420293027162552,0.46405082166194916,3.5007350025649075
2.250271583441645,2.9017567813396457,2.042818343639374,0.2941757583618164,3.5608760972502096
2.2602995834313333,2.935517435073853,2.1550731897354125,0.10469439625740051,3.643153027440192
2.2703275834210217,3.0692724931240085,2.1268475103378295,0.018569587469100955,3.7342012263476994
2.28035558341071,3.1346765238046648,2.0697383397817615,0.017727588415145875,3.7563716498032615
2.2903835834003985,3.1433894598484042,2.126888440847397,0.020144827365875244,3.7953863505795975
2.300411583390087,3.1438057816028597,2.1645217055082324,-0.031835750341415406,3.8170253498052165
2.3104395833797753,3.1238656067848205,2.1408258640766147,-0.15935065984725952,3.7903910540135874
2.3204675833694637,3.033309193253517,2.060589786171913,-0.28618261456489563,3.678164680602476
2.330495583359152,2.8351201575994494,1.963483906388283,-0.4390370178222657,3.476482253901318
2.3405235833488405,2.534521232843399,1.8127824479341508,-0.5734902334213258,3.168417448995918
2.350551583338529,2.180572312474251,1.6631674021482468,-0.5831264448165894,2.803757811962775
2.3605795833282173,1.9769593995809556,1.5629537272453309,-0.5155139207839966,2.5723427889034642
2.3706075833179057,1.8718358176946641,1.3909637260437013,-0.38752304792404174,2.364048123081755
2.380635583307594,1.7218898195028305,1.1742957347631455,-0.2569196391105652,2.0999720769931938
2.3906635832972825,1.52234306037426,0.9222538429498673,-0.16888043364509941,1.7879041208000006
2.400691583286971,1.3259491199254991,0.6325424337387086,-0.07001572966575623,1.4707661953933815
2.4107195832766593,1.1472728276252748,0.27316612780094146,0.03293621459975839,1.1798048434453958
2.4207475832663476,0.8802304887771607,-0.01917886734008789,0.13839074889197947,0.8912494273233564
2.430775583256036,0.6236032104492187,-0.24692206978797915,0.2407041589356959,0.712593828741095
2.440803583478555,0.4653377938270569,-0.46314742684364324,0.33795970916748047,0.738418286864761
2.4508315834682435,0.24262553572654724,-0.6398666560649872,0.44011875271797185,0.8136344416409655
2.460859583457932,-0.008237557411193848,-0.7757407450675965,0.46310766577720647,0.9034989048204459
2.4708875834476203,-0.2563518744707108,-0.8797802531719208,0.4115375626087189,1.004536083400602
2.4809155834373087,-0.4615967452526093,-0.9255575197935105,0.32016542594879865,1.0826976390696954
2.490943583426997,-0.5852320271730423,-1.0009912794828415,0.17835295954719188,1.1731538029640474
2.5009715834166855,-0.6267145138978959,-1.1488515758514406,0.02803038239479065,1.308975449580248
2.5109985833987594,-0.6719550061225892,-1.2541631457209588,-0.10065979918465019,1.4263874373780054
2.5210265833884478,-0.7863423317670822,-1.2870230358839037,-0.161035863943398,1.5168042415225205
2.531054583378136,-0.9014892107248307,-1.3979888632893562,-0.12036957543343306,1.6677962986001524
2.5410825833678246,-0.9833128076791764,-1.5392517462372781,-0.10635379951447249,1.829620492537067
2.551110583357513,-1.0721103787422182,-1.7023168498277665,-0.140392780713737,2.016683776473359
2.5611385833472013,-1.2535214138031006,-1.8118957176804544,-0.24842359822243454,2.2172046163503887
2.5711665833368897,-1.3480106645822525,-1.8478905925154687,-0.45982500236481433,2.3330819588120897
2.581194583326578,-1.3077005445957184,-1.9104122382402422,-0.6321506702899933,2.399868768141733
2.5912225833162665,-1.2978637737035752,-1.9827785485982896,-0.7281654596328736,2.4791301064034497
2.601250583305955,-1.3652698910236358,-2.03415949434042,-0.7458146953582764,2.560860457651553
2.6112785832956433,-1.422788366675377,-2.066493719816208,-0.7722663295269013,2.625093962910198
2.6213065832853317,-1.4105472207069398,-2.130181592702866,-0.8071367847919465,2.679325823616544
2.63133458327502,-1.427711137533188,-2.141648859679699,-0.8199235490709543,2.7013503209922205
2.6413625832647085,-1.456648423075676,-2.0650748929381373,-0.7645526826381683,2.640246152619398
2.651390583254397,-1.420928952097893,-2.0330561247467998,-0.6440229300409556,2.5626396211131657
2.661418583476916,-1.399850909113884,-2.0225717747211456,-0.46943552255630494,2.5041463338797363
2.671445916639641,-1.4588990163803102,-1.914437753856182,-0.35074866615235806,2.432382141069326
2.6814739166293293,-1.6370730328559877,-1.6987336760759355,-0.3322586008161307,2.382456714182874
2.6915019166190177,-1.7105351114273073,-1.508757639527321,-0.3168546959012747,2.302754194561889
2.701529916608706,-1.7659602838754656,-1.3921153351664544,-0.32762058936059474,2.272429554728619
2.7115579165983945,-1.806601356267929,-1.330880369246006,-0.36996597893536093,2.2741868532033833
2.721585916588083,-1.9965487414598466,-1.23488165974617,-0.4632316998392344,2.392848344199502
2.731613916810602,-2.300251953005791,-1.0822243076562883,-0.5181358122825623,2.5943849404741
2.7416419168002903,-2.3309860879182818,-0.9004323264956475,-0.38972035847604275,2.5290623706183357
2.7516699167899787,-2.12391980946064,-0.6913122135400772,-0.22521479330956937,2.2449208531114135
2.761697916779667,-1.9554685431718828,-0.3716133588552475,-0.18142850361764432,1.9987170919715933
2.7717259167693555,-1.7329726320505143,-0.18461180090904236,-0.20020150110125542,1.7542395222757248
2.781753916759044,-1.5004458224773407,-0.2099609425663948,-0.3893004553020001,1.5642813391750914
2.7917819167487323,-1.2065688568353654,-0.1105398577451706,-0.8056819975376129,1.4550432803155793
2.8018099167384207,-1.298832657337189,-0.12443342685699464,-0.6620007061958313,1.463111371184278
2.811837916728109,-1.5684278905391693,-0.1554263010621071,-0.22577970743179324,1.5921996919893509
2.8218659167177975,-1.5104609334468841,-0.10846526563167573,0.2544685593992472,1.5355817116130652
2.831893916707486,-1.2348875069618226,-0.008700949251651765,0.2990220037847757,1.2706049819340894
2.8419219166971743,-1.036518961787224,-0.012345226407051086,0.27735565781593324,1.0730564401195377
2.8519499166868627,-0.9527616906166078,-0.2053852039575577,0.661030068397522,1.1776666219422782
2.861977916676551,-1.0207560378313065,-0.3732900479435921,1.2264499747753144,1.6387397259141447
2.8720059166662395,-0.959522826075554,-0.3244906479120255,1.5691447591781618,1.867670610573148
2.882033916655928,-0.8220343208312989,-0.23951101630926133,1.787213158607483,1.9817257191291147
2.8920619166456163,-0.8605013984441757,-0.0488455930352211,2.1619857680797576,2.3274516128295266
2.9020899166353047,-0.9639035600423813,0.18622417062520982,2.4389964401721955,2.629162062323292
2.912117916624993,-0.7731206077337266,0.31629840642213825,2.560429075956345,2.6932428796917693
2.9221459166146815,-0.5618823409080506,0.5671115058660507,2.4744165337085726,2.6000123860090203
2.93217391660437,-0.34220069468021397,0.7238148388266564,2.3447311377525333,2.4776548074119544
2.9422019165940583,0.08994421005249024,0.6513324612379074,2.040877068042755,2.1441788971181928
2.9522299165837467,0.2793197375535965,0.6004546684026718,1.6009395790100098,1.7325047937117866
2.9622579168062657,0.08978516578674317,0.8910215252637863,1.0640798127651214,1.3907719375990488
2.972285916795954,0.09168960392475128,1.2650018370151521,0.4387820061296225,1.3420753630190532
2.9823139167856425,0.30611869633197786,1.6725404888391495,-0.11655021071434021,1.704313437917993
2.992341916775331,0.5832188308238984,1.9981105327606201,-0.39542727749794726,2.118714855176591
3.0023699167650193,0.8467019695043564,2.0907865619659427,-0.32262706719338896,2.2786796390334754
3.012396916747093,1.1437837940454483,2.0865824139118194,-0.09474594354629517,2.3813954588403736
3.0224249167367816,1.4272696727514267,2.0235716485977173,0.014567789621651173,2.476318468262697
3.03245291672647,1.6989640563726427,1.8943265479803086,-0.00923626184463501,2.54460944817904
3.0424809167161584,1.7843725812435152,1.7717151135206224,-0.1283861080929637,2.517825042556034
3.052508916705847,1.734840232729912,1.8056874364614488,-0.35743678450584415,2.5294147161371088
3.062536916695535,1.6987675899267198,2.0707727122306823,-0.6301474142074586,2.7515444233987933
3.0725649166852236,1.807756181359291,2.447973085641861,-0.8772402226924897,3.167034109001548
3.082592916674912,2.016293034553528,2.832698825597763,-0.9957866728305818,3.6167957276460916
3.0926209166646004,2.352831285595894,3.0149957138299945,-1.0307436668872834,3.9608643904734113
3.1026489166542888,2.7548068964481356,3.019778151512146,-0.9945681130886078,4.2068024499185785
3.112676916643977,2.968517950773239,2.8463029575347902,-0.9119691753387451,4.212508412680297
3.1227049166336656,2.9943497800827026,2.6836907207965854,-0.8302484893798828,4.105805529307082
3.132732916623354,3.063238751292229,2.5312368518114092,-0.8516785347461701,4.063981788090825
3.1427609166130424,3.1629443031549456,2.3084164202213286,-0.8899076306819916,4.015586958982935
3.1527889166027308,3.380551357269287,2.0088501137495043,-0.8820372784137727,4.030086353809083
3.162816916592419,3.6915343523025514,1.6830502742528917,-0.8467446541786194,4.144521758812785
3.1728449165821075,3.9610617578029634,1.4711044943332672,-0.7474963545799256,4.2910266233719545
3.1828729168046266,4.1083215451240545,1.3604769283533098,-0.7037661981582642,4.384574124402767
3.192900916794315,4.073948103189468,1.2112431210279466,-0.6154124307632447,4.294519240340706
3.2029289167840034,3.9296049070358277,0.9971332865953446,-0.4842395031452179,4.082959393998772
3.2129569167736918,3.815917493104935,0.633575052022934,-0.27711239537224175,3.878071033439055
3.22298491676338,3.704281282424927,0.12224481403827668,-0.02664459228515625,3.706393604055154
3.2330129167530686,3.4545695060491566,-0.33483846545219426,0.20157808184623718,3.47660768467653
3.243040916742757,3.1651732617616655,-0.674212031364441,0.39221251487731934,3.2598641531563763
3.2530689167324454,2.947365063428879,-0.9349423009157182,0.5583307421207429,3.1421029806102467
3.2630969167221338,2.7974371916055683,-1.0823149394989013,0.6513330459594727,3.0694128438513126
3.273124916711822,2.741300413012505,-1.1766720432043076,0.7808523809909821,3.083669160681868
3.2831529167015105,2.5847891610860825,-1.2740369546413421,0.9315532547235489,3.028546951170795
3.293180916691199,2.2839627796411515,-1.2973316770792007,1.1163521665334701,2.8540843748675755
3.3032089166808873,1.957753050327301,-1.2856881165504457,1.3831530153751375,2.720092498987161
3.3132369166705757,1.8104546713829042,-1.3937201035022737,1.6008009999990465,2.7897608653138204
3.323264916660264,1.7294812595844269,-1.6075048327445984,1.7965470689535141,2.966944317899552
3.3332929166499525,1.5364295876026155,-1.6827125975489616,1.881811167597771,2.955224328897284
3.343320916639641,1.2974901366233826,-1.5964942333102228,1.854861935377121,2.7699796553293887
3.3533489166293293,1.1712101590633393,-1.4335560142993928,1.7254946279525758,2.530641775107716
3.3633769166190177,1.294463033080101,-1.2866219168901445,1.5163239365816117,2.3728187418518427
3.373404916608706,1.4288262015581132,-1.2070261090993881,1.3015545362234116,2.278705894377406
3.3834329165983945,1.421111969947815,-1.0793045005202293,1.115635882616043,2.10454290964871
3.393460916588083,1.3415728801488878,-0.9469653457403183,1.019156824350357,1.9326773635048264
3.403488916810602,1.1492649739980698,-0.9854107886552811,0.9443259125947953,1.784263386402075
3.4135169168002903,0.884872008562088,-1.1416302645206453,0.9943599522113801,1.753587707235655
3.4235449167899787,0.647852783203125,-1.366676146388054,1.117164929509163,1.8803123138285698
3.433572916779667,0.4394510006904602,-1.702130908370018,1.3994796109199525,2.246977968876654
3.4436009167693555,0.2852441364526749,-2.0753478661179545,1.6888758552074434,2.6908613188129284
3.453628916759044,0.05535968363285065,-2.250376372933388,1.7765221095085144,2.8676278210397776
3.4636569167487323,-0.3226382499933243,-2.168924658894539,1.674817979335785,2.759229037290299
3.4736849167384207,-0.7469876468181611,-2.0502036693692207,1.4294916146993637,2.6085957729954528
3.483712916728109,-1.159436205625534,-1.818379402756691,1.2639698034524918,2.499683106180631
3.4937409167177975,-1.4008934676647187,-1.4686884248256684,1.0901198029518129,2.303890054180165
3.503768916707486,-1.5957811653614045,-1.176078843176365,0.9123632776737214,2.1822203654848416
3.5137969166971743,-1.7896660655736925,-0.9130658206343651,0.8254689753055573,2.1720941158864946
3.5238249166868627,-1.8988405984640122,-0.7103004616498948,0.6885558360815048,2.1410818535490703
3.533852916676551,-1.937378427386284,-0.6322503653168678,0.5283730443567037,2.1053155985143497
3.5438809166662395,-2.075604266524315,-0.6138143867254258,0.37330897830426696,2.1964199884920976
3.553908916655928,-2.3091438138484954,-0.6905064672231674,0.24890953838825228,2.422994076058059
3.5639369166456163,-2.585473285317421,-0.770521812736988,0.15116689682006837,2.7020783489173223
3.5739649166353047,-2.8622383743524553,-0.8812198376655579,0.11901780880987645,2.997185705411829
3.583992916624993,-3.144492244720459,-1.0049384424090386,0.10649124562740327,3.3028886047721757
3.5940209166146815,-3.3659426736831666,-1.1923259165883064,0.10078487478196621,3.5723058050612555
3.60404891660437,-3.4001652574539185,-1.4804790428280832,0.14927649199962617,3.711499083296875
3.6140769165940583,-3.4252416265010837,-1.886985076367855,0.3242210912704468,3.9240428379893344
3.6241049165837467,-3.647005466222763,-2.2132445070147515,0.5382647790759802,4.299863845621556
3.634131916798651,-3.8060158181190493,-2.5103327634930612,0.8878564274311066,4.644977505539704
3.6441599167883396,-4.046590735316276,-2.716393905580044,1.176663272380829,5.0138038340156355
3.654187916778028,-4.31038202226162,-2.673410730957985,1.2596171361207962,5.2261987566343695
3.6642159167677164,-4.388023105859757,-2.479175874888897,1.188129516094923,5.178099221066182
3.674244833411649,-4.296475004553795,-2.310036537498236,1.035242441520095,4.986751766636962
3.6842728334013373,-4.16420338511467,-2.1386954310536384,0.779166043996811,4.745704131478049
3.6943008333910257,-4.108006964921952,-1.9727757167816162,0.4778261308372021,4.582126478381117
3.704328833380714,-4.055623514056206,-1.891138061285019,0.2217164772748947,4.480361977664489
3.7143568333704025,-3.949438662528992,-1.973971180021763,-0.00789841890335083,4.415279193171874
3.724384833360091,-3.886613838672638,-2.1964749848842624,-0.1491977007687092,4.466825432463043
3.7344128333497792,-3.728510974645615,-2.6081900104880336,-0.20268086671829225,4.554725979968064
3.7444408333394676,-3.5379940706491473,-3.1036921280622485,-0.1935470773279667,4.710389298230698
3.754468833329156,-3.4612236374616625,-3.4753680521249772,-0.23555055096745492,4.910573920461372
3.7644968333188444,-3.583079026937485,-3.6944120594859124,-0.42790742754936223,5.164323822641849
3.774524833308533,-3.8123571234941482,-3.711844363510609,-0.7575069339573384,5.374539251970861
3.7845528332982212,-3.950918592810631,-3.5835707777738572,-1.0521674264967442,5.436799935597433
3.7945808332879096,-3.948269804120064,-3.464358329772949,-1.2400472362339496,5.3970668173819165
3.804608833277598,-3.781268062591553,-3.390729020833969,-1.298558861464262,5.242259681720081
3.8146368332672864,-3.5742386215925217,-3.2983678641915324,-1.2298806823790074,5.016674075969464
3.824664833256975,-3.2626884466409685,-3.21322012513876,-1.0375270217657089,4.695357472369407
3.834692833479494,-3.019464740753174,-3.0511885169148445,-0.8651313699781895,4.378969167934958
3.8447208334691823,-2.8438974130153656,-2.8604190132021907,-0.80926473274827,4.113959021978004
3.8547488334588706,-2.5429710441827775,-2.7511725595593455,-0.7562668856978417,3.821987936457607
3.864776833448559,-2.359048629999161,-2.7048298671841624,-0.6787243276834488,3.6526540709601507
3.8748048334382474,-2.10583846449852,-2.6221926301717757,-0.6493004076182842,3.4252066868470767
3.884832833427936,-1.8022416722774506,-2.511090270280838,-0.6184190690517426,3.152156648353526
3.8948608334176242,-1.4637831956148148,-2.3351142221689227,-0.5861570566892624,2.817623070860705
3.9048888334073126,-1.0225318372249603,-2.1611066392064098,-0.6262935143709183,2.471476649758956
3.914916833397001,-0.4344235646724701,-2.1155416265130045,-0.7956186470389367,2.301575381899992
3.9249448333866894,0.1965108847618103,-2.1865592765808106,-0.9573918083310128,2.3950484488817327
3.934972833376378,0.7902523648738862,-2.0686393555998803,-1.0106223745644094,2.434157999739471
3.945000833366066,1.3546525168418886,-1.8700784370303154,-0.983555613309145,2.509912039594961
3.9550288333557546,2.008267731070519,-1.6632749909162523,-0.7541857154667377,2.7144832046783165
3.965056833345443,2.731677650213242,-1.5135055786371232,-0.39258454397320747,3.147520380459336
3.9750848333351314,3.4490713691711425,-1.3225045251846315,0.008600669503211976,3.6939390222749795
3.98511283332482,4.1162299042940145,-1.1281647115945816,0.47223107635974887,4.294078065309419
3.995140833314508,4.560031233429909,-0.5402692776918412,0.7982705055177212,4.66079516201404
4.005168833304197,5.0156047618389135,0.04603337466716766,0.9653658024966717,5.107870528037538
4.015196833293885,5.410150315761566,0.5132481247186661,1.0237147289514543,5.5300218736397735
4.025223833275959,5.7001950162649155,1.026232540011406,0.9630719397962094,5.871361342214638
4.035251833265647,5.925449643731118,1.3857076638936998,0.7491141329705716,6.131256901678743
4.045279833255336,6.077683072686196,1.5365763527154923,0.5581505016982555,6.2937135621417335
4.055307833477855,6.299541637301445,1.4566852605342866,0.5871241861581803,6.492370260415245
4.065335833467543,6.24956548511982,1.4201840168237687,0.7393716484308244,6.451407740094091
4.0753638334572315,6.03005282342434,1.5638588762283325,0.7442207443714142,6.273839028409857
4.08539183344692,5.428966071009636,1.5836616414785385,0.5212212418019772,5.67920138556205
4.095419833436608,4.750604855418206,1.6301177698373794,0.05401643201708794,5.022792869588639
4.105447833426297,4.213571426868439,1.8947645044326784,-0.4863557566702366,4.645520274267073
4.115475833415985,3.8908571630716327,2.1037363904714583,-0.9524383395910263,4.524556890430556
4.1255038334056735,3.9153838938474657,2.2507424086332324,-1.347309583425522,4.712888237568394
4.135531833395362,4.161183882951737,2.1247641474008563,-1.60302703499794,4.939612299032351
4.14555983338505,4.264730470776558,1.7627741360664368,-1.8497405053675176,4.971603220325622
4.155587833374739,4.0603609281778335,1.7052831423282624,-1.94743505358696,4.815290723364619
4.165615833364427,3.318505382537842,1.8719790744781495,-2.9698122319579126,4.830793756962052
4.1756438333541155,2.8318158960342408,1.7162688910961152,-2.281352582573891,4.021110515963601
4.185671833343804,3.359449925422669,2.3640824979543686,0.2065303811430931,4.113082135928196
4.195699833333492,3.311975212097168,2.1490827172994615,-0.16127965629100802,3.951423472481109
4.205727833323181,3.4398251670598987,1.1197827279567718,-2.223267073184252,4.2460837269740965
4.215755833312869,4.150243742465973,0.7828123676776887,-2.006719973087311,4.6759216605130005
4.2257838333025575,3.7952002233266833,1.1194658088684082,-0.815129343867302,4.039948549127556
4.235811833292246,3.7529909276962283,0.9736573004722596,-0.570030582100153,3.9189136640990907
4.245839833281934,4.030954111218453,0.3306957131624222,-0.4872028720378876,4.073735060110674
4.255867833271623,4.273806518912315,-0.010360096693038941,-0.40897297382354736,4.293342332730872
4.265895833261311,4.319294348359108,-0.28981315076351166,-0.30503476873040203,4.339739800985401
4.2759238332509995,4.2081685996055604,-0.36885113418102267,-0.0765413685142994,4.224996177866543
4.2859518334735185,4.2516005480289465,-0.110343976020813,0.10924879252910615,4.254435134270259
4.295979833463207,4.56902191221714,-0.13974026799201966,0.046781964451074604,4.5713977215964
4.306007833452895,4.833601403832436,-0.21385021805763246,-0.10480615116655827,4.839464720009491
4.316035833442584,4.723405947089195,-0.08984656155109406,-0.17540075518190862,4.727515369677661
4.326063833432272,4.213949156999588,0.2825941783189774,0.04186906076967716,4.223621666963916
4.3360918334219605,3.497854689359665,0.7522963339090347,0.2116722033172846,3.5840957469835497
4.346119833411649,2.638224526047707,1.2273393362760545,0.5099356770515442,2.954086134651495
4.356147833401337,2.065552902817726,1.6068937987089158,0.8507839107513429,2.7518084485409324
4.366175833391026,1.4158576619625092,1.756435754299164,1.0448904204368592,2.4862653656919114
4.3762028333731,0.6775554692745209,1.8092320185899735,1.1223829847574234,2.2343109621330575
4.386230833362788,0.2501298522949219,1.4762599843740465,1.2783931303024292,1.9688061052520087
4.396258833352476,-0.16550777792930604,0.8082424932718277,1.5811069929599764,1.7834091161795422
4.406286833342165,-0.8394461596012116,0.45001516520977025,1.7630629885196687,2.003889868549643
4.416314833331853,-1.5627514135837555,0.39864445209503174,1.7358652496337892,2.3694593359520546
4.4263428333215415,-2.2383603447675706,0.3875633937120438,1.3937364757061006,2.6651386044420384
4.43637083331123,-2.7533445078134537,0.3827710157632828,0.5700251734256745,2.8376659999996363
4.446398833300918,-3.13194996714592,0.42085743963718414,-0.3528011119365692,3.179732725526939
4.456426833290607,-3.503441119194031,0.3246777588129044,-1.010370798110962,3.660650826342589
4.466454833280295,-3.8659082633256916,0.24183148384094239,-1.5108772552013399,4.157701197454106
4.4764828332699835,-3.8556428915262226,-0.00629043459892273,-1.8200791883468628,4.263649836513021
4.486510833259672,-3.8609124022722248,-0.48409449219703676,-1.587259433269501,4.2024260331263426
4.49653883324936,-3.9921063798666,-0.9531633943319321,-1.3131478106975556,4.309268032648441
4.506566833471879,-3.7955259132385257,-1.0501318645477296,-1.2049860155582428,4.11834738562625
4.516594833461568,-3.026237570643425,-1.2096327978372574,-0.9745870077610016,3.4016386015086835
4.526622833451256,-2.2795282512903214,-1.6124416369199754,-0.7998324429988861,2.9044705227936896
4.5366508334409446,-1.9661648547649384,-1.9099584943056107,-0.5832667779922486,2.8024892186041406
4.546678833430633,-2.0625538659095763,-1.9645440065860749,-0.15250123143196107,2.852510863989841
4.556706833420321,-2.3891921961307525,-1.9255945336818696,0.31693779945373535,3.08489922475924
4.56673483341001,-2.8089462661743165,-1.8892891716957094,0.7459714007377625,3.4664197713577556
4.576762833399698,-3.3255641412734986,-1.9383987665176392,1.2575384509563448,4.049465346363015
4.5867908333893865,-3.7028054451942447,-2.1324853956699372,1.7711077339947225,4.625482108183063
4.596818833379075,-3.994102619290352,-2.3452351677417758,2.2746078193187715,5.160118647583691
4.606846833368763,-4.152437033057213,-2.3790601408481598,2.7187810313701632,5.504037678269986
4.616874833358452,-4.2141111248731615,-2.3261463475227355,3.013018770217896,5.678729744631141
4.62690283334814,-4.292363827228546,-2.1986501491069794,2.9433725845813754,5.649946183383827
4.6369308333378285,-4.354302213191986,-1.908714206814766,2.4709994208812716,5.358075757685844
4.646958833327517,-4.481391445398331,-1.6190641933679581,1.7248327231407166,5.067473342007099
4.656986833317205,-4.605264124274254,-1.4255599468946458,0.9288021397590638,4.909516496696878
4.667014833306894,-4.653734033703804,-1.3066550624370576,0.22977686405181885,4.839151301199308
4.677042291732505,-4.70844233751297,-1.1099477112293243,-0.34633058309555054,4.849882270749995
4.687070291722193,-4.5474977266788486,-1.0222201806306839,-0.7888092720508576,4.727249701413214
4.697098291711882,-4.339126934409141,-1.0780032026767732,-1.0088411664962769,4.583434733593773
4.707125291693956,-4.235540000796318,-1.0884989547729493,-1.1237236782163382,4.515239083135192
4.7171542916912585,-4.1296592044830325,-0.9733655244112015,-1.0041867828369142,4.36003631683362
4.7271812916733325,-3.872326751947403,-0.9017435646057129,-0.7523355102539063,4.046487940195096
4.737209291663021,-3.345784982442856,-0.9116505020856858,-0.3923762369155884,3.4898915309776126
4.747237291652709,-2.757975502610207,-0.856304851770401,-0.010272388458251954,2.8878698713979807
4.757265291642398,-2.348318989276886,-0.7723546224832535,0.31694488920271396,2.492305719822788
4.767293291632086,-2.110112194418907,-0.5584014934301377,0.5362996029853822,2.2476661151208965
4.777321291621774,-1.6517857968807221,-0.16592468440532684,0.46251241922378544,1.7233238400277902
4.787349291611463,-0.8447951924800873,0.6452729916572572,-0.2146828615665436,1.0845021355673645
4.797377291601151,0.03197666823863983,0.981232368350029,-0.7836485195159912,1.256162597018816
4.80740529159084,0.5811623650789262,0.6991159075498581,-0.6633186686038971,1.1253907778597794
4.817433291813359,1.5083600288629533,1.084025834798813,-0.8257414555549621,2.0327594394331907
4.827461291803047,2.2244925034046172,0.8184663498401642,-0.9350843882560731,2.5480653203331065
4.8374892917927355,2.6763705915212634,0.49870551466941837,-1.001120502948761,2.9006738863488164
4.847517291782424,3.1963506156206134,0.4298621517419815,-1.4065196585655213,3.5184849406256937
4.857545291772112,3.8118560171127323,0.3443805366754532,-1.985141408443451,4.3115693964908255
4.867573291761801,4.265377757549286,0.49348628997802735,-2.609950314760208,5.024820074242396
4.877601291751489,4.330043284893036,1.2053865498304368,-3.0420197904109956,5.4273488913844075
4.887629291741177,4.292264424562455,2.1683235651254655,-3.2863679158687593,5.824549343244887
4.897657291730866,4.473228732347488,2.969513146877289,-3.3167114567756655,6.310971280942668
4.907685291720554,4.864163045883179,3.4369038981199265,-3.1785382425785067,6.7509625907259725
4.917713291710243,5.238008871674538,3.6633449256420136,-2.9883540451526645,7.055996944666894
4.927741291699931,5.4193637734651565,3.686541999578476,-2.6890912091732027,7.084582355725365
4.937769291689619,5.093687894940376,3.5031762403249744,-2.285185432434082,6.590900742876385
4.947797291679308,4.5088160562515265,3.35366702914238,-1.9421000540256501,5.945440050266647
4.957825291668996,4.326730837225914,3.09164920270443,-1.756677829027176,5.6004295840033755
4.967853291658685,4.665838939547539,2.5955801975727084,-1.6734555780887606,5.595314391851996
4.977881291648373,4.773696679472923,2.1026710277795795,-1.8105482268333435,5.521547819258999
4.987909291638061,4.487100666761399,1.9418427765369417,-2.042416055202484,5.298706361461084
4.99793729162775,4.036846935153008,1.9766763943433763,-2.1361878526210787,4.976613435610045
5.007965291617438,3.5663483887910843,1.8218228280544282,-2.0552600491046906,4.5013301496889575
5.017993291607127,3.153182961344719,1.4787286788225176,-1.6771194434165955,3.8654793908094804
5.028021291596815,2.813398920893669,1.1116907662153244,-1.0576653441041708,3.204641294730671
5.038049291586503,2.6357739579677584,0.6881775212287903,-0.44620570421218875,2.7604333334998548
5.048076291801408,2.52880850315094,0.13737039148807526,0.08135011866688728,2.5338431111403095
5.058104291791096,2.308695917129517,-0.4897370553016663,0.5467555940151215,2.4225731982115377
5.068132291780785,1.858349799513817,-0.7825240999460221,0.9604322142899037,2.233436361886137
5.078160291770473,1.3152785360813142,-0.9412993937730789,1.3060071909427644,2.0788595332508595
5.0881882917601615,0.89412464261055,-1.0915652346611024,1.6026165604591371,2.1352642407678886
5.09821629174985,0.6084951746463776,-1.2188602888584137,1.8062774205207826,2.262415722454022
5.108244291739538,0.36228061795234684,-1.483037199676037,1.7231956489384175,2.3021837081968872
5.118272291729227,-0.23629417061805727,-1.602393781542778,1.649601277112961,2.3118575085086346
5.128300291718915,-0.8662556433677674,-1.460542083978653,1.5409540168941023,2.2930593757949835
5.1383282917086035,-1.2531115239858628,-1.5608042907714845,1.4763156791031362,2.487148268600528
5.148356291698292,-1.3614154064655304,-1.9253904658555985,1.500401383638382,2.794957006287094
5.15838429168798,-1.4950178521871567,-2.5880960538983344,1.2669537837803364,3.2463042760649747
5.168412291677669,-2.552672744393349,-2.8262160176038744,1.6386716616153718,4.145947410750727
5.178440291667357,-3.3640861827135087,-2.1242165556550026,2.059953170567751,4.48026549268845
5.1884682916570455,-3.2482762295007706,-2.0191581702232364,2.4271977822482587,4.529855102944227
5.198496291646734,-2.261552156209946,-2.8227258145809175,2.5611623167991637,4.431924141109753
5.208524291636422,-2.047465710639954,-3.2047448784112933,2.6638312375545503,4.643113441875095
5.218552291626111,-2.697612941265106,-2.671676154434681,3.1047042810916903,4.904503820784008
5.228580291615799,-3.054134051799774,-2.4583732357621195,2.8983794295787813,4.875647350914527
5.2386082916054875,-3.0679346501827243,-2.8770870861411098,2.5369220995903015,4.911804847346992
5.248636291595176,-2.9108860391378406,-3.151923178732395,2.1903389167785647,4.81720477329258
5.258664291584864,-2.8220282417535785,-3.2277200505137444,1.7822781085968018,4.643116989493872
5.268692291807383,-2.7758241283893588,-3.3423830723762515,1.3489058732986452,4.5493154704060075
5.278720291797072,-2.7179109656810763,-3.4993179550766946,0.8628256666660309,4.51405962512119
5.28874829178676,-2.742749937772751,-3.6451805502176287,0.43913510486483576,4.582887529185282
5.2987762917764485,-2.8226638340950014,-3.6958726939558986,0.20534719705581667,4.655005216063179
5.308804291766137,-2.9014153039455417,-3.7186169010400776,0.18926253005862237,4.7203964587685325
5.318832291755825,-3.0084918558597566,-3.687370257675648,0.3939526462554932,4.775240449595932
5.328860291745514,-3.0825965434312823,-3.649865339398384,0.6462086923420429,4.820944318219677
5.338888291735202,-3.0895477133989337,-3.669691785871983,0.8015515244007111,4.863581779196684
5.3489162917248905,-2.607346549630165,-3.1830367979407312,0.279541347026825,4.124090524177504
5.358944291714579,-1.2973954117298128,-2.3772311317920685,-1.0212432570755483,2.8943739389479797
5.368971291696653,-0.5121172732114793,-2.2826199665665627,-2.411021021604538,3.359410719145381
5.378999291686341,-0.4019206470251084,-2.4448746460676194,-3.7722703671455386,4.513200191032267
5.38902729167603,-0.6797943681478501,-2.646821102499962,-4.949469244480134,5.653762299005804
5.399055291665718,-1.076117475628853,-2.7120207729935646,-5.414159166812897,6.15030121035438
5.409083291655406,-1.4122996312379839,-2.648980186879635,-5.4477151679992675,6.2200712882188975
5.419111291645095,-1.0933293396234514,-2.95658086001873,-4.583448162674904,5.562799339059293
5.429139291634783,-0.3157519841194153,-3.8685719624161723,-3.4584134656190875,5.198670218723562
5.4391672916244715,0.6803457605838776,-5.096492219567299,-2.1574915981292726,5.576008724352292
5.44919529161416,0.9159961527585984,-5.9936486434936525,-0.691012836098671,6.102488980176448
5.459223291603848,0.39935021102428436,-6.142622249722481,0.49346399746835234,6.175337675838323
5.469251291593537,-0.22928218960762026,-5.840355699062347,1.3753060519695284,6.004480972625803
5.479279291583225,-0.44137122631073,-5.471602213382721,2.387374296784401,5.98605006442951
5.489307291805744,-0.23885115802288057,-4.50333107560873,3.2143559467792513,5.537971181292594
5.499335291795433,0.8583595633506775,-2.57629432618618,2.74705173432827,3.8626890667267832
5.509363291785121,2.1077896803617477,-1.7926235872507097,2.150566155910492,3.5044559425329793
5.519391291774809,3.1901771253347397,-1.362481353878975,1.8667235970497131,3.939320057885514
5.529419291764498,3.9511513119935993,-0.45533262312412265,1.9990057414770128,4.4513984816468515
5.539447291754186,4.481060492992401,0.42829158961772923,2.440448303818703,5.120461380696682
5.5494752917438745,4.8940446567535405,1.03428064763546,2.7877723288536074,5.72652461078209
5.559503291733563,5.160629158616066,1.4636586499214173,2.96427521109581,6.12872886358707
5.569531291723251,5.281759493350983,1.818189952969551,2.9957460951805115,6.33855604356954
5.57955929171294,5.14559304356575,2.13440035879612,2.7829477912187577,6.227165572736171
5.589587291702628,4.7802964317798615,2.279838153719902,2.3523114681243897,5.795020726961533
5.5996152916923165,4.26987952888012,2.2039167362451555,1.8916227954626084,5.164044633014395
5.609643291682005,3.7582966911792757,2.120056554079056,1.4610407052934171,4.555663920214807
5.619671291671693,3.2719445890188217,2.2201275569200516,1.1073321785777808,4.1061870776085145
5.629699291661382,2.826110183000565,2.5178940904140474,0.8682593379914761,3.8833701465364934
5.63972729165107,2.374099363088608,2.945843033194542,0.7171813919395209,3.850803566917282
5.649754291633144,1.9270744639635087,3.37839958190918,0.6747874704748392,3.947472337460289
5.659782291622832,1.7324686020612718,3.672740816473961,0.5561268534511328,4.098749765385954
5.669810291612521,1.5176378059387208,3.8353589004278184,0.27055936597287655,4.133570463367115
5.679839041782543,1.1779496598243715,3.919178736805916,-0.11540751859545709,4.094001253964186
5.6898670417722315,0.8951590150594712,3.992791673541069,-0.5203747111558914,4.1248617977517394
5.69989504176192,0.7200717437267303,4.021126111149788,-0.879536424279213,4.1787010947803065
5.709923041751608,0.6731875991821289,4.070552040338517,-1.1622611416876316,4.286423499640895
5.719951041741297,0.655687467455864,4.216919542551041,-1.4109740674495699,4.494795245875251
5.729979041730985,0.6871489959955216,4.191858376264572,-1.5899210858345032,4.5356035374069315
5.740007041720673,0.7666366302967071,4.157287883162499,-1.631999403834343,4.531467347396213
5.750035041710362,0.8333825969696045,4.176742154359817,-1.6138385367393495,4.554577521527446
5.76006304170005,0.8395765525102615,4.151439498066902,-1.5908573712408542,4.524396740922081
5.770091041689739,0.7688854694366456,4.1252960121631626,-1.536316297799349,4.46872686790813
5.780119041679427,0.6113895463943482,4.0410510832071305,-1.486538804769516,4.348987083519034
5.790147041669115,0.4074456810951233,3.8188878786563873,-1.354843136072159,4.072531956431232
5.800175041658804,0.22262688875198366,3.458578941822052,-1.2277825552225115,3.67678950054515
5.810203041648492,0.03176207542419434,3.0034831309318544,-1.0468188321590424,3.180840991717487
5.820231041638181,-0.18623206436634065,2.512287780046463,-0.8686844305694104,2.6647485644020215
5.830259041627869,-0.34220712661743163,1.9947056990861893,-0.6575270015001298,2.127979863902954
5.840287041617557,-0.4876618784666062,1.4010466647148132,-0.29280699826776985,1.512111703100225
5.850315041607246,-0.6854018479585648,0.9034948056936265,0.05385877646505833,1.1353322530883603
5.860343041596934,-0.900188205242157,0.6134910356998444,0.40247839830815796,1.1613349718517323
5.870371041586623,-1.0167512798309326,0.3752748852968216,0.647567365989089,1.262520454514076
5.880399041809142,-1.0154374104738235,0.0885981810092926,0.8156104966253043,1.3054437002311954
5.89042704179883,-0.9265965700149537,-0.3182499146461487,0.8499594533443451,1.2970332625130228
5.900455041788518,-0.9147723305225373,-0.5935590469837189,0.8752649601548911,1.3982880638197546
5.910483041778207,-0.8556324219703675,-0.6504091858863831,1.014594241976738,1.4780190886671987
5.920510041760281,-0.7789801025390626,-0.687626713514328,1.19398798763752,1.5827974639583482
5.930538041749969,-0.605266342163086,-0.6778449064493179,1.3105171483755111,1.5947652674738837
5.9405660417396575,-0.39695577621459965,-0.6547092282772065,1.3349286890029908,1.5389128196830106
5.950594041729346,-0.23202277958393097,-0.7178401538729668,1.2898028022050858,1.4942290069913347
5.960622041719034,-0.1425387454032898,-0.8490297460556031,1.1617967265844347,1.4460084500205015
5.970650041708723,-0.09035234570503235,-1.0662587776780128,1.0899017018079757,1.5274020580560095
5.980678041698411,-0.13617522060871126,-1.1990578159689904,1.176563869714737,1.685403772471829
5.9907060416880995,-0.1761719298362732,-1.260090760588646,1.4257909119129182,1.910953949805327
6.000734041677788,-0.23020078718662262,-1.2213298603892326,1.7663912236690522,2.1598094789482647
6.010762041667476,-0.2348271042108536,-1.0676185476779938,2.03180686712265,2.307204429066675
6.020790041657165,-0.21926298558712007,-0.8746060520410538,2.0652453392744063,2.25349735178679
6.030818041646853,-0.16570716798305513,-0.7170247596502305,1.8658044147491457,2.0056942652283367
6.0408460416365415,-0.10003358066082,-0.6669246464967729,1.5081898748874665,1.6520992403841066
6.05087404162623,-0.12797859370708467,-0.7738784068822862,1.110810175538063,1.3598402682538897
6.060902041615918,-0.21758424997329712,-0.858228000998497,0.9040502911806108,1.2653873464351009
6.070930041605607,-0.46882156491279603,-0.8979381966590881,0.9786046296358109,1.408457910585652
6.080958041595295,-0.7496416980028153,-0.8645707681775093,1.1122532683610917,1.5957921611386374
6.0909860415849835,-0.9911322891712189,-0.7801682567596436,1.2573957788944246,1.7810249488074776
6.1010140418075025,-1.107438086271286,-0.7946801689267159,1.3785927718877793,1.9386731845545375
6.111042041797191,-1.1550817841291428,-0.8178646713495255,1.3973003536462785,1.988860182860687
6.121070041786879,-1.166561622619629,-0.7912773817777634,1.3300334000587464,1.9380337354013843
6.131098041776568,-1.1357275003194809,-0.7818978631496429,1.2022629672288896,1.8293926494194537
6.141126041766256,-1.0843409997224809,-0.90567289352417,1.0081886172294616,1.7356506220016301
6.1511540417559445,-1.0639704698324204,-0.9841018894314767,0.7038503980636597,1.6111781628089414
6.161182041745633,-1.1001185417175294,-1.0206247678399087,0.4173841935396195,1.557608836510531
6.171210041735321,-1.1666154170036316,-1.1655222800374032,0.19110332490876317,1.6601066824892095
6.181237041717395,-1.271995106935501,-1.3170645681023598,-0.010228570885956289,1.8310475832923845
6.191265041707084,-1.3662954926490785,-1.5276137405633927,-0.22776662785559892,2.0620971728694015
6.201293041696772,-1.4296611839532853,-1.6979530727863312,-0.4314345411211252,2.2612190299835286
6.21132104168646,-1.457281091809273,-1.7816600579023363,-0.4513793206214905,2.3455754163006786
6.221349041676149,-1.3637040066719055,-1.7318771561980248,-0.3300011370331049,2.2288983495028902
6.231377041665837,-1.183575850725174,-1.7101983118057251,-0.18427441656589508,2.087962432785531
6.241405041655526,-0.8321710538864137,-1.7566354367136956,0.008412389159202576,1.9437971830250467
6.251433041645214,-0.2786981785297394,-1.9664113149046898,0.15780531384050847,1.9923224265106507
6.261461041634902,0.24243316233158113,-2.409739019572735,0.1731167596578598,2.4280826578030443
6.271489041624591,0.503765110373497,-2.893938761651516,0.16352378111332655,2.942006266072241
6.281517041614279,0.6206690776348114,-3.2291295218467715,0.21822685897350313,3.295471215891871
6.2915450416039675,0.7229006266593934,-3.4337794384360314,0.34389455996453766,3.525860181037219
6.301573041593656,0.9200324857234955,-3.6305388298630716,0.4508220809698105,3.7723351545985446
6.311601041583344,1.2502633452415466,-3.8728424763679508,0.588373151421547,4.111964280551103
6.321629041805863,1.6676270735263825,-4.234459435343743,0.60529437225312,4.591079180651442
6.331657041795552,1.9970861005783083,-4.548159046769142,0.6380452483892441,5.008113951062132
6.34168504178524,2.3040286695957186,-4.846580760776997,0.7025669342279435,5.412161627124896
6.351713041774929,2.7091617769002916,-5.220495876073837,0.8322301107645035,5.940180273593099
6.361741041764617,2.9848100477457047,-5.436703106760979,1.1312011706829073,6.304478390853805
6.371769041754305,3.057002695798874,-5.223633491992951,1.6291471320390702,6.267833175717361
6.381797041743994,3.1249514347314835,-4.303760050535202,2.0494976180791857,5.699834429922099
6.391825041733682,3.0998791587352756,-2.7813374680280685,2.1397499763965606,4.682266424639588
6.4018530417233706,3.06676286816597,-1.0795035982131957,1.9074155402183535,3.76942920760999
6.411881041713059,3.1466510367393496,0.5008760011196137,1.4836309844255449,3.5147475604170935
6.421908041695133,3.2320537143945693,1.9537728506326677,0.9548526549339295,3.8955286107581606
6.431936041684821,3.354166966080666,3.1190743982791904,0.398979497551918,4.597634802571236
6.44196404167451,3.4952830839157105,3.729763448238373,-0.24384120840579274,5.1173819235463665
6.451992041664198,3.508224141597748,3.837871448993683,-0.897155254483223,5.276531193628726
6.462020041653886,3.313618864417076,3.6431433802843096,-1.5475065529346468,5.162106178616028
6.472048041643575,2.728866308927536,3.181872909665108,-2.038218339085579,4.661047150914188
6.482076041633263,1.9267084282636644,2.6489331167936325,-2.3864802575111392,4.0526954048236465
6.492104041622952,1.245223045349121,2.176270515918732,-2.5781730365753175,3.5963467571481087
6.50213204161264,0.6131051194667817,1.900421685576439,-2.535448016524315,3.227382393677987
6.512160041602328,0.1688249033689499,1.8116720616817474,-2.338107996582985,2.962668815571701
6.522188041592017,-0.19252951562404633,1.7777242970466616,-1.903611341714859,2.6117249914571636
6.532216041581705,-0.41715673685073856,1.8163855022192001,-1.2952231711149216,2.2695548239170265
6.542244041804224,-0.6091056239604951,2.0124479055404665,-0.6875939691066743,2.2121803045878483
6.552272041793913,-0.8938667804002762,2.2535882484912872,-0.21311931610107424,2.4337373847103088
6.562300041783601,-1.139025914669037,2.4392648273706437,0.05861422559246421,2.6927362588595596
6.572328041773289,-1.2742404377460481,2.5385628283023833,0.02889752447605133,2.8405677237740137
6.582356041762978,-1.2638095897436143,2.594656922221184,-0.2601595630310476,2.897782293650566
6.592384041752666,-1.1959549909830094,2.5832887655496597,-0.5892742073535919,2.907048895035042
6.602412041742355,-1.190708869099617,2.6466544568538666,-0.8221957039833069,3.0163841268289304
6.612440041732043,-1.3139366000890733,2.7847844016551973,-1.014976065158844,3.2421643952151866
6.622468041721731,-1.4130252707004547,2.916990532279015,-1.139818212389946,3.435790991655243
6.63249604171142,-1.361703674197197,2.9439461964368823,-1.1871578550338746,3.4540410936475494
6.642523041693494,-1.1530352586507797,2.939491787552834,-1.1372542083263397,3.3561062872230965
6.652551041683182,-0.9255002170801163,2.996719071865082,-1.072726675271988,3.3147576634401728
6.6625790416728705,-0.6464476972818375,2.9457091319561006,-1.0321452444791794,3.1875414853945885
6.672607041662559,-0.5250823044776917,2.7533012384176256,-0.9730456817150116,2.967018205985913
6.682634916622192,-0.5569467061758042,2.325215470790863,-1.0757133599370718,2.62182681576651
6.69266291661188,-0.6805205923318863,1.832855939269066,-1.295674576163292,2.345472612932745
6.7026909166015685,-0.7006934863328934,1.3555149811506273,-1.464710564017296,2.1151286632867032
6.712718916591257,-0.5835538762807846,0.9382494860887528,-1.5450922375917435,1.8995150031874974
6.722746916813776,-0.37111342191696167,0.6083074790239335,-1.4632481753826143,1.6275313771856812
6.732774916803464,-0.13149569392204286,0.37530792206525804,-1.2339250552654266,1.2964251601603416
6.742802916793153,0.08121080875396729,0.17961710929870606,-0.9500485825538636,0.9702833661482104
6.752830916782841,0.23770919680595398,0.004187191128730774,-0.7033498764038086,0.7424447746822205
6.7628589167725295,0.3778880059719086,-0.3022279590368271,-0.40328652005642657,0.6299056290748749
6.772886916762218,0.3425263845920563,-0.7433433696627617,-0.08867304364219308,0.8232536656657319
6.782914916751906,0.27180723488330844,-1.0658216983079911,0.15867996593937278,1.1113210144281267
6.792942916741595,0.2496065264940262,-1.3689428195357323,0.39178215980529785,1.4456144444382664
6.802970916731283,0.2695069402456284,-1.6659676337242126,0.709008811712265,1.83051239890443
6.8129989167209715,0.12669162154197694,-1.9169494253396988,0.9457438623905182,2.141302715528207
6.82302691671066,-0.18996901988983156,-2.006082626581192,1.0296174931526185,2.26286718907555
6.833054916700348,-0.6436240768432617,-1.9960806718468667,1.0221108376979828,2.333088203508957
6.843082916690037,-1.0707924163341522,-1.9539003199338913,0.9085871458053589,2.4062114330705073
6.853110916679725,-1.4716868770122529,-1.9108428856730462,0.7224527299404144,2.517761057903575
6.8631389166694134,-1.8238389480113983,-1.9349266898632052,0.5494570807367564,2.7151856082043566
6.873165916651487,-2.072588272690773,-1.9528510370850565,0.4768205924704671,2.8873183403537945
6.883193916641176,-2.319793932437897,-2.033410758376122,0.5525933810323477,3.1339372434712534
6.893221916630864,-2.6803811967372897,-1.991037448346615,0.7859499835968018,3.430217319246295
6.9032499166205525,-2.975908246636391,-1.677528163790703,0.9852429735660554,3.5553951045799073
6.913277916610241,-3.2476891690492633,-1.3478197529911995,0.9731696426868439,3.6484465432236215
6.923305916599929,-3.4058838343620303,-1.1820658072829247,0.7624547747522593,3.6849235473017017
6.933333916589618,-3.3277188402414324,-0.9795530480146408,0.547764823436737,3.5118774402543202
6.943361916812137,-3.2370524990558627,-0.788739105463028,0.22779465794563294,3.339537193133053
6.953389916801825,-3.3239315986633304,-0.6919343572854996,-0.25901528120040895,3.4050526197520044
6.963417916791514,-3.527939198613167,-0.6051795110106468,-0.6726438081264496,3.642121211913362
6.973445916781202,-3.7169282251596454,-0.5716214632987976,-0.9853985095024109,3.8875849509460068
6.98347391677089,-3.8036751776933673,-0.6018512758612633,-1.0053328371047974,3.980058282113175
6.993501916760579,-3.8183598750829697,-0.5873507657647133,-0.6711592000722886,3.921136025379597
7.003529916750267,-3.7842858105897905,-0.536509225666523,-0.18776228070259096,3.8267369807070826
7.0135579167399555,-3.7157236987352373,-0.4674691039323807,0.22467516839504242,3.7517474461599036
7.023585916729644,-3.457966153621674,-0.4463606554269791,0.40399056136608125,3.5099823543686313
7.033613916719332,-3.121686934232712,-0.44252751320600514,0.24359379809349777,3.162293132170567
7.043641916709021,-2.810113955140114,-0.55657511562109,-0.04995394189842046,2.8651372910408734
7.053669916698709,-2.5192026972770694,-0.5583015060424805,-0.2904627764225006,2.5966230812546574
7.0636979166883975,-2.211687101125717,-0.5140965557098389,-0.2942997193336487,2.2896435151958614
7.073725916678086,-1.8517155486345291,-0.5019586130976678,-0.1724829214811325,1.9262822432137188
7.083753916667774,-1.511000631451607,-0.505228083729744,-0.12325228929519653,1.5979891900926273
7.093781916657463,-1.1045747047662735,-0.5076786518096924,-0.1350940704345703,1.2231407522355666
7.103808916639537,-0.5391641539335251,-0.5421447721123696,-0.07042970339767635,0.7678406618148793
7.113836916629225,-0.09043186783790588,-0.5002500566840172,0.026831703186035158,0.5090657936150085
7.123864916618913,0.340528975725174,-0.371012265086174,0.14474900205619634,0.5239869824232987
7.133892916608602,0.777923510670662,-0.2796810954809189,0.24209694743156435,0.8613927301639225
7.14392091659829,1.2627664464712143,-0.21642357766628267,0.2559653735160828,1.3064978131411622
7.153948916587979,1.7730178731679918,-0.060677726268768314,0.31667116641998294,1.8020973316333635
7.163976916810498,2.2902614003419877,0.0940395998954773,0.532370274066925,2.3532018266513046
7.174004916800186,2.76129145860672,0.24313541293144228,0.8513838350772858,2.8997758159945186
7.184032916789874,3.219873964190483,0.4218713468313217,1.0854911470413209,3.424011508282952
7.194060916779563,3.577030667066574,0.6038337743282318,1.1690303170681,3.811350876313877
7.204088916769251,3.9400497883558274,0.730658712387085,1.1986862254142763,4.182666990773695
7.21411691675894,4.389888367652893,0.7209967732429505,1.1907094538211822,4.605295346761168
7.224144916748628,4.9785380923748015,0.5716179549694062,1.140389485359192,5.139365408490443
7.234172916738316,5.634272922277451,0.4078795444965363,1.0527069783210754,5.746267403082933
7.244200916728005,6.282749018669128,0.33193766176700595,0.8940720176696778,6.354721285443381
7.254228916717693,6.885050822496415,0.40978749096393585,0.624851006269455,6.925481167120811
7.264256916707382,7.52982095360756,0.5823674762248994,0.2279876160621643,7.555748396011459
7.27428491669707,8.166011465191842,0.803142551779747,-0.22013889849185944,8.208364169720609
7.284312916686758,8.54280955016613,0.9498567938804627,-0.6003324615955353,8.616392632867647
7.294340916676447,8.53816218316555,1.052186576128006,-0.9259802734851837,8.652441824358368
7.304368916666135,8.138610827922822,1.2885994452238083,-1.1768901443481445,8.323613707427652
7.314396916655824,7.443021960854531,1.6053302532434464,-1.3426464289426805,7.731646691675327
7.324424916645512,6.755159019827843,1.9141807687282564,-1.4252465361356736,7.164327539085388
7.334451916627586,6.152463698387146,2.0943767523765566,-1.501793020963669,6.6704277088266375
7.344479916617274,5.65220925629139,2.093363429903984,-1.488368983268738,6.208452476819152
7.354507916606963,5.1128790414333345,1.9266312450170517,-1.4563642483949661,5.6545943152986
7.364535916596651,4.587595008015633,1.6107155388593675,-1.3756165391206743,5.052994495088563
7.3745639165863395,3.9960298615694048,1.2879930889606477,-1.3153276526927948,4.399689498783196
7.3845919168088585,3.4046699523925783,1.0099983304739,-1.2275474971532823,3.7574921117751177
7.394619916798547,2.9682624274492264,0.7358101093769074,-1.1201236206293106,3.256789105969213
7.404647916788235,2.603649939894676,0.43941708683967595,-0.9262030524015427,2.7982016510605794
7.414675916777924,2.3015196293592455,0.20365501284599305,-0.7098894023895264,2.417107968670034
7.424703916767612,2.02420607149601,0.07041977226734161,-0.47779243625700474,2.081022531437826
7.4347319167573005,1.6635767072439194,0.0017173272371292115,-0.25630049206316474,1.683205380317322
7.444759916746989,1.2098105531930925,-0.0002157622575759888,-0.06062568604946137,1.2113286486250114
7.454787916736677,0.7467566817998886,0.06278272390365601,0.11655306123197079,0.7584008361783935
7.464815916726366,0.3162039738893509,0.0977098971605301,0.3568286740779877,0.4866814972348892
7.474843916716054,-0.10722448647022248,0.1435517755150795,0.6103106620162726,0.6360686338148389
7.4848719167057425,-0.51597234249115,0.18116486728191378,0.8108684778213502,0.9780367353414653
7.494899916695431,-0.884549242258072,0.20797084271907806,1.023277941942215,1.3684944208385024
7.504927916685119,-1.1517254823446275,0.12200800180435181,1.1879431360960007,1.6590860236238074
7.514955916674808,-1.386415176987648,0.005809208750724793,1.321251466870308,1.9151726367601802
7.524983916664496,-1.6024230176210403,-0.20677801072597504,1.4197659409046173,2.1508723811686936
7.5350119166541845,-1.8583585703372956,-0.504108926653862,1.5139832961559296,2.449442346110102
7.545039916643873,-2.200044125318527,-0.7856412506103516,1.5838803273439408,2.822428603057358
7.555066916625947,-2.5412215572595596,-0.9748437005281448,1.6698437529802324,3.1931967372692864
7.565094916615635,-2.814015217423439,-1.1214638024568557,1.7442004555463793,3.495511111874753
7.5751229166053236,-2.964071143269539,-1.2361171764135361,1.8642508095502854,3.7133723886915324
7.585150916595012,-3.0354036659002306,-1.4253810220956804,1.8781011092662812,3.843520554093385
7.5951789165847,-3.102505728006363,-1.657338897585869,1.7421767342090608,3.925238054816903
7.605206916807219,-3.252433599829674,-1.8718264621496201,1.4980215668678285,4.040560263194415
7.615234916796908,-3.4657131296396257,-2.139741205573082,1.2496037793159485,4.260418938210718
7.625262916786596,-3.6949543887376786,-2.42521411433816,1.0670016664266586,4.5467399300371385
7.635290916776285,-3.888837534785271,-2.685453656315804,1.0084306919574737,4.832354619919417
7.645318916765973,-4.1886330521106725,-2.969669852256775,1.0684359884262085,5.244534425285149
7.655346916755661,-4.55536164700985,-3.205124362707138,1.1876232933998108,5.6951374875847325
7.66537491674535,-4.778367435336113,-3.371004023551941,1.26217529296875,5.982436789809379
7.675402916735038,-4.810912452936173,-3.588578333258629,1.2823008245229721,6.137350282354912
7.685430666664615,-4.73355495929718,-3.7658840382099155,1.252433831691742,6.177136524693072
7.695458666654304,-4.744449491500855,-3.8887819862365727,1.1715715169906618,6.245398796978828
7.705486666643992,-4.872662558555604,-3.85369342982769,1.0880206525325775,6.306947153812545
7.7155146666336805,-4.970084772706032,-3.799802566766739,1.0650013339519502,6.346216986174591
7.725542666623369,-4.989937239289284,-3.8135408923029903,1.0158578252792358,6.361959989696109
7.735570666613057,-4.9743690276145935,-3.853839025497437,0.9260030776262284,6.360338368130397
7.745598666602746,-4.817539687156677,-3.9903352582454685,0.8710082602500916,6.315862530165653
7.755626666592434,-4.600605647563935,-4.2191610726714135,0.9320186930894853,6.311541121296066
7.7656546665821224,-4.451962993741036,-4.377166580557823,1.1060160434246065,6.340570420703846
7.7756826668046415,-4.335349633097649,-4.366796835958958,1.3071438896656038,6.2906912335633836
7.78571066679433,-4.15934317946434,-4.29464453369379,1.3446958780288698,6.1279943178604785
7.795737666776404,-3.8524719464778903,-4.291266889572144,1.2457668364048005,5.89986835671978
7.805765666766092,-3.5277129113674164,-4.350758800506592,1.070488361120224,5.702613949454039
7.815793666755781,-3.304636371731758,-4.3513008373975754,0.9178976672887803,5.540485236378079
7.825821666745469,-3.202410085201264,-4.233163984715938,0.8617626428604126,5.377521969078755
7.835849666735157,-2.963597518801689,-3.963876899778843,0.9624195367097855,5.041972004552241
7.845877666724846,-2.5944943696260454,-3.716972079277039,1.0590956461429597,4.654993669149862
7.855905666714534,-2.102776862382889,-3.5342647165060046,1.1727754586935044,4.276458803241984
7.865933666704223,-1.6649753612279894,-3.379864894151688,1.2203519135713579,3.960415186463731
7.875961666693911,-1.3323050433397294,-3.1936433547735215,1.241981348991394,3.6765353632516624
7.885989666683599,-0.9160429304838181,-3.10520801872015,1.205436835885048,3.454638831386265
7.896017666673288,-0.4916830086708069,-3.0506836098432544,1.0887860530614852,3.2762597176846424
7.906045666662976,-0.10239293217658997,-2.804662011265755,0.9309504798799754,2.956904142170616
7.9160736666526645,0.180693581700325,-2.4798617532849314,0.7895009976625443,2.6087691180292785
7.926101666642353,0.44871357500553133,-2.118703216016293,0.5384162950515747,2.2316225704023274
7.936129666632041,0.7667605912685395,-1.8396889954805375,0.17560350738465788,2.000803337717244
7.94615766662173,1.221831843852997,-1.7108748346567155,-0.26834685266017916,2.119428174731921
7.956185666611418,1.7647195047140123,-1.593483501970768,-0.7666215006262065,2.498225995900585
7.9662136666011065,2.3933817261457446,-1.3020135426521302,-1.197903941050172,2.976321421533882
7.976241666590795,2.8426180422306064,-0.8691646331548691,-1.5196491019427778,3.33845142043099
7.986269666813314,3.2515056467056276,-0.3961283951997757,-1.7103813296556474,3.695214603900124
7.996297666803002,3.6525603210926056,-0.01973493754863739,-1.7845140838623048,4.065227777441639
8.006324666785076,4.111992427110672,0.18798798322677612,-1.7571087688207627,4.475628718729918
8.016352666774765,4.687859553694725,0.20620089054107668,-1.533763257265091,4.936696844223196
8.026380666764453,5.108851479291916,0.09953422844409943,-1.1708582297712564,5.242249468912963
8.036408666754141,5.369978190064431,0.08635168075561524,-0.8625643692165613,5.4394981078752975
8.04643666674383,5.414757336974144,0.17841024398803712,-0.6705469965934754,5.459034759746061
8.056464666733518,5.3769071406126026,0.2778409767150879,-0.5848385095596313,5.41575129500762
8.066492666723207,5.278154684901238,0.5111951673030853,-0.6404930390417576,5.3413920198652205
8.076520666712895,5.190069304704666,0.847919944524765,-0.7429433470219374,5.3110971029387715
8.086548666702583,5.278439444303513,1.0773512381315231,-1.0061731550842523,5.480419060208344
8.096576666692272,5.527109246850014,1.0873873990774154,-1.3871443247795106,5.801337549225633
8.10660466668196,5.723808411955834,0.8128881061077118,-1.76536342933774,6.044772770540747
8.116632666671649,5.866200976967812,0.40883848786354066,-1.960285479426384,6.198562895719183
8.126660666661337,5.975825745463371,-0.026736393570899963,-1.8751279462873938,6.263171160828357
8.136688666651025,6.085692003965378,-0.4433616185188294,-1.4272290346026422,6.266514135395895
8.146716666640714,6.101056732535363,-0.6233447635173798,-0.8647739589214325,6.193487381746109
8.156744666630402,6.025246996879578,-0.23274900376796723,-0.33445145286619665,6.039009127869046
8.16677266662009,5.934223975539208,0.6702482038736344,-0.011951050981879235,5.971966985364183
8.176800666609779,5.728072201609612,1.92591554582119,0.08753756918013096,6.043808787718758
8.186828666599467,5.522446092367172,3.267666766047478,0.17504926443099977,6.4191665488605665
8.196856666589156,5.290036811828614,4.354281747937202,0.38938889443874364,6.862644003737418
8.206884666811675,5.023238886594773,5.193337898254395,0.6113684233278036,7.251031567045174
8.216912666801363,4.794953062534333,5.65789976656437,0.7488915002346039,7.454142681725388
8.226940666791052,4.618773531317711,5.747023027539253,0.7418707484006882,7.410243910965423
8.23696866678074,4.4791069382429125,5.513343731760979,0.4991568831726909,7.120991199459704
8.246995666762814,4.1610926663875585,4.979613980054856,0.022347327321767807,6.4893564374027495
8.257023666752502,3.695785862803459,4.377458941340446,-0.5889807502180339,5.759156036343062
8.26705166674219,3.231922152042389,3.8376656270027163,-1.1417694282531738,5.145545227556943
8.27707966673188,2.82773570895195,3.355010134577751,-1.472815974354744,4.6283224970950245
8.287107666721568,2.4832440751791003,2.930289439558983,-1.5838060677051544,4.154700831179384
8.297135666711256,2.0122391599416733,2.649716643691063,-1.5338223141431808,3.6637024469817066
8.307163666700944,1.6630644911527634,2.4100609087944034,-1.4220475244522095,3.255210630302249
8.317191666690633,1.4243308621644974,2.087903884649277,-1.233368400335312,2.812340421676133
8.327219666680321,1.3914063602685929,1.6365935611724853,-0.9314813339710236,2.341390104062877
8.33724766667001,1.4109068244695664,1.155902733206749,-0.5234684729576111,1.8975743564219565
8.347275666659698,1.2721506428718568,0.7428536653518677,-0.16955635350197554,1.4828850876918516
8.357303666649386,1.0360137623548509,0.3021876132488251,0.13460639437660576,1.0875480452820212
8.367331666639075,0.7304710167646409,-0.1301531732082367,0.3570508682727814,0.8234154949742496
8.377359666628763,0.25942224740982056,-0.5019361013174057,0.5320697271823883,0.7761043401765129
8.387387666618451,-0.2727229088544846,-0.856761226952076,0.654608656167984,1.1121735825636805
8.39741566660814,-0.9112487983703613,-1.1950115427374841,0.7573875045776367,1.682873373696782
8.407443666597828,-1.5193603956699373,-1.4591425529122353,0.9266205435991288,2.3013427892144813
8.417471666587517,-2.057028247117996,-1.7809350031614304,1.12647720515728,2.9448337115473766
8.427499666810036,-2.5920262598991397,-2.0321378195285797,1.2906646817922593,3.5375131901366825
8.437527666799724,-2.919310122728348,-2.1613270792365076,1.4444867992401125,3.908995836437301
8.447555666789412,-3.1741849905252457,-2.2771037033200265,1.5932335335016252,4.218891409129133
8.457583666779101,-3.4197353035211564,-2.352664639949799,1.6216469085216523,4.456384089162074
8.467610666761175,-3.5523454767465594,-2.581307436525822,1.6018382960557938,4.674205001359716
8.477638666750863,-3.538479974269867,-2.7016703242063524,1.5243410539627076,4.705685786131738
8.487666666740552,-3.5235046702623367,-2.73845574259758,1.3532059156894685,4.663195392194405
8.49769466673024,-3.571177604198456,-2.7648076817393306,0.9846752089262009,4.622451326385957
8.507722666719928,-3.52852801322937,-2.811158560216427,0.3286187821626663,4.523396146128767
8.517750666709617,-3.530917770266533,-2.874976533651352,-0.5565964214131236,4.58722900515767
8.527778666699305,-3.546129886507988,-2.9754056784510614,-1.5646195989847185,4.886318717897051
8.537806666688994,-3.6590951693058016,-3.0810815298557284,-2.511428824067116,5.402713724602693
8.547834666678682,-3.9950685793161393,-3.3748076373338702,-3.2035748505592347,6.132926818867295
8.55786266666837,-4.556259779334068,-3.8460581356287005,-3.60436172246933,6.967287118083704
8.567890666658059,-4.915912658572197,-4.418319576680661,-3.633395487070084,7.542500110298388
8.577918666647747,-5.054060145020485,-4.927021783590317,-3.141962739229202,7.725994917171682
8.587946666637436,-5.136706445217133,-5.107316000461578,-2.335013065338135,7.61069746135043
8.597974666627124,-5.0203246343135834,-5.041948807239533,-1.551652228832245,7.282343843019227
8.608002666616812,-4.721720779538155,-4.844016464352608,-0.9782274842262269,6.834915627697033
8.6180306666065,-4.414322712421417,-4.578203210234642,-0.677109911441803,6.395675685631276
8.62805866659619,-4.100420787334443,-4.254671213328838,-0.4838406864926219,5.928724953701187
8.638086666585878,-3.6376393961906435,-3.94370780646801,-0.37256700318306685,5.378109129738422
8.648114666808397,-3.1797141176462174,-3.6431316858530045,-0.2718031052872539,4.843229013630123
8.658142666798085,-2.9013983470201494,-3.4282140585780145,-0.13831230483949186,4.493316625076983
8.668170666787773,-2.7500841003656387,-3.3387671542167667,-0.020191605091094973,4.325590869473992
8.678197708446532,-2.746024963259697,-3.338079229295254,0.10463000379502774,4.323699050303104
8.68822570843622,-2.504082967042923,-3.200969331264496,-0.0493960352987051,4.064366633786081
8.69825370842591,-0.23217012941837312,-2.293663602769375,-2.272346116304398,3.237028353899115
8.708281708415598,-0.349883936047554,-1.4374411967396736,-3.7713956236839294,4.051182656105598
8.718309708405286,-2.9760403937101367,-1.464947960972786,-1.5535408794879915,3.6628374544324283
8.728337708394974,-2.9401080840826035,-1.6321075773239138,1.7917014813423158,3.8102762220461472
8.738365708384663,-1.2547072291374206,-1.176190524995327,3.04203031539917,3.494518968577229
8.748393708374351,0.8345163720846177,-0.5404566809535026,1.9407446694374086,2.180596448500791
8.75842170836404,2.669049877524376,-0.7656703779101373,0.4312310580164194,2.8099890750178904
8.768449708353728,2.5811235415935516,-1.0541863238811493,-1.0808168828487397,2.990262977846155
8.778477708343416,1.6788841331005098,-1.0151432955265045,-1.7862261486053468,2.653256809430733
8.788505708333105,0.018458490371704103,-0.9391055184602738,-1.3603664159774782,1.6531354077596763
8.798533708322793,-1.932311230301857,-1.1483256188035011,-0.7590352499485016,2.372469795005935
8.808561708312482,-3.5593931257724765,-1.5770732912421228,0.5620542490482331,3.933490125654162
8.81858970830217,-4.374710749983787,-1.6268067839741707,2.4871307194232943,5.2887062381935275
8.828617708291858,-3.7334664899110797,-0.847778734266758,3.4734788167476656,5.169386414649098
8.838645708281547,-2.281343227028847,-0.10214881092309952,2.909708994626999,3.698833293417893
8.848673708271235,-0.836309713125229,-0.252634214758873,1.9728493916988374,2.1576312718026935
8.858701708260924,0.07094368278980255,-0.6242276930809021,1.4781176447868347,1.6060899696987911
8.868729708250612,0.03580776393413544,-0.5300916141271591,1.357496602535248,1.457764158298811
8.878757708473131,-0.3989964544773102,-0.17550037711858751,1.4735357666015625,1.5366542254223248
8.88878570846282,-0.5184831368923187,-0.11046472102403641,1.3518926310539245,1.452116009046977
8.898812708444893,-0.3209390491247177,-0.32604834616184236,0.8824079918861389,0.9939583801309182
8.908840708434582,0.18978073954582214,-0.5097605529427529,0.5227738237380982,0.7544302626650209
8.91886870842427,0.9306995612382889,-0.686609297990799,0.38545777481049304,1.2191028248422764
8.928896708413959,1.610052464604378,-0.7396216168999672,0.4709487819671631,1.8333308021742034
8.938924708403647,2.2805310487747192,-0.7197565788030624,0.7040375089645386,2.4928979544266956
8.948952708393335,2.9514405727386475,-0.644507006406784,1.0530402696132661,3.1992631253372155
8.958980708383024,3.5325479739904404,-0.5220364898443223,1.431128250360489,3.8470177221131725
8.969008708372712,4.141602727174759,-0.44697052001953125,1.8316332864761353,4.550553404986617
8.9790367083624,4.784716926813126,-0.6154650557041168,1.8906726229190827,5.181404855015736
8.989064708352089,5.641267361640931,-1.027655167579651,1.6305545568466187,5.961432776759431
8.999092708341777,6.391661596298218,-1.5029963779449464,1.3304087913036347,6.699427111752699
9.009120708331466,6.847899368405343,-1.6956182795763017,1.198730664253235,7.155822965617622
9.019148708321154,7.250028176307678,-1.5387187725305558,1.3380066633224488,7.531322981341887
9.029176708310843,7.718842724561692,-0.9219252294301987,1.4318837106227875,7.904477850935239
9.039204708300531,8.182218777537347,0.26001807868480686,1.4695713543891908,8.317208275038505
9.04923270829022,8.72923866569996,1.8267672336101533,1.3434223544597625,9.018950594775708
9.059260708279908,9.106724967956543,3.401451644897461,1.107011239528656,9.784057789027083
9.069288708269596,8.914853848814964,4.840388851761818,1.0340566992759705,10.196727741746791
9.079316708259284,8.288756800889969,5.864909327030182,0.896175845861435,10.19332045337979
9.089344708248973,7.464947265386582,6.245409284234047,0.5748725152015687,9.749925805427118
9.099372708471492,6.420056844949722,5.870935467481614,0.14304628372192382,8.700889345061572
9.10940070846118,5.211302298903465,4.9051268845796585,-0.3541108882427216,7.1654264301264545
9.119427708443254,4.3897620677948,3.780955236554146,-0.6964910924434662,5.835300622464056
9.129455708432943,3.655427795648575,2.794491949081421,-0.8563212239742279,4.680237564623168
9.139483708422631,2.8889543026685716,2.0789722627401352,-0.9640392154455185,3.6874861682543165
9.14951170841232,2.0832594412565233,1.6895301586389542,-1.0078506481647491,2.8653525063316585
9.159539708402008,1.2718916112184526,1.4165107959508896,-0.9521869093179703,2.12858427505462
9.169567708391696,0.6519733160734177,1.3270624297857285,-0.8137026232481003,1.6876835771261776
9.179595708381385,0.49468379974365234,1.4185087895393371,-0.4225033577531576,1.5605730790456005
9.189623708371073,0.5512404084205628,1.3803475213050842,0.20862456142902375,1.5009162118786683
9.199651708360761,0.5254559415578842,1.401493976712227,0.9915274878591299,1.7953874435506594
9.20967970835045,0.36791674911975863,1.791277558207512,1.5174185353517533,2.3762569381802505
9.219707708340138,0.20399649024009706,2.2224576723575593,1.726787447333336,2.8218305338413288
9.229735708329827,0.08140142798423768,2.337154900431633,1.397524302005768,2.724333569111202
9.239763708319515,-0.01538987159729004,2.251142942905426,0.5509538217633962,2.317634896021454
9.249791708309203,-0.3311284071207047,2.197535085082054,-0.3501860909163952,2.249763714357619
9.259819708298892,-0.6910496735572815,2.129389879703522,-1.0817015665769578,2.4863485657168924
9.26984770828858,-0.8897333836555481,1.9445003360509874,-1.5298337821662427,2.6292771729033486
9.279875708278269,-0.9870620423555375,1.7103626185655594,-1.7108580239117146,2.6127891113575585
9.289903708267957,-1.0636231452226639,1.434396259188652,-1.6971568281948568,2.463560050600792
9.299931708257645,-1.2012414586544038,1.1721872287988664,-1.5903391617536546,2.3121813490201504
9.309959708480164,-1.2751274603605272,0.9696478646993637,-1.372650977522135,2.1095823586136655
9.319987708469853,-1.3332634019851686,0.7511251366138458,-1.0095070181787014,1.8332715809934672
9.330015708459541,-1.4422712892293932,0.4780554878711701,-0.6766994369029999,1.6633116512319621
9.34004370844923,-1.5155211138725282,0.17289427310228347,-0.4631561976671219,1.5941174171630086
9.350070708431304,-1.648292670249939,-0.14004841625690462,-0.2975874625146389,1.6807857042293175
9.360098708420992,-1.834862118959427,-0.4236331129074097,-0.1664924490451813,1.8904771211344937
9.37012670841068,-1.9951226055622102,-0.7729197558760643,-0.1399881899356842,2.1441818611233345
9.380154708400369,-2.147464792728424,-1.1979360276460649,-0.13127057611942292,2.4624962388794205
9.390182708390057,-2.200846948027611,-1.5920219904184343,-0.1925290770828724,2.7231101248647116
9.400210708379745,-2.2996537828445436,-1.9200858718156815,-0.3247966034710407,3.0134083874781608
9.410238708369434,-2.392875941991806,-2.152705944478512,-0.47106996551156044,3.252984025408572
9.420266708359122,-2.457889963388443,-2.3469162422418597,-0.4943382292985916,3.434182465328591
9.43029470834881,-2.553555089235306,-2.554147704541683,-0.3960524544864893,3.63334166258554
9.440322708338499,-2.7572089326381684,-2.7753040185570717,-0.24245070397853852,3.9196040409075033
9.450350708328187,-2.974525380134583,-2.947736653983593,-0.07558702982962132,4.188396592657104
9.460378708317876,-3.108834754228592,-3.141770658195019,0.21848932586610317,4.4253038294915
9.470406708307564,-3.1403038841485977,-3.456945229768753,0.5962690852582455,4.708239121843156
9.480434708297253,-3.182428395152092,-3.8710280853509906,0.9152604999393226,5.0941545628882965
9.490462708286941,-3.32075422167778,-4.162998273968697,1.1424249011278154,5.446383927393849
9.50049070827663,-3.559063342809677,-4.321112540066243,1.288522846698761,5.744496199712731
9.510518708266318,-3.921485463380814,-4.374430668354035,1.3742137920856476,6.033419880805726
9.520546708256006,-4.334390689730644,-4.360197960734368,1.4963784992694855,6.327512743653056
9.530574708478525,-4.619630148410797,-4.329496277868748,1.6453977137804032,6.541624749609159
9.540602708468214,-4.680886164307594,-4.333389938771725,1.7307425040006639,6.6094200395956655
9.550630708457902,-4.530764164924622,-4.386762446165085,1.7728956663608553,6.550928767819911
9.56065870844759,-4.239114988446236,-4.387399207949638,1.7915414138138295,6.358379379417109
9.570685708429664,-3.829333929419518,-4.439932347536088,1.784206520318985,6.128636920298805
9.580713708419353,-3.471006613969803,-4.370155476629734,1.754972780942917,5.850305570309084
9.590741708409041,-3.1483256793022156,-4.187482612431049,1.6843438245356084,5.5030881631696005
9.60076970839873,-3.00525132894516,-3.916384644806385,1.4681143744289875,5.150239222852362
9.610797708388418,-2.7277290254831317,-3.7056995245814326,1.1269864976406099,4.737384633825974
9.620825708378106,-2.246007918119431,-3.693242908716202,0.6690477705001832,4.374039285403019
9.630853708367795,-1.6415373820066452,-3.7267901390790943,0.24748354867100716,4.079811003481068
9.640881708357483,-0.9787513947486878,-3.6510394603013996,-0.13434971988201141,3.7823396569627126
9.650909708347172,-0.40986350476741795,-3.566771727204323,-0.4969536888599396,3.6244739777512325
9.66093770833686,0.05042755722999573,-3.5154089078307154,-0.8363214075565338,3.613872746033135
9.670965708326548,0.4777631270885468,-3.5100011104345326,-1.1096495032310487,3.712100136159852
9.680993791669607,0.9274485093355179,-3.5522028046846392,-1.2544477589428424,3.8796835802671863
9.691021791659296,1.4170750522613527,-3.551655505299568,-1.2914246736466886,4.0361040893130715
9.701049791648984,1.9179569005966188,-3.483881013393402,-1.1928271691501142,4.15196606964603
9.711077791638672,2.323199350833893,-3.3269069543480874,-0.9773458702862263,4.1738196004104235
9.72110579162836,2.6492693316936493,-3.128343404531479,-0.7336413770914079,4.164539604651239
9.73113379161805,3.1724904674291614,-3.0963959723711016,-0.570196643024683,4.469618327705565
9.741161791607738,3.830477060079575,-3.237541911005974,-0.5036721396446229,5.040626722697315
9.751189791597426,4.352303634881974,-3.463915695548058,-0.5426198583841324,5.588890335906032
9.761217791587114,4.801534688472748,-3.8288597202301027,-0.5842211897671223,6.168972079721268
9.771245791809633,5.035494650602341,-4.222374994754792,-0.5782299864292145,6.596893730368956
9.781273791799322,5.182557971477509,-4.386019849777222,-0.3961957843601704,6.800959369817589
9.791300791781396,5.059441922307014,-4.268658045530319,-0.0403612831234932,6.619744942823991
9.801328791771084,4.684731293320656,-3.339947707056999,0.5413264542818069,5.778840048539019
9.811356791760772,4.383890293836594,-1.730420322418213,1.4328846077620985,4.926053887219891
9.82138479175046,4.236393109560013,-0.04518085062503815,2.3049874667823316,4.82307320180965
9.83141279174015,4.20853522002697,1.4635791277885437,2.946448220014572,5.341852644423354
9.841440791729838,4.340812686681748,2.8804495275020603,3.602749645113945,6.333991574569129
9.851468791719526,4.489306821227074,3.870353316664696,4.157828750610352,7.240238286847704
9.861496791709214,4.728946768641472,4.36686612546444,4.513970376849175,7.861830948414326
9.871524791698903,5.166503856182099,4.40819892346859,4.698114985227585,8.258163491917204
9.881552791688591,5.393690403699875,4.136404552459717,4.727404857873917,8.2794985043071
9.89158079167828,5.168167389035225,3.8231657016277314,4.322783381938935,7.74680620064535
9.901608791667968,4.5481204551458365,3.7016617298126224,3.48005810379982,6.818981129340229
9.911636791657656,3.658135641217232,3.754142829179764,2.43319717168808,5.778926650143306
9.921664791647345,3.0197839987277986,3.808371661305428,1.444549949169159,5.070455074769062
9.931692791637033,2.5534761518239977,3.7821609324216845,0.684814202785492,4.61453705901334
9.941720791626722,2.0715363585948947,3.836154706478119,0.22909756377339363,4.3657566939468495
9.95174879161641,1.7743761813640595,4.054158201813698,-0.025135425925254824,4.425521590497761
9.961776791606098,1.606344160437584,4.304580999612808,-0.011258813738822938,4.594549586726248
9.971804791595787,1.3929921251535415,4.459185474514961,0.1698854421079159,4.674785901012495
9.981832791585475,1.0848871296644211,4.362171396017075,0.294286270737648,4.50467798865643
9.991860791807994,0.6623614794015885,4.079362040162087,0.29486514508724215,4.1432913049769695
10.001888791797683,0.12143497467041016,3.700261906385422,0.26211554802954196,3.7115211422594787
10.011916791787371,-0.4114726585149765,3.4209468466043473,0.20928697787225248,3.451954245801139
10.021943791769445,-0.8486847603321076,3.270923080444336,0.2518639902770519,3.388604298262296
10.031971791759133,-1.0042107564210891,3.1237778985500335,0.49541228972375395,3.318412412523617
10.041999791748822,-1.0384912276268006,3.107843651175499,0.7058303383737803,3.3519177580272648
10.05202779173851,-1.016182930469513,3.0158944308757785,0.5774353498220444,3.2344518159325313
10.062055791728199,-1.006427435874939,2.815044912099838,0.30679353810846804,3.0052448013175406
10.072083791717887,-1.1423857247829439,2.6465351736545566,0.04504168689250946,2.8829190628834396
10.082111791707575,-1.373979903459549,2.5128339099884034,-0.2229193226248026,2.872603010981124
10.092139791697264,-1.473603009581566,2.3294014924764634,-0.42896986663341524,2.789557722915752
10.102167791686952,-1.5165139710903168,2.0546659719944,-0.496016453281045,2.6014417546640023
10.11219579167664,-1.5392684108018877,1.7634594297409059,-0.5305588066577912,2.400131048121504
10.122223791666329,-1.5180266457796097,1.5043786597251894,-0.48615220047533514,2.1917810135048756
10.132251791656017,-1.462979788184166,1.2319586366415025,-0.3818613351881504,1.9503461288557613
10.142279791645706,-1.3610177958011629,0.8483225253224373,-0.37750223591923715,1.6475826187420517
10.152307791635394,-1.365222528576851,0.37382886886596683,-0.4241166776418686,1.4776520334589451
10.162335791625082,-1.3952941739559175,-0.03406032353639603,-0.4347662115097046,1.4618575840981334
10.172363791614771,-1.4029703986644746,-0.3870163866877556,-0.3571607228368521,1.4985564403888643
10.18239179160446,-1.4470969963073732,-0.8150287717580795,-0.4152773686498404,1.7119628817319728
10.192419791594148,-1.4050672101974488,-1.3085270485281946,-0.48732858717441563,1.9808952657269294
10.202447791583836,-1.3926225811243058,-1.667031534612179,-0.4185004270076752,2.2121334494678133
10.212475791806355,-1.4379811871051789,-1.8419992303848267,-0.25209853671491145,2.350383954042512
10.222503791796044,-1.5475094765424728,-1.8744603404402733,-0.02494597613811493,2.4308454186964887
10.232531791785732,-1.628323844075203,-1.8601694530248643,0.2003881734609604,2.4802871517656357
10.24255979177542,-1.6343786358833314,-1.8588345336914063,0.42032300412654877,2.5106036678204653
10.252586791757494,-1.573676936030388,-1.805495647788048,0.535765752196312,2.454245011078163
10.262614791747183,-1.4985548329353333,-1.7574636948108675,0.6396292591094971,2.396553945773196
10.272642791736871,-1.5578140246868135,-1.7473459652066232,0.7499703115224838,2.4581411525378125
10.28267079172656,-1.855407480597496,-1.7168834334611893,0.6802206301689149,2.6178093415789516
10.292698791716248,-2.156594050526619,-1.6578771337866784,0.5021915880963207,2.766161759668846
10.302726791705936,-2.321834025979042,-1.665518859922886,0.3537974774837494,2.8792427775418212
10.312754791695625,-2.4073916548490524,-1.6521898394823076,0.21187561333179475,2.927483069302051
10.322782791685313,-2.418755133748055,-1.6838665455579758,0.09715031862258912,2.948766034240491
10.332810791675001,-2.3918240278959275,-1.7294271728396418,0.018227598443627358,2.9516220577711905
10.34283879166469,-2.3782842153310777,-1.6640564712882042,-0.02006007928401232,2.9027094507218583
10.352866791654378,-2.285998195409775,-1.5482810166478158,-0.06456722103059293,2.7617260512151374
10.362894791644067,-2.0805399012565613,-1.452421763241291,-0.07869475185871125,2.5385760030039886
10.372922791633755,-1.8175982147455216,-1.427314403951168,-0.18218052864074707,2.3182060786281293
10.382950791623443,-1.5844673877954485,-1.521141749918461,-0.3976568939164281,2.232160417983347
10.392978791613132,-1.310587314963341,-1.6334480515122414,-0.6599325460195542,2.195746481820661
10.40300679160282,-1.207509673833847,-1.7435265639424324,-0.954586679711938,2.3257687375701592
10.413034791592509,-1.1638947075605393,-1.874160378277302,-1.164383607879281,2.4945775594456716
10.423062791582197,-1.0420323014259338,-1.9491693377494812,-1.1653196740150453,2.4986120881570053
10.433090791804716,-0.912028232216835,-1.950936658680439,-0.9950785750150681,2.3723681655674316
10.443118791794404,-0.7597895407676697,-1.92886780500412,-0.7043573516607284,2.189504609330584
10.453146791784093,-0.5827685952186584,-1.9525013735890389,-0.3371995711326599,2.0653291263651568
10.463174791773781,-0.3367277008295059,-2.0422871240973475,-0.0869697679951787,2.0716867481124828
10.47320279176347,-0.07914908051490784,-2.2401843836903574,0.031187878847122194,2.241799128749827
10.483229791745543,0.2406404060125351,-2.62129479020834,-0.01726978797465563,2.6323739148829053
10.493257791735232,0.7573471587896348,-3.1450740426778796,-0.22285964448004963,3.2426427299335163
10.50328579172492,1.228070822954178,-3.8441937509179116,-0.4885179108381272,4.06505021986166
10.513313791714609,1.5205023568868639,-4.519854722321034,-0.6784383257478476,4.816772019727506
10.523341791704297,1.9050298762321474,-4.948523164987565,-0.6127531170845032,5.337835397073648
10.533369791693985,2.4024723923206333,-5.0859672313928606,-0.2556057697534561,5.630654543141147
10.543397791683674,3.1830482000112537,-4.783558593392373,0.2551930294185877,5.7514652169926865
10.553425791673362,4.085885778665543,-3.9132783114910126,0.8658878535032273,5.723458003194548
10.56345379166305,4.740056478381157,-2.692753320336342,1.3230816453695298,5.609777259636902
10.573481791652739,5.138309167027474,-1.213598964214325,1.5417002677917482,5.50017120257268
10.583509791642427,5.359794094562531,0.3460540097951889,1.6323443895578384,5.613527796308099
10.593537791632116,5.449233105182648,1.6559724032878878,1.6387084990739824,5.926360736574082
10.603565791621804,5.631784347295762,2.682425968050957,1.6795501309633256,6.460131008806136
10.613593791611493,5.799890627861023,3.3460393363237384,1.8389165782928467,6.94379757173956
10.623621791601181,5.811794974207879,3.671301231980324,2.030659058690071,7.167913906486897
10.63364979159087,5.745227347612381,3.697833557724953,2.1212324291467666,7.154106325380821
10.643677791813388,5.478791949748993,3.4869589877128604,1.954041822552681,6.7819115045030545
10.653705791803077,4.990346544384956,3.1027033638954165,1.4496294254064561,6.052417060017184
10.663733791792765,4.285837165117264,2.706603620052338,0.7685445036739111,5.126866881059833
10.673761791782454,3.6293100374937057,2.4731108504533768,0.20380514010787013,4.396556056962901
10.68378929165192,2.8579330694675447,2.317325237989426,-0.20562018893659115,3.685112935891823
10.693817291641608,2.106742444038391,2.248192437887192,-0.47224978744983676,3.117010238198204
10.703845291631296,1.5795071947574617,2.192370239496231,-0.6767801284790039,2.785563064736357
10.713873291620985,1.16499924659729,2.166891582012177,-0.8306934624910355,2.5966697905957994
10.723900291603059,0.8566679638624192,2.286776459813118,-0.9617897915840149,2.6245506626199506
10.733928291592747,0.6923600345849992,2.498258555531502,-1.0833289197832348,2.809672538965279
10.743956291582435,0.6515523165464402,2.664905371069908,-1.1977151490747928,2.993453296157722
10.753984291804954,0.6770414990186692,2.7299316716194153,-1.303414096981287,3.0999678113351057
10.764012291794643,0.6468435537815095,2.753148041367531,-1.3964725340902806,3.1541030831637538
10.774040291784331,0.5017647778987885,2.7128098547458652,-1.5506447535753252,3.164743963125103
10.78406829177402,0.28870334923267366,2.7090477561950683,-1.725960504859686,3.2250936472510685
10.794096291763708,0.13045781314373017,2.65523524582386,-1.9286650528013707,3.2843633077923724
10.804124291753396,-0.09829461872577668,2.5853937631845474,-2.0802482713758947,3.3198427091274065
10.814152291743085,-0.3151017737388611,2.5097769856452943,-2.193864203095436,3.3483294024202173
10.824180291732773,-0.4763422536849976,2.4062742519378664,-2.2446719755232336,3.324997743741222
10.834208291722462,-0.5988601326942444,2.1902099856734276,-2.268120918273926,3.2093653172840764
10.84423629171215,-0.6904064798355103,1.9340180325508118,-2.225287870913744,3.028034505428628
10.854264291701838,-0.7859277641773225,1.5873567894101144,-2.078421893566847,2.730791386219231
10.864292291691527,-1.0017525869607926,1.183938378095627,-1.8009443213045597,2.3766823046106698
10.874320291681215,-1.1963280433416368,0.7663223424553871,-1.527018201649189,2.085721771473814
10.884348291670904,-1.3355420619249345,0.3306156063079834,-1.273868993371725,1.875025730644514
10.894376291660592,-1.4804834282398225,-0.145026735663414,-1.088481413125992,1.8432731002406235
10.90440429165028,-1.664547929763794,-0.6447628220915794,-0.9261730854213238,2.011028466081792
10.914432291639969,-1.9461936897039414,-1.1681801319122316,-0.7494681087881327,2.3904010426136404
10.924460291629657,-2.3143653774261477,-1.5738353955745699,-0.5670045018196106,2.8556503738511028
10.934488291619346,-2.6233228969573976,-1.939227901697159,-0.41632058501243596,3.2887308655356424
10.944516291609034,-2.9416055560112,-2.3146796652674677,-0.2829923737049103,3.7537807452665395
10.954543291591108,-3.23526792883873,-2.6290230551362037,-0.11005336940288545,4.170231712977958
10.964571291813627,-3.490259156227112,-2.8911952480673793,0.19376262031495572,4.536349070905579
10.974599291803315,-3.6839575302600864,-3.1177096581459045,0.5053444433212281,4.8525281661884145
10.984627291793004,-3.8190247035026554,-3.272441309988499,0.8577829547971487,5.10192252105256
10.994655291782692,-3.9778953069448475,-3.3169681495428085,1.1993047146499158,5.316414259317722
11.00468329177238,-4.289119791984558,-3.3619569191336636,1.389884330034256,5.624151613086115
11.014711291762069,-4.569604294896126,-3.502339796125889,1.3464997440576554,5.9127598480073225
11.024739291751757,-4.654276070594788,-3.64507705450058,1.2843134361505508,6.049655649442762
11.034767291741446,-4.669097592830658,-3.7163701084256173,1.3773443913459777,6.124455623690052
11.044795291731134,-4.657977358102799,-3.6210075759887697,1.6657957255840303,6.1305239852185895
11.054823291720822,-4.464271967411041,-3.386440380513668,2.1072148990631105,5.986489562391232
11.06485129171051,-4.0748129063844685,-3.132316295206547,2.4504610759019854,5.693879615847583
11.0748792917002,-3.5196232885122303,-2.8941378593444824,2.4824389135837555,5.189054345601287
11.084907291689888,-2.970852743983269,-2.7316431516408923,2.197866622209549,4.595482349369032
11.094935291679576,-2.4790574687719347,-2.5116287988424304,1.7561129879951478,3.941819121072633
11.104963291669264,-2.113827515244484,-2.2911425757408144,1.3523547072708608,3.3980088759234546
11.114991291658953,-1.8447614550590516,-2.0997170144319535,1.0743365599215031,2.994353922092476
11.125019291648641,-1.4788333439826966,-1.9370349034667016,0.8815051817893982,2.5915446478972455
11.13504729163833,-0.9088648885488511,-1.798325207233429,0.7559233617782594,2.1520755250432586
11.145075291628018,-0.35641235232353213,-1.695982853472233,0.5446948159486056,1.8166122444489623
11.155103291617706,0.1329914116859436,-1.668609990477562,0.25638637304306033,1.693422566338929
11.165131291607395,0.4698840039968491,-1.73596786826849,0.006640244275331497,1.7984491957563862
11.175159291597083,0.8132933181524277,-1.8486916610598565,-0.15747260726988316,2.0258095915124925
11.185186291811988,1.2260517793893815,-2.084851930439472,-0.15510558128356935,2.4236064612363073
11.195214291801676,1.5588507360219956,-2.342321207821369,-0.08517529405653478,2.814913691132233
11.205242291791365,1.913176801800728,-2.574771711230278,-0.020516783371567728,3.207821032772881
11.215270291781053,2.2143522620201113,-2.8734261444211007,0.06443383142352105,3.6282344833800653
11.225298291770741,2.4211764657497405,-3.124032252430916,0.07466009996831417,3.953131306073233
11.23532629176043,2.624698746800423,-3.2405962041020393,0.23663849852979185,4.176901369254808
11.245354291750118,2.7852036470174792,-3.154340417683125,0.42038725040853026,4.228941743071766
11.255382291739807,3.0452924770116807,-2.879016082584858,0.43762425743043426,4.213556083051196
11.265410291729495,3.4229161888360977,-2.5883919230103496,0.23871601425111294,4.298035983837431
11.275438291719183,3.877995627522469,-2.4970344409346583,-0.13876751057803632,4.614465029479503
11.285466291708872,4.335587614774704,-2.704258594214916,-0.564357540383935,5.140898165025374
11.29549429169856,4.61842796087265,-3.1545824924111368,-0.9206564567238092,5.668233926233497
11.305522291688249,4.954131229519844,-3.709099972844124,-1.0098878180980684,6.2706229557356545
11.315550291677937,5.260706593394279,-4.200226911306381,-0.8399115979671479,6.783980502672756
11.325578291667625,5.251796021461487,-4.4338155752420425,-0.6051980028301478,6.8997352578868725
11.335606291657314,4.8526393532753,-4.258894364833832,-0.4036789413169027,6.469099364782723
11.345634291647002,4.112767767906189,-3.480800115466118,-0.11765599228441716,5.389310817634981
11.35566229163669,3.5066775530576706,-2.246204969286919,0.2885846507549286,4.174386820338902
11.365690291626379,3.0518296641111378,-0.9633995300531388,0.7189186728000642,3.2800376539539777
11.375718291616067,2.5544409424066545,0.2909457564353943,1.1155809187889099,2.8025593210130393
11.385746291605756,2.08670169711113,1.4131328594684602,1.5057141637802125,2.935718582263007
11.395774291595444,1.8127286535501481,2.188689417243004,1.6828391897678376,3.3027706967289943
11.405802291585132,1.6774971735477449,2.5369150829315186,1.5586759042739868,3.417514517866813
11.415830291807652,1.5015813517570495,2.6259190607070924,1.1104213356971742,3.2223024395765276
11.42585829179734,1.2490132105350495,2.6453727471828463,0.4703448011353612,2.962980797032585
11.435885291779414,0.8313489353656769,2.655898904800415,-0.17833719033747913,2.788681444394672
11.445913291769102,0.28072833180427553,2.7439983183145524,-0.6431831967830658,2.8323170358938965
11.45594129175879,-0.07863920331001283,2.7277763879299166,-0.9248359733819962,2.881365947689852
11.465969291748479,-0.2405550366640091,2.442193112969399,-1.048584691286087,2.668652053284415
11.475997291738167,-0.36564627528190613,2.172533560395241,-0.8971014600992203,2.378737122799261
11.486025291727856,-0.5021109330654144,2.018251851797104,-0.4659634459018708,2.1313324140788095
11.496053291717544,-0.754312453866005,1.9009841877222062,0.047311566872522234,2.0457190775830254
11.506081291707233,-1.1193436020612717,1.7989660620689394,0.5154414153099061,2.180570761192585
11.516109291696921,-1.519981369972229,1.780089495778084,0.868460043668747,2.4966547269278645
11.52613729168661,-1.9416837322711946,1.9209495055675507,1.1360105055570604,2.958158648186879
11.536165291676298,-2.2846843260526657,2.066655395328999,1.307720425128937,3.3467864740751825
11.546193291665986,-2.47778979241848,2.2076010668277743,1.4159933173656465,3.608044040819972
11.556221291655675,-2.535877202153206,2.412719930112362,1.370740545988083,3.7590983347044116
11.566249291645363,-2.4960851454734803,2.629827924370766,1.1732870900630952,3.810910463519491
11.576277291635051,-2.5133823788166048,2.8106270483136178,0.9185016846656799,3.8807680594943608
11.58630529162474,-2.536339716911316,2.905903626680374,0.5559807461500168,3.896974420909824
11.596333291614428,-2.520658069252968,2.984133232533932,0.21316024661064148,3.912058990140438
11.606361291604117,-2.4539822691679003,3.038806745409966,-0.07526419957168401,3.9066661123106887
11.616389291593805,-2.4255057442188264,2.9879967802762986,-0.2609530484676361,3.857369488094782
11.626417291583493,-2.4594581866264345,2.8725470155477524,-0.3877469962835312,3.8014219262564093
11.636445291806012,-2.489953755140305,2.651829242706299,-0.48044641435146335,3.669182033133917
11.6464732917957,-2.4247327423095704,2.282635461688042,-0.49041416287422185,3.3660450938351216
11.65650129178539,-2.282498636841774,1.7985462319850922,-0.43621924459934236,2.938512515734985
11.666529291775078,-2.1763143700361254,1.3416255050897599,-0.3014836084842682,2.5743340108303325
11.676557291764766,-2.1394359809160233,0.9722802811861039,-0.12658169388771057,2.353409906252822
11.68658445845358,-2.0829395985603334,0.5854583144187927,-0.026594306230545046,2.163817475272963
11.69661245844327,-1.9394354778528216,0.1744206887483597,0.136081089572981,1.9520119396041162
11.706640458432958,-1.7209887635707857,-0.19661818116903307,0.3115174305438996,1.7599727676972146
11.716668458422646,-1.403390813469887,-0.5422891983389855,0.5027693295478821,1.586303990003441
11.726696458412334,-1.1183279407024385,-0.8420157185196877,0.6605880188941956,1.5479096820863099
11.736724458402023,-0.9091227507591249,-1.0132642927765847,0.7469782912731171,1.5527991726547177
11.746752458391711,-0.801807632446289,-1.0458470249176026,0.862391803264618,1.5749320941920395
11.7567804583814,-0.703846305012703,-0.9077524557709694,1.0135575306415558,1.531898498582223
11.766808458371088,-0.6572229462862015,-0.7231573194265366,1.118256677761674,1.4850577453836151
11.776836458360776,-0.5971293568611146,-0.5823715692758561,1.1975518655776978,1.4594007620509233
11.786864458350465,-0.4970805734395981,-0.5171949952840805,1.2368825769424439,1.4298455401831767
11.796892458340153,-0.4258176326751709,-0.4984280642867089,1.2262125778198243,1.3904490201259523
11.806920458329841,-0.41106276869773867,-0.4553449022769928,1.1812767255306245,1.3310620880032038
11.81694845831953,-0.4628807938098908,-0.266343888938427,0.9845834076404572,1.1200902566551565
11.826976458309218,-0.4942546141147614,0.005058133900165558,0.5997804844379425,0.7772064319116876
11.837004458298907,-0.5255237692594529,0.12359376668930054,0.14140438556671142,0.5580733387993114
11.847032458288595,-0.5340577805042267,0.11872420549392701,-0.23925987839698792,0.5971251454241451
11.857060458278283,-0.5494651937484741,0.09791805803775788,-0.5159431064128877,0.7600639672329653
11.867088458267972,-0.5014572143554688,0.1268746393918991,-0.791221833229065,0.9452981018326089
11.87711645825766,-0.5831340461969375,0.16233975648880006,-0.9845354604721069,1.1557290276262333
11.88714445848018,-0.6273477673530579,0.19665297210216523,-1.125936337709427,1.303829072084987
11.897172458469868,-0.6466359776258469,0.22799901813268664,-1.2176504999399185,1.3974241946644324
11.907200458459556,-0.7206307375431061,0.290972361266613,-1.2553539311885835,1.476444061745524
11.917228458449244,-0.806047448515892,0.3651258730888367,-1.1950942808389664,1.4870372330751744
11.927255458431318,-0.8741675108671189,0.40196303933858873,-1.1241915285587312,1.479712713648547
11.937283458421007,-0.9622382730245591,0.43848445594310764,-1.1019294244050981,1.5272261026274923
11.947311458410695,-1.023377344608307,0.5740287619829179,-1.144793023467064,1.6393173199902613
11.957339458400384,-0.8569264107942581,0.706407385468483,-1.2198367738723757,1.649647241883098
11.967367458390072,-0.600388594865799,0.7015115118026733,-1.3261467558145523,1.6159362871085179
11.97739545837976,-0.24025332033634186,0.5830290886759758,-1.3629298353195192,1.5017397618026458
11.987423458369449,0.12598586261272432,0.35572150379419326,-1.2886959242820741,1.3428132450572208
11.997451458359137,0.36633390784263614,0.06034034192562104,-1.1710663175582887,1.2285104024868851
12.007479458348826,0.5866821366548538,-0.16395212620496752,-0.9675826281309128,1.1433688693583355
12.017507458338514,0.6775180470943452,-0.2951139441132546,-0.7351692545413971,1.0423995284781982
12.027535458328202,0.763074506521225,-0.3261220210790634,-0.5636692500114441,1.0031756070318736
12.03756345831789,0.9139969897270203,-0.2754053190350533,-0.39013499915599825,1.031234165720524
12.04759145830758,1.0894976592063905,-0.22150831639766694,-0.25997948706150054,1.141779495937063
12.057619458297268,1.430034821033478,-0.24880282670259476,-0.13524727662093938,1.457804603428331
12.067647458286956,1.8800037932395937,-0.46181192278862004,-0.014982909956015648,1.9359517045153098
12.077675458276644,2.3306299924850467,-0.7564648139476776,0.12373994708061219,2.453443855301208
12.087703458266333,2.9629742056131363,-1.1105163529515267,0.36194323360919956,3.1848807854701624
12.097731458256021,3.754356252551079,-1.5109982925653458,0.5702485370635987,4.086990348071297
12.10775945847854,4.654207658171654,-1.9169657975435257,0.7559245312213898,5.089973348774788
12.117787458468229,5.657827261090279,-2.240698353946209,1.0572689759731293,6.176532693774789
12.127815458457917,6.503273248672485,-2.4056284269690513,1.4181275510787965,7.077478140317321
12.137843458447605,6.937062975168229,-2.3098638984560966,1.7067578101158143,7.508084720701546
12.147871458437294,6.893172020316125,-1.9977351415157318,1.9338414466381073,7.4327995357100365
12.157899458426982,6.432395054697991,-1.6549175655841828,2.1438114523887637,6.9792826158549754
12.167926458409056,5.716532136797905,-1.3468067228794098,2.302687318325043,6.308327583901408
12.177954458398744,4.755793089866638,-1.0410944080352784,2.416457762718201,5.43513694391104
12.187982458388433,3.6323944437503815,-0.6093319112062454,2.541053742170334,4.474654052952111
12.198010458378121,2.634915001988411,-0.0810564422607422,2.646166799068451,3.735176828883437
12.20803845836781,1.9544569748640062,0.35158109039068225,2.5448380601406098,3.2279578810844303
12.218066458357498,1.5388824945688249,0.5360654219985008,2.1199325931072237,2.673881012324804
12.228094458347186,1.2838099908828735,0.5269537058472633,1.6225514727830888,2.135069456160014
12.238122458336875,0.9706763899326325,0.5073868757486344,1.1638976311683655,1.5982214463252395
12.248150458326563,0.5189181697368622,0.5862713697552682,0.8187907972186804,1.1328762313191036
12.258178458316252,0.1184780377149582,0.7230968007445335,0.5464234721660615,0.9140484886491423
12.26820645830594,-0.16797179460525513,0.8158298403024674,0.27837314642965794,0.8782280232172094
12.278234458295628,-0.3557820224761963,0.8959097975492478,0.1080262128263712,0.9700025131511749
12.288262458285317,-0.46174584925174716,0.9920657971501351,-0.034800361767411234,1.0948126964716351
12.298290458275005,-0.5946285027265549,1.1296823564171792,-0.13849137581884863,1.2841125900135442
12.308318458264694,-0.5956810015439987,1.321548797786236,-0.26578102134168147,1.4737593534346556
12.318346458254382,-0.5734656751155853,1.4601009115576744,-0.5071127144247294,1.6486117971185765
12.328374458476901,-0.638063959479332,1.6166083627939225,-0.88051181294024,1.9482939377232065
12.33840245846659,-0.720476371049881,1.807761736214161,-1.1707195776700974,2.2710510839039473
12.348430458456278,-0.852377861738205,2.0242189353704454,-1.411264089345932,2.610685091574826
12.358458458445966,-1.0316540783643724,2.19423462420702,-1.5961536329984665,2.902874806740547
12.368486458435655,-1.2361089903116227,2.324987429380417,-1.7310909980535507,3.151223258712118
12.378514458425343,-1.4506930339336397,2.327891449034214,-1.8378862988948823,3.3017290810809614
12.388542458415031,-1.6462999391555786,2.2607499182224275,-1.844771980047226,3.3502951124899036
12.39857045840472,-1.8825952792167664,2.2493960872292518,-1.7412154519557954,3.4111257661805947
12.408598458394408,-2.017894002199173,2.2223255252838134,-1.6528377109766008,3.426733056902119
12.418625458376482,-2.069365287423134,2.0732089546322823,-1.5576619970798493,3.317646599550063
12.42865345836617,-2.0955122816562652,1.8216213914752006,-1.4597211349010468,3.1369191905640625
12.438681458355859,-2.136305381655693,1.5582940810918808,-1.372564292550087,2.9792639802542817
12.448709458345547,-2.174630371928215,1.2629988732933999,-1.32420840382576,2.8421314721905127
12.458737458335236,-2.1710951453447342,0.9354358059167862,-1.2872820675373078,2.6918004009461374
12.468765458324924,-2.2224179112911226,0.5738781961798668,-1.254987895488739,2.6160030914166574
12.478793458314613,-2.277442549467087,0.1223442167043686,-1.1942481887340546,2.574478861785181
12.488821458304301,-2.336173152923584,-0.41549349635839466,-1.1090829080343247,2.619237435371394
12.49884945829399,-2.4548932653665543,-0.9058456787467003,-0.9787742719799281,2.7937531053290967
12.508877458283678,-2.5664347511529924,-1.381068775355816,-0.7448558250814676,3.0081137768286506
12.518905458273366,-2.7068000864982604,-1.7170565110445024,-0.49791851598769427,3.243913164520699
12.528933458263054,-2.855169675350189,-1.9889336201548578,-0.26059461414813995,3.4893782215954507
12.538961458252743,-2.937960401773453,-2.2074750593304637,-0.026097219809889795,3.6749474179689523
12.548989458475262,-2.9733179301023487,-2.4374489745497705,0.22357234697788955,3.8512026188367505
12.55901745846495,-3.0246787029504776,-2.635296825170517,0.4359683625027538,4.035286734042492
12.569045458454639,-3.086234096288681,-2.738333828151226,0.6681268340349198,4.179677800722166
12.579073458444327,-3.109918243288994,-2.738523277938366,0.901904947757721,4.240817581380016
12.589101458434016,-3.127523040175438,-2.6791208294034004,1.151264721751213,4.276037797414831
12.599129458423704,-3.008795911073685,-2.5806390997767448,1.4418877118825912,4.218007962470942
12.609157458413392,-2.8529617667198184,-2.466195056140423,1.7114297354221344,4.141316292748431
12.61918545840308,-2.679540367126465,-2.3248804253339768,1.9432654041051867,4.0449086518676065
12.629213458392769,-2.547744711041451,-2.1040065318346026,2.1020173090696335,3.916161815639224
12.639241458382457,-2.5024855077266692,-1.8246818241477014,2.1785860133171084,3.786572921941148
12.649269458372146,-2.4110122507810594,-1.4512412104010584,2.121503155231476,3.5241817152127366
12.659297458361834,-2.1560631233453753,-1.224135939180851,2.02260568857193,3.1996954168932286
