Time (s),Linear Acceleration x (m/s^2),Linear Acceleration y (m/s^2),Linear Acceleration z (m/s^2),Absolute acceleration (m/s^2)
0.0007523333188146353,0.7889288476109505,0.72311200350523,-2.294542731642723,2.531842420756185
0.010778333293274045,0.36772115975618364,0.6526097854971886,-3.5422017270326616,3.6205402163837777
0.020804333267733455,0.6483787402510643,-0.005310441255569458,-3.9397860789299015,3.9927856866260343
0.03082933323457837,0.15172384411096573,-0.8340190663933754,-4.111645687222481,4.198123174138024
0.040855333441868424,-0.5055723385512829,-0.9358310776948929,-3.567284528017044,3.7224860106275193
0.05088033340871334,-0.04518202006816864,-0.6034235921502114,-1.6162861812114717,1.725845435163899
0.06090633338317275,0.7851581244170666,-0.16261983811855316,0.4494298589229584,0.9191875163313198
0.07093233335763216,1.5102790850400925,0.21884841799736024,1.9107461142539979,2.4453605578536344
0.08095733332447708,2.5356438982486726,0.521453814804554,3.2357889157533646,4.143879096572713
0.09098333329893649,3.1120244103670123,0.3965353614091873,2.748844490647316,4.171100844780688
0.1010083332657814,3.166115248203278,0.08407682150602341,1.130728715658188,3.3630197895989067
0.11103433324024081,2.6226571914553642,-0.15557628214359284,-1.0429234170913697,2.8266984234926267
0.12105933343991637,1.9010148856043816,-0.42078639596700673,-2.7500782531499866,3.3695473263880453
0.13108533341437578,1.1540960897505284,-0.6336209526658059,-3.468128029704094,3.7096260359305466
0.1411113333888352,0.38685427263379096,-0.7149782341718675,-3.5421824312210086,3.634268355480277
0.1511363333556801,-0.02851818636059761,-0.6825120078027249,-2.8689141404628753,2.9491192368393726
0.16116233333013952,-0.15739235423505307,-0.6131710468232632,-2.0108288115262987,2.10812324001664
0.17118733329698443,-0.08701921351253987,-0.5954244549572468,-1.899314222931862,1.9923596920517987
0.18121333327144384,-0.0543467266112566,-0.2911226347088814,-2.0108399212360384,2.0325312159890085
0.19123833323828876,0.10474672883749009,0.28072716236114503,-1.8364420366287233,1.8607253883328805
0.2012643334455788,0.897303919941187,0.7319833990931511,-1.208316004872322,1.6736133331568535
0.21129033342003822,1.849478988647461,1.3911075675487519,-0.1268430644273758,2.317723442719853
0.22131533338688314,2.080932834148407,1.6502517798542977,-0.09399048328399659,2.6575264077892355
0.23134133336134255,0.49401144303381445,0.09337045915424824,-0.34546811878681183,0.6100111225126355
0.24136633332818747,-1.3738594508171083,-2.293643137514591,0.5788228940963746,2.735566591329366
0.2513923333026469,-2.658340702056885,-3.1990716174244884,0.677235626578331,4.214200113370291
0.2614173332694918,-3.3423114439845087,-2.007480403482914,0.4015838474035263,3.919476105993396
0.2714433332439512,1.1837749484181406,-2.569429987370968,-0.9267521059513093,2.9769385372205335
0.28146933345124125,2.14587844312191,-2.603387984633446,0.1403331756591797,3.376702043618847
0.29149433341808617,0.236403805911541,-3.1060506024956704,1.4904184323549272,3.4532280851713946
0.3015203333925456,-0.03976731564849615,-4.601624232530594,-0.1717257070541382,4.604999102635082
0.3115453333593905,-0.23529201267287136,-3.9293850517272952,-1.8299919730424883,4.341002169702926
0.3215713333338499,1.0020199508965015,-3.2681576398015024,-3.877349510192871,5.169017079172834
0.3315963333006948,2.170747236013413,-2.598860777914524,-5.8332747209072116,6.744873228995298
0.34162233327515423,2.8005996581912043,-1.6304074993729591,-7.643863878250122,8.302423865877318
0.35164833324961364,3.23722382247448,-0.5489295887947083,-8.635976160764695,9.239103096055738
0.3616733334492892,3.7538852593302727,0.8012077081203461,-8.653717782497406,9.46680620858378
0.3716993334237486,5.0366664326190955,1.587313520014286,-7.489218472838402,9.163840150187916
0.38172433339059353,6.329623222947121,0.8290268598496914,-5.1164183610677725,8.181023928842597
0.39175033336505294,5.541986902356148,-1.2675953695178033,-2.317709400057793,6.139396852283318
0.40177633333951235,2.038228571712971,-4.272912187278271,0.18155019879341128,4.737627543973904
0.41180133330635726,-0.8924745583534242,-6.464777519702912,0.6193131083250046,6.5554105853643865
0.4218273332808167,-2.06082235917449,-6.7461911451816565,2.5210410618782046,7.490909944664725
0.4318523332476616,-1.1606626591086389,-6.717142177820206,2.190851717591286,7.1600955366372725
0.44187833345495164,-0.134725476577878,-6.3986057496070865,1.777564668059349,6.642291972058812
0.45190333342179656,-0.45294133119285107,-5.954496272206307,-0.22574579358100894,5.975963760644896
0.46192933339625597,-1.3470259934663773,-5.106075806021691,-2.504175937771797,5.844432076021536
0.4719553333707154,-0.8488274323940278,-5.575318370461464,-4.342418332099915,7.117673771180239
0.4819803333375603,0.13149320885539056,-5.689170091152191,-5.253250808715821,7.744713735788377
0.4920063333120197,0.32343873381614685,-5.910021180510522,-5.743242217898369,8.247290109003426
0.5020313332788646,0.3162441734969616,-7.027970806360245,-5.218216046690941,8.759118833665033
0.512057333253324,0.42259844809770586,-7.27219321668148,-3.800653921365738,8.216346746521564
0.5220823334529996,0.47674366503953935,-6.94081220984459,-1.504150618314743,7.117908944139401
0.532108333427459,0.8621699745208026,-6.023084111809731,2.0273086041212083,6.4133345039257
0.5421345834620297,0.3298901130259037,-4.191652554273605,6.216873702406883,7.505218001770432
0.5521595834288746,-1.683382542282343,-3.270726906359196,9.197189580202103,9.905540240381697
0.562185583403334,-2.7919492873549463,-3.1246652135252955,9.899982801675797,10.750263856913161
0.5722105833701789,-3.9144959941506388,-2.3103521409630776,10.027486016750336,11.009608608828817
0.5822365833446383,-5.364625064134598,-2.20415354847908,9.668592106103898,11.274713666352183
0.5922615833114833,-5.9700545436143875,-1.5702352648973465,8.910052700042725,10.839567756990897
0.6022875832859427,-5.617673846483231,-0.28333677470684054,7.921400799751282,9.71530389661915
0.6123135832604021,-4.154784397780896,1.2939929169416429,7.232398821115494,8.440630531471657
0.6223385834600776,-1.2690548345446586,3.365898819565773,7.32100635766983,8.157015944919902
0.632364583434537,-0.7219431450963021,4.946971898674965,6.055777648687363,7.852781405423991
0.642389583401382,-2.690408586859703,5.796637821793556,4.323310800790787,7.715589717029427
0.6524155833758414,-3.221090185046196,6.53601941049099,4.695787208676339,8.668644024510654
0.6624405833426863,-2.4375878459215166,7.738041472434998,5.930784058570862,10.04954326748766
0.6724665833171457,-0.5619390588998795,7.626275453567505,8.818154350519182,11.67200492414152
0.6824925832916051,2.1802644565701486,7.592133561372758,13.669359966516495,15.78750920850118
0.69251758325845,2.1716020989418032,8.002371872663499,14.628416769504549,16.81500486014935
0.7025435832329094,0.33462124139070515,7.234144799709321,11.069099657535553,13.227614659748935
0.712568583432585,-1.9468515014648438,5.911620978713036,6.0885127007961275,8.70674912194395
0.7225945834070444,-3.8026978155970577,4.983541554808617,2.4331012773513794,6.724297653368702
0.7326205833815038,-4.645265511274338,4.165878612399101,1.125893653035164,6.340400050582295
0.7426455833483487,-4.190420838296413,3.489618886113167,0.9104448062181473,5.528650515045793
0.7526715833228081,-2.8681972718238833,2.789851598739624,1.2647515761852266,4.196358431134192
0.7626965832896531,-0.8376121804118157,2.0712451672554018,1.7362692922353746,2.8295373761116185
0.7727225832641125,0.6066983252763748,1.3047962325811386,2.3188595473766327,2.7290448268415917
0.782747583463788,-0.591233024597168,0.05388150751590729,2.1333870363235476,2.214452517662068
0.7927735834382474,-1.27372354388237,-0.46651074528694153,0.7413813364505768,1.5458493548032695
0.8027995834127069,-0.10840153098106385,-1.1107242214679718,0.37541697263717655,1.1774536472484738
0.8128245833795518,0.2720919942855835,-1.69939616560936,-0.3400471651554108,1.7543128157692778
0.8228505833540112,-0.36413477003574374,-1.382608639597893,-1.9658204537630082,2.4307716547369727
0.8328755833208561,-1.9187658628821374,-1.411792677640915,-4.159513918161393,4.793368026406973
0.8429015832953155,-4.5759181183576585,-2.1384764528274536,-6.557976289987565,8.277630167218781
0.8529265832621604,-7.196260689496994,-3.0116756647825245,-6.2613499635458,10.003042616476149
0.8629525832366198,-6.3405581009387975,-4.342319514155388,-1.9499967187643052,7.9284868037720075
0.8729785834439099,-3.265458857417107,-5.361975690722466,4.248961114883423,7.580743724277578
0.8830035834107548,1.1937950295209885,-4.002133185267448,10.557688143253326,11.353721660113033
0.8930295833852142,5.307797729372979,-1.344507012963295,12.192448017597199,13.365485569393067
0.9030545833520591,6.207061489820481,0.9343265891075134,8.77766179740429,10.791103981666401
0.9130805833265185,4.4394014203548435,1.206074767112732,2.4849812829494478,5.228578515382907
0.9231055832933635,2.7552717500925064,1.2037124919891358,-0.3389566594362259,3.0257788744726017
0.9331315832678229,1.1984780645370483,2.0341720658540727,0.13629859685897827,2.364906546183849
0.9431575832422823,-0.6923629581928253,2.3857891166210177,0.96998291015625,2.666875141595497
0.9531825834419578,-2.3675551593303683,2.7318647611141205,0.9805692940950395,3.745653300295023
0.9632085834164172,-3.8704918956756593,3.1705322349071503,0.7940027689933777,5.06590787166974
0.9732335833832622,-4.29739827990532,3.3698597234487537,2.761656909584999,6.119667917306778
0.9832595833577216,-3.185730902552605,3.190736703872681,5.8074528318643575,7.352291512939914
0.9932845833245665,-1.053348417878151,3.1041996663808824,6.515276997685433,7.293451365079121
1.003310583299026,1.5610995751619339,3.761334904432297,4.595910918116569,6.14060822021195
1.0133365832734853,3.2930173695087435,4.901187615394592,2.4029857778549197,6.374946594737609
1.0233615832403302,3.5351494002342227,4.9253342771530155,0.45249613881111145,6.079551939025915
1.0333875834476203,2.7649155628681186,4.789786462783813,-1.341860563158989,5.690993076767776
1.0434125834144652,2.393154854178429,4.313018531799317,-1.7599452531337738,5.2370532082221795
1.0534385833889246,2.434011104106903,3.857832673788071,-1.4626576066017152,4.790266200120029
1.0634635833557695,2.8210248595476153,3.7243933653831482,-0.2090695345401764,4.676857627570942
1.073489583330229,2.8341647225618365,3.5830386811494828,0.13293820202350617,4.5703750864436365
1.0835155833046883,2.2045803952217105,2.904681558609009,-1.029326886534691,3.789045198366255
1.0935405832715333,1.9793585121631623,2.8812137585878372,-2.19134814620018,4.12568291803958
1.1035665832459927,2.1618278932571413,2.524331290125847,-2.026131559610367,3.8924230755690177
1.1135915834456682,1.6527581888437273,2.437387871146202,-1.732329438328743,3.4166408280796783
1.1236175834201276,0.7732346284389496,2.5147646605968474,-1.1303696966171266,2.863506371537209
1.1336425833869725,0.1982065773010254,1.6241775834560395,-0.8329943418502808,1.8360605228153755
1.143668583361432,0.1774799519777298,0.9743788468837739,-0.4293306398391724,1.079461934907055
1.1536945833358914,0.5659584349393845,0.6607587575912476,0.17166898906230926,0.8867814429825659
1.1637195833027363,0.7693509078025819,0.7746262657642365,0.4788428154587746,1.1921564968010654
1.1737455832771957,0.588883028626442,1.54059046626091,0.4375374993681908,1.7063532077186214
1.1837705832440406,0.495133450627327,1.1901457822322845,-0.09461028814315796,1.2924996029082374
1.1937965834513307,0.8949204486608505,0.6524644821882248,-3.310195027291775,3.4905563494456984
1.2038215834181756,2.02797635614872,-0.8705855065584183,-3.221211222410202,3.9047162463755605
1.213847583392635,0.33516766369342804,-1.9516146433353425,3.108171972334385,3.6853588819098295
1.2238735833670944,-0.5509433698654175,-2.8411965841054916,5.826901840567589,6.506052696216142
1.2338985833339393,-2.143609138727188,-3.87702615916729,3.603526740074158,5.710673948399757
1.2439245833083987,-2.5533171075582506,-3.9799804240465164,2.3185367810726167,5.266430027326831
1.2539495832752436,-2.1175656402111054,-3.2548280346393588,3.832561007738114,5.45586965145902
1.263975583249703,-1.2939864850044251,-2.0269226878881454,5.032945264577866,5.577934621550039
1.2740005834493786,0.12022635519504547,-1.0066566467285156,4.461509158015251,4.575245998625663
1.284026583423838,0.5852150702476502,-0.349336051940918,3.5123189467191698,3.5778340849057115
1.2940525833982974,1.0236878317594529,-0.4226589667797089,2.6628743407130244,2.8840036639226874
1.3040775833651423,0.967426507472992,-0.47653521180152897,1.3210275185108185,1.705319195960384
1.3141035833396018,-0.43422943711280826,-1.3342346245050432,0.4072211480140686,1.4610155032282566
1.3241285833064467,-2.7200060230493546,-2.274979702234268,-1.2147824406623842,3.7482878476905084
1.334154583280906,-4.590853076577186,-2.838918508887291,-3.076188579797745,6.212755141585665
1.3441805832553655,-5.701084377765656,-3.087146261930466,-4.1212807291746145,7.6823036892341685
1.354205583455041,-4.956980577707291,-3.465488888919354,-4.846247761845589,7.750315287534062
1.3642315834295005,-2.707826857566834,-3.54903332144022,-3.900540152192116,5.928083778601326
1.3742565833963454,0.3540255188941956,-3.791231718063355,-0.7659653699398041,3.88400244027021
1.3842825833708048,2.2083699756860735,-4.2428034120798115,0.35132381290197373,4.796009504221169
1.3943075833376497,3.156491315960884,-3.7356551027297975,0.14987232327461245,4.892955976459565
1.4043335833121091,1.8267204558849335,-3.0332518905401233,-1.9149835914373399,4.025504541158529
1.4143595832865685,0.20588806450366975,-2.6965703827142717,-3.417927344441414,4.358452598792053
1.4243845832534134,0.23737064301967623,-2.28329502761364,-3.5623716974258426,4.23795624280306
1.4344105834607035,0.41827530920505523,-1.9033213198184968,-3.700015738606453,4.181830071476083
1.4444355834275484,0.6898901706933975,-2.3733181750774386,-5.2877797865867615,5.836882959183592
1.4544615834020078,-0.006954678297042847,-2.832809337973595,-6.054066753387452,6.6840542612498215
1.4644865833688527,-0.43200515627861025,-2.43060042321682,-3.7582952293753626,4.496579800641672
1.4745125833433121,-0.027850288152694705,-2.236587468981743,0.25243745595216754,2.250960642508871
1.484537583310157,0.5720886558294297,-1.8706061482429506,2.2741292247176172,2.999686070689365
1.4945635832846165,1.2858278650045396,-0.5340121722221375,1.9790307757258416,2.419728313214846
1.5045895832590759,2.1368263685703277,0.7929876923561097,1.3541098952293398,2.6511261791932377
1.5146145834587514,2.2714304423332217,1.6229870903491974,-0.33976825296878815,2.812281247585972
1.5246405834332108,1.6988424342870714,2.6104578530788425,-2.812503419816494,4.196514185096352
1.5346657084301114,0.9379197031259537,2.526866058111191,-3.878349384069443,4.722958753795981
1.5446917084045708,-0.247713782787323,1.6717248022556306,-3.734603773355484,4.099181781358379
1.5547177083790302,0.18608880758285523,0.6713866567611695,-3.264497867524624,3.338013692940364
1.5647427083458751,1.1076754832267761,0.6293521928787231,-1.3032905745506287,1.8225244800922258
1.5747687083203346,1.9826411390304566,0.8992386174201966,0.3751345521211624,2.209122429706176
1.5847937082871795,2.330403120517731,1.4534277766942978,0.5323609185218812,2.7976131172402607
1.5948197082616389,2.5108949732780457,2.001556296944618,1.1611237120628357,3.414532098455979
1.6048447084613144,2.1524056899547577,1.5267933762073518,1.5745861780643464,3.0729903839634036
1.6148707084357738,0.8196638596057892,1.464591865539551,2.2282165950536728,2.789592688874321
1.6248957084026188,-0.03496868848800659,0.921648656129837,2.833698699474335,2.9800180157044425
1.6349217083770782,-0.7076019716262818,-0.047537278532981876,3.4316443276405337,3.50416083171523
1.6449477083515376,-0.5444593924283981,-0.4330412828922272,3.3600334775447847,3.431295054773656
1.6549727083183825,-1.2403996771574022,-0.3815676587820053,2.548262774348259,2.8596902637260655
1.664998708292842,-1.0393887752294542,0.11226478636264801,3.4749669331312183,3.6288190358139136
1.6750237082596868,-1.6058605957031251,0.13997708022594452,5.243575420975685,5.485751090897299
1.6850497082341462,-1.4284449630975724,-0.6105481320619583,5.300571740269661,5.523521051639843
1.6950757084414363,-2.464792016744614,-0.060956638455390934,4.34476481974125,4.995587726828644
1.7051007084082812,-4.093597086668015,1.4619559407234193,3.4072169995307924,5.5230408257123145
1.7151267083827406,-4.335201698541641,3.3510644334554676,3.252407287359238,6.3719510173161265
1.7251517083495855,-5.459448775649071,4.825693629384041,3.087397107481957,7.913590894019087
1.735177708324045,-6.233852262496948,4.280844812393188,2.9972657865285877,8.134503582489028
1.7452027082908899,-4.61622122168541,1.9849338322877885,4.289033253192902,6.606456458124424
1.7552287082653493,-2.4712549442052842,-0.3803625476360321,5.797592087388039,6.31378259672026
1.7652537082321942,-1.0650446033477783,-0.9964199262857437,4.862283166050911,5.076314634011725
1.7752797084394842,-0.6324035623669625,-0.5989086645841599,2.8349307078123096,2.9657137374172864
1.7853057084139436,-0.0008180254697799683,-1.1415174132585526,1.4931319789588453,1.8794961507084083
1.7953307083807886,0.029768467247486115,-1.8827297651767732,-0.2979122753441334,1.9063864388223
1.805356708355248,-0.2482435405254364,-2.6684891295433046,-2.5308626300096515,3.6861531088497608
1.815381708322093,0.09613319545984268,-3.3432964074611666,-2.9068277791142467,4.431311340544955
1.8254077082965523,-0.004113223850727082,-3.7415602058172226,-1.9912464863061905,4.238437478787698
1.8354327082633972,-1.1907231947779655,-4.283774267435074,-1.6336638137698174,4.736813396930693
1.8454587082378566,-1.8270011222362519,-5.292379791140557,-0.6441538345813752,5.635791968918954
1.8554847084451467,-1.2930442062020302,-6.472138579487801,0.4461843618750572,6.615105561974719
1.8655097084119916,-0.8334092018008232,-6.94144078552723,-0.8478933396935463,7.0425204431456105
1.875535708386451,-0.9814627486467362,-6.537455486655236,-1.2830524840950968,6.734078782129182
1.885560708353296,-1.344543558061123,-5.983190898299218,-0.44569875061511993,6.148578541526012
1.8955867083277553,-0.9866582921147347,-5.167635877132416,0.33430812299251556,5.271595305514609
1.9056117082946002,-0.4742404720187187,-4.359084650874138,0.5837608677148819,4.423494067980907
1.9156377082690597,0.9465569177269936,-3.4227372640371323,-0.5541377037763596,3.5941854392715684
1.925663708243519,1.8836314058303834,-1.928632746934891,-1.0952320235967636,2.9098496062669685
1.9356887084431946,3.1458759883046152,-0.6865578424930573,-1.517816146016121,3.559727975279501
1.945714708417654,3.600890230536461,0.5302711236476898,-2.0545376256108283,4.179560117045583
1.955739708384499,0.7426250392198563,1.2885649466514588,-1.0560416454076766,1.8240382472553922
1.9657657083589584,0.24962114453315737,1.9668957567214966,-1.9233418938517572,2.762287760942429
1.9757907083258033,2.2014106196165084,1.7067923086881638,0.583654886931181,2.846050197764625
1.9858167083002627,-1.6167738389968873,0.631658919453621,-2.7843443986773493,3.2810858518844
1.995842708274722,1.6071440595388413,2.8989770150184633,0.6532800225913525,3.3784248622151276
2.005867708241567,5.16155243396759,4.505116522908211,8.610623803138733,11.003660331578608
2.015893708448857,3.9278185826539995,4.739018597602844,3.945093011856079,7.310938035496086
2.025918708415702,2.9822934061288837,4.1774572688341145,1.0960196435451508,5.248474278512913
2.0359447083901614,3.3295694839954377,3.5401037460565568,-1.2912435561418534,5.028486591696867
2.0459697083570063,4.491246927380562,4.619654121994972,-1.7962688876688482,6.68872821142985
2.0559957083314657,5.389080458879471,5.988311305046082,-0.8118877205997705,8.096988461723283
2.066021708305925,5.010356885790825,6.694326342344285,-0.20822402715682983,8.364271549052049
2.07604670827277,4.361628774404526,6.831406711935998,-0.06811655402183533,8.10534163959358
2.0860727082472295,3.5246793758869175,6.263687680363655,-0.12745643734931947,7.1884207725594225
2.096097708446905,2.4150602781772617,5.367498970627785,-0.22287356816232207,5.890011373020036
2.1061237084213644,1.4822288221120834,4.884540592432022,0.4614575815200806,5.1252982527613264
2.1161487083882093,1.3633210140466692,4.464447383880615,2.1785216939449312,5.151299972023411
2.1261747083626688,1.3097757214307786,3.858219174742699,4.009165046811104,5.716185092644711
2.136200708337128,-1.0686774784326554,2.7159369456768037,4.274520463943482,5.175897047128451
2.146225708303973,-3.3181697523593905,1.0255308741331102,3.255058414936066,4.759975773459262
2.1562517082784325,-4.264037575721741,-0.9660231757164002,3.614662177562714,5.672829971107062
2.1662767082452774,-3.8141411089897157,-2.785112430453301,2.869591248035431,5.526217293986216
2.1763027084525675,-3.282851400375366,-4.324130580425263,1.149433958530426,5.549451956593403
2.1863277084194124,-4.543150906562805,-5.608900099396706,-0.05340497771278024,7.218229185642371
2.196353708393872,-6.088015687465668,-6.302122013568878,-0.1854508763551712,8.764420626161117
2.206379708368331,-6.412953062653542,-5.281672954559326,-0.05722786903381348,8.308147279129988
2.216404708335176,-5.971159667372704,-0.1657369887828827,-0.00933566451072693,5.973466638170935
2.2264307083096355,-3.065456015467644,2.7615598458051682,0.9499526882171632,4.233868618011338
2.2364557082764804,-0.7368269401788712,3.2865468406677247,1.4024453186988832,3.6484458263234187
2.24648170825094,-0.660098022222519,2.632036417722702,1.6212960755825043,3.1610039651762323
2.2565067084506154,-0.4134987187385559,1.7931855046749117,0.481320573091507,1.9021474544986732
2.266532708425075,-0.9124983483552933,0.39192658603191377,-1.744861775636673,2.007685807258629
2.2765577083919197,-2.150215322971344,-1.2830030751228334,-4.009890686273575,4.727446048531805
2.286583708366379,-3.295574356913567,-2.1641509920358657,-5.66142388343811,6.898991248453614
2.2966097083408386,-3.3209571200609207,-2.597379385828972,-7.568720140457153,8.663755561635748
2.3066347083076835,-1.7436753755807877,-2.9199913233518604,-5.488184916973115,6.45654139820602
2.316660708282143,0.2770299679040909,-2.3356474882364275,-1.5545571255683899,2.8193337243181285
2.326685708248988,1.5223272728919983,-0.6927582299709321,-1.9552481031417848,2.573011744206154
2.336711708456278,1.8961783611774445,-0.9565237891674042,0.9768837940692902,2.3376766422574273
2.3467367084231228,2.676739550828934,0.039739431738853456,-0.3236188280582428,2.696524242665102
2.356762708397582,4.287207752466202,0.011671042442321778,-3.8027577495574953,5.730728839149308
2.3667887083720416,5.528476910591126,-1.7113367646932602,-4.296019506454468,7.207531760108122
2.3768137083388865,6.643801136612892,-2.612533614635468,-2.2352104496955874,7.480748036452463
2.386839708313346,7.538889985084534,-2.2999923366308215,-1.8085777151584626,8.08676575075204
2.396864708280191,7.155426658988,-1.8646373105049134,-2.5082263040542605,7.808213762713778
2.4068907082546502,6.282451395392418,-1.4199179685115815,-2.0625338391959667,6.763091631095845
2.416915708454326,5.587891053557396,-0.5090164947509765,-0.8184710276126862,5.67040730824486
2.426941708428785,5.004470493793487,0.4129742234945297,0.22292038243263962,5.026426775496133
2.4369677084032446,4.654354423284531,0.741562015414238,0.05670399505645037,4.71340054136171
2.4469927083700895,4.519280233383179,0.03506867587566376,-1.2959862327575684,4.701563990351801
2.457018708344549,5.211819777488709,-0.3668958252668381,-2.176676312685013,5.659999797687692
2.467043708311394,6.898601744771004,-0.11152102053165436,-5.17121495783329,8.62233188360879
2.4770697082858533,5.602451205253601,-0.867302879691124,-5.6171323943138125,7.980717394295933
2.487094708252698,-0.5880509698390961,-3.4563558304309847,4.904320553541184,6.028644927474952
2.4971207084599882,-5.323822608590127,-4.408349196910859,3.9331155753135683,7.952737135000388
2.5071467084344476,-5.156360691189766,-2.4964599519968034,-3.01813917696476,6.475301688809595
2.5171717084012926,-2.3582826447486878,-0.7953365188837052,-5.170831965208054,5.738602654236509
2.527197708375752,-2.7025146621465685,-0.09367531836032868,-0.1928049377538264,2.7110024545192406
2.537224958417937,-3.0300423538684846,0.6800633400678635,5.152884521484375,6.0162996687743515
2.5472509583923966,-1.4351669222116472,1.605454798936844,3.0469092321395874,3.731064871445851
2.5572759583592415,-0.5802814820408821,2.4677156245708467,-0.15123819630593063,2.539531451699805
2.567301958333701,-0.8131187787652016,3.077022977471352,-1.2701203434169293,3.4267241264841872
2.5773279583081603,-1.091615228354931,3.129775972366333,-0.6227400883287192,3.372673518381178
2.587352958275005,-0.856098445057869,3.027956067323685,0.9339137756824494,3.2823189110265116
2.5973789582494646,-0.749530893266201,2.870368927717209,2.8272129678726197,4.098041911312276
2.60740395844914,-1.0456716084480286,2.6196654635667804,3.999720039367676,4.894265690278594
2.6174299584235996,-1.5694768810272217,2.0704119390249254,3.903879497051239,4.689364392413211
2.6274549583904445,-2.251637617349625,1.231917706131935,3.084229670763016,4.012476274890632
2.637480958364904,-3.2357535400986674,0.3730529433488846,1.7128424227237702,3.680094922129667
2.647505958331749,-4.417755320370198,-0.3710286372900009,0.5098199021816254,4.462526263565173
2.6575319583062083,-5.265939851403236,-0.8079021853208542,0.053856510668992996,5.327825915266413
2.6675579582806677,-6.183662102222443,-1.1017148315906524,0.18307983040809633,6.283706771397847
2.6775829582475126,-6.863547102212906,-1.290929560661316,0.7782971477508546,7.027127749307075
2.6876089584548026,-7.558004533052445,-1.367209412455559,1.6857955420017243,7.863497994441232
2.6976339584216475,-7.474520326852799,-1.4820001959800722,2.716643289327622,8.08980404329236
2.707659958396107,-7.214109899997712,-0.9480453264713288,3.518126986026764,8.082041145657382
2.717684958362952,-7.398659720420838,-0.46626340806484223,4.127238457202911,8.484790186380136
2.7277109583374113,-7.660496283173561,-0.5069079887866974,3.6964331495761873,8.520785001565141
2.7377369583118707,-7.50264777302742,-0.871495333313942,1.988480168581009,7.810459724173811
2.7477619582787156,-6.873104376196862,-0.9052951633930206,1.3426530070602896,7.0612916804453905
2.757787958253175,-6.3676973676681525,-0.700595253109932,1.598852269202471,6.60263069190016
2.7678129584528506,-6.093047216534615,-0.4199043434858322,0.9742772515118122,6.184719896924347
2.77783895842731,-5.6913949567079545,0.12801601588726044,-0.8459855394065381,5.755350222744863
2.787863958394155,-5.203122044205666,0.3210039532184601,-0.6662889079749584,5.255422290717587
2.7978899583686143,-4.572482879161835,-0.15586104154586794,2.2585279762744905,5.1022388188043895
2.8079159583430737,-3.6868299749493603,-1.110727145075798,4.403708846569062,5.849707826921269
2.8179409583099186,-2.609844187796116,-1.5524614834785462,3.7763248264789584,4.845828364411901
2.827966958284378,-1.531552571207285,-0.9067598909139634,2.6596867311000825,3.200281282283136
2.837991958251223,0.0420283243060112,-0.4359531962871552,1.2650246411561967,1.338696721490466
2.848017958458513,1.3371507771313191,0.4686525803804398,1.0931463948637248,1.789574385848125
2.858042958425358,4.5245067670941355,-0.7755817008018494,2.5226081156730653,5.237961451305167
2.8680689583998173,8.310890851020813,-10.841523685455323,3.296298242211342,14.052584269858546
2.8780949583742768,9.686845943927766,-22.64448399066925,2.2929832792282108,24.735913402659826
2.8881199583411217,10.81979543209076,-28.675662403106692,-1.4786105650663377,30.684652135104358
2.898145958315581,7.167305862307549,-21.522908506393435,-2.861863567829132,22.86473544520729
2.908170958282426,2.757524389922619,-7.037570765018463,-2.692063348889351,8.023624374813044
2.9181969582568854,0.9306370691210032,0.7452457612752915,-2.8011308777332307,3.0443079333916696
2.928221958456561,0.1271003419160843,4.4215568876266484,-3.069084212779999,5.383827422249832
2.9382479584310204,0.06536916665732861,6.055266602039337,-3.3310078990459444,6.911305258287248
2.9482729583978653,0.6132122696936131,7.054398466944695,-3.471750964522362,7.886293285048205
2.9582989583723247,1.1444704033434392,7.886306396126748,-3.4569051763415337,8.686416664881765
2.968324958346784,1.3317985282838345,8.858695435523988,-2.749871261715889,9.37080381265788
2.978349958313629,1.1691232877969742,9.23411884009838,-2.3341219496726993,9.596036957571233
2.9883759582880884,0.8552712102234364,8.600429182648659,-2.5028012573719027,8.997937825007135
2.9984009582549334,1.1163654689490796,7.6030760407447815,-2.9460871544480325,8.229973673300112
3.0084269584622234,1.575252614468336,6.587593021988869,-4.025943339765072,7.879468408322005
3.0184519584290683,1.9707160350680353,5.902414537668228,-4.866431473195553,7.899643938093651
3.0284779584035277,2.6743404382467273,5.684153180122376,-5.1974286103248595,8.153217666305764
3.038503958377987,3.6028934866189957,5.819241403341294,-5.333382221460343,8.676945194391422
3.048528958344832,4.253189236521721,5.788833543062211,-4.9040814024209975,8.697713887713133
3.0585549583192915,4.512146045565605,5.444437803626061,-3.9234708854556084,8.086716807399881
3.0685799582861364,4.714966368377209,5.264302631020546,-2.5489088916778564,7.512704345571736
3.078605958260596,4.17181412100792,4.978411207795143,-0.8713947612047196,6.553467787667564
3.0886309584602714,2.580247921049595,4.074170882105827,1.3187848189473153,4.999574092796869
3.0986569584347308,0.452112707644701,2.474145222902298,4.2996588134765625,4.98125148900663
3.1086819584015757,-3.276825259923935,-0.5851811563968659,5.754186451435089,6.647607275385383
3.118707958376035,-9.418877990841866,-5.016560781598091,6.53510782957077,12.513543823631679
3.1287339583504945,-14.102858501672745,-9.072912858724594,7.327872158288956,18.300439230478588
3.1387589583173394,-13.416987122297288,-11.393836473226548,5.4910091221332555,18.43871563308761
3.148784958291799,-8.44314492881298,-10.636265366077424,4.896412779092789,14.435778307033592
3.1588099582586437,-3.9171427363157276,-6.49307511985302,4.937035140395165,9.048665520739624
3.168835958233103,-0.31437657281756404,-0.7188561075925828,3.4909029346704483,3.577986868652598
3.1788609584327787,2.309759379476309,4.067211526036263,1.5372932213544845,4.923461022189925
3.188886958407238,2.711427572965622,10.25080053806305,-0.9685412791371346,10.64747967192164
3.1989129583816975,2.5658693253993987,12.818219375610353,-3.755677723288536,13.601306868
3.2089379583485425,4.788856463134289,6.2265151762962345,-5.477869843840599,9.576517920998665
3.218963958323002,6.9994860953092575,0.521903173327446,-8.24684805214405,10.829390163619973
3.2289889582898468,6.473977528810502,-2.555761243700981,-14.040133080482484,15.670661680222883
3.239014958264306,6.825347242355347,-6.6811437946558,-11.906960052251817,15.264296415803646
3.249039958231151,7.632062442898751,-15.744697015285492,11.920893967151642,21.171952536587597
3.259065958438441,3.4316817498207093,-10.905137883424759,8.121218284964561,14.023289853689864
3.2690919584129006,0.5087361207604408,2.254484041929245,-7.810495491027832,8.145265529818296
3.2791169583797455,1.6020031875371934,-0.7327496767044068,-6.597924467325211,6.829051440582243
3.289142958354205,2.4728070876002315,-2.255643544793129,-5.6700198751688005,6.584210512921201
3.29916795832105,3.950667454898358,-1.7446436744928362,-4.91207688510418,6.54064631480068
3.309193958295509,4.585430076420307,-2.460808893442154,-5.760457005500793,7.763028681385063
3.319218958262354,4.725641922354699,-2.6836585611104966,-5.698515695929528,7.874439407836793
3.3292449582368135,4.286727696061135,-1.9361703926324845,-4.291777351498604,6.367428284976644
3.339269958436489,3.4412562730908394,-2.3253353387117386,-2.1564221423864365,4.679699309862034
3.3492959584109485,2.4787554600834847,-3.7472793674469,2.3315088289976122,5.061844002760332
3.359321958385408,1.4998501373827458,-3.286645073890686,5.486030802726746,6.568722877759696
3.369346958352253,0.8577754265069962,-1.8801277542114259,3.5339039433002473,4.093792390308575
3.3793729583267123,-1.2237648602575064,-0.9133596432209016,1.503505085706711,2.142977791254877
3.389397958293557,-2.5717165410518645,0.8512896949052811,-0.8448688673973084,2.8376440078468095
3.3994239582680166,-3.1315628814697267,2.6859986168146133,-2.3742876434326172,4.760096266241451
3.4094489582348615,-3.6112772244215012,3.318484917283058,-3.9696337759494784,6.309647981703854
3.4194749584421515,-1.7848853820562363,3.6958314710855484,-3.178548767566681,5.1911615614950835
3.4294999584089965,0.7074400037527084,4.261955966949463,-2.2477597439289094,4.870027093307914
3.439525958383456,2.495089657008648,5.289785381555557,-2.5129789209365847,6.365717935669315
3.4495519583579153,3.8762557885050777,7.162640953660012,-0.28469508290290835,8.149223009538751
3.45957695832476,3.703783684372902,9.064727341532707,2.038792974203825,10.002198365790413
3.4696029582992196,2.15892898991704,8.718599656820297,2.9752925348281862,9.461887762345079
3.4796279582660645,-0.1349827540665865,4.450808168649674,1.237610116750002,4.621643917384378
3.489653958240524,-1.47338724732399,0.32274291515350345,0.3166888542473316,1.5412088762602016
3.4996789584401995,-1.4423404325544835,-0.8132482945919037,1.695375912487507,2.369813958242491
3.509704958414659,-1.1176503945887089,-0.9191670978069306,4.300431523025036,4.537369484893483
3.5197309583891183,-1.096633747369051,-1.4359674060344696,6.1613900578022,6.420851611075111
3.5297559583559632,-1.470545208156109,-2.139124324321747,5.2395028352737425,5.847285356896604
3.539779333397746,-2.0597140194475654,-2.4202531903982165,2.3142687521874907,3.9313976147030765
3.549804333364591,-2.535901175737381,-2.3208171951770784,-0.09928411379456521,3.43901796473758
3.5598303333390504,-3.2268841910362247,-2.7822449558973315,0.1411205032467842,4.2630486243312165
3.5698553333058953,-4.292061233818531,-3.9656927525997165,1.4035387480258943,6.009861035005707
3.5798813332803547,-5.4283421730995185,-5.146965385079384,2.4205101755261422,7.862380106130825
3.5899063332471997,-6.954101761579514,-6.047240713834763,2.5529455170035362,9.562749728726175
3.5999323334544897,-8.507840861678124,-6.602672991156578,2.2300213381648066,10.997801685994292
3.609958333428949,-9.427457025647163,-6.469569897651673,2.2603236562013627,11.655099470266576
3.619983333395794,-9.229845110177994,-5.8576236963272095,3.180286560058594,11.384903105856457
3.6300093333702534,-8.709180961847306,-5.734236336350441,4.400310444831848,11.31786337601853
3.6400343333370984,-8.710898873806,-6.464721386432648,5.088438849449158,11.981844253638826
3.6500603333115578,-8.708739497065544,-7.002141900658608,5.1677528214454655,12.3116937928242
3.6600853332784027,-8.771919831633568,-6.700843064188957,5.162973892092705,12.18622889633731
3.670111333252862,-9.25195811033249,-5.6543499219417575,5.397161310911179,12.111967310520054
3.680137333460152,-9.041867651939393,-3.87332721054554,3.910104442834854,10.585223241340607
3.690162333426997,-8.035564177036285,-1.9687054699659348,0.3221476686000824,8.279485007603256
3.7001883334014565,-7.990609028935433,-1.5796726709604265,-2.415889413356781,8.495982583448079
3.7102133333683014,-8.382323945760728,-2.1786333757638934,-1.6377302598953247,8.814304199529472
3.720239333342761,-7.386935468316079,-3.373835245370865,3.4837102746963504,8.836617970354817
3.7302643333096057,-4.029847233295441,-5.727559985518456,7.244040627479554,10.075749933577423
3.740290333284065,1.4846384596824647,-8.889694449305535,4.5442688941955565,10.093621676124743
3.75031533325091,6.0966338986158375,-10.792788312435151,0.02700134553015232,12.395723194854304
3.7603413334582,8.630807222127915,-11.0054234790802,-3.3521005600690845,14.382168036295521
3.7703673334326595,9.32205570101738,-10.053834739923477,-4.292840375304222,14.366934048655088
3.7803923333995044,7.986260454654694,-8.500738833546638,-2.581233469247818,11.945948392175248
3.790418333373964,5.735260183811188,-7.0554082810878755,-0.33492865875363353,9.098580801163871
3.8004433333408087,4.278563813567162,-5.745263600349427,0.23560726895928383,7.167263977938365
3.810469333315268,3.9521292588114743,-4.39215825676918,-1.9356346414983274,6.217480301233594
3.820494333282113,3.467651481628418,-2.6002170395851136,-6.423886186480522,7.749325724722365
3.8305203332565725,2.260898583680391,-0.44043274819850925,-6.4305338859558105,6.830622919602548
3.8405463334638625,0.985907948166132,0.6345848661661149,-3.223551862835884,3.430160207193961
3.8505713334307075,1.3401167772710325,2.6662771278619766,-1.667556029856205,3.418433824427935
3.860597333405167,1.5916843137145043,4.092155748009682,-1.2889954479038717,4.576101712725625
3.870622333372012,1.5661375361680985,4.379392615556717,-0.9565954175591469,4.7483619550622445
3.880648333346471,1.587091618180275,4.616522353291511,-0.926966844946146,4.968944150880315
3.890673333313316,1.963438005745411,5.571521773338318,-1.5454190969467163,6.106166052311064
3.9006993332877755,2.451696884930134,6.256885029673577,-2.234046561419964,7.081694142556695
3.9107243332546204,2.91796964854002,6.783949540257455,-3.0389751452207565,7.985730283939573
3.9207503334619105,3.2866345489025117,7.375691272616387,-3.640030615031719,8.857347869726995
3.93077633343637,3.309634864032269,8.119985691905022,-4.184202324450016,9.715729497155275
3.940801333403215,3.4303140860795978,8.814029724597932,-4.511672713458538,10.478996392241879
3.950827333377674,3.753698440790177,8.844294328093529,-4.506978861093521,10.612476270912545
3.960852333344519,4.063912526965142,8.341310990452767,-4.36613171517849,10.254558021707215
3.9708783333189785,4.540621693432331,7.774182527661324,-3.704137733280659,9.735286112045012
3.9809033332858235,5.0421815264225005,7.218373104929924,-2.4765267938375475,9.146676433982307
3.990929333260283,4.09718961596489,6.179299494624138,-0.9786496531963349,7.47853328782683
4.000954333459958,1.0016455829143525,4.427392408847809,0.156831094622612,4.54199222896028
4.010980333434418,-3.46921531945467,2.0224454748630523,1.5042047050595284,4.288166557662637
4.021006333408877,-6.715007944107056,-0.6488795542716981,4.378589500486851,8.042662642380717
4.031031333375722,-7.992642105817795,-3.0157973670959475,6.557901445627213,10.769560481358274
4.041057333350182,-7.78554425239563,-4.522528361678123,5.518226741552353,10.560245662832713
4.0510823333170265,-5.771498302817345,-4.976258262991905,3.348536097407341,8.32382321743192
4.061108333291486,-3.4788851523399353,-3.9486165440082552,1.6174272653460504,5.505477769773642
4.071133333258331,-2.6257205477356913,-1.1345557183027268,-2.8030619207024574,4.004844716593515
4.08115933323279,-0.40802280128002166,2.7778186136484146,-9.010433020591737,9.437725471492902
4.09118533344008,4.004832260012627,6.755302276611329,-11.270337431430818,13.736567842715978
4.101210333406925,9.800389516353608,9.279855176210404,-8.019856801629066,15.699727700897514
4.111236333381385,16.357285240888597,8.978829404711723,0.37625838696956637,18.663379337742473
4.1212613333482295,19.15365648508072,4.3082963204383855,2.103234699368477,19.74455798780528
4.131287333322689,18.832064301967623,-8.740572908520699,11.589707672595978,23.777417533845835
4.141312333289534,5.880108579397202,-35.15370374679566,16.882268142700195,39.4381736603637
4.151338333263993,1.411956838220358,-47.6168848657608,-18.060292646884918,50.9463984686184
4.161363333463669,4.4756582504510884,-34.371617603302006,-10.008990104198457,36.07796413807733
4.171389333438128,-0.016937629580497743,-7.6986131125688555,2.4389941012859344,8.075742873966488
4.181415333412588,0.9352810008823872,7.079852566123009,-4.9319094711542135,8.678870545198306
4.191440333379433,3.82337503194809,10.423485188484193,-9.61186651289463,14.685204049354528
4.201466333353892,5.462233804464341,11.264123010635377,-6.170235140919686,13.956656728156588
4.211491333320737,5.665845547914505,9.532613936662674,-0.9722393506765367,11.131836487897314
4.221517333295196,5.718639473319054,6.664527177214623,1.0197813069820405,8.84074170167329
4.231542333262041,4.807893535494805,5.626850466728211,1.4154050874710085,7.535294153860952
4.241568333236501,3.1175541222095493,5.219356253743172,2.5411578226089477,6.589256899514569
4.251593333436176,1.7449374970793725,3.776361663937569,2.93942454457283,5.093714846632872
4.261619333410636,0.9001428893208504,2.6187310785055162,1.263047697544098,3.0435668497664055
4.271645333385095,-1.1820161790400745,1.6608688616752625,-2.0174273943901064,2.868041302846009
4.28167033335194,-3.5152443087100984,0.8616702568531037,-5.853956322669983,6.882457614049788
4.291696333326399,-5.83838226377964,0.6812175804376602,-6.362288693189622,8.66195602998552
4.301721333293244,-8.277807889580727,1.6495603466033937,-3.997953010797501,9.339527882630687
4.311747333267704,-9.139129067659379,3.060613936185837,3.336519484519959,10.199186244612502
4.321772333234549,-7.538025181889535,4.019485382437706,6.1540155494213105,10.52853236519461
4.331798333441839,-5.166547710299493,3.2210153406858444,2.9789353501796723,6.778068374417933
4.341824333416298,-3.0187192207574847,2.237573894262314,0.23916866183280946,3.76518317148818
4.351849333383143,-1.104679735377431,1.0540652865171434,-1.7378860473632813,2.3133566217974235
4.361875333357602,0.2271557765454054,-0.7444066858291626,-1.5986859159171583,1.7780713479714436
4.371900333324447,1.8974451604485514,-2.3774609273672107,-0.1467689135670662,3.0453505072580795
4.381926333298907,4.5659611871838575,-3.335220233201981,3.069029248952866,6.433555478719173
4.391951333265752,6.737837812900543,-3.538920854330063,7.258772102594376,10.517233079264098
4.401977333240211,3.9238474461436272,-2.49602491915226,9.038608413934709,10.16480010812255
4.412002333439887,-1.9895811992883683,-1.7146006804704668,7.707888550758362,8.14308508815568
4.422028333414346,-5.021125702857971,-1.871382658481598,4.879874806702137,7.247548172137446
4.432054333388805,-6.210448781847954,-2.2748089635372164,1.829006424844265,6.862193118432882
4.44207933335565,-7.121401126384735,-2.499636159539223,-0.47994413852691653,7.562597523936873
4.45210533333011,-8.082518488168716,-2.834661735892296,-1.0695538298785687,8.631706532518871
4.462130333296955,-9.157385829091073,-3.620815787315369,-0.4029693451523781,9.855475964236469
4.472156333271414,-9.525120145082473,-4.722461037039757,1.517960572242737,10.739355489204092
4.482181333238259,-9.342051424384117,-4.943638401031494,3.5871884500980378,11.161604115560957
4.492207333445549,-9.574450764656067,-4.082110231518746,4.252197841107845,11.243438880832473
4.502232333412394,-10.042436177730561,-3.1187563097476962,4.529807268083096,11.449730092424062
4.512258333386853,-10.53625575900078,-2.1460620456933976,5.429705743789673,12.045744982656132
4.522284333361313,-10.818665750026703,-1.217010814547539,5.582620958089829,12.234798759899173
4.532309333328158,-10.019374759197236,-0.16043297946453094,2.0437736324965954,10.226955557106272
4.542335625039414,-8.585796525478363,0.8453413224220276,-1.878286758363247,8.829409101120712
4.5523606250062585,-7.974000012874604,0.46276501893997196,-1.3208322215080261,8.095889415342365
4.562386624980718,-7.506910393238068,-1.701120509505272,-2.685310399532318,8.152202560155239
4.572411624947563,-6.380906227827072,-4.860766398310662,-0.9484265649318696,8.07728464376097
4.582437624922022,-4.559484226405621,-8.075084338188171,2.8211037969589237,9.693013469138975
4.592462625121698,-0.9075916573405266,-11.142023792266846,3.2082105231285096,11.630177623949994
4.602488625096157,3.1221360003948213,-13.3738311624527,0.44088356852531435,13.740504775580405
4.612514625070617,6.270932965278626,-14.068971548080444,-1.1622206497192384,15.447048828638726
4.6225396250374615,7.628350630402565,-12.741653594970703,-0.8192662489414215,14.873219787969504
4.632565625011921,7.279962996840477,-10.89070110797882,-0.35909037709236147,13.10473875197892
4.642590624978766,6.572087960243225,-9.424471437335015,-0.1847609779983759,11.491176556354375
4.652616624953225,6.350207760930061,-7.786865723133087,-0.248403754234314,10.050976112905605
4.66264162492007,6.9670907664299015,-5.686415467858315,-0.5655805586278438,9.010857672223487
4.67266762512736,7.080423839092255,-3.3431923270225528,-3.5052753907442096,8.578828139181095
4.682692625094205,4.406216717362404,-0.7694421243667603,-5.331049182415009,6.958941897188227
4.6927186250686646,3.313596644997597,1.8311427050828935,-3.462584284543991,5.130545415420143
4.702744625043124,2.6865336370468142,3.489917678833008,-1.7392776846885682,4.735195376377915
4.712769625009969,2.008907124102116,4.352545709609986,-0.6679246665537357,4.840091460675454
4.722795624984428,2.193060210943222,4.427629805803299,-1.0388625258207322,5.049025067635803
4.732820624951273,2.0935572651028633,4.615104403495788,-1.014876662492752,5.16837937050906
4.742846624925733,1.8958921399712563,5.615300461649895,-1.03829169139266,6.0169806312988365
4.752871625125408,1.1336251339316368,6.91503768324852,-1.6090194077789783,7.18970065855582
4.762897625099868,1.131561359167099,7.987236354947091,-1.4973639012873174,8.204783626167538
4.772923625074327,2.0241133931279185,8.965669661164284,-2.5627691316604615,9.541910349796483
4.782948625041172,3.3761422643065453,9.70695159494877,-3.537696447372437,10.869155533401248
4.792974625015631,4.8473116627335555,9.772300077080727,-4.27988645374775,11.71800781742179
4.802999624982476,5.748978921175003,9.311729518175126,-5.108905273675918,12.077250446652254
4.813025624956936,6.400349389314652,8.584928213953972,-5.6891759383678435,12.125682974651243
4.823050624923781,7.478266637921334,8.324797284007072,-5.522866507172584,12.479133631134314
4.83307662489824,8.493053253293038,8.074718887209892,-4.583209888637066,12.58327666206367
4.8431016250979155,7.643638175725937,7.139192449450493,-3.1588629466295246,10.925735147224412
4.853127625072375,4.701642610430718,5.479027007818222,-0.5922182804346084,7.244025309197933
4.863153625046834,0.2368759685754776,3.081500190496445,2.0862061455845833,3.728808084414252
4.873178625013679,-5.278427749872208,-0.3046106994152069,4.098709892034531,6.689843792487304
4.883204624988139,-10.443618321418763,-4.259754490256309,6.5306183373928075,13.033174894453909
4.893229624954984,-13.210235424041748,-8.271678838133813,8.017112703323365,17.527266953453612
4.903255624929443,-11.46972046852112,-11.947911611795426,8.20756704211235,18.48435111817716
4.913280625129119,-7.115806510448456,-13.342257367372513,8.373532657027244,17.28486572437427
4.923306625103578,-3.0314269745349884,-9.515022003650666,6.1823254287242895,11.745056021090136
4.933331625070423,0.09959270060062408,-2.377912332415581,3.0637550604343415,3.8795593611909163
4.943357625044882,2.1068626043200496,3.479917770624161,0.10758218988776208,4.069431367079329
4.953383625019342,2.2999595922231677,7.422630965709686,-4.109969875216485,8.790740409894873
4.963408624986187,3.4680020222067833,9.283994420170785,-8.928921664953233,13.339611408083215
4.973434624960646,7.42406353354454,7.730607907176018,-11.322127389907838,15.59068909952025
4.983459624927491,9.926561905145645,2.90270344555378,-14.246765495538712,17.604904022299895
4.99348562490195,14.952955949306489,-4.679517915844918,-3.0445756083726883,15.961147207569756
5.003510625101626,23.652483158111572,-23.308196761608126,37.33329548120499,49.9648571228774
5.013536625076085,8.731672276854516,-27.304321932792664,-10.462191417217255,30.51598837020467
5.02356162504293,6.729459922313691,-24.76025453567505,-14.97579283475876,29.709092994351995
5.03358762501739,3.367530192732811,-12.85909492135048,-3.466014845967293,13.737170039994936
5.043613624991849,5.415922687053681,-1.0671817606687546,-6.558395535349846,8.572260347221357
5.053638624958694,5.921053122282029,3.5995278292894364,-8.004463421702386,10.587110339468762
5.063664624933153,4.559071120619774,6.0477961993217475,-5.562879588603973,9.397159021146047
5.073689624899998,3.965046635270119,7.165282725691796,-3.346076173782349,8.846417191141173
5.083715625107288,3.5864090162515643,7.534910954833031,-1.6213416838645935,8.500938864910758
5.093740625074133,3.0585527926683427,7.466603781580925,0.0402218453027308,8.068862064349437
5.103766625048593,2.553754479289055,6.380147843956948,1.9715782070159913,7.149480336193519
5.113791625015438,1.768545045554638,3.85292218208313,2.5271876549720766,4.93552817465237
5.123817624989897,0.3079960180073977,0.7182743096351624,1.5040020990371705,1.6949341712581338
5.133843624964356,-3.275957533121109,-2.5256556844711304,-0.2806757068634033,4.146035847377293
5.143868624931201,-8.282169327735902,-4.162650364637375,-2.328522655963898,9.557405745851861
5.153894624905661,-10.867679450511933,-2.7262280452251435,-3.841542330980301,11.844670678172736
5.163919625105336,-10.62980536222458,0.9537937241792679,-4.579803593158722,11.613659434432014
5.173945625079796,-7.846355295181275,4.730195149183274,-2.5470260882377627,9.509331178465706
5.183970625046641,-4.815918838977814,7.100954582691193,0.56325643658638,8.598481730074239
5.1939966250211,-1.9451072770357134,7.274983507990838,2.3386912563443185,7.885322070354345
5.204021624987945,-0.6275831177830696,6.172966375350953,1.3407899379730226,6.347999062595197
5.214047624962404,0.30103132635354996,4.236126476526261,-0.5998364715278149,4.28896154997313
5.224073624936864,1.054204888790846,2.146382473111153,-1.7717306086421014,2.9761275204581845
5.234098624903709,1.8801637145876886,0.4270361924171448,-1.6330312912166118,2.526690859875601
5.244124625110999,3.084999749064446,-0.8598453408479692,-0.9068259644508362,3.32849677658066
5.254149625077844,4.45413114130497,-2.108700676560402,1.021489863395691,5.032826671790829
5.264175625052303,5.58407223701477,-2.687911241054535,4.168954540193081,7.469063632489884
5.274200625019148,4.437044407725335,-1.9124125707149506,7.781047743558884,9.15911507211794
5.284226624993607,0.5748598705977201,-1.6866135674715044,9.451972646713257,9.618467451263648
5.294251624960452,-3.36062696993351,-2.655172680616379,7.229879840612412,8.403268298979262
5.304277624934912,-5.893008706569672,-3.424711284041405,3.976436426639557,7.891023105393398
5.314303624909371,-8.107942181825639,-3.151843364238739,0.6141193190217018,8.720664284016381
5.324328625109047,-10.126796296834947,-2.188385362029076,-2.9364822256565097,10.768656443211926
5.334354625083506,-11.83187010884285,-1.9216763144731523,-4.49270112991333,12.801185631528844
5.344379625050351,-12.574682843685151,-2.819302269816399,-3.2890538343787195,13.29996199367889
5.35440562502481,-11.827760685682298,-4.597897801995278,-0.15356396287679672,12.690948306807464
5.364430624991655,-10.736603586673738,-5.939989914894104,3.149819350540638,12.668050312003789
5.374456624966115,-10.536467428207398,-6.116153658628464,4.9865499472618104,13.163972113999883
5.38448162493296,-11.41001338005066,-5.343040652275086,4.644445731639863,13.427857792624518
5.394507624907419,-11.90165662765503,-4.112585919499398,3.6580040788650514,13.11273378319193
5.404533625114709,-10.948547612428666,-2.8645743370056156,3.7110570359230044,11.910013655648017
5.414558625081554,-9.492200905680656,-2.0607347971200944,4.191895798444748,10.579248381755908
5.4245846250560135,-7.350689747929573,-1.620085701942444,1.3804761600494386,7.652648683979954
5.434609625022858,-6.320382868051529,-2.0930979663133624,-2.384148387908936,7.071948969761673
5.444635624997318,-6.567645830512047,-3.7151717215776445,-1.4709337556362152,7.687660163490745
5.454660624964163,-6.007905324697495,-6.067414192557335,4.1442433297634125,9.491216684433203
5.464686624938622,-3.492382572591305,-9.21369685471058,7.501849043369294,12.384130362417213
5.474711624905467,2.5720574337244035,-11.801379218101502,3.647815890312195,12.617233914825752
5.484737625112757,8.493418704271317,-11.89124507546425,-1.8289728033542634,14.727016406802438
5.4947636250872165,10.912452750205993,-10.635832672119141,-3.3987040382623674,15.612615117093494
5.504788625054061,10.707130111455918,-9.397677741050721,-1.5466212844848635,14.330073954655914
5.514814625028521,8.54345917582512,-8.129235402345659,1.251499446630478,11.859233271196617
5.524839624995366,5.68558574795723,-6.491216874718666,1.9145082128047943,8.838954887819245
5.534865624969825,4.486494895219803,-4.5243708193302155,0.21608487769961357,6.375363552771761
5.544890333432704,3.999958021044731,-2.400843358039856,-4.653518271446228,6.589305373303628
5.554916333407164,3.1041090345382694,0.09854371011257172,-6.051753010153771,6.802126010080237
5.5649413333740085,3.8928990107774735,2.5094068568944934,-4.58406621336937,6.5165518896189205
5.574967333348468,4.345817903280258,4.3344789826869965,-3.297986918091774,6.9678231185737625
5.584993333322927,3.6094982090592387,5.939812744259835,-2.4714905869960786,7.376863729233693
5.595018333289772,1.833250041604042,7.3790054744482045,-1.7268542517721654,7.796957939725044
5.605044333264232,-0.218614237010479,8.204547539949418,-1.1379735620319844,8.285974676994705
5.615069333231077,-1.980682906508446,8.583671062588692,-0.7096198457479477,8.837764084446732
5.625095333438367,-2.26910880535841,8.756152814626693,-1.3560938555002213,9.14647787011894
5.635120333405212,-0.6107621401548385,9.02030429005623,-2.8887291848659515,9.491242077860495
5.645146333379671,1.8247756719589234,9.651617054343225,-4.381908380091191,10.755679386639207
5.655171333346516,4.244799943864345,10.010620307922364,-5.599167408943177,12.230352455517783
5.665197333320975,5.833374123573304,9.19848766207695,-6.57444672703743,12.722569657958633
5.675223333295435,7.0978707611560825,8.682262719869614,-6.741035070419312,13.084456775102863
5.68524833326228,8.833237828016282,9.10754942536354,-6.039858604073525,14.051812659544623
5.695274333236739,10.101240456104279,9.31408594608307,-4.722691709697247,14.528973561401475
5.705299333436415,8.996763399839402,8.189574574828148,-2.8816099074482917,12.502582095233993
5.715325333410874,3.5284844514727594,5.518022673726082,-0.07918708741664887,6.5501944510719445
5.725350333377719,-3.4986382162570955,2.1313030886650086,2.5893067198991777,4.846383343661815
5.735376333352178,-8.578854711055756,-1.457089303135872,4.153511751294136,9.642173886570134
5.745401333319023,-12.028944665193558,-5.446785460710526,5.992958672046662,14.500983941035017
5.755427333293483,-12.553500720262528,-9.861392347812654,7.295820060968399,17.551821265417406
5.765453333267942,-8.999929082393647,-13.88392588376999,7.700411131381989,18.24988912367538
5.775478333234787,-4.326836379468441,-14.214923897981645,6.390134303569794,16.174652728814944
5.785504333442077,-0.3656883752346039,-8.525676038861276,2.624267807006836,8.927914730231661
5.795529333408922,2.2436611381173135,-1.2501212579011918,-2.0022296038269998,3.256645797226889
5.805555333383381,4.429648557007313,4.3702095633745195,-5.349694783687592,8.206080199767811
5.815580333350226,8.542502571344375,8.668754482269287,-4.035575165748597,12.822149639342692
5.825606333324686,13.852218772172929,10.86202870130539,-3.717481079399586,17.99131173638587
5.835631333291531,15.54549991965294,9.60257938027382,-3.707871472835541,18.644581233308973
5.84565733326599,13.6084050822258,5.111963367462159,-4.581663007736206,15.241800886663047
5.855683333240449,12.07443015575409,-5.226366480588913,9.864917049407959,16.444554070187095
5.865708333440125,-0.7505284282565118,-23.882790949344635,8.030373603701593,25.20789353886489
5.875734333414584,-1.6580548891425133,-31.526977593898774,-17.964240435361862,36.32373048904937
5.885759333381429,6.0254633438587195,-32.814408180713656,1.7157670538127423,33.40711674690921
5.895785333355889,5.5844406116008765,-18.74266271352768,1.786749328225851,19.638377114707655
5.905810333322734,6.342472479343415,-3.300749727487564,-9.565313320755958,11.942241198324927
5.915836333297193,4.859800438284874,3.55738636136055,-10.139888212680818,11.793641973097678
5.925861333264038,3.9568225264549257,7.951271300911904,-6.450648892521858,10.976795112470667
5.935887333238497,3.7629154068231583,9.981591221094131,-1.5097288620471956,10.773624130292871
5.945912333438173,4.314835846424103,10.529967663288117,2.5437493085861207,11.660561217900801
5.955938333412632,4.658819357156754,9.479404274225235,2.963371231555939,10.970199280452087
5.965964333387092,4.299124377965927,6.453446200489998,1.154574830532074,7.839801102013869
5.975989333353937,4.283036348819733,3.678514941930771,-0.2092086800001562,5.649746969122282
5.986015333328396,3.9817065221071246,1.0569228208065033,-0.31796340107917787,4.131848666366888
5.996040333295241,2.2442461520433428,-2.0409706234931946,-0.13664241313934328,3.0365890446341424
6.0060663332697,-2.5058236831426624,-4.422980099916458,-1.9176434898376467,5.433163153207564
6.016091333236545,-8.647326191067696,-5.333001567721367,-4.369668695926666,11.059437620792721
6.026117333443835,-10.074902257919312,-3.1225078833103184,-4.969794166088104,11.659869855244787
6.036143333418295,-7.849843744039536,0.7165049421787262,-4.081202158927917,8.876352696915612
6.04616833338514,-4.986797869205475,4.122637283205986,0.35846121668815617,6.48018407154163
6.056194333359599,-2.765854040980339,6.706158183217049,4.663584837913514,8.623892954736455
6.066219333326444,-1.7096187065541746,7.13821245610714,2.689720369577408,7.817382481166105
6.076245333300903,-0.6142745625972749,6.408760024309158,0.9819192700088024,6.512580421019906
6.086270333267748,-0.696656568646431,4.615217839479446,-0.05594864442944527,4.667836365094757
6.096296333242208,-0.9668423706293107,3.2276735651493076,-0.8165158648788929,3.4668947157949104
6.106321333441883,-0.11613798201084137,2.548386150598526,-0.44053975224494935,2.5887903114651767
6.116347333416343,0.601878319233656,1.7159051942825319,0.945469335615635,2.049512237464996
6.126372333383188,0.0829426626674831,0.21621658623218537,2.2617329813539984,2.2735578234117377
6.136398333357647,-0.9516967664659024,-1.2105630898475648,3.296867176294327,3.638752933070596
6.1464243333321065,-1.8403868606686593,-2.273459426164627,5.210407090187073,5.975281048185964
6.156449333298951,-2.942046436071396,-3.0149816805124283,7.49570011138916,8.59832960089955
6.166475333273411,-4.281095073223114,-3.679465699195862,8.132825008034706,9.899953811450274
6.176500333240256,-5.188613932728767,-3.9911082601547245,6.395754647254944,9.151848840265314
6.186526333447546,-6.466559751033783,-3.492333163619042,2.9494539812207226,7.919094943662581
6.196551333414391,-8.393202105760574,-2.3531470352411272,-1.0016271641850472,8.774189394675798
6.20657733338885,-10.23444119811058,-1.2963616240024567,-4.3589440253376965,11.199318421841422
6.216602333355695,-11.911689280271531,-1.1662645840644836,-5.026687574386597,12.981375218376188
6.226628333330154,-12.456507107019425,-2.234045684337616,-1.3067337074875833,12.722542293473314
6.236653333296999,-11.350976382493974,-4.125684852004051,3.6531754481792453,12.617909144908728
6.246679333271459,-9.90020616531372,-5.495360035300255,6.277885304689407,12.947003820657745
6.256705333245918,-9.948402425050736,-4.970023376941681,6.295607045888901,12.779143604105407
6.266730333445594,-11.449724160432815,-2.8771709936857226,5.3363888597488405,12.955745533907223
6.276756333420053,-11.550358250141144,-0.5833731973171234,3.63421643614769,12.122649425712089
6.286781333386898,-9.429407072067262,1.381752607226372,2.3360363280773164,9.812238466549106
6.2968073333613575,-8.651493501663209,2.1068184578418734,-0.12187709726393224,8.90516018106701
6.306832333328202,-8.121035851836204,1.38120296895504,-0.8524668125063182,8.28164504278491
6.316858333302662,-6.510745990276337,-0.195068376660347,-1.4087404310703278,6.664263997142109
6.326883333269507,-4.740258792042733,-3.5664290803670884,0.31588179230690006,5.940475663407559
6.336909333243966,-2.3486869253218177,-8.278713623285293,0.9056652921438217,8.652956671042629
6.346935333451256,0.43727583646774293,-11.238898122310639,-1.8179554796218873,11.393375412349206
6.356960333418101,2.60927846968174,-13.954637432098389,-3.6350695449113846,14.654486363909465
6.3669863333925605,5.0449700635671615,-16.390006259679794,-2.397822686433792,17.315703328776692
6.377011333359405,6.813753967881203,-16.47151293754578,-0.1831499969959259,17.82614724240643
6.387037333333865,6.136324798464775,-14.235156433582306,0.28847764670848847,15.504108490121705
6.39706233330071,4.445557368993759,-11.303390572071075,-0.04361094631254673,12.14625541722379
6.407088333275169,4.53013325035572,-8.298213502764701,-3.4500911235809326,10.06407389502168
6.417113333242014,3.9061119639873505,-4.739260672330857,-4.254221270084381,7.4710575563534105
6.427139333449304,5.069442415237427,-1.4014998239278793,-2.5457958340644837,5.843331634146588
6.437164333416149,6.543513786792755,1.177963108420372,-1.2093212143331766,6.757782740084393
6.447190333390608,6.015212005376816,3.4656540727615357,-0.9904025566577912,7.012448277592662
6.457216333365068,4.809772538244725,4.84461521923542,-2.2459952004253867,7.186703203307789
6.467241333331913,3.3672419250011445,6.127170397639275,-2.9212554913759234,7.577220394649111
6.477267333306372,1.9739094918966293,7.791635881662369,-2.1824258798360825,8.328798899936679
6.487292333273217,0.9462253805994988,9.019213784337044,-1.2664056073129177,9.156710267377669
6.4973183332476765,1.305111982226372,9.675401188731193,-1.3913367784023285,9.861669406342255
6.507343333447352,2.4333945152163508,10.275548293590546,-2.5663292089104655,10.867122305794833
6.5173693334218115,3.8800862994790077,11.033465555906297,-3.530743230879307,12.217142858589131
6.527394333388656,5.767625691890717,11.387601002454758,-4.42936292052269,13.511558703368305
6.537420333363116,7.583170949220658,10.368107378482819,-5.63306137919426,14.026172420108914
6.5474459999240935,8.919498876929284,9.554486616253854,-6.32564770102501,14.521001809558449
6.557471000123769,10.563610203266144,9.613111969828607,-5.511576118469239,15.309449813128198
6.5674970000982285,12.07642054796219,9.582073194980621,-4.10818735152483,15.954098635787549
6.577522000065073,10.799619029760361,8.01149528324604,-2.9718187040090562,13.77125754137703
6.587548000039533,5.925542614459991,5.483046968579292,-1.100268522799015,8.14778805306632
6.597573000006378,1.0587427666783333,3.154841231703758,0.9117972671985627,3.450410656678788
6.607598999980837,-3.1894000303745274,0.17118834793567658,1.9305199357867242,3.7320885877336782
6.617623999947682,-7.41102073431015,-4.143929334282875,4.660482305288315,9.685838836663066
6.627649999922141,-11.71131104707718,-9.393047915697098,8.365964605808259,17.18643416691229
6.637675000121817,-13.315864205360413,-14.553099954128266,8.092518396377564,21.321205683688625
6.647701000096276,-10.888646396398546,-17.55086333870888,8.483196017146112,22.328458051221588
6.657727000070736,-6.2648185318708425,-14.252588152885437,7.007259968519211,17.072958518061668
6.667752000037581,-2.5072132739424706,-4.792650429010392,3.403024253547192,6.390320070697339
6.67777800001204,0.4591797986626625,2.776867856383324,-0.2690008637309075,2.8274021015771305
6.687802999978885,1.5015015372633935,7.599534382224084,-4.82119653582573,9.124218636687107
6.6978289999533445,4.038343237638474,9.6495412927866,-6.615323442220689,12.376767248008207
6.707853999920189,7.51187117099762,7.731899557113648,-8.348076803684235,13.634546768087679
6.717880000127479,8.845911083221436,2.7173572343587877,-10.749218369722367,14.183788943415601
6.727905000094324,15.151892259120942,-6.758594259023667,9.95505304813385,19.34842413689745
6.737931000068784,10.943917787075044,-22.53395758152008,24.15604069232941,34.80032877352566
6.747957000043243,2.248170072287321,-25.350196495056153,-13.394720925092697,28.75943809730993
6.757982000010088,6.464372307658196,-25.634022681713105,-12.43003208398819,29.212958182758143
6.7680079999845475,3.695486485362053,-14.33407261133194,-1.7730903786420824,14.908591733670326
6.778032999951392,6.098461153507233,-1.2113127028942108,-5.555617931485177,8.338069171317139
6.788058999925852,6.248045793771744,4.134557417035103,-6.3870042890310295,9.84512392323883
6.798084000125527,5.26114571928978,7.442693347334862,-3.8398565787076953,9.890290040595804
6.808110000099987,5.140357446670532,8.930593968629838,-1.7443554067611695,10.450911878738896
6.818135000066832,5.193688731193543,8.989816322922707,0.16244268575683238,10.383524824575238
6.828161000041291,4.465760083794594,8.226497987508774,2.1380566227436066,9.601539896628916
6.838186000008136,3.4737624067068102,5.793027750849724,2.2662369453907014,7.124747411173134
6.848211999982595,2.580332413315773,2.768926168084145,0.4776017439365387,3.8148618472128675
6.85823699994944,0.08874501921236516,0.15976522743701935,-1.4651537829637529,1.4765081151371982
6.8682629999239,-3.894993483424187,-2.2972897535562518,-3.9807417315244678,6.024518170012589
6.878288999898359,-8.140537485480309,-3.376064203977585,-6.505619151592255,10.9539600422611
6.888314000098035,-10.190085389614106,-1.5517639106512071,-6.659873378276825,12.271907956658849
6.898340000072494,-8.870678134560585,1.8326425158977508,-4.351648746728897,10.04909727154407
6.908365000039339,-6.22997731268406,4.839800037145615,-0.9552303119748832,7.9466185679840216
6.9183910000137985,-3.6477237966656686,6.392077333331108,2.0033299036324026,7.627442050572009
6.928415999980643,-1.6137983371317388,6.718842548131943,2.454035478830338,7.332767580584792
6.938441999955103,-0.31250254020094875,5.882757952809334,1.2153545907139778,6.015113111999064
6.948466999921948,0.22035027533769608,4.150034412145615,0.4288464903831482,4.177947962594573
6.958493000129238,0.8364867375791073,2.5594560992717743,1.0255454921722413,2.8813658467400542
6.968519000103697,1.3220982898771763,1.2967452013492584,2.543400814533234,3.1461690527825743
6.978544000070542,1.4937824817001821,0.2843881040811539,3.1343543422222138,3.4837393471648355
6.9885700000450015,1.0399550780653954,-0.2692087322473526,3.4252767097949985,3.589777213780304
6.998595000011846,-0.13445211924612524,-1.0059397780895234,4.6879873153567315,4.7965839175874105
7.008620999986306,-1.7060824567079544,-2.1542703670263292,6.029274559020997,6.62599048228959
7.018645999953151,-2.778090509176254,-3.096909357905388,5.428981858491898,6.839771814036729
7.02867199992761,-2.5145559149980548,-3.6929563951492312,4.4378928387165075,6.297286021299697
7.038697000127286,-2.085967140644789,-3.7972777390480044,4.016349520683288,5.907761048960275
7.048723000101745,-3.3570604607462884,-3.4312993419170383,2.230727974176407,5.293374859739253
7.05874800006859,-6.512145228981972,-2.3172176492214205,-1.5156015130877496,7.076339524336702
7.0687740000430495,-10.437387528419496,-0.9627873265743256,-6.139595146179199,12.147454318235
7.078799000009894,-13.95655999660492,-0.8405547916889191,-7.409795157909394,15.823942731785952
7.088824999984354,-15.513052550554276,-1.7100609022378923,-2.5552285623550417,15.814812699855038
7.098850999958813,-14.081851794719697,-3.1748580050468447,3.8084774959087375,14.929258995593306
7.108875999925658,-12.137905189990997,-4.617639756202698,6.456138843297959,14.502864133791462
7.1189019999001175,-11.851469975709916,-4.578526561260223,5.2168939912319185,13.734490488295178
7.128927000099793,-12.439993400573732,-2.237699609398842,2.993959186077118,12.989400561847237
7.1389530000742525,-11.415630215406418,0.5939496409893036,3.5088790297508243,11.957492272059236
7.148978000041097,-9.0398199570179,1.4939179909229279,1.6590141248703003,9.311415772342112
7.159004000015557,-7.391264162063599,1.0966049498319625,-3.2761808967590333,8.158841192086687
7.169028999982402,-6.589834259748459,-0.45675349652767183,-2.4830715823173524,7.056924529173936
7.179054999956861,-6.206377365589142,-3.896462303996086,0.859994444847107,7.378423201181103
7.1890809999313205,-3.991636848449707,-8.712781677246094,1.6374601185321809,9.722499931861156
7.1991059998981655,-0.026387168616056444,-12.556686283349991,0.752500986456871,12.579241806871986
7.2091320001054555,3.995572316944599,-14.978672003746034,-0.20891692221164704,15.503833700608558
7.2191570000723,7.46896371781826,-16.732518610954287,0.2695917614176869,18.32580906268101
7.22918300004676,9.790998888015748,-16.78312626242638,0.9341897642612458,19.452755508701642
7.239208000013605,9.283714338541031,-14.984339125156403,1.2094790160655975,17.668633518968814
7.249233999988064,7.0937706935405735,-11.375379152297974,0.6583765288442374,13.422156800037895
7.259258999954909,5.6392582583427435,-7.634510672092438,0.2514009638875723,9.494745354732993
7.2692849999293685,5.800964176654816,-4.888548858761788,-3.2306837117671967,8.245387351047343
7.279310000129044,3.302406828403473,-1.6003952032327653,-4.546059896349907,5.842415275210866
7.2893360001035035,2.782394352257252,1.7955588895082475,-2.6286076104640963,4.227922424424898
7.299362000077963,3.3707210183143617,3.3217453247308733,-0.9719855815172196,4.831201523053555
7.309387000044808,4.4660816806554795,4.387755303382874,-1.266132688522339,6.387595335147321
7.319413000019267,4.826229234337807,4.999491589665413,-2.795281907916069,7.49006046185443
7.329437999986112,3.9909685117006304,5.830998984575272,-3.1192720341682434,7.72387447092765
7.3394639999605715,2.6480554497241977,7.010360162258149,-2.1893589234352113,7.807089071159334
7.349488999927416,1.4470493414998056,8.278592001199723,-1.352881541401148,8.512304375674486
7.359514999901876,0.8206733813881875,9.056127256751061,-0.7686457335948944,9.12566501429689
7.369540000101551,1.2252819934487345,9.54258577823639,-1.4553006398677826,9.730373027323706
7.379566000076011,2.238896534442902,9.674767350554466,-2.9631487450003626,10.363109160106939
7.389591000042856,3.4990425512194636,9.066161663532258,-4.429815495014191,10.679974316655178
7.399617000017315,4.905026897192002,8.144630536437035,-5.478821185827256,10.973230017798278
7.409642999991775,6.6001522564888,7.772659327983857,-6.184266119599343,11.925660999531765
7.4196679999586195,8.455719366073609,7.951298782825471,-6.369677234888077,13.239906737141522
7.429693999933079,10.463084871768952,8.346434320807457,-5.2347700989246375,14.371566681958805
7.439718999899924,11.884078727960587,8.356826577186585,-3.9472155511379245,15.05484600587739
7.449745000107214,10.214635509252549,7.269999926090241,-3.0158611017465593,12.895235387431404
7.459770000074059,6.399858223199844,5.697573709487916,-0.7272896929085255,8.599388452065503
7.469796000048518,2.8343913021683695,3.420754473209381,1.7671156936883927,4.7810075397001315
7.479821000015363,-3.150382145047188,-0.7054730004072189,3.600600793361664,4.8360030900830004
7.4898469999898225,-10.856308954954148,-5.578968787193299,8.497024097442628,14.872247824939423
7.499871999956667,-17.019043872356416,-9.878581992387772,9.107621346116066,21.68370362954054
7.509897999931127,-18.556690850257876,-14.557623360157013,4.118051019608974,23.94229557516021
7.519923999905586,-13.758388502597809,-17.78704641222954,4.22435076892376,22.880502915760616
7.529949000105262,-8.534097783565521,-13.516582746505739,7.0103525608778,17.454909829340295
7.539975624997169,-4.172009710371494,-3.4056709957122804,5.953841384053231,8.028230638249926
7.550000624964014,1.2851799935102464,4.488436755537987,2.076925152540207,5.109928591813934
7.560026624938473,4.776671158075333,8.59339030444622,-2.3407119078934193,10.10652643160315
7.570051624905318,7.075274780988694,8.3980640655756,-6.538389871716499,12.780357404649202
7.580077625112608,8.393613165020943,3.9481686472892763,-12.199058879613878,15.325071457573603
7.590102625079453,9.278972246646882,-1.8611681574583054,-13.58096643805504,16.553124244563538
7.600128625053912,16.94357385993004,-13.91034360408783,15.277579329013825,26.720531141521164
7.610153625020757,9.229425280094148,-24.103864817619325,9.672945358157158,27.56346244666663
7.620179624995217,3.4032803615927696,-22.213607347011568,-17.005122821331025,28.181569699989435
7.630204624962062,3.5608099061250686,-15.96408454656601,-2.7108545458316806,16.579508284811176
7.640230624936521,4.400537901520729,-3.963643303513527,0.04255018830299378,5.922584957493873
7.6502566249109805,7.337228288054467,3.015620196461678,-6.910500243902207,10.520641508069112
7.660281625110656,6.84740644812584,5.743115333318711,-5.412911955714226,10.448443168144708
7.670307625085115,6.159478018283845,6.693729341626168,-3.2150821709632873,9.647897974311034
7.68033262505196,6.103844100236893,6.202073814868927,-1.653348172903061,8.857550032933567
7.69035862502642,5.842574132680893,5.369622094631195,-0.531535291671753,7.953052476962287
7.700383624993265,5.623429845571518,4.491489002108574,0.12425508677959443,7.198046680226337
7.710409624967724,5.088392656445503,2.4765770798921585,-0.03830979664810002,5.659208557681446
7.720434624934569,3.3072717118263246,0.16828871369361878,-0.5279346128180623,3.353368787117611
7.730460624909028,-0.1311109471321106,-1.837001030445099,-0.9357842999696732,2.0657819639022814
7.740485625108704,-4.681812363266945,-2.9619468498229984,-2.151460195183754,5.943170628332635
7.750511625083163,-8.60699911415577,-2.06419810295105,-4.080770634412766,9.74648842045126
7.760537625057623,-9.68113262951374,0.3780148905515671,-4.985746539831162,10.896095300939358
7.770562625024468,-8.029055641293526,3.510842524766922,-3.1097866809368133,9.29852262059039
7.780588624998927,-5.274611856937408,6.199429703950882,0.30850034035742285,8.145528304264484
7.790613624965772,-2.850704156756401,7.3608077698946,1.3720842361450196,8.011904914922955
7.800639624940231,-1.720366035103798,7.700769565701485,0.15016358770430088,7.89202510778097
7.810664624907076,-0.1163669005036354,6.6716379761695865,-0.04371378421783448,6.672795923414089
7.820690625114366,1.078196453154087,4.110631780028344,0.2720871703326702,4.258383807365499
7.830715625081211,1.4296668849885465,1.4741111326217653,0.7185865509510041,2.1756189152882306
7.840741625055671,1.503303502947092,-0.45659854531288147,1.6698329356312753,2.292759404401997
7.850766625022516,1.4286912770569324,-1.9787088865041733,2.823926832675934,3.7324268752349705
7.860792624996975,0.8133880430459977,-2.5819690489768985,3.2354059231281282,4.218532418490753
7.87081762496382,0.5100369069725276,-2.311945214867592,3.939934305846691,4.596554215650122
7.880843624938279,-0.006387425288558007,-1.0161086708307268,4.762021543979645,4.8692265110041335
7.890869624912739,-1.4726018200814726,0.35220878899097446,4.370130625963212,4.625002577245916
7.900894625112414,-2.678249009549618,0.3048814254999161,2.947880787849426,3.9944926561629983
7.910920625086874,-3.5064992129802706,-0.16631820201873782,1.310749282836914,3.7471672177007913
7.920945625053719,-4.739884277880192,-0.6250609213113785,-0.6724195674061776,4.827975993900257
7.930971625028178,-6.768772507309914,-1.1379909574985505,-2.917476143538952,7.458080967861768
7.940996624995023,-8.584925290346145,-2.0786027187108993,-3.477437381744385,9.492844792105812
7.951022624969482,-9.788155387043954,-3.757045387029648,-1.7353340300917626,10.627076743729333
7.961047624936327,-10.440519297122956,-5.537347721457482,0.2793413722515106,11.82136602022704
7.971073624910787,-10.242437850236893,-6.341824607849121,1.718287642300129,12.168762668996687
7.981098625110462,-9.71417699933052,-6.114700040817261,2.74801126241684,11.802811413466817
7.991124625084922,-10.081000903844833,-5.546021481156349,3.0592059266567233,11.905615246364198
8.001150625059381,-11.00961827158928,-5.036595096588135,2.865768338441849,12.441527752760267
8.011175625026226,-11.646083017587662,-4.876781921982765,2.423687113970518,12.856457941188483
8.021201625000685,-11.34148518204689,-4.422429292201996,2.0227249717712406,12.340120878279206
8.03122662496753,-9.90056284546852,-2.899764050245285,2.6700971138477327,10.656415663887397
8.04125262494199,-8.527326707839967,-1.6180128639936449,3.7785912072658543,9.466309625293087
8.051277624908835,-7.332856909632683,-1.1655716890096666,2.5987306773662566,7.866558901632474
8.061303625116125,-6.342062589526177,-0.5041521960496903,-3.1393595588207246,7.094470083509286
8.07132862508297,-6.374554397463799,-0.776458198428154,-0.8126647424697876,6.47288614790843
8.081354625057429,-5.7297602927684785,-3.176326825618744,6.845119017362595,9.474959602952966
8.091379625024274,-2.128084488809109,-7.158467795848847,6.774568852186204,10.083014822399424
8.101405624998733,2.0531649917364123,-9.773133890032769,1.7205209863185884,10.133598816815363
8.111430624965578,5.245426064729691,-10.952358827590944,-1.0959483075141907,12.193021003081972
8.121456624940038,7.6533808064460755,-11.647698018550873,-1.7780201661586763,14.05006984363772
8.131482624914497,8.91479654610157,-11.215578256845475,-1.981281076669693,14.463342207061924
8.141507625114173,7.9147840905189515,-9.831089737415315,-0.8479662106186152,12.649631588271475
8.151533625088632,5.896782499551773,-7.981726523637772,0.4913041090965271,9.935863418585116
8.161558625055477,5.183281272053719,-5.8424817466735846,0.51607934653759,7.827345373583531
8.171584625029936,5.702696455121041,-3.581115531921387,-1.0343180698156358,6.81285176572673
8.181609624996781,5.903400378227234,-1.4824521857500077,-4.650178926587105,7.659762695930157
8.19163562497124,5.262863631248474,0.721806612610817,-5.2994245165586475,7.503508418988376
8.201660624938086,5.540801671743393,3.0680586111545565,-3.749196669459343,7.360023265816423
8.211686624912545,5.382921001911163,4.624128411412239,-2.6213523852825165,7.565043979110267
8.22171162511222,3.8913553458452226,5.6968901699781425,-2.509647762179375,7.341357907542972
8.23173762508668,2.180978109240532,6.457519370913506,-2.2384217405319213,7.1740333026266
8.24176362506114,0.8625917780399323,7.152374412417412,-1.4695386099815368,7.352555204632733
8.251788625027984,-0.0779410457611084,7.772311418652535,-0.7745631158351899,7.811200139257939
8.261814625002444,-0.5814199349284173,7.927813441157341,-0.3540964163839817,7.956988084107149
8.271839624969289,0.18614172488451006,7.96136359512806,-1.4312231214344502,8.091128392189926
8.281865624943748,1.6712406527996064,8.260221219062805,-2.7728783011436464,8.872043393738487
8.291890624910593,3.463027795851231,8.611904928088189,-3.6218753027915955,9.963706575077348
8.301916625117883,5.218779133558273,8.665115175247193,-4.501914879977703,11.071906531023783
8.311941625084728,6.8185668110847475,8.832879978418351,-5.271898748874665,12.341213007186791
8.321967625059187,8.396393516063691,9.142213473916055,-5.255968594551087,13.479788468153199
8.331992625026032,9.38468055009842,9.215647485852243,-4.58937343865633,13.930640192408049
8.342018625000492,8.745241910219193,8.3466910135746,-3.60007542103529,12.61376430656145
8.352043624967337,5.802212557196618,6.473324394822121,-1.3529553624987603,8.797731951611361
8.362069624941796,1.2464597314596177,3.7475822532176974,1.7703442338109017,4.328065770407161
8.372095624916255,-4.550766612589359,-0.2284629946947098,3.2108522951602936,5.5741586417628115
8.382120625115931,-11.1431955742836,-5.011136904358864,4.643290321826935,13.070671202877557
8.39214662509039,-15.125564585924149,-9.919022505283356,6.172323766350747,19.111967250388922
8.402171625057235,-13.090954563617707,-15.234178955554963,6.724566972255707,21.181905032383874
8.412197625031695,-9.503211797475815,-18.702851361036302,8.164062588214875,22.511321628127273
8.42222262499854,-5.650239329338074,-14.541365761756898,7.097488353252412,17.139161695384878
8.432248624972999,-1.2467234408855439,-4.878684021234513,4.253203854560852,6.591329163799494
8.442273624939844,2.3181596356630325,2.2118174940347672,1.0115361481904983,3.3599413837791383
8.452299624914303,3.8996121990680694,7.171194845438004,-2.8080373165011405,8.63238578755723
8.462324625113979,4.647186906337739,10.410618975162507,-6.385302164554596,13.067112049765097
8.472350625088438,6.7696414035558705,12.009142484664917,-6.881331408619881,15.407798996124663
8.482376625062898,9.560217472314836,11.728732241392136,-6.562466951608658,16.493237723357446
8.492401625029743,10.69838735461235,8.724398925304413,-7.969855506420136,15.940176454180097
8.502427625004202,11.96084331393242,3.248955091238022,-3.7917059272527696,12.96126983763887
8.512452624971047,15.33398040175438,-10.079404613971711,22.192417037487033,28.79633182020388
8.522478624945506,0.8250367198884487,-25.165995168685914,12.907371872663498,28.29502159530386
8.532503624912351,0.10247318521142007,-30.01191724061966,-15.730112890005113,33.88454114701564
8.542528833262622,2.7365863877534866,-31.118091158866886,-11.694507318735123,33.355449387725784
8.552553833462298,0.7910043168067933,-15.500554711818696,-1.7080091142654419,15.614422158303059
8.562579833436757,4.242721843421459,-0.8720367854833604,-1.473942148089409,4.575329742411595
8.572604833403602,5.210046901702881,4.788406519889832,-4.036415995359421,8.146537903015037
8.582630833378062,4.837874256670475,8.178690567612648,-3.079430276155472,9.988938759939114
8.592655833344907,4.672157440781594,9.677452976703645,-1.9577203059196473,10.923132337565592
8.602681833319366,4.44596082687378,9.96406243801117,-0.9450503826141358,10.951813921372132
8.612707833293825,3.969384099841118,9.256915964484214,0.4786682760715485,10.083433275631446
8.62273283326067,3.483086376786232,7.167561970353127,1.135082552433014,8.049487418950605
8.63275883323513,3.0172936695814134,4.080976456403732,0.4327196860313416,5.093689846554922
8.642783833434805,1.7377628172934056,1.0842562150955202,-0.2799272632598877,2.0673147853814977
8.652809833409265,-1.2803133559226991,-1.5106351804733278,-1.8367601251602175,2.700908864663209
8.66283483337611,-5.256701835393906,-3.246730810403824,-4.346472791433334,7.554204184964119
8.672860833350569,-8.408114259839058,-2.7773034739494324,-5.3166778957843785,10.328449246641178
8.682885833317414,-7.5200911867618565,-0.29082939684391024,-4.460865379571915,8.748466901688845
8.692911833291873,-5.241753428578377,2.4288714015483857,-2.8569062983989717,6.444944444221727
8.702936833258718,-2.4804537838697436,4.311925102472306,0.01355267643928528,4.974488188576108
8.712962833233178,0.055691513121128085,5.195842845439911,2.489779508113861,5.761847483070558
8.722987833432853,1.1345687283575536,5.228886630535126,1.655841279476881,5.600920633000926
8.733013833407313,1.4150386132299901,4.336665841341019,0.055463033169507986,4.562025980245425
8.743039833381772,1.8642142644524575,3.0027931594848636,-0.5031717641651631,3.5700480958511176
8.753064833348617,2.3121276479959487,1.531233167052269,0.06818905949592591,2.774032988330012
8.763090833323076,2.4183996230363847,0.03261927723884583,1.1768208548426629,2.689726394699418
8.773115833289921,1.992634615302086,-0.9359819358587266,2.930245293080807,3.6651046877239626
8.78314183326438,0.11711114142090083,-1.2948407632112504,5.938922798037529,6.07956672983925
8.793166833231226,-2.549628683924675,-1.5202333849668503,8.590714033842087,9.089118966209575
8.803192833438516,-4.8211468344926836,-1.914431614279747,7.911313183307648,9.460305570639353
8.81321783340536,-5.53710798561573,-1.9388764840364456,5.030035690069199,7.727875898854028
8.82324383337982,-4.9630996888875965,-1.5169560205936432,2.1039302256703376,5.600003257565186
8.833268833346665,-4.545632464885712,-1.121892988085747,0.005152858793735504,4.682034273101027
8.843294833321124,-5.326256219744683,-0.8751118361949921,-1.2755184929072858,5.546329729646982
8.85331983328797,-7.464275420308113,-0.888397879600525,-2.9568492472171783,8.077599631911907
8.863345833262429,-9.943924627304078,-1.548754348754883,-4.567021872103214,11.051604671112736
8.873370833462104,-11.330702916383744,-2.870177139043808,-2.918050632476807,12.047313596090005
8.883396833436564,-10.93772090792656,-4.547011823058129,1.4034886081516744,11.928069225651557
8.893422833411023,-10.20313754439354,-5.6098654747009284,3.963967823982239,12.299904361563994
8.903447833377868,-11.046530574560165,-5.322630946040154,3.413609175682068,12.728274255638022
8.913473833352327,-12.339920643568039,-3.9773614561557773,2.5315344750881197,13.209909630312765
8.923498833319172,-12.412941842079164,-2.011681335568428,3.0511508023738863,12.93976461105614
8.933524833293632,-11.29213702082634,-0.6439836806058884,4.835397376120091,12.300737427609473
8.943549833260477,-9.544541087150574,-0.32188688278198246,2.247488433122635,9.810865404572247
8.953575833234936,-8.165911477804185,-0.4460419821739197,-1.2784901940822602,8.277415109172685
8.963600833434612,-7.589855486154557,-2.1539154410362245,1.0448459815979005,7.95845218325184
8.973626833409071,-6.736035701036454,-6.095807102322579,5.651070803403854,10.698955202235757
8.983651833375916,-2.407087891995907,-10.325779384374618,4.7944677436351775,11.636267140252812
8.993677833350375,3.567839428782463,-12.134367624521255,0.5738457441329956,12.661028977719935
9.00370283331722,7.336403245925903,-12.649087493419648,-1.2419579601287842,14.675308738753836
9.01372883329168,9.220536342859269,-12.781164400577547,-0.5312312364578248,15.768914373258799
9.023754833266139,9.575762879848481,-12.052587296962738,0.3680681920051575,15.397907957770029
9.033779833232984,8.250169855356217,-10.444850914478302,1.1632520985603334,13.360889518019063
9.043805833440274,6.759236283302307,-8.33406278192997,1.3996012330055239,10.821402921899328
9.053830833407119,5.798260424137116,-5.980322839021683,0.3791754897683859,8.338336720058754
9.063856833381578,6.118645741939545,-3.662200625538826,-1.7438671642541885,7.341022532564236
9.073881833348423,4.878860899508,-1.698820214867592,-5.001353927850723,7.190466946646695
9.083907833322883,4.877381261587143,1.1519763278961181,-4.2061279213428495,6.542737158224709
9.093932833289728,4.828618114292622,3.0645537900924684,-2.8188730841875076,6.375977438071887
9.103958833264187,4.3687305101752285,4.272379798293114,-2.096312180757523,6.4601517142085285
9.113983833463863,3.6708919268846514,4.886763119101524,-2.202869499921799,6.496809628945848
9.124009833438322,2.7738103473186495,5.118090664744377,-2.4392636579275133,6.311805057851633
9.134034833405167,1.7337678533792498,5.447291244864464,-2.1501568508148194,6.10754511722134
9.144060833379626,0.7652660429477692,5.9717157375812535,-1.6818767380714417,6.251058336716302
9.154086833354086,0.03886264175176621,6.374173159003258,-1.5719214557111265,6.565251771928209
9.16411183332093,-0.25256346344947816,6.489253964424134,-1.3493413446843625,6.6328672067469086
9.17413783329539,0.9937170508503914,6.490598239302636,-2.476091760993004,7.0175757559179015
9.184162833262235,3.0066423815488816,6.592799382805825,-3.886502156853676,8.22251793112542
9.194188833236694,4.814996440708637,6.924223659038544,-4.701406967639923,9.65568700195896
9.20421383343637,6.249978298544884,7.344344934225083,-5.025921589136124,10.87481121975477
9.21423983341083,7.638742886781693,7.902029559016228,-5.009883261322975,12.07855100308014
9.224264833377674,9.411047399640085,8.68157684147358,-4.53885291069746,13.584504972858952
9.234290833352134,10.911759270429611,9.42846859395504,-3.5734507092833523,14.85705422937807
9.244315833318979,9.772974261045457,8.964432975053787,-2.2819946068525314,13.456581432778265
9.254341833293438,5.772709261178971,7.10688775241375,0.325102559030056,9.161752966184906
9.264366833260283,0.9777892354130745,4.413321669101715,3.781671520471573,5.893599870418607
9.274392833234742,-5.421379308700562,0.7898173320293427,5.430531370639802,7.714002592317657
9.284417833434418,-13.896110311746598,-3.6238265186548233,5.47615251660347,15.36952331136651
9.294443833408877,-19.892358627319336,-8.3450304043293,2.6417156061530114,21.73301924608863
9.304468833375722,-17.134781320095062,-13.836757564544678,1.2319118589162827,22.058426907093843
9.314494833350182,-9.248436917066575,-17.27423156619072,4.746595127284527,20.160923265408783
9.324520833324641,-3.08662849098444,-13.977958467006683,8.20630989074707,16.500124859215276
9.334545833291486,2.866858551800251,-6.16256359398365,8.131919859051704,10.598310648398753
9.344571833265945,6.92630175948143,0.30396224319934845,3.627725149691105,7.82473251110782
9.35459683323279,7.5670104146003725,4.708002042174339,-1.789582450389862,9.089968932319385
9.36462283344008,7.314963845014573,7.168947760462761,-3.63911347925663,10.86948273658971
9.374647833406925,10.638966779708863,7.799515004754067,-1.2045843118429185,13.246549430454358
9.384673833381385,12.816984443664552,5.486899114251137,-1.981404014378786,14.082155871431953
9.39469883334823,10.962707229852677,0.47177148520946505,-3.06563610970974,11.393052396038438
9.404724833322689,7.639800063371658,-6.585429552197457,6.283762925863266,11.883606519222305
9.414749833289534,-2.9969833660125733,-13.406105453968049,-1.6084753243625165,13.830862793338348
9.424775833263993,-5.9647867870330815,-18.53967779159546,-9.815323305130006,21.809147292252636
9.434800833463669,0.7931262713670731,-20.471508965492248,-4.848779606223107,21.05284760492716
9.444826833438128,3.3664528432488443,-13.627979221343995,1.21043496273458,14.089711679172579
9.454852833412588,5.54060403585434,-2.2200416028499603,-3.1015999943017962,6.726574189374776
9.464877833379433,6.555921578407288,3.8393695056438446,-6.564191880226136,10.040392471587996
9.474903833353892,6.50465903878212,6.7419197541475295,-4.912704291343689,10.578219823597982
9.484928833320737,6.7614196336269385,7.460582903623581,-2.0268203616142273,10.270593629488529
9.494954833295196,6.948910603523255,6.838185389041901,0.01876839280128479,9.749281524462836
9.504979833262041,6.244005952477456,5.351474091410637,0.41505056977272037,8.233963338580143
9.5150058332365,4.983840347528458,2.95426828622818,-0.2409754514694214,5.798658024480928
9.525030833436176,4.43379744887352,0.30131813228130344,-0.7818089854717255,4.512269686559432
9.535056833410636,3.487430273294449,-1.7752661275863648,-0.7566063165664674,3.985748719263968
9.545082000084221,1.0365764106810094,-3.8837832015752793,-0.30477559089660644,4.031271607424266
9.55510800005868,-2.358587577044964,-4.821350317597389,-0.2805166625976563,5.374666858660377
9.565133000025526,-5.993711208701134,-3.5083703219890596,-1.333947526216507,7.071962413094569
9.575158999999985,-7.429222531914712,-0.6731033992767335,-1.6050010550022127,7.630363294194146
9.58518399996683,-6.827035918235779,2.4080558985471727,-0.3595078682899475,7.248199676248693
9.59520999994129,-5.834800844192505,5.093680293560029,-0.4062177658081055,7.755997208460655
9.605234999908134,-5.604622861146927,6.226784732937813,-2.6973591721057892,8.801158561767958
9.615261000115424,-5.278629478812218,6.8268131393194205,-3.9771989035606388,9.50196916077155
9.625287000089884,-4.1921133148670195,7.228979954123497,-3.639804035425186,9.114830697171625
9.635312000056729,-1.9596256211400034,6.671950802206993,-1.5619351422786714,7.127040162001613
9.645338000031188,0.8172900362312794,5.306126595139504,0.8661759750545025,5.438124977115852
9.655362999998033,2.7074017649888993,3.2793641209602358,1.775574860572815,4.608353224352977
9.665388999972492,3.3263777813315394,0.7797408252954483,1.8783480079472066,3.8988429229359576
9.675413999939337,1.318885098695755,-1.78930470764637,2.285140847414732,3.187936312552447
9.685439999913797,-1.9866298171877863,-3.2992996180057528,3.2411245000362396,5.033583616534809
9.695465000113472,-4.1838108533620835,-3.415283233523369,4.518982025384903,7.041990582757695
9.705491000087932,-5.600546182394028,-2.7531597357988358,4.551608319282532,7.724192149611129
9.715516000054777,-6.338946608304978,-1.5473235350847245,2.5225578296184543,6.995695264156211
9.725542000029236,-6.058969643712044,0.3704895240068436,0.2989272058010101,6.077642067873927
9.735566999996081,-5.122939760684967,1.5071385455131532,-0.6199697506427765,5.375903726694752
9.74559299997054,-4.159719155430794,0.8889714914560318,-0.07019699335098267,4.254228647187991
9.755617999937385,-3.529566771090031,-0.7261633729934692,1.0329477748274805,3.7486178708133484
9.765643999911845,-4.196322140693665,-2.6447938728332523,1.600805093050003,5.212161843629475
9.77566900011152,-5.873362646698952,-4.206016239523888,1.4542282605171204,7.368971517142934
9.78569500008598,-7.329825128316879,-4.8379874002933505,0.7856051440536976,8.817575286861258
9.795721000060439,-8.406074751019478,-5.06047571003437,0.02736511543393135,9.811791680479043
9.805746000027284,-9.24586414217949,-5.235813242197037,0.30965202257037167,10.62994018881989
9.815772000001743,-10.431550837755204,-5.455162181854249,0.8823764169216156,11.804856435050091
9.825796999968588,-11.577469450235368,-5.175748888850213,0.8698258070647717,12.711521245161938
9.835822999943048,-11.994474159479141,-4.53745864212513,1.1451454643905163,12.875065026089112
9.845847999909893,-12.15678701877594,-3.7742853176593782,1.7839808177948,12.853609914620803
9.855874000117183,-11.66478358268738,-2.524051793217659,3.015414959192276,12.30978232390398
9.865899000084028,-10.439553337097168,-1.1798043966293335,3.1471515583992007,10.967259239387799
9.875925000058487,-9.160160917639733,-0.0028779995441436767,-0.4807697653770447,9.172769259456844
9.885950000025332,-8.656371248960495,0.1880739372968674,0.057170570888556545,8.65860285957821
9.895975999999791,-7.808691624999047,-1.3708019417524338,6.58349412381649,10.305200518969476
9.906000999966636,-3.7069683703780174,-4.418854889273644,8.11555759549141,9.956413416345212
9.916026999941096,1.9005481316149235,-8.168598858118058,2.260601398944855,8.686104373673164
9.92605199990794,6.106397579312325,-10.82057662010193,-2.3564583134651187,12.646179880549969
9.93607800011523,8.000523567795755,-12.035173119306565,-4.185512393116952,15.045673243941934
9.946103000082076,8.01097137272358,-12.059814455509187,-3.7334074330329896,14.951692817100378
9.956129000056535,6.29804767370224,-10.265568265914917,-2.473649963736534,12.294968095342067
9.966155000030994,3.781808345317841,-7.697246618270874,-1.2391771705448629,8.665173969586395
9.97617999999784,1.5716165234148503,-5.739470179080963,-0.2619716334342957,5.956519585290933
9.986205999972299,1.147514025270939,-4.450247420668602,-1.4378329601883888,4.815480678474908
9.996230999939144,0.2990185685455799,-3.2194605660438538,-4.002916127443314,5.145646311591211
10.006256999913603,0.6557044243812561,-1.7518608927726746,-3.362476444244385,3.847754243435746
10.016282000113279,3.62227700650692,-0.010749521255493165,-2.635509663820267,4.47961130592443
10.026308000087738,6.217163724303246,1.4767020338773729,-2.1887806338071822,6.754593572864259
10.036333000054583,6.5704706203937535,2.653298063278198,-2.211522940546274,7.423065977250623
10.046359000029042,5.327661890387535,4.002515008449555,-2.247680806517601,7.032508558056595
10.056383999995887,3.868091906011105,5.6811985820531845,-1.8741250026226044,7.123938296162237
10.066409999970347,3.206666565835476,7.3550359833240515,-1.6073586523532868,8.183084175158756
10.076434999937192,3.055432718396187,8.678649725317955,-1.4055747485160828,9.307538370862265
10.086460999911651,3.598259860575199,9.52100838303566,-1.405357232093811,10.274828641094718
10.096486000111327,4.232942667603493,10.103686931133272,-2.308584966212511,11.195171181174224
10.106512000085786,4.940502539277077,10.242771141529083,-3.129125761985779,11.794674816741125
10.116537000052631,5.953641993999481,9.97307650566101,-4.210553094148636,12.35462930804184
10.12656300002709,6.864915350675584,9.742863439321518,-5.473118981122971,13.115086051976089
10.136587999993935,7.753572846651077,9.761996113657952,-6.1582120960950855,13.904604857092837
10.146613999968395,8.671326087713242,9.682811365127565,-5.779507234096528,14.225028503348382
10.156639999942854,8.80036712050438,9.082892301678658,-4.852045568525791,13.545764659796756
10.166664999909699,7.599517425298691,7.563454722762108,-3.5219142276048663,11.285494772817737
10.176691000116989,5.6752303290367125,5.641961426138878,-0.7718801209330559,8.039637239499605
10.186716000083834,2.4535264787077904,3.2185226726531986,2.2851997581124306,4.647668050816457
10.196742000058293,-3.623185079097748,-0.8708924853801727,3.888370342254639,5.3856613110196285
10.206767000025138,-11.75292918920517,-6.2725801259279255,6.238491443395615,14.71038345699993
10.216792999999598,-16.58282521247864,-11.46609636425972,6.427271139621735,21.160606611444805
10.226817999966443,-14.869359476566315,-16.309189553260804,4.8137734955549245,22.58893380383525
10.236843999940902,-11.535927321910858,-19.166452531814578,7.332375683784485,23.541330782240514
10.246868999907747,-7.668493520021439,-14.759567477703095,8.92015493452549,18.873785763630497
10.256895000115037,-3.4060510647296907,-4.60821930706501,6.711326537132264,8.824895065980598
10.266920000081882,0.47569087386131287,2.0895066064596177,4.014836845993996,4.55095974118255
10.276946000056341,2.5171862849593163,6.196240047812462,0.5921924065053463,6.714187171179015
10.286971000023186,3.9931255495548252,8.342119075655937,-2.680168942809105,9.629086555272451
10.296996999997646,6.00553427875042,7.567829024791718,-5.708813227415085,11.221810307933197
10.30702199996449,6.457802376151085,3.9309906971454622,-11.648083934783935,13.886459546703701
10.31704799993895,4.75331913292408,-0.20441105782985688,-16.743230710029604,17.406079434188033
10.327072999905795,5.561547592878342,-6.842045720815659,-4.835501748919487,10.056166189825333
10.337099000113085,6.298459317684174,-24.06799565792084,35.73363527297974,43.541149440369175
10.347125000087544,6.132655670642853,-24.661997923851015,-7.672961377501488,26.546147431808805
10.35715000005439,10.010615630149841,-16.291498217582703,-10.766899180412294,21.94428074531639
10.367176000028849,5.802375694513321,-5.760151780843735,1.9975318045914174,8.41647465088504
10.377200999995694,6.8276358425617225,3.0210142529010775,-8.146021589040757,11.049923350140627
10.387226999970153,6.5263212186098105,6.696334860920906,-9.103830011487007,13.050421069686326
10.397251999936998,5.574661728143692,7.998829629421235,-5.348743441700936,11.120574860540072
10.407277999911457,5.888391160368919,7.185400071144104,-1.7398261535167694,9.451461245985696
10.417303000111133,7.2559940904378895,6.034957467913628,0.7570811104774475,9.468016354434429
10.427329000085592,8.137950092554092,4.128520751595497,0.9808856284618378,9.177856608238047
10.437354000052437,7.270591664314271,1.343660336136818,0.009991722106933594,7.393715309816447
10.447380000026897,5.783675129413605,-0.9051548302173615,-0.7452732431888581,5.901324891604981
10.457404999993742,3.8230049031972886,-3.2740566033124927,-0.7013548064231873,5.081998789458489
10.467430999968201,0.6197665598988533,-5.751052343845368,-0.48712568879127505,5.804826016953353
10.477455999935046,-3.9807092794775967,-6.537982320785523,-0.8738032293319703,7.704206077086339
10.487481999909505,-7.391127921938897,-4.298908615708351,-1.4272889685630799,8.668710460296742
10.49750700010918,-8.014082091450693,-0.7489885640144348,-1.77805291056633,8.243055731360094
10.50753300008364,-7.128450529575348,2.8428326350450517,-1.0967305187880994,7.75237526015875
10.517558000050485,-5.9660293203592305,5.678445128202439,-0.4042671346664429,8.246312924062696
10.527584000024945,-4.90987365424633,7.287529293894768,-0.8834758396446706,8.831504519008778
10.537609999999404,-3.7597365680336954,7.6474628394842155,-1.5792567877471448,8.666796348360055
10.547635124996305,-2.235399899482727,6.864587906599045,-1.6386071960628033,7.403013803919459
10.557661124970764,-0.12480456973426045,5.151698706150055,-0.6185569171607495,5.190201190642046
10.567686124937609,1.2894423213601114,2.8778983873128894,0.04395936727523804,3.153869536582628
10.577712124912068,1.8889209432899954,1.296907753944397,-0.09414338797330857,2.293219359271973
10.587737125111744,2.4092004910111426,0.6706206715106965,0.3370897896587849,2.5234120981793664
10.597763125086203,2.2328869123756885,0.45309313952922825,1.548988383561373,2.7550757465004776
10.607788125053048,1.2835999296605587,0.5143497401475907,3.0539250138401988,3.3524084513634884
10.617814125027508,-0.5481789890304208,0.6693190813064576,4.498928706943989,4.581358722778653
10.627839124994352,-2.5816421896219253,0.3817366433143616,5.384297436475754,5.983415257570226
10.637865124968812,-3.705036450326443,-0.3712169176340103,4.972928273677826,6.212496496041634
10.647890124935657,-3.8737563961744312,-1.2403528994321824,3.7216583302617074,5.513184620456538
10.657916124910116,-3.4832693946361544,-1.965476052761078,2.592456614971161,4.766245177295637
10.667941125109792,-3.060197029709816,-2.2601944327354433,1.7700856406986714,4.196008568845004
10.677967125084251,-3.743764021396637,-2.0795505523681643,0.8898900890350342,4.37403748478696
10.687992125051096,-5.7723005408048635,-1.3378634065389634,-0.8993893294036389,5.99318222597789
10.698018125025555,-8.478872585892677,-0.54803262591362,-3.1662336543202403,9.067340053213966
10.7080431249924,-10.654723856449127,-0.5594615936279297,-4.16031498670578,11.451827737114263
10.71806912496686,-11.665938992500307,-1.498710368871689,-2.3540537922084335,11.995075431322368
10.728094124933705,-11.534093635082245,-3.0449293649196627,1.2883635100722313,11.998616226643822
10.738120124908164,-10.849991623163223,-4.430745787024498,4.285448909997941,12.47873786935802
10.74814512510784,-10.42995571732521,-5.065910696983337,5.70849396944046,12.924176215694104
10.7581711250823,-10.73881617307663,-4.396298670172691,5.094619356393815,12.672993378954986
10.768197125056759,-11.206311589479448,-2.4795486348867417,3.717393078804016,12.064352124155285
10.778222125023603,-10.40251590371132,-0.6210327744483948,3.4610031974315647,10.980735948311366
10.788248124998063,-8.598710685968399,0.17518725872039795,2.319837201833725,8.907870715250466
10.798273124964908,-6.891416101455689,-0.10916049957275391,1.6512209558486939,7.087317020079148
10.808299124939367,-5.680968786478043,-1.702394033074379,2.1776902198791506,6.317743781647239
10.818324124906212,-3.7048122096061706,-4.639551612138749,4.124641124010086,7.2293662980942806
10.828350125113502,-0.281704670637846,-8.367496576309204,3.8562948560714725,9.217666000293605
10.838375125080347,4.118461201786995,-10.288271834850311,-0.07233590483665467,11.08221514416353
10.848401125054806,6.60758582174778,-10.608084125518799,-2.7645261383056643,12.799775153307243
10.858426125021651,7.140212203860283,-11.467389768362047,-2.5937546968460086,13.755407003905795
10.86845212499611,7.066109855175019,-12.374485874176026,-0.23663798689842225,14.251800120420818
10.878477124962956,6.689700025320054,-11.91469825744629,1.536815503835678,13.750415371456619
10.888503124937415,6.037746005058289,-9.986300568580628,1.0087541160732507,11.713161858965572
10.89852812490426,5.496779154539109,-7.663408781290054,-0.5071629273891449,9.444555545807708
10.90855412511155,4.944335389137268,-5.532008628845215,-1.6780403798818588,7.606930486497635
10.918579125078395,4.866741083264351,-3.495492414236069,-3.4406309133768085,6.909527991954234
10.928605125052854,4.000469067692757,-1.634506105184555,-4.859387040138245,6.50299972130675
10.9386301250197,3.9709724959731103,0.5338133668899536,-2.7683373534679414,4.870038087843994
10.948656124994159,4.458210451304913,1.9985063892602921,-0.7980998399108649,4.950417312763068
10.958681124961004,4.249459882378578,2.9094020158052447,-0.6163480583578348,5.186753735291281
10.968707124935463,3.855152894854546,3.8241141200065614,-1.1115551108121873,5.542707588346298
10.978732124902308,2.760246853530407,4.7071384084224706,-0.9617908879369498,5.54086242390019
10.988758125109598,1.7592377400398256,5.519627734422684,-0.6129055832326412,5.825535254939779
10.998784125084057,1.103385381102562,6.415543963909149,-0.45877707168459897,6.525882319930805
11.008809125050902,0.593832989037037,7.031284423470497,-0.524304770976305,7.075768068236552
11.018835125025362,0.9390382754802704,7.476336472034455,-1.004297879934311,7.601711265072497
11.028860124992207,2.1692292988300323,7.602225855588913,-2.2613375633955,8.22271495832798
11.038886124966666,3.537419874072075,7.585084158182145,-3.4024129271507264,9.034558914469937
11.048911124933511,4.618720029294491,7.622044408321381,-3.9953176707029345,9.766816214164187
11.05893712490797,5.612817149162293,7.87176261663437,-4.100853481292725,10.501683784879612
11.068962125107646,6.637529413104057,8.22319080233574,-3.8230224448442462,11.2380231489005
11.078988125082105,7.553091702461243,8.445707178711892,-3.5125838255882265,11.862436897455705
11.08901312504895,7.902024881243706,8.420194607377052,-3.1759827169775963,11.976165524425445
11.09903912502341,6.566143680810929,7.908003074526787,-2.6438267433643343,10.613226432744515
11.109064124990255,4.180554538965225,6.793149549365044,-1.4453130108118057,8.106346079000275
11.119090124964714,1.8120214328169824,5.336441484689713,0.3953483766317368,5.649542435579257
11.129115124931559,-0.8337807923555375,3.34452490746975,1.9004747490584852,3.9360947064565757
11.139141124906018,-4.689938238859177,0.18493632137775423,3.292487904131413,5.733253764323529
11.149166125105694,-9.65192637205124,-4.024172510504723,4.196043228507042,11.267671714302821
11.159192125080153,-12.362220754623413,-8.550028522610665,3.7004460936784747,15.4796896291792
11.169217125046998,-11.795495749711991,-12.533265845775604,3.6457500690221787,17.592838494914176
11.179243125021458,-10.670575658082962,-13.666526405811311,5.723724796772004,18.25913892889786
11.189268124988303,-7.954774367809296,-9.860662615299224,7.72678207397461,14.83961804340701
11.199294124962762,-2.5535141587257386,-3.3633646363019944,6.612353056669235,7.845754850974037
11.209319124929607,1.9656663796305658,1.6017529267072679,3.7016816103458408,4.486858979129811
11.219345124904066,4.199311822056771,5.277997979521752,1.0505329835414887,6.826060503702705
11.229370125103742,5.016335663795472,7.21284924030304,-1.9232088696956635,8.993750608710615
11.239396125078201,5.997277425527573,5.771792417764664,-5.3619014310836794,9.901056064338063
11.24942212505266,5.89677314400673,0.8486520159244538,-10.580300495624543,12.142277477216727
11.259447125019506,4.544878174066544,-4.41531147658825,-13.635635565519333,15.03600513195091
11.269473124993965,7.289272348880768,-13.302065945863724,9.027470052838327,17.65144938409189
11.27949812496081,5.685421441197396,-24.11893660068512,21.653399648666383,32.90770177415556
11.28952412493527,3.5791608077287678,-18.903296252489092,-10.663447902202607,21.99668435150941
11.299549124902114,5.149726440310478,-8.618278977870942,-8.28287684082985,13.015393336768602
11.309575125109404,5.145556790828705,0.2854938125610352,-2.637657930850983,5.789257358663123
11.31960012507625,6.060109266042709,5.060034245252609,-6.162475301027298,10.015237027413646
11.329626125050709,5.843234283328057,7.287405332922936,-4.657320131063462,10.437446727020118
11.339651125017554,5.969799020290375,7.148835092782974,-2.421390473842621,9.623277786351231
11.349677124992013,6.664265806674957,4.955379610061645,-1.5613469123840333,8.450208873314487
11.359702124958858,7.206907299757004,2.6662666028738022,-0.9958182477951051,7.748557569479156
11.369728124933317,6.760944254994393,0.13107001662254333,-0.7655069482326508,6.805405752502314
11.379753124900162,5.245181651115418,-2.1980291748046876,-0.9858556886762381,5.771929854510166
11.389779125107452,3.563190307617188,-4.036194970607758,-0.977532835006714,5.471998305242125
11.399804125074297,1.262540597766638,-5.919508287906647,-0.7061191177368165,6.09370095590831
11.409830125048757,-1.7343183687329293,-6.887131261825562,-0.18587947726249696,7.10457517391482
11.419855125015602,-4.242868900895119,-5.056192624568939,-0.06915962420403958,6.600894137959519
11.429881124990061,-5.0997309923172,-1.4052689391374589,-0.2561957538127899,5.296005404979946
11.439906124956906,-4.688843347728253,1.8346954733133316,-0.04896451078355313,5.035251427947585
11.449932124931365,-3.3451242470741276,4.702958233952523,0.26001639761030676,5.7771343160507636
11.45995712489821,-3.501018617749214,6.0702483379840855,-0.15770057559013367,7.009273551386522
11.4699831251055,-4.359219136834144,6.474220772981644,-1.6727903111279012,7.982264937049599
11.480008125072345,-3.8427395483851434,6.580483977198601,-2.4738189482688906,8.011816073756622
11.490034125046805,-2.5601296985149387,6.057187412381173,-2.027898588180542,6.881580930707112
11.50005912501365,-0.6167004261910916,4.754797893762588,-0.17871546864509583,4.797953901917614
11.510085124988109,1.2984454254806042,3.1467311435937884,1.2529005856812,3.627345763863003
11.520111124962568,1.4094371268153192,1.8596934896707535,0.8625884158909322,2.48777645000479
11.530136124929413,0.37122598081827163,1.2683107763528825,0.6208270986378194,1.4600846690005316
11.540162124903873,-0.9275581446290017,1.2550785273313523,1.1860036146640778,1.9601507073263755
11.550186958396807,-2.014895111471415,1.3363366985321046,2.0268522289395334,3.1549529378474483
11.560212958371267,-2.729720879495144,1.0588991796970368,3.0567302155494693,4.23275833982616
11.570237958338112,-3.416250947713852,0.4695618224143982,4.100736536979675,5.357919277904902
11.580263958312571,-3.9365759575366974,-0.07626114070415498,4.66730454415083,6.106240884446703
11.590288958279416,-3.917718687057495,-0.2215568482875824,3.9217333853244782,5.547756293629996
11.600314958253875,-3.577373313903809,-0.13197048783302306,2.3872572062909603,4.302791303988392
11.610339958453551,-3.0145399233698846,-0.3633939278125763,1.0400384008884431,3.2095460694130176
11.62036595842801,-2.669953272342682,-1.1062411612272263,0.5081674790382386,2.9343916183834153
11.630390958394855,-3.31787212908268,-2.1833146566152575,0.23435961931943894,3.978701143074482
11.640416958369315,-4.440407141447068,-2.8122803485393524,0.14539247900247573,5.2580676406399744
11.65044195833616,-5.715216513276101,-2.8001391899585726,0.259320652037859,6.369593902074057
11.660467958310619,-7.319196644425393,-2.749384773373604,-0.02866524383425713,7.81860459724308
11.670492958277464,-8.520251576900483,-3.120989946126938,-0.010821880549192428,9.073884630663937
11.680518958251923,-8.692069085240364,-3.621022778749466,0.8481640657782555,9.454271692165996
11.690543958451599,-7.935619474053383,-3.894298834204674,2.513652227818966,9.190107037977437
11.700569958426058,-7.223705765604973,-4.210375338792801,3.8942859703302384,9.223591963018531
11.710594958392903,-7.352980687022209,-4.557418697476387,4.115301366448403,9.57977533685008
11.720620958367363,-8.044638471007348,-4.567157235145569,3.4890581381320955,9.886792201266282
11.730645958334208,-7.9523267233371735,-3.4288078433275224,3.078012911081314,9.190777280619422
11.740671958308667,-7.270272991061211,-2.2829436099529268,4.129003146886825,8.667027626457662
11.750696958275512,-6.540889556407929,-1.4367713981866836,3.894481852054596,7.746905003661541
11.760722958249971,-5.826093170642853,-0.5609081947803498,0.21192655719816686,5.856867123439708
11.770747958449647,-5.724676723480225,-1.040150082707405,0.2684433317184448,5.824594200908472
11.780773958424106,-5.646451503038406,-3.499203642010689,5.79060992717743,8.81237788755971
11.790798958390951,-2.8984045726060867,-7.075728524923325,5.3867684698104865,9.35328593448644
11.80082495836541,1.1605443991720676,-9.526491901874543,0.5486290784552693,9.612590968342385
11.810849958332255,4.132588074803353,-10.906579806804658,-0.6698956167697907,11.68248806614299
11.820875958306715,6.481154401302338,-12.339201436042787,0.07323811193928123,13.937956029267758
11.83090095827356,8.833834244012833,-13.137327661514282,-0.8909735780954361,15.856223997331341
11.84092695824802,10.149194641113281,-12.73080817937851,-2.1975549656152724,16.428903694106726
11.85095295845531,9.178836339712143,-10.749587913751602,-1.5924564385414124,14.224647425344036
11.860977958422154,7.144179539680481,-7.9964258390665055,0.7539493417739869,10.749444967292083
11.871003958396614,6.312551107406617,-5.207070084214211,-0.6625029820203782,8.209798447387426
11.881028958363459,4.592908665239811,-2.3396165782213214,-2.1839255444705485,5.598048456749368
11.891054958337918,5.6393904054164885,0.12526256203651429,-2.2826401394605638,6.085134415970451
11.901079958304763,6.2704675269126895,2.3794098043441774,-2.2525310719013216,7.074902844064832
11.911105958279222,5.799185453653336,3.82629162311554,-2.3940078167617322,7.34862796294008
11.921130958246067,3.9903566005826,4.869191651344299,-2.129646426290274,6.645853371715711
11.931156958453357,1.5759760612249376,6.380239060521126,-1.229213953614235,6.685964250481266
11.941181958420202,-0.45010228872299196,7.79387945830822,0.015511347502470017,7.806880918962057
11.951207958394662,-1.4612267929315568,8.96211163043976,0.23701220870018005,9.083545750637114
11.961232958361506,-1.2777896976470948,9.660282627940179,-0.8649743722379208,9.782739270149452
11.971258958335966,-0.182621408700943,10.154121505022049,-2.2809912246465682,10.408768182863033
11.98128395830281,1.6675089597702026,10.445274252891542,-3.3216394901275637,11.086822324336572
11.99130995827727,4.079731584191323,10.64666873216629,-3.8647040292620662,12.038758329883112
12.001334958244115,6.321669255495071,10.16709413766861,-4.540332548618317,12.804215127532414
12.011360958451405,7.475872203111649,9.110601087212563,-5.163321216702461,12.866685795278672
12.02138595841825,8.26397747039795,8.77873066842556,-5.4389326500892645,13.22654241108414
12.03141195839271,8.937229388952256,8.502091294527053,-5.01735190987587,13.31666045668957
12.041436958359554,8.597105040550233,7.602576103806496,-4.299823997318745,12.255523852546732
12.051462958334014,5.912113898992539,6.136894317269325,-3.106053818464279,9.069847459532593
12.061487958300859,0.9619836267828942,4.43786418735981,-1.206896593272686,4.698579618406219
12.071513958275318,-4.495737296640873,2.5876636523008347,1.6233003549277782,5.435325294787363
12.081538958242163,-9.616196376085282,0.13189213514328005,4.516799259781838,10.624975474414711
12.091564958449453,-14.248299804925919,-2.891994854807854,6.055599893331528,15.749538775450025
12.101589958416298,-16.694867219924927,-6.134050816297531,6.355198944211007,18.887395917075096
12.111615958390757,-16.228302680253982,-10.03363494873047,5.590314139723778,19.8817315731583
12.121640958357602,-13.901515477895737,-13.478994505405426,6.668693318367005,20.47942616465015
12.131666958332062,-9.533121474981309,-12.989097236394883,7.224332002401352,17.65752035123254
12.141691958298907,-2.0746692967414857,-3.958762047886849,4.531311464309693,6.3646549968726145
12.151717958273366,4.64969916254282,2.239397056102753,1.161894959807396,5.290047388696902
12.161742958240211,8.337337222695352,0.479570501446724,-3.625487127900124,9.10413844058672
12.171768958447501,11.368617432117462,2.23974555015564,-4.881496824324131,12.573421717781267
12.181793958414346,8.923937498331071,0.9655068665742874,-5.893781708478928,10.738041106771863
12.191819958388805,3.8164764869213106,-1.5888539689779282,-9.177915987968445,10.06598686628226
12.20184495835565,2.259824303984642,-2.810587579607964,-9.647211762070656,10.299267120031436
12.21187095833011,2.911215237379074,-7.68228534758091,2.8764804375171664,8.704413939342695
12.22189695830457,-4.1374020874500275,-17.89913987517357,26.198293025493623,31.997622751602847
12.231921958271414,-6.777681909799576,-21.404200673103333,1.75259705722332,22.519955039251066
12.241946958238259,5.826367405056954,-14.374068735837938,-13.428812531232834,20.515687050652232
12.251972958445549,8.544353215098381,-5.304997497797013,-5.989112958312035,11.705487787504447
12.261998958420008,9.477763545513154,1.6625622153282167,-1.8858767366409304,9.805541596989867
12.272023958386853,9.820501599311829,5.943215823769569,-2.4323399698734285,11.733726761734102
12.282049958361313,8.254510828256608,7.247496916651726,-2.645103775262833,11.298660741547716
12.292074958328158,6.7901622068881995,6.574139748215676,-1.9606053221225739,9.65243955972051
12.302100958302617,6.053108979463578,4.861830591559411,-0.8009165167808533,7.805061965489953
12.312125958269462,6.138652575016022,2.8760302019119264,-0.08007060170173645,6.77945546930705
12.322151958243921,6.334987458586693,0.16396762132644654,-0.31069531202316286,6.344720881032302
12.332176958443597,5.4043510472774505,-2.3520664697885514,-0.8509534800052643,5.9551111446928955
12.342202958418056,3.8688339176774025,-4.0653024101257325,-1.4068658137321473,5.785657351260389
12.352227958384901,1.6098051273822784,-4.657166934013367,-2.1982747578620914,5.395654576644745
12.36225395835936,-0.9772628398239613,-3.9431581681966783,-2.889752447605133,4.9853995031448415
12.372278958326206,-3.3981459215283394,-1.952659540772438,-3.1248327362537385,5.0124699117034455
12.382304958300665,-5.022715560793877,0.7499597865343094,-1.0523794611543418,5.186290949832938
12.39232995826751,-4.820429965853691,3.9812603795528414,2.3691806852817536,6.6858055898305615
12.40235595824197,-3.526365128159523,6.386707835197449,3.781415412425995,8.217322587717053
12.412380958441645,-3.8761590170860294,6.4815134203434,0.9100325775146485,7.606759115153239
12.422406958416104,-4.517685990035534,6.582870810627938,-1.3337509135901928,8.094601059563303
12.43243195838295,-3.8554528570175175,6.636640636324882,-1.7571875600516798,7.873831582501854
12.442457958357409,-2.2798369842767716,5.3055681860446935,-1.3909787826240063,5.939825959180618
12.452482958324254,-1.0588610266149046,3.1104889315366746,-0.5895442025363445,3.3382466106685924
12.462508958298713,-0.5767684748768807,1.508022644519806,-0.008835289031267167,1.6145811321604677
12.472533958265558,-0.5477942056953907,0.8685606157779694,0.5078328721225261,1.1455872996338006
12.482559958240017,-1.0602430160343648,0.41196265518665315,1.1442148800194265,1.6133989506554025
12.492584958439693,-1.5124905019998551,-0.15994941473007204,1.8787559974193575,2.4172164635695066
12.502610958414152,-1.492192769944668,-0.6769169533252717,2.666074229478836,3.1293461971257637
12.512635958380997,-0.7897373713552952,-0.9839770513772965,4.233683802187443,4.417688817725469
12.522661958355457,-0.5020339690893889,-0.8410506355762483,5.879520934224129,5.960551207204131
12.532686958322302,-1.3886102217435838,-0.7027464437484742,5.70140246629715,5.9099983921174735
12.542712958296761,-2.374823540747166,-1.169850681424141,4.519291635453701,5.237588600949603
12.552737708436325,-2.9418233647942547,-2.069597421884537,3.610745712518692,5.0965716711131055
12.562763708410785,-3.661992757022381,-2.753349185585976,1.8872006924450397,4.95506298081229
12.57278870837763,-4.902778058052063,-2.48716814160347,-1.0126538434624672,5.590054190954084
12.582814708352089,-6.673618428111077,-1.932685452103615,-3.069617478847504,7.595722970675196
12.592839708318934,-8.577727952599526,-2.233303087949753,-3.107473522424698,9.392627492029252
12.602865708293393,-9.932060626745224,-3.4264537543058395,-1.0408510176837444,10.557925196967092
12.612890708260238,-10.188082133531571,-4.762368868589402,2.002169962227345,11.423040722931008
12.622916708234698,-9.747015547156334,-5.469756832122803,4.086318472623825,11.90044329169162
12.632941708434373,-9.66834067583084,-5.289384262561798,4.359413849115372,11.851535192067756
12.642967708408833,-10.201391565799714,-4.192339017391205,3.659072949886322,11.62036622349313
12.652992708375677,-10.289226100444795,-2.3236747294664384,4.015612771511078,11.286841184545755
12.663018708350137,-9.48270034968853,-0.856734037399292,5.427154018878937,10.959452535480741
12.673043708316982,-8.414757281541824,-0.022733389735221862,3.263742699623108,9.025556676660623
12.683069708291441,-7.186532092094422,0.33641253590583803,0.9406742533296347,7.255638149459694
12.693094708258286,-6.568191375732423,-0.6252778530120849,1.5194492733478546,6.770586122042205
12.703120708232746,-6.572807167768478,-3.5559368366003037,3.633607156276703,8.30960780161765
12.713145708432421,-4.099854776859283,-7.505096002221108,0.9224345219135285,8.60152083303348
12.72317170840688,0.241672293394804,-10.195552536249162,-2.196791903972626,10.432333952005711
12.733196708373725,3.133858498334885,-11.889035997390748,-2.1675476396083835,12.484731026530394
12.743222708348185,4.790340194106102,-13.501623229980469,-0.33065416138619186,14.33005656632446
12.75324770831503,6.2557395601272585,-13.814177956581116,0.9392534530162812,15.193682473621587
12.76327370828949,6.494439275264741,-11.68596219778061,0.3273874316364527,13.373355469681202
12.773298708256334,5.404363911151886,-8.875750594139099,-0.3666578435897827,10.3981025128524
12.783324708463624,5.333543019890786,-6.580689799189568,-0.8477492058277131,8.512980564653304
12.793349708430469,4.440444563627243,-4.326695169210434,-2.575947586297989,6.713668518572397
12.803375708404928,4.7659646138548855,-2.0859222632646564,-1.6770662337541582,5.466081003909332
12.813400708371773,6.783213375806809,-0.08478228807449341,-1.3496057850122452,6.916690502909182
