Time (s),Linear Acceleration x (m/s^2),Linear Acceleration y (m/s^2),Linear Acceleration z (m/s^2),Absolute acceleration (m/s^2)
0.002677291864529252,-0.050174665153026585,0.09451147019863129,-2.345843278169632,2.348282478910059
0.012703291838988662,-0.35521016478538514,0.1869998037815094,-2.3143589454889297,2.3489147528903245
0.022728291805833578,-0.48915554970502856,0.8317073696851731,-0.13936721563339233,0.9749018008954863
0.03275429178029299,0.46882624268531803,1.5484552636742592,3.332284930944443,3.7042724805864866
0.0427802917547524,1.966884647011757,2.082257520854473,7.635422253012657,8.155004879189617
0.052805291721597314,3.18647817671299,1.7355307888984681,7.02399820804596,7.905837154692445
0.06283129169605672,4.059380934834481,0.7415722480416298,6.1184130227565765,7.379937729425666
0.07285729167051613,4.093529843688011,-0.8630186247825623,4.340398119091988,6.0283367158863355
0.08288329164497554,3.0607557311654094,-1.9381236550211907,2.9215566229820253,4.654035028800786
0.0929082918446511,1.4990886837244035,-2.2040269562602046,2.0215069967508317,3.345368775412474
0.10293429181911051,0.5077092035114765,-2.389370097666979,1.194865654706955,2.7192943996106136
0.11296029179356992,0.5117070910334587,-2.389359718859196,0.9265907227993012,2.613322479277778
0.12298529176041484,1.1706372050195932,-2.1140150646865368,1.2412451845407486,2.7166414499604663
0.13301129173487425,1.7713227653503418,-1.746505866497755,1.613297084569931,2.964893685082367
0.14303729170933366,1.7672919872403146,-1.4991398468613626,1.3753686171770096,2.6948803464582114
0.15306229167617857,1.3180977711081505,-1.2549326393008233,0.8020216405391694,1.988837945956368
0.16308829165063798,0.9032309500873089,-0.9986298814415933,0.0011589181423187257,1.346509982285662
0.17311429185792804,0.755204373523593,-0.6738201217353345,-0.8754696857929231,1.3382131268923283
0.18313929182477295,0.8102686265856028,-0.27481040138751267,-1.764185653924942,1.9607159471617148
0.19316529179923236,1.0217735995352268,0.0732488013803959,-2.2494367253780365,2.471710391022844
0.20319129177369177,1.485639064460993,0.17481877449899913,-2.3142174428701403,2.7555920247116186
0.2132162917405367,2.0226072965562345,-0.07347930958494545,-2.5012733799219133,3.217562432358631
0.2232422917149961,2.7707370507717135,-0.565813058540225,-2.5454683899879456,3.8048045345538584
0.2332682916894555,2.6834071308374408,-1.2089359559118749,-2.170297585129738,3.656828076809977
0.24329429166391492,0.14827194035053254,-1.8439694496989252,-1.3618504393100739,2.297138332527519
0.2533192918635905,-6.773688261508942,-2.3932772071659567,0.5442348593473435,7.204638785988714
0.2633452918380499,-10.615783739089967,-2.8789263278245927,1.0850274628400802,11.052618051452141
0.2733712918125093,0.21179638355970384,-4.3714801633358,-4.114465799331665,6.00695641239366
0.2833962917793542,3.972629596889019,-6.564623404741288,-7.7069658601284035,10.875356965605333
0.2934222917538136,1.692050308585167,-5.2708643764257435,-8.542267513275148,10.179164002501043
0.30344829172827303,-1.0802529188990593,-3.6799983805418015,-8.827503463625908,9.624663726588459
0.31347329169511795,-4.013850128352642,-4.8050433102250105,-9.994262137413026,11.79341806845421
0.32349929166957736,-7.209375994205475,-6.525230712890625,-11.650783009529114,15.175456593375026
0.33352529164403677,-10.085590968132019,-7.602862032651902,-12.160618114471436,17.532920155810235
0.34355029184371233,-11.736105580329896,-8.18434891819954,-12.611068897247316,19.07246182690119
0.3535765416454524,-12.128816277980805,-8.491512511968613,-13.010115637779236,19.709821865108765
0.36360254185274243,-11.633051912784577,-8.967920839190484,-13.263922219276429,19.79098617104622
0.37362754181958735,-10.892276347875596,-9.508723967671395,-13.388722851276398,19.70572036542053
0.38365354179404676,-10.458895926475526,-9.817720663547517,-13.09150887966156,19.42070410089582
0.39367954176850617,-9.181419054865838,-10.340206804275514,-12.759510991573334,18.81551097792244
0.4037045417353511,-6.244535125494004,-10.82510821223259,-10.962534152269363,16.623908739515688
0.4137305417098105,-1.8635590839385987,-9.962570228576661,-6.7713283252716066,12.189197894335692
0.4237565416842699,3.2246710199117663,-7.970175349116325,-1.3942288112640382,8.710113217431738
0.4337825416587293,8.034853155612947,-6.244840350151063,2.805244978666306,10.555865460561284
0.4438075418584049,10.67863312125206,-5.0853445029258735,5.42438711643219,13.012221549015198
0.4538335418328643,11.606089231967927,-3.875018225312233,5.741625462770462,13.516039969667077
0.4638595418073237,12.742455832958223,-1.8347595003247261,3.961348271369934,13.469550965270091
0.4738845417741686,13.39250015258789,0.05810026447288692,1.0832066398859024,13.436360094999367
0.483910541748628,13.94972810983658,1.3493493846058846,-1.2245826664566994,14.068235881129066
0.49393654172308743,15.0400092959404,2.0327178633213046,-2.0521183401346206,15.3148624288877
0.5039615416899323,15.402410366535188,2.6497932422161106,-1.0772073966264726,15.665759640087408
0.5139875416643918,14.59989405155182,3.6766944113373756,0.9331779035925866,15.084621609793569
0.5240135418716818,14.596942377090455,3.090932041704655,2.692695432901383,15.161635674982552
0.5340385418385267,16.250616824626924,2.4875315460562706,3.993395690917969,16.917965880025736
0.5440645418129861,13.330924293994904,0.5958140257000923,5.4455610537529,14.41258727902783
0.5540905417874455,12.195480383634568,-2.0842198464274406,6.989000283479691,14.209850073745914
0.5641155417542905,13.24571515917778,-3.0811224603652954,4.449308942556382,14.308690917066862
0.5741415417287499,13.85931378364563,-2.181016408503056,1.4230042751133443,14.10185634215227
0.5841675417032093,14.463218894004822,-0.6452110111713409,-1.3827950195968153,14.543490643276
0.5941925416700542,14.536195653676987,0.44138467490673067,-3.587006016969681,14.978732145245036
0.6042185416445136,14.396447199583054,1.331678221821785,-5.245041317939759,15.37990628332151
0.6142445418518037,13.69090110898018,2.20238593518734,-6.521207828521729,15.323753734844436
0.6242695418186486,12.259809111356736,3.065073607563973,-4.169194568395615,13.30713263689178
0.634295541793108,13.041980624198914,3.8561100840568545,-0.2681404276750982,13.60274762212762
0.6443215417675674,15.998548035621644,5.299884107708931,1.614861799478531,16.930743912618073
0.6543475417420268,13.927325087785722,7.722890167236328,-2.0358408612012866,16.054845519287873
0.6643725417088717,7.746190152168274,7.930280381441117,-7.958196158409119,13.646453564847398
0.6743985416833311,2.6183989566564563,6.176857112646103,-11.223696531057358,13.075968060053349
0.6844245416577905,1.1085332697629928,4.625013679862023,-7.952533130049706,9.266195591159322
0.6944495418574661,1.3871490025520326,4.235207294225693,-3.7210522663593295,5.805806847400412
0.7044755418319255,2.2939808142185214,4.428940166831016,-3.024143682718277,5.832949853298645
0.7145015418063849,3.2518295824527743,5.457433240413666,-3.6007206612825398,7.3022710499867065
0.7245265417732298,3.1900964337587356,7.059438182115555,-1.6484780269861221,7.920218589739
0.7345525417476892,0.5903454172611237,6.501772853136063,-1.3266776829957962,6.661954039170292
0.7445785417221487,-0.6564324027299882,5.607245922088623,-2.6903331577777863,6.253799071762056
0.7546035416889936,0.5981058418750763,6.563667384982109,-0.06415338434278965,6.591174083233245
0.764629541663453,-0.2005875635147095,6.417110432982445,3.313718267083168,7.22497546247249
0.774655541870743,-1.9388998728990556,6.125907983779908,3.0023756682872773,7.0922733306317145
0.784680541837588,-3.5447721630334854,5.807669178843499,1.6769182991981508,7.0076020121644635
0.7947065418120474,-4.20325927734375,5.52562873184681,-0.47222939528524877,6.958660937030828
0.8047325417865068,1.578023756146431,8.46929952442646,-2.455715383887291,8.958221444911567
0.8147575417533517,1.0448103135824205,7.337103157639504,0.6411341862380505,7.438801273187429
0.8247835417278111,-3.5659022462368015,1.9243806517124178,3.0184958571195604,5.05274350841696
0.8348095417022705,-8.441643948554994,-0.09404866307973862,1.948236706852913,8.66405355310846
0.8448345416691154,-13.048910744190216,-4.077504379749298,-1.7887170624732973,13.787661959386032
0.8548605416435748,-15.795202925205231,-6.637175656557083,-3.951274688243866,17.58275029130433
0.8648865418508649,-13.106082479953766,-5.524700778722764,-3.934957448244095,14.757222190685571
0.8749125418253243,-7.951316324472428,-3.900320589244366,-3.8420083540678025,9.653857269684073
0.8849375417921692,-3.0736239910125733,-3.1126521089673043,-3.637914507687092,5.689480605013684
0.8949635417666286,0.7904546785354615,-3.468829110860825,-3.144118315279484,4.747954715416945
0.904989541741088,3.8574689769744874,-4.34117287516594,-0.7865759280323983,5.860422385029695
0.915014541707933,4.957961740493775,-5.805479981303216,1.9742696803808213,7.885602272774315
0.9250405416823924,2.9759778285026552,-5.842224469184876,2.500846533179283,7.017283246855347
0.9350665416568518,1.7584097743034364,-6.124101194143296,1.5512388306856155,6.557664392167388
0.9450915418565273,3.590369335412979,-6.80889785528183,-0.2965520668029785,7.70323212013376
0.9551175418309867,6.437649362683296,-6.215520656704903,-2.058474263548851,9.182229720741852
0.9651435418054461,8.191442760229112,-4.320450342893601,-3.287021342217922,9.827030831523604
0.9751685417722911,6.093645386695862,-4.0624074536561965,-3.4225981003046035,8.08392517125993
0.9851945417467505,3.6911390805244446,-5.993110699653625,-1.2677593839168548,7.151859717974539
0.9952205417212099,2.5120895594358443,-7.553041416406632,0.7136536936461926,7.991766399678818
1.0052455416880548,0.09065230786800385,-8.59238049030304,2.979613042473793,9.094795996279522
1.0152715416625142,-2.104305909276009,-9.592531524896621,4.386713621914387,10.7558365930614
1.0252975418698043,-3.573039942383766,-9.236778738498689,5.558016459345818,11.35677079350509
1.0353225418366492,-3.6393701720237734,-8.109564199447632,5.657851234674454,10.536665855368401
1.0453485418111086,-2.2813590145111085,-7.311636194586754,4.634351683259011,8.952197401711368
1.055374541785568,-1.0408225125074386,-5.744178941845894,3.7557993453741076,6.9415367132358154
1.065399541752413,0.03535226583480835,-4.115442284345627,4.7532811260223395,6.287431625193217
1.0754255417268723,2.1898313784599304,-2.373722802400589,4.874391580224038,5.847188613862496
1.0854515417013317,3.6554944539070133,-0.7652221888303757,3.4070983010530473,5.055346035026865
1.0954775416757911,2.650153430700302,0.5615817940235138,1.2457146500051022,2.9816928592443226
1.1055025418754667,1.0033085310459138,1.0435034608840943,-0.03866537131369114,1.4481099724418092
1.1155285418499261,0.09255382239818573,1.3417646688222886,0.7367730727046728,1.5335361740770856
1.1255545418243855,0.4927875477075577,1.8074989038705827,2.143084643483162,2.8465248363227635
1.1355795417912304,2.0456279307603835,2.1423671901226045,3.579612797498703,4.64628438523056
1.1456055417656898,3.3301027500629425,3.164059367179871,3.4346895575523377,5.735673313724774
1.1556315417401493,4.7673746699094774,5.087025577425957,0.4282985331863165,6.984921624629008
1.1656565417069942,5.93668272972107,7.181699368357659,-3.693141751885414,10.02298875836726
1.1756825416814536,6.28091474711895,7.8686559909582146,-5.62121550500393,11.530988722495373
1.185708541655913,5.699151872992516,7.445543280243874,-6.682658808231354,11.514094647719851
1.1957335418555886,5.29915963768959,6.88347558259964,-3.982631551623345,9.556394876623177
1.205759541830048,4.600730193257332,5.928151057362557,-3.360231113433838,8.2219733887764
1.2157855418045074,2.6190111601352695,5.213200305104256,-3.968660799264908,7.05598649500367
1.2258105417713523,1.0587056368589403,5.125147084593773,-4.204102445840836,6.712858380702057
1.2358365417458117,0.21805144250392916,4.584594801664353,-3.4586935472488407,5.747052895250453
1.245862541720271,-0.8466388195753098,4.171073278784752,-2.045199329853058,4.722021800736996
1.255887541687116,-1.8752464985847475,3.3509486585855486,-0.21105400644242764,3.84577042171865
1.2659135416615754,-2.609738645553589,2.336917503476143,1.0179382646083832,3.6480292661522027
1.2759395418688655,-3.341864424347878,1.3836172842979433,2.6217745542526245,4.467231405854921
1.2859645418357104,-2.1426408398151398,1.0312488663196564,6.123048110604286,6.568569262594711
1.2959905418101698,-2.9828787124156952,2.136937465667725,2.6037826716899874,4.499305651603385
1.3060165417846292,-7.372820874452591,2.6499353295564654,-9.026280144453048,11.952170436525021
1.3160415417514741,-5.6303704905509955,2.272022180557251,-3.558363431096077,7.03740768732162
1.3260675417259336,-3.989431278705597,0.43566902160644533,2.088589763045311,4.524110589077123
1.336093541700393,-6.065048409104348,-2.178259153962135,1.627183052301407,6.646604383615436
1.3461195416748524,-5.521841490268708,-4.645773049592972,0.39020048797130585,7.226769478320889
1.3561449167318642,-0.27491269111633304,-3.757125493884087,1.7186861300468446,4.14070657957624
1.3661709167063236,1.5245240718126298,-3.2406573075056078,0.040995413661003115,3.581579826580289
1.376196916680783,-0.034788594245910645,-2.567455090284348,-1.5034191316366197,2.975450381419193
1.386221916647628,-0.2848038411140442,-1.6509052062034608,-0.4019691789150238,1.7228408076722075
1.396247916854918,2.8052800619602203,-2.275410642027855,0.3294467478990555,3.627068372058406
1.4062739168293774,4.202868683338165,-2.4565872037410736,0.3435882389545441,4.8802642076958245
1.4162989167962223,4.421126532554626,-0.47028044521808626,-0.317299742102623,4.457376205835828
1.4263249167706817,5.804325156211854,1.6306153678894044,-1.8346533733606338,6.301987781439632
1.4363509167451411,5.697996463179589,3.1240784454345705,-5.945793861150742,8.80792225595423
1.446375916711986,4.688468248844147,2.4886083108186723,-7.258694334626198,8.992416209708598
1.4564019166864455,4.459246870279312,0.1662790256738663,-1.1700734603404999,4.613198810702621
1.4664279166609049,4.537106055021286,-1.4055501902103424,3.3342542731761933,5.803288227367727
1.4764529168605804,2.819194681048393,-1.0800485587120057,2.001838571280241,3.622391641483945
1.4864789168350399,3.914720819592476,1.5548389613628388,-0.4918340130150318,4.240809355238824
1.4965049168094993,8.584708943367005,3.8548342216014864,-0.6208333843946457,9.430928300519218
1.5065299167763442,10.470661693811417,4.63526326417923,-0.7022260415554047,11.472294593843808
1.5165559167508036,12.002551503181458,5.472230789065361,1.1404677649587394,13.240363254768669
1.526581916725263,13.855610157251359,5.971211122870446,4.4488557833433156,15.729768367163135
1.536606916692108,10.591341208219529,3.4855340212583545,5.099714620113373,12.261017299101924
1.5466329166665673,5.886807149648667,-1.0606755638122558,6.05421819627285,8.510763128938814
1.5566589168738574,2.0653084892034532,-4.555176290273667,9.56983380317688,10.798002093511284
1.5666839168407023,-6.625171322822571,-7.575909876823426,11.11412087917328,14.993698290794594
1.5767099168151617,-11.322719128131867,-6.5334097981452945,8.542421879768373,15.616093737455909
1.5867359167896211,-11.832147266864776,-4.018484923839569,6.680754370093346,14.169700384320864
1.596760916756466,-14.870334792137147,-4.299341309666634,3.031914632320404,15.773512572186611
1.6067869167309254,-16.085458710193635,-8.520924591422082,1.7312722617387772,18.285115297812915
1.6168129167053849,-16.342457871437073,-9.318681857585908,-1.3314642137289048,18.85965423317822
1.6268389166798443,-16.876900398731234,-9.641987274885178,-3.385011028647423,19.729571342069416
1.6368639166466892,-16.25491920590401,-9.6509545648098,-2.581762057542801,19.079539242975912
1.6468899168539792,-13.8132646214962,-7.579760853052139,-1.1866683699935676,15.800861872482889
1.6569159168284386,-13.134329209327698,-5.064443630576134,-0.46275573648512364,14.084506946923339
1.6669409167952836,-13.63181148648262,-4.52525053292513,0.2995937152951956,14.36641685261092
1.676966916769743,-12.860842069387436,-5.446611798405647,0.8608411216735841,13.993137112635663
1.6869929167442024,-11.026869896650314,-6.130722581148148,0.6281436464935541,12.632188390191263
1.6970179167110473,-9.21733674645424,-6.440663602352143,1.4792713004350664,11.34150289496459
1.7070439166855067,-4.622880030870438,-6.00994541823864,4.70558246433735,8.923730724237899
1.7170699166599661,0.4296136450767517,-4.989011625051499,7.7547235786914825,9.230955674297693
1.7270949168596417,4.537942791581154,-3.3337730473279956,9.547246009111404,11.084082003903056
1.737120916834101,6.6720952284336095,-0.804188033938408,8.237632840275765,10.631188453903262
1.7471469168085605,6.9860942173004155,1.2498709970712663,6.5959112709760666,9.688845928019877
1.7571719167754054,7.839084282517433,2.102897899746895,6.485383692383767,10.389110818670146
1.7671979167498648,9.179653780460358,2.657316854596138,4.906412102580071,10.742451122308402
1.7772239167243242,11.533052830696107,2.1169686394929887,1.4117900463938713,11.810419761859487
1.7872489166911691,15.50552367568016,1.404202407002449,-2.4654808187484742,15.762983363707713
1.7972749166656286,17.582467539310457,0.7066038519144059,-4.730947685837746,18.221534506747222
1.8073009168729186,18.599415285587312,-0.3702199673652649,-8.00683329820633,20.2530168433061
1.817326916847378,17.080052551031113,-1.3884581941366196,-5.795633854866028,18.08992490538639
1.827351916814223,14.153654433488846,-1.1466085839271547,-0.3511937123537064,14.20436489572662
1.8373779167886823,11.081582293510438,-0.39212831497192385,1.5959716384112836,11.202783413681619
1.8474039167631418,8.18338939011097,0.5546405643224717,0.33027325183153156,8.208810418486232
1.8574289167299867,6.053420636057854,1.5470048618316652,-1.2805533841252328,6.377847788178743
1.867454916704446,5.013588641881943,2.349720566868782,-1.4743879982829096,5.729840990974745
1.8774809166789055,4.552382782995701,2.8259938234090805,-0.8727206173539163,5.428818597891862
1.8875059166457504,4.257788363993168,2.9844849425554276,-0.9244386550784112,5.281145609798964
1.8975319168530405,3.905408543944359,2.522367210388184,-1.5156047290563583,4.889949890734369
1.9075579168274999,3.964470099806786,1.7556072038412096,-3.3503007870912556,5.479388213151672
1.9175829167943448,3.6827924725413324,1.35098046541214,-5.1500304955244065,6.473864589143309
1.9276089167688042,2.623628998696804,0.553396276831627,-6.444962475299835,6.980488369020959
1.9376349167432636,2.019826506972313,-0.6456273329257965,-6.613669849634171,6.945297880670701
1.9476599167101085,1.0028746676445008,-2.681726056337357,-0.2643111775070429,2.8752865315994054
1.957685916684568,1.2284918224811554,-7.852521768808365,4.269343923926353,9.022116593587072
1.9677119166590273,0.11955918788909912,-19.304166154861452,4.112298236489297,19.737682795093757
1.977736916858703,-1.8973419570922851,-35.50483138561249,-5.683645641803742,36.00689914453216
1.9877629168331623,-6.8076599997282035,-38.61851114273072,-9.463582878112794,40.33972035654221
1.9977889168076217,-9.903585855960847,-23.121864709854126,-6.526490203142166,25.98647176588034
2.0078139167744666,-6.827624732851983,-8.229304066300392,-2.157013295888901,10.908281774272325
2.017839916748926,-2.9035811126232147,0.7689497888088227,1.9032207477092744,3.5558847379804717
2.0278659167233855,-1.5989559110999108,6.074655969142914,4.196614501476288,7.55444759218608
2.037891916697845,-2.9833108216524127,8.836101209521294,5.300617933273315,10.727226040222641
2.04791691666469,-4.633272871971131,9.871966452598572,2.9135602632164956,11.287682337608967
2.05794291687198,-4.7077435952425,13.92684561610222,1.12250519156456,14.74380875073947
2.0679689168464392,-5.843470510840416,9.90300464272499,1.6280741679668427,11.613193964680654
2.077993916813284,-5.35642375946045,6.589596862792969,2.078845524340868,8.742749053879757
2.0880199167877436,-2.585271264016628,4.4755834060907365,2.133218782693148,5.591520071345513
2.098045916762203,0.37819790840148926,3.7598163825273514,2.067552358210087,4.307438408402424
2.108070916729048,2.167697035968304,3.382808382511139,1.5098634941875935,4.292084664078025
2.1180969167035073,1.6965953493118286,1.9725786656141282,1.5703539633750916,3.0389988387017195
2.1281229166779667,-0.2983839994668961,1.394773771762848,2.447135764360428,2.8324724773150614
2.1381479166448116,-2.645320999324322,1.8217766350507738,3.03228417634964,4.417164319291683
2.1481739168521017,-4.796787626445294,2.5473886156082153,3.1593909502029422,6.283320099149276
2.158199916826561,-6.187305502295494,3.565031595826149,3.220335309505463,7.833438527468156
2.168224916793406,-6.24405097603798,5.312242782711983,3.3037657213211062,8.838719585732584
2.1782509167678654,-5.6913978803157805,7.026915968656541,3.5301816058158875,9.707303437755725
2.188276916742325,-5.1784380233287814,7.8475440341234215,3.3532799434661866,9.982216893466902
2.1983019167091697,-4.7897607350349425,7.066432621479035,2.2152059555053714,8.81949064958357
2.208327916683629,-3.950906021296978,5.402078234553337,1.0186035315692425,6.769760763563285
2.2183539166580886,-1.808744360804558,3.748133645653725,-0.6704850161075593,4.2154017774404995
2.228378916857764,1.4369707882404328,0.41995755314826966,-2.5675802206993104,2.9721570588427744
2.2384049168322235,6.642387279868126,-0.06233248829841614,-3.869311927556992,7.68744228645563
2.248430916806683,11.447330310344697,0.22271635115146637,-5.165442001819611,12.56076291000546
2.258455916773528,14.388449378013611,-1.7581419718265534,-4.0152595996856695,15.041304742263097
2.2684819167479873,14.048010449409485,-4.672079672813416,-1.6079166229069233,14.891619184026121
2.2785079167224467,11.022552312612534,-7.62040484905243,-2.507279055118561,13.63281620971903
2.288533916696906,8.287261083126069,-8.864225732088089,-5.5388112795352935,13.339101337032261
2.298558916663751,5.378669491410256,-6.057958660125733,-6.255021522045136,10.234952020740874
2.308584916871041,1.085626802444458,-1.168484771847725,-4.029068384170532,4.333282157966217
2.3186109168455005,-2.3531786102056507,2.2197860795259476,-1.6235355591773988,3.6194982417871184
2.3286359168123454,-4.373519087433815,4.592180394530296,0.012562011927366258,6.341604512124672
2.338661916786805,-5.5887967872619635,5.481497456431389,1.5959998512268068,7.989285288390284
2.348687916761264,-7.123014957904816,3.097046767473221,2.4139504766464235,8.133646025870167
2.358712666667998,-8.51650877416134,-1.764498479962349,5.17208093047142,10.119031462422805
2.368738666875288,-8.026829606294632,-6.030541650652886,13.701111516952516,16.9858141673785
2.3787646668497473,-7.714575426578522,-11.412927632331849,8.932368013858795,16.418184719640013
2.388789666816592,-12.978070557117462,-22.759412183761597,-22.823642678260804,34.746795873012566
2.3988156667910516,3.0600292146205903,-18.279787766933442,-8.362224726676942,20.33325409219853
2.408841666765511,7.695488360524178,-6.226554352641106,12.914030681848526,16.27153061838628
2.418866666732356,2.1811900708079337,1.76184501349926,8.669416387081146,9.111556863081876
2.4288926667068154,-5.048793557882309,3.510744291543961,-0.013464949931949377,6.149457144789212
2.4389186666812748,-9.546882312297821,2.945451269745827,1.0038242554664611,10.041230412811723
2.4489436666481197,-9.543564602136613,-0.6095564442873002,1.881925188302994,9.746426359866287
2.4589696668554097,-7.396869302988053,-0.8141084200143814,2.5152359461784366,7.8551167954380805
2.468995666829869,-4.79325883179903,1.3806328654289246,2.7611113643646243,5.701334344181664
2.479020666796714,-3.030655142068863,2.928099072575569,7.187740711569786,8.332001638605462
2.4890466667711735,-2.0934240947663785,2.5795939099788665,3.6331645220518114,4.923069532846805
2.499072666745633,-0.9164400295168161,3.612246108055115,-4.830198909044266,6.1007381335206095
2.5090986667200923,-0.7040211367607117,3.6711147058010103,-7.621846187710762,8.489126471744626
2.519123666686937,-1.5575587937235833,2.649209105372429,-3.143983536958695,4.396467986982409
2.5291496666613966,-1.498630115836859,2.9745598787069323,1.1433072459697724,3.521512481135511
2.5391756668686867,-0.10794000294059515,3.900362396836281,5.0273687750101095,6.363875758595223
2.5492006668355316,1.3870634870231153,4.634444069266319,6.71443784058094,8.275608283577451
2.559226666809991,1.341170591711998,5.008819068074227,4.842954025268555,7.095154029592449
2.5692526667844504,0.6361891959607602,4.697475299835205,1.7947461265325546,5.06873993654465
2.5792776667512953,0.2693747931718826,3.5919089072942736,-0.9948101878166199,3.73684622205411
2.5893036667257547,-0.008063913378864527,2.219851568341255,-2.21725087299943,3.13751612680841
2.599329666700214,0.10561781778931618,1.200039855837822,-1.2589604938030243,1.7424787815036924
2.609354666667059,1.9430674758553506,8.270298895239831,-1.155684632062912,8.573736758328801
2.619380666874349,4.117697555422783,12.126500780582429,-0.6214849103987218,12.821610578755475
2.6294066668488085,2.6283576419949535,3.5617513078451157,2.3618340973556045,5.017229970471877
2.6394316668156534,0.8328811982274056,-0.6114117658138275,1.480492199063301,1.8053732548211716
2.649457666790113,-1.4060090504586698,-3.1867641055583955,-1.452439012527466,3.773844988809006
2.6594836667645723,-2.8879439038038255,-4.299572859406472,-5.746828315258027,7.736445078323366
2.669508666731417,-1.7805587348341942,-3.773390693664551,-6.492193359732628,7.717346782112686
2.6795346667058766,0.6474091257154941,-2.6247806078195572,-4.272866871356964,5.056283528006035
2.689560666680336,2.2002129636704923,-2.1304798007011416,-2.2437315970659255,3.796605424108657
2.6995866666547954,2.837052662372589,-2.940556565523148,-0.9987535500526429,4.206334434856488
2.709611666854471,3.4355590385198593,-4.650729734301567,-0.6396802760660648,5.817348521814744
2.7196376668289304,4.766321001648903,-6.294072151780129,-1.3150165808200838,8.003900845862928
2.72966366680339,7.018304774165154,-7.229961701631546,-1.5753612264990808,10.198564168748707
2.7396886667702347,9.83065470457077,-6.553302610516549,-1.0971746148169041,11.865552627707698
2.749714666744694,11.192558938264847,-4.709857363700867,-0.7922193682193757,12.168966410518253
2.7597406667191535,11.08706464290619,-3.681542630195618,-1.086798876821995,11.732769934358629
2.7697656666859984,9.906484905481339,-3.793834313750267,-2.4423691141605377,10.885623035569617
2.779791666660458,8.363639752864838,-4.2728317880630495,-4.319014266729355,10.337380985578251
2.789817666867748,8.235231973528862,-4.457061765789986,-5.8851857167482375,11.059830747462481
2.799842666834593,9.293766871690751,-4.1687133425474165,-5.58007566511631,11.614194678327577
2.8098686668090522,10.531590850353242,-3.1749574077129368,-4.225774565935135,11.783544927658214
2.8198946667835116,10.528108248710632,-1.9679909402132034,-2.045403397679329,10.90402341782923
2.8299196667503566,9.091490632295608,-1.112780687212944,0.2901926350593567,9.163934446535265
2.839945666724816,8.621230652332306,-0.5029231113195419,0.21004828535020353,8.638441404489123
2.8499716666992754,7.83700091958046,-1.50630122423172,1.5674256777763367,8.132917683524134
2.8599966666661203,6.231886428594589,-2.282827250361443,2.3041719263792038,7.0254478134997385
2.8700226668734103,5.495715546011925,-3.1960810589790345,0.37984799265861513,6.368838826329998
2.8800486668478698,4.267816631197929,-5.516118235588074,-1.0349571704864502,7.050741488046364
2.8900736668147147,2.3014468315243723,-7.872512229681015,-0.6405461025238037,8.226992502383185
2.900099666789174,-0.4219700185954571,-9.195526632070543,0.37697470743209127,9.212919117617151
2.9101256667636335,-3.425016216337681,-9.577970788478853,1.6828812897205354,10.310206105719795
2.920151666738093,-5.031606252193451,-9.57078222155571,1.993371949195862,10.995020033515173
2.930176666704938,-4.8772888755798345,-9.446152328252793,1.169832628145814,10.695150721812434
2.9402026666793972,-4.818272050917149,-8.324248815178871,0.8532140866667033,9.655922440209567
2.9502286666538566,-5.73814695417881,-6.941055454015732,1.2827259171009064,9.096700888886886
2.960253666853532,-7.3693569839000705,-5.656865978837014,2.4084343595802786,9.597297073816526
2.9702796668279916,-6.754221126437187,-4.068242390155793,2.2349859166145327,8.195441490080706
2.980305666802451,-5.835490230917931,-1.9015344107151033,1.3357964158058167,6.281172773833873
2.990330666769296,-5.489888795614243,-0.10442776322364808,0.9835695004463196,5.578278686848741
3.0003566667437553,-4.608311985433102,1.9626313823461534,0.7918370334059001,5.071042021668664
3.0103826667182148,-2.8369032660126687,4.317249577045441,0.19699634984135628,5.169668423899467
3.0204076666850597,-1.286410247683525,6.671661949753761,-0.3681979271024466,6.804520130814508
3.030433666659519,-0.34356397300958635,8.761436943411827,-0.92505984865129,8.816833288688091
3.040459666866809,-0.3712578481435776,9.5664769166708,-1.011139122247696,9.626926576615368
3.050484666833654,-1.125208359360695,9.442838126420975,-0.3790703129768372,9.517193916062924
3.0605106668081135,-2.276671594083309,8.804360184073449,1.2339623312652113,9.177290168300507
3.070536666782573,-3.9925887751579285,7.939611952900887,2.780225912332535,9.311705494364016
3.080561666749418,-6.094122519493103,7.740268092155457,3.759631318151951,10.544425402527244
3.090587666723877,-8.020607584118844,7.9333074849843985,4.425776238441467,12.118374849066491
3.1006136666983366,-9.320296858549119,7.916682681441308,5.009368121623993,13.214975111140241
3.110639666672796,-9.51109384417534,7.230534728765488,4.779008290171624,12.867807070908507
3.1206646668724716,-8.829878602623939,6.619695405364037,4.204833347797394,11.809646348626316
3.130690666846931,-7.4551362222433095,6.132348107099533,3.163502712249756,10.158370873780058
3.1407166668213904,-5.6932847768068315,4.453595536351204,0.22567562699317933,7.231800207406628
3.1507416667882353,-2.8987004417181015,1.8633456605672838,-2.760068221092224,4.415030904382759
3.1607676667626947,2.3727144500613213,-1.2009876894950868,-4.0836553582549096,4.873231615350596
3.170793666737154,9.242034215927125,-5.088920660018921,-4.352020337283611,11.412816959386726
3.180818666703999,13.123541096448898,-9.58333794772625,-3.74088339060545,16.67518832495216
3.1908446666784585,12.517563732862474,-11.929202860593797,-4.853129349946976,17.9596254744577
3.200870666652918,7.364876262545586,-11.162021269798279,-7.009749712944031,15.098632793341109
3.2108956668525934,0.4198824164271355,-6.707745117545128,-7.186834977865219,9.839753188197465
3.220921666827053,-3.998545918464661,-1.1841792833805085,-3.9177420759201054,5.7218312637382756
3.2309476668015122,-5.125484468936921,2.9965945261716844,0.6210938778519631,5.96958351986978
3.240972666768357,-4.938146696090699,5.322269003391266,4.711142874062062,8.6548661062085
3.2509986667428166,-5.189133750200272,5.03546892285347,6.4750803136825565,9.706169245337215
3.261024666717276,-7.368364126682282,4.41351170361042,7.828773887157441,11.621599547287918
3.271049666684121,-8.626339364647865,2.6728587538003925,10.724651877880097,14.020558571382162
3.2810756666585803,-9.78637841820717,-1.6347353160381317,8.289978868961335,12.929397191890997
3.2911016668658704,-14.265867179632188,-10.590233745574952,-8.041582131385804,19.502180912622176
3.3011266668327153,-6.664946422576905,-24.542270336151123,-22.959468820095065,34.26195780409318
3.3111526668071747,3.6763681367039682,-31.09057650089264,2.331683368384838,31.393890761815943
3.321178666781634,1.099113697707653,-23.507757554054262,14.383570461273194,27.580968354194795
3.3312046667560935,-1.4358624485135079,-8.44297652900219,7.791728267669678,11.578280659818875
3.3412296667229384,-4.027347256243229,1.2221300518512725,3.078196513652802,5.214251774000957
3.351255666697398,-5.215329861044884,6.136383855342865,3.5662577569484712,8.807557366751247
3.361281791701913,-5.213955180644989,8.735051382780075,2.2925143325328827,10.427946741830413
3.371306791668758,-4.656568471491337,9.742772807478906,0.4830864322185517,10.809191663063025
3.381332791643217,-5.011287177801132,9.058274939060212,-0.9024592638015747,10.391331809389092
3.3913587918505073,-5.106193335056306,7.653352155089379,-2.0277477300167086,9.421187315905177
3.401383791817352,-4.333435547053814,5.59640284538269,-2.433573732376099,7.484695689150495
3.4114097917918116,-3.0965751895308498,3.3953301948308945,-1.908227718472481,4.975779141189358
3.421435791766271,-1.2443525411188603,1.593870880007744,0.46779479384422307,2.075492615711601
3.431460791733116,1.2524176056683065,0.9127152800559998,5.173488940000534,5.400609859427312
3.4414867917075753,4.134363874197007,1.262564132809639,9.294941577315331,10.250998573769673
3.4515127916820347,5.496986145973206,2.365819705724716,9.777957258224488,11.46396125746601
3.4615377916488796,5.261511170268059,4.128298557400703,6.077855565547943,9.036961715618496
3.4715637918561697,5.473849883079529,4.708190322518349,2.17858060464263,7.541637892823432
3.481589791830629,4.159779381752014,4.588231769800187,0.061168892383575445,6.193494725245865
3.491614791797474,2.0541943940520286,4.154039170145989,-1.5894924849271774,4.899208343732886
3.5016407917719334,-0.05371514966245741,3.875323449969292,-2.1387340226769447,4.426646629102108
3.511666791746393,-2.0317197436094285,2.863015469312668,-2.5598665738105777,4.34484287055455
3.5216927917208523,-2.8701034641265872,0.6523954850435257,-2.9467268398404123,4.164890494638782
3.531717791687697,-3.5365962937474253,-2.35416152715683,-4.692956571578979,6.330357906439393
3.5417437916621566,-3.5592533773183823,-4.498786911964417,-7.049890263676644,9.08891198181044
3.5517697918694466,-1.7472499246895314,-5.023088613152504,-7.876540961265564,9.503904409736252
3.5617947918362916,1.05766300521791,-3.975716049671173,-5.065378600358963,6.5255673703666615
3.571820791810751,2.3740556551516057,-2.4704351645708087,-1.2355172520875932,3.64220991107204
3.5818467917852104,3.0854646027088166,-1.398840510249138,1.197957662343979,3.593320073198573
3.5918717917520553,4.915499845147133,-1.1581702834367753,2.122753289937973,5.478099913566747
3.6018977917265147,7.5965973258018495,-1.6710763460397722,2.757730796635151,8.252627837930376
3.611923791700974,10.554427735805511,-2.2170770645141604,3.565487971007824,11.358876705543416
3.621948791667819,12.569525599479675,-2.465822296142578,3.332498354315758,13.235512784688243
3.631974791875109,12.896311279535293,-2.603450549840927,1.4313615542650224,13.234107271862513
3.6420007918495685,12.747396730184557,-2.6369200122356418,-1.2305542816221715,13.075310106749567
3.6520257918164134,13.315210486650468,-2.7345199817419052,-3.247902007699013,13.97573959710067
3.662051791790873,14.225385736227036,-2.781988263130188,-3.978868868350983,15.03104971424745
3.672077791765332,14.779057416915894,-2.5209223634004596,-4.267577480077744,15.588066116207486
3.682102791732177,14.203076269626617,-1.407768623828888,-4.148358600139618,14.863312790035073
3.6921287917066365,12.467049636840821,0.6349549949169159,-3.4474160224199295,12.950489246536613
3.702154791681096,10.222918674945833,2.164203032255173,-3.2727731394767763,10.950017580892709
3.712179791647941,7.62307410299778,1.5323681116104126,-3.7754886746406555,8.643710172235977
3.722205791855231,5.039449707269669,-1.1123906779289245,-1.749665848016739,5.44929325253832
3.7322317918296903,3.419556378722191,-4.13449251294136,0.7042310518026352,5.411407907481271
3.7422567917965353,2.222931296825409,-6.802323246002198,1.7421586078405382,7.365333781192856
3.7522827917709947,0.9017378635704518,-8.829511397480966,1.9452499490976334,9.086110282035278
3.762308791745454,0.13328245684504508,-11.299527901411057,0.2877719243243337,11.303977516277133
3.7723347917199135,-1.5781089793145657,-13.798978704214097,-0.3140755873918534,13.892475830626555
3.7823597916867584,-4.418227483034134,-14.744264144897462,1.330518718957901,15.44941226480297
3.792385791661218,-5.997699009776116,-14.274677764177323,1.2566754019260407,15.534415075849294
3.802411791868508,-6.416180725693703,-12.994915215969087,-1.3582988405227663,14.556104297343907
3.812436791835353,-6.727053208351135,-10.70838960170746,-2.851619246006012,12.963586889982865
3.822462791809812,-7.13767743587494,-8.180810183286667,-1.7124167454242707,10.991108476562978
3.8324887917842716,-7.505418768525124,-5.573935503959656,0.7404866393655539,9.378080206327416
3.8425137917511165,-6.959042658805847,-2.7456805622577667,3.3034242439270023,8.177997811958889
3.852539791725576,-5.33406283736229,0.27286616563797,3.779053137302399,6.542776544543954
3.8625657917000353,-3.1376287829875946,3.247079304456711,2.1161833584308627,4.986629161644469
3.8725907916668802,-2.503978886604309,5.1449135971069335,0.7030247712135316,5.764918907946217
3.8826167918741703,-3.1605384662747387,6.02758646786213,1.3808831262588501,6.9446123169507
3.8926427918486297,-3.0357685321569443,6.296038570404053,1.9035891222953798,7.24428352615848
3.9026677918154746,-2.678424426019192,7.066572369933128,1.3097038006782533,7.669793120476563
3.912693791789934,-2.4499012050032616,8.53999996304512,0.911858151331544,8.931130979402154
3.9227197917643934,-2.0094368818402293,10.064028775691986,0.5887225225567818,10.279547946705717
3.9327447917312384,-1.8225303411483766,11.262381709814072,0.6929104037582875,11.429916161092235
3.9427707917056978,-2.3974274146556858,12.175634933710098,1.565134884864092,12.507733266077546
3.952796791680157,-3.7929741883277894,12.292550010681152,2.6142386627197265,13.127363891660682
3.962821791647002,-5.429967114329338,11.532887939214707,3.7137876856327057,13.277208518929694
3.972847791854292,-6.432801436185837,10.34757663488388,4.835732421576977,13.10868355653153
3.9828737918287516,-7.2250424391031265,9.33714911878109,5.763618010282517,13.137841697997763
3.992899791803211,-8.18781397819519,8.689963502883911,5.9448010039329535,13.337781764571844
4.002924791770056,-8.382171918153762,7.971086930036545,5.487544062137604,12.802818937467897
4.012950791744515,-6.9798727798461915,6.890777000784874,3.5498946163058283,10.430876448518633
4.022976791718975,-5.07572290956974,5.308993484973907,0.384634231030941,7.355019943542455
4.03300179168582,-2.3623248249292375,2.4554744786024094,-1.2685939277708531,3.635830585591387
4.043027791660279,2.7836006328463556,-1.8719363898038865,-2.107454927265644,3.961558355131334
4.053053791867569,8.640134115815163,-6.815000009536743,-5.394220161437989,12.255356127804813
4.063078791834414,13.226819297075272,-12.637322895526887,-7.520636147260666,19.779045647926864
4.073104791808873,15.468072259426117,-18.873501180410386,-9.597052592039109,26.221627041130468
4.083130791783333,13.63112385392189,-20.922422847747804,-12.27769574403763,27.826194999030633
4.093155791750178,6.176426757574082,-12.907171897888185,-11.227339346408845,18.187811377203463
4.103181791724637,0.7488713273406029,-1.8661213338375093,-5.978804901838303,6.307878022898198
4.113207791699097,-2.285236010849476,4.923458490371704,-0.22878853842616081,5.432779337228011
4.1232327916659415,-3.532895298600197,8.664519928693771,5.172517132759094,10.691594281223416
4.1332587918732315,-6.056485161781311,9.5439955419302,8.708350657224656,14.268995570412299
4.143284791847691,-9.848803292512894,6.673358227014542,9.805637977123261,15.416976761319889
4.153309791814536,-10.89719385623932,1.253219112753868,12.58980959057808,16.697984836861107
4.163335791788995,-15.5924554002285,-7.538065527677537,-4.783165075778961,17.96735276688881
4.173361791763455,-18.515874946117403,-23.674730644226074,-26.203679480552676,39.874344062522866
4.183387791737914,-6.049103636741639,-26.169999518394473,13.385586404800415,30.010572353775355
4.193412791704759,-5.1591813880205155,-24.553651356697085,14.915119786262514,29.18834948706914
4.203438791679218,-3.284357058405876,-14.687047970294953,6.858747707605362,16.539008419050624
4.213464791653678,-5.677815383076668,-3.4244002121686936,6.41198885679245,9.223757663611593
4.223489791853353,-6.425582463741303,2.290074289441109,5.869023427963257,8.998776930643437
4.233515791827813,-4.888745325207711,4.737719346284867,3.711589132547379,7.753819016958414
4.243541791802272,-4.261101104021073,5.7801498430967335,1.9427169352769853,7.4391709160331025
4.253566791769117,-4.157445757985116,6.350943925380707,0.2906609787605703,7.596270649370821
4.2635927917435765,-3.978104344904423,6.339094542860985,-1.334136976003647,7.601931022642702
4.273618791718036,-2.9975511306524276,6.210465738773347,-1.9956506091356279,7.178984526177544
4.283643791684881,-1.4229477033019067,5.097946422100067,-2.2316179203987123,5.744036597339863
4.29366979165934,0.4612847597524524,3.0180438673496246,-2.6824645596742633,4.064109807662066
4.30369579186663,3.4038867178559307,1.683060799241066,-0.6386375713348389,3.8505839024047326
4.313720791833475,6.9184325766563415,1.9892824065685273,4.718828746676445,8.607514074997656
4.323746791807935,8.108911065459251,3.4901632618904115,8.303764849305153,12.119743765225932
4.333772791782394,7.208205381631852,5.254461182355881,8.350742549300195,12.21893973572846
4.343797791749239,4.474754563272,6.653933191895486,6.444795244932175,10.28754786491088
4.353823583340272,2.313970105648041,6.705659415721894,2.8486851131916047,7.644300669362238
4.363849583314732,1.4565876120328904,5.70699942111969,-0.8076378911733628,5.945062558749665
4.373875583522022,0.501653826981783,4.1185337072610855,-4.165908433198929,5.879521199363871
4.383900583488867,-0.6788664150238037,1.8960748654603958,-6.869604232907296,7.158730461587149
4.393926583463326,0.12274986729025841,0.215556435585022,-3.0215013259649277,3.031666599355825
4.4039525834377855,0.9819268713891507,-1.0300232899188997,1.169196816533804,1.8417789102724087
4.41397758340463,0.5280315669625998,-2.1575062161684038,2.1710116763412954,3.1059526891639098
4.42400358337909,-0.7589393556118011,-3.1020660173892978,0.33654979929327966,3.21124092667341
4.434029583353549,-2.4385175532102585,-3.2523324429988865,-4.661706419885159,6.185106379222281
4.444054583320394,-2.0118361406028273,-2.433252720236778,-9.745057314634323,10.243746654553854
4.454080583527684,1.092040174752474,-2.654406695365906,-9.544441099762917,9.966683628696174
4.464106583502144,3.6129767176508905,-3.3252583318948745,-5.264039506316185,7.198684300633084
4.4741315834689885,5.898590458631515,-3.6764578914642336,-1.3044782902300358,7.071872145058186
4.484157583443448,7.987359731197357,-3.3753824186325074,1.5680647784471513,8.811920851719735
4.494183583417907,10.012738169431687,-2.336761382818222,3.3104847568273548,10.801605840568847
4.504208583384752,12.498237515687943,-1.3980926513671876,4.040850523710251,13.209431366085594
4.514234583359212,14.31626550078392,-1.6551824444532395,3.921455057859421,14.93562508180268
4.524260583333671,14.148507714271545,-2.873166820406914,1.1414870077371597,14.482346174136334
4.534285583533347,12.730417585372926,-3.9421121013164524,-2.930422171354294,13.64518793640024
4.544311583507806,12.179792304039003,-4.520056158900261,-5.234212274551392,14.006256687073972
4.5543375834822655,13.022419348955156,-3.8729588359594347,-4.612314696907998,14.347705834327362
4.56436258344911,13.106551426649094,-1.3902953892946244,-3.1060491406917574,13.541128196471789
4.57438858342357,11.250531742572784,1.4028476071357727,-0.9562583255767823,11.377911754127787
4.584414583398029,9.898249686956406,2.0050885999202728,-1.5684851932525636,10.220365598172863
4.594440583372489,9.179819841384889,0.35630125522613526,-1.5350952529907227,9.314105450364735
4.6044655833393335,6.784412055015564,-2.809711081981659,-0.9063926857709885,7.398937153218036
4.614491583313793,3.5130597889423374,-7.571850739717484,-3.578346290588379,9.081799099331112
4.624517583521083,-1.0147648344933988,-11.971867654323578,-3.169285608530045,12.425768952881718
4.634542583487928,-4.607387248277664,-14.086523720026017,0.54970434486866,14.831060064513753
4.644568583462387,-6.850425365567208,-15.820495641231538,2.0752072405815127,17.36441462056221
4.654594583436847,-8.932387894392013,-16.81796748161316,1.404330461025238,19.094599439428993
4.664619583403692,-9.40751860499382,-15.602745330333711,-0.2125802393630147,18.220654722175134
4.674645583378151,-7.949935796856881,-11.98723881483078,-1.7932942628860475,14.495215689710593
4.6846715833526105,-6.9102885746955875,-8.044225072860717,-1.4990015602111817,10.710212457553068
4.694696583319455,-6.559165613651276,-4.904816982150078,-0.16596378766000272,8.191912301441437
4.704722583526745,-6.8174336206912995,-2.071618804335594,2.408376910686493,7.521255545913643
4.714748583501205,-5.301739429235458,0.7279140293598175,4.653638724088669,7.091872332747283
4.72477358346805,-4.279143564999104,3.2290394747257234,3.108343588113785,6.196738290502375
4.734799583442509,-3.7059345826506616,5.2595260405540465,1.569787952899933,6.62274863778039
4.744825583416969,-3.1619625556468964,6.411883022189141,1.5515107262134553,7.315561265351128
4.7548505833838135,-2.2494174295663836,7.3317424303293235,1.8763831973075868,7.8952605872299495
4.764876583358273,-1.1063730159401894,8.556889060735703,1.2441518354415895,8.717357709637227
4.774902583332732,-0.3110838595032692,9.708880006670952,0.2281186667829752,9.716540653839372
4.784928583540022,-0.1979390671849251,10.381243733167649,-0.12443211123347284,10.3838761872461
4.794953583506867,-0.5649310791492462,10.529570052623749,1.0691378004848957,10.598775790331887
4.804979583481327,-1.2077160805463791,10.557655398845673,2.894309767484665,11.013614060885855
4.815005583455786,-2.298396923840046,9.994222376346588,4.243016835451126,11.098211621396752
4.825030583422631,-3.993438960313797,9.149015539884568,5.10011106133461,11.209958649198894
4.83505658339709,-5.776900545358658,8.788234732747078,5.889248946905137,12.05358464472086
4.84508258337155,-7.5746398615837105,8.700989597439767,5.633495242595673,12.838171896956203
4.855107583338395,-9.006126546263696,8.301768025159836,5.055916635990143,13.251111679438965
4.865133583312854,-8.870337826609612,7.01403923034668,4.6242237210273744,12.217327224280105
4.875159583520144,-6.598470597267151,5.1566372644901275,2.770218987464905,8.820704923022786
4.885184583486989,-3.6566691595315937,2.611401008963585,-0.7229554443061352,4.5511876632739945
4.8952105834614486,-0.24370376229286195,-0.4811311233043671,-3.165726993083954,3.211340230543658
4.905236583435908,4.74337009549141,-3.4040571641921997,-3.4238897502422336,6.768322248659874
4.915261583402753,10.553054809570312,-6.130696268677712,-4.156476874351502,12.892971052460824
4.925287583377212,14.178174147605898,-9.542453046441079,-6.343198703527451,18.229514587498077
4.935313583351672,14.69100068807602,-13.251271183490754,-8.805470570325852,21.65543814288543
4.945338583318517,10.595644758939743,-14.100607323646546,-9.743059905767442,20.149988364281874
4.955364583525807,4.772109452784061,-8.731464115977287,-8.025151455402375,12.783370061141813
4.965390583500266,0.29682133108377456,-1.628243152499199,-3.7871199560165407,4.132983937484587
4.975415583467111,-3.223572035729885,3.0871994715929034,1.306193278580904,4.650629863572584
4.98544158344157,-4.917060467004776,6.44195057451725,6.378402450084686,10.313109553182818
4.99546758341603,-5.97509893655777,8.359777666926384,11.730978741645814,15.594984840615938
5.005493583390489,-7.7538535130023964,8.739966552257538,13.041750243902207,17.50989746000825
5.015518583357334,-10.174183301925659,7.135261951088905,11.243980522155763,16.758671395861253
5.0255445833317935,-13.121302782297136,2.6525350016355516,2.243514665365219,13.573425753778192
5.035570583539084,-21.244924857616425,-10.488945937156677,-34.92397599935532,42.202475267238896
5.0455955835059285,-7.59913501739502,-19.730091376304628,-7.188984414339066,22.331700688472868
5.055621583480388,-2.4228639721870424,-24.079535722732544,23.872927865982057,33.99427886195642
5.065647583454847,-4.7756268453598025,-29.038758122920992,17.78633889913559,34.38618816505451
5.075672583421692,-3.0615711253881455,-22.13205739974976,10.135540223121643,24.53426905608042
5.085698583396152,-2.8720394772291185,-9.164953295588495,4.31845644235611,10.530624184425532
5.095724583370611,-4.455241527557373,-0.2532668834924698,2.2490508091449737,4.997154262704065
5.105749583337456,-5.399291451573372,3.954228701591492,1.152255824804306,6.7908737500647645
5.115775583311915,-5.625776917934418,6.331094382405281,-1.3411507111787797,8.575010626196491
5.1258015835192055,-5.7548039174079895,7.858281276226044,-3.458097131252289,10.335801300009326
5.13582658348605,-5.031717349290848,8.193937182426453,-3.040228788256645,10.084729898100878
5.14585258346051,-3.7752226263284685,6.724164683818818,-1.8655646789073945,7.93391631822806
5.155878583434969,-2.1681405472755433,4.280707987546921,-1.3573837512731552,4.986760968365005
5.165903583401814,-0.30148865170776845,2.3414578664302828,-0.1434363112784922,2.365141501637904
5.1759295833762735,2.1478635728359223,1.676079223752022,2.4178341972827915,3.6425927163709635
5.185955583350733,4.3524477687478065,1.8099909871816635,4.885974914431572,6.789154573126997
5.195981583325192,5.2445507365465165,2.9878090846538545,6.71533597290516,9.029288608940618
5.206006583524868,4.859420369267464,3.7758026701211933,5.639310883283615,8.347004215122148
5.216032583499327,3.916207766532898,4.111867296695709,3.8431146472692492,6.856651232806268
5.226058583473787,2.340656505525112,4.494441261291504,2.8265937477350236,5.802439775024927
5.236083583440632,0.3492063899338246,4.986618944406509,2.222760996669531,5.47073852855351
5.246109583415091,-1.153016547560692,5.479153307676316,1.57031478703022,5.815191884911009
5.2561355833895504,-2.0391999404132366,5.432472061514854,-1.1194476824998856,5.909589851248152
5.266160583356395,-1.4202148608863354,3.837161597013474,-5.0669333750009535,6.512651779373433
5.276186583330855,1.07380460947752,1.3836488592624665,-5.021550795435906,5.318224600016107
5.286212583538145,2.434580038189888,0.10045282602310181,-2.9599286833405496,3.833855571493379
5.29623758350499,2.1679480277001857,-0.5179411000013352,-1.1376905567944051,2.502519018289148
5.306263583479449,1.014488699734211,-0.7363252490758896,-1.0630590350925924,1.643610874388179
5.316289583453909,0.08203892067074776,-1.2647083067893983,-3.1201865386962893,3.3677561553693964
5.3263145834207535,-0.24279452025890352,-2.892481343150139,-6.929905398488045,7.513254044123168
5.336340583395213,0.27996541634202005,-4.920505646467209,-10.061899219751359,11.204087305965455
5.346366583369672,1.7061226563155651,-5.827062638998032,-7.438032531738282,9.601554116933205
5.356391958426684,3.862582367062569,-5.3031895387172705,-0.7950874274969101,6.608746162720023
5.3664179584011436,6.3688749969005585,-3.879347503781319,5.096094024181366,9.03227989405424
5.376443958375603,9.452813476324081,-2.744590056538582,7.560405399799348,12.411615003936424
5.386469958350062,12.835682669878006,-2.4230580997467044,7.0752174782753,14.855459014161998
5.396494958316907,16.248113046884537,-2.940938973426819,4.091324858665467,17.011444345760133
5.406520958524197,18.338270448446274,-3.977290704846382,-0.5097778022289277,18.77154436371341
5.416546958498657,18.391884738206866,-4.8131133449077605,-6.176778759956361,19.98949924695123
5.426571958465502,17.099979861974717,-5.233679593205452,-11.340571846961975,21.17567668766178
5.436597958439961,14.656730157136918,-4.485548815727234,-10.070563623905182,18.340014688666994
5.4466239584144205,11.021657688617706,-1.9242397338151933,-3.534422006607056,11.733361652955525
5.456648958381265,7.932761939764023,0.45220377802848816,-0.24226651668548585,7.949332884899135
5.466674958355725,6.783015739917755,0.2912042033672333,0.9951317846775055,6.861806590461887
5.476700958330184,6.266748113036156,-1.4942828571796418,1.6858142530918123,6.6593530365517255
5.48672595852986,5.696211892962456,-3.9275016635656357,1.0112999206781388,6.992483591428826
5.496751958504319,4.435190840363503,-6.602476524710656,-0.29356523595750333,7.9592584200767345
5.506777958478779,1.8034108230471613,-8.865460079312324,-0.6031783014535904,9.067110734843187
5.5168029584456235,-1.2539058682322504,-10.70670794248581,-0.36773490071296694,10.786153338854328
5.526828958420083,-4.242236232161522,-11.93962142944336,-0.20724929630756378,12.6725719725203
5.536854958394542,-6.32630083501339,-12.157037279605866,-0.1951976001262665,13.70597460146169
5.546879958361387,-6.987398146390915,-11.727035379409791,-1.351993203163147,13.71768848120978
5.556905958335847,-6.588312814235688,-10.239127156734467,-2.1949114394187927,12.371872408689434
5.566931958310306,-5.712746064662934,-7.8129279327392585,0.38198339581489565,9.686238784800706
5.576957958517596,-5.614481266736984,-5.238386017084122,3.8012596929073337,8.568119000775196
5.586982958484441,-5.958646625876427,-2.236175240278244,5.098590785264969,8.154849925834984
5.5970089584589005,-6.572915925979615,0.5737837636470795,3.1727927684783936,7.321138267314056
5.60703495843336,-7.657651612758637,2.9111567652225494,1.9810354936122896,8.428461518037421
5.617059958400205,-7.894120030403138,4.829093200564385,2.1738871908187867,9.505948543546573
5.627085958374664,-6.627313742637635,6.308115994334221,3.2129163622856143,9.697239111848873
5.637111958349124,-4.123645343184472,7.571046162843705,3.3289718985557557,9.241604017574616
5.6471369583159685,-1.6115373650193214,8.604587722420693,2.2633215236663817,9.042046608549297
5.657162958523259,-0.055321384370327,9.391239371895791,0.7023244209587575,9.41762692975727
5.667188958497718,0.3969516831636429,9.67553099691868,-0.3591687297821045,9.690328832787559
5.677213958464563,-0.5496455803513527,9.551682876348496,0.44095622017979624,9.57764054568995
5.687239958439022,-2.3230552169680596,9.174545068144798,1.9399938869476319,9.660871546081996
5.697265958413482,-4.439566311836243,8.684374734163285,3.163064171075821,10.253442763818816
5.707290958380327,-6.909453592300415,8.31542302787304,4.431609420776367,11.684432854655299
5.717316958354786,-9.322076166272163,7.994552391171456,5.484293010234833,13.449588908478779
5.7273429583292454,-10.779042677879334,7.427661910057068,5.797978588342667,14.316929776056622
5.737367958528921,-10.451402134895325,6.554615895152092,5.614482436180115,13.554232148832703
5.74739395850338,-8.149309478402138,5.73295228779316,4.605359433889389,10.976671737106916
5.75741995847784,-5.335416467785835,4.745619519352913,2.4125342810153962,7.537101244129478
5.767444958444685,-3.2677819561958317,2.6910213750600818,0.2061813023686409,4.2382196360872735
5.777470958419144,0.5025129291415215,-0.6642296648025513,-2.990720705688,3.104533883047346
5.787496958393604,9.265798469781876,-4.247225076556206,-9.37273001074791,13.847093918505593
5.797522958368063,17.38046728849411,-7.373320811390877,-8.893850065469742,20.869764539667422
5.807547958334908,18.445308408737183,-11.37126972913742,-4.1719322347641,22.06672146282024
5.817573958542198,14.213685457706452,-14.238971157073975,-6.796557891368867,21.23606256049668
5.827599958516657,9.311214963197708,-10.987961354255678,-9.87309964299202,17.46173288576888
5.837624958483502,5.888339120149613,-3.153369487524033,-8.102642265558243,10.500908932199286
5.847650958457962,1.5281782892346383,3.700027433037758,-3.3844596362113952,5.242146403722836
5.857676958432421,-2.17506335824728,6.288590387105942,2.6642230010032657,7.167660278519487
5.867701958399266,-4.135171374678612,6.0203657412529,9.912336798906328,12.312549158129908
5.877727958373725,-6.394396923780442,3.9662651950120926,14.426014230251313,16.27050884844818
5.887753958348185,-7.192879244685173,-0.21492552101612092,17.097438662052156,18.550097401653787
5.89777895831503,-9.028098043799401,-7.563632478117944,6.899467717409134,13.649825835374822
5.90780495852232,-12.541336172819138,-25.32888924121857,-34.535306897163395,44.62650743308108
5.917830958496779,-8.376227638721467,-28.774630036354065,10.18561226963997,31.652602112498922
5.927855958463624,-7.011626669168472,-21.657628355026247,15.822441594600678,27.723012688500887
5.9378819584380835,-4.378494190871716,-9.7874630767107,2.5459677422046663,11.020326519746108
5.947907958412543,-8.214956753253936,0.5120412594079972,4.954092053174973,9.606806377797984
5.957932958379388,-9.268192319869996,4.940365129709244,5.9319511628150945,12.062115945843315
5.967958958353847,-8.267341958284378,6.789902005791665,3.8234095305204394,11.36090545429974
5.977984958328307,-8.235578713417054,6.640551838874817,2.1491137075424196,10.795386755351497
5.988010958535597,-8.3814983189106,5.776226361393928,0.7663179570436478,10.207915960628345
5.998035958502442,-8.263910812139512,4.987171506285668,-0.2424477803707123,9.655199763356046
6.008061958476901,-7.526430153250694,3.6548506754636767,-0.8761543947458268,8.412653020012831
6.0180879584513605,-6.709986355304719,1.5546056574583054,-0.8149591898918153,6.9357677383088605
6.028112958418205,-5.3171754938364035,-0.637973912358284,-0.762573984861374,5.409333140738467
6.038138958392665,-2.040967992246151,-2.5004272878170015,-0.3271107852458954,3.244177620423604
6.048164958367124,3.2338327297568323,-2.720532857179642,3.0321929597854616,5.201265932098941
6.058189958333969,7.4138659894466405,-1.4287326461076737,6.5225936186313636,9.977520403253408
6.068215958541259,8.932873213291169,0.7316217488050462,7.215636023283005,11.506385073017452
6.078241958515719,8.10996297955513,3.1203882676362995,5.933821102380753,10.522288503249477
6.0882669584825635,6.036516920328141,4.910104034543037,3.43282078742981,8.504876055419853
6.098292958457023,4.280693661868573,6.13001623749733,0.6098141603171826,7.501553879621611
6.108318958431482,2.823718087077141,6.79534576356411,-1.5613662081956865,7.522497744617187
6.118343958398327,2.0185686247050763,6.389583495855332,-1.7060877192020416,6.914631721846263
6.128369958372787,1.792149524241686,4.756458503007889,-0.10944949820637703,5.084061034324173
6.138395958347246,1.2806769065558912,2.8249810856580737,0.9416405788064004,3.2415024992997132
6.148420958314091,0.32181569293141365,0.9071259266138078,0.34459162116050723,1.0223434708188397
6.158446958521381,-0.5596551364660264,-0.8646616923809052,-1.619262560158968,1.9190791939824665
6.16847295849584,-1.5398958170413972,-2.050125024318695,-4.041258659362793,4.786027924548089
6.178497958462685,-2.063890100866556,-2.652327425479889,-7.535087540745735,8.250577395983225
6.188523958437145,-0.864494608193636,-2.954376459717751,-10.174936423301697,10.630382044478072
6.198549958411604,1.9350829567015173,-3.0648964369297027,-9.04294061601162,9.74232575944439
6.208575958386064,3.5771610599756243,-3.0416350436210635,-5.699015632867813,7.3841996296999834
6.2186009583529085,4.848143429160118,-2.350601742267609,-2.437893362939358,5.91380988107698
6.228626958327368,6.080530666708946,-1.2035142713785172,0.4521078836917877,6.2149578702269554
6.238652958534658,7.373986809253693,-0.21991787374019625,3.047993013560772,7.982124200045571
6.248677958501503,9.182634690999985,-0.09409222483634949,4.653032367825508,10.294675489356763
6.258703958475962,11.090587005615236,-0.8712854182720184,4.177901072502136,11.883396643251015
6.268729958450422,12.191604849100113,-2.3053051167726517,1.083788437843323,12.454888913837104
6.278754958417267,12.18958054304123,-3.798683994412422,-3.221712913513184,13.16796521873414
6.288780958391726,12.216998137235642,-4.406824827790261,-5.568499347567559,14.130935338182967
6.298806958366185,12.945218560695649,-3.427251314520836,-4.841785751581193,14.239649729585295
6.30883195833303,13.413897453546525,-1.0115034037828445,-3.0065236830711366,13.783866245977356
6.31885795854032,11.821512351036072,1.4685849291086197,-1.2718436640501023,11.980086905589948
6.32888395851478,10.624652795791626,2.6632845228910447,-1.9260893543064594,11.121427591895136
6.338908958481625,10.559075102806093,1.2744404125213624,-2.372330580353737,10.897073817050549
6.348934958456084,8.481427819132806,-2.330370376110077,-1.175651777163148,8.87397323875603
6.358960541663691,5.39965456366539,-6.7236553913354875,-1.563688722252846,8.764070609508344
6.368985541863367,2.2259053368866444,-11.000242846012116,-1.687750850915909,11.349383250855023
6.379011541837826,-1.5274479719996452,-13.99364303827286,-0.411478505730629,14.082771650156321
6.389037541812286,-4.913305969834328,-15.73523154258728,0.9857885187864304,16.51392946139151
6.399063541786745,-7.137495587468147,-16.1724489068985,0.8798784863948822,17.6993257797632
6.40908854175359,-8.141891115903855,-15.067842042446138,-0.5928059621527791,17.13714310111535
6.4191145417280495,-7.830991151332856,-12.744842666387559,-1.2813576686382295,15.013237974474533
6.429140541702509,-6.831949918270111,-9.562054082751274,-0.5668115437030793,11.765614871025074
6.439165541669354,-5.670936718583107,-6.547304536700249,0.7541048777103424,8.694561180936985
6.449191541643813,-5.7517937707901,-3.708639796972275,2.491640092134476,7.283228066875172
6.459217541851103,-5.737248821854592,-0.7160471051931382,4.277992540597916,7.192354807581366
6.469242541817948,-6.307894384860993,2.0050020611286166,2.3831942684948446,7.03485463652786
6.479268541792408,-7.159817333221436,3.4641484147310257,1.1523891413211824,8.036871855231771
6.489294541766867,-6.508645670413971,4.6919414949417115,1.1247645556926729,8.101967585759457
6.499319541733712,-4.856165224313736,5.762364951968193,1.808587216883898,7.7497211721829915
6.509345541708171,-2.8767643198370934,6.655856341123581,1.9641253459453585,7.512255650611721
6.519371541682631,-1.2063873007893562,7.580391767621041,1.1766446343809367,7.765449263612513
6.529396541649476,0.12652643769979477,8.583986812233926,0.6250288347154856,8.607641928906473
6.539422541856766,0.4383672192692757,9.129517414569856,0.11447342589497567,9.140752606164346
6.549448541831225,-0.14054513722658157,9.131984939575196,0.4765879829227925,9.145492768445703
6.55947354179807,-1.6743215507268907,8.998148020505905,1.9358645832538606,9.355083759050983
6.5694995417725295,-3.3533951336145402,8.51504346191883,3.0609308552742007,9.64989750107668
6.579525541746989,-4.795449198782444,8.151403366327287,3.735642238855362,10.16841840186542
6.589550541713834,-6.320972852110863,7.933799820542336,4.181576632261277,10.97203082938768
6.599576541688293,-7.791197340488434,7.92658844947815,4.584293085336685,12.022865862102107
6.609602541662753,-8.786246094703674,7.995297911167145,4.685530607700348,12.770164689646961
6.619627541862428,-8.171767464280128,7.655329683423043,3.7830093634128574,11.819180000991379
6.629653541836888,-6.356841427087784,6.734407836198807,2.1365435095131398,9.50402546300451
6.639679541811347,-4.403112722933293,5.149858002662659,-0.38500742956995965,6.786506451722397
6.649705541785806,-1.770510879456997,2.46541240632534,-2.9772688937187195,4.251716967654783
6.659730541752651,3.432630460560322,-1.3456723630428316,-5.621775083541871,6.722956275133437
6.669756541727111,11.10202883720398,-5.43140611410141,-7.530077061653137,14.472638917379292
6.67978254170157,16.954380683898925,-10.210646538734437,-3.981081454753876,20.188049352597684
6.689807541668415,16.679391978979112,-15.66420892238617,-1.244011356085539,22.91543414833472
6.699833541875705,11.701309969425202,-17.464515166282656,-3.462679009437561,21.30540051058149
6.7098595418501645,6.264494011402131,-11.415002224445344,-7.764063920974732,15.16004121273972
6.7198845418170094,0.5920007640123368,-2.17550803899765,-7.834032872915269,8.152016387756568
6.729910541791469,-4.288972149789333,3.9036497014760974,-3.816365389823914,6.942507319560333
6.739936541765928,-5.674173152446747,7.93645270228386,2.217940113544464,10.00513772053168
6.749961541732773,-6.262450994253159,9.521200756430627,8.912973968982698,14.467641869753367
6.759987541707233,-7.620114827156067,7.524728613495827,12.90341681599617,16.76859732396062
6.770013541681692,-8.23720774769783,2.2676174730062484,14.513245332241059,16.84125798616105
6.780038541648537,-11.044164791107178,-6.357593963742256,3.661489019393921,13.258924495602413
6.790064541855827,-14.383784469366073,-22.502667961120608,-24.119685044288637,35.986421434553634
6.800090541830286,-8.328337773084641,-26.939418253898623,9.552937688827516,29.771665798334094
6.810115541797131,-6.257683174610138,-22.558614120483398,13.640562429428101,27.094549509851557
6.820141541771591,-2.2654930333793164,-10.184535212516785,0.9263989341259004,10.474513409435023
6.83016754174605,-4.640409398674965,-0.05053865432739258,1.4941086101531984,4.875275795462867
6.840192541712895,-6.663505668640137,3.513153929114342,5.09660039305687,9.095047767447856
6.8502185416873544,-6.331258104443551,5.3803312700986865,4.295353508591652,9.35322701129693
6.860244541661814,-6.215795475840569,6.241638414859772,2.4031418985128403,9.130676562211653
6.870270541869104,-6.00453791320324,6.514084750413895,-0.6486322170495987,8.883045617335569
6.880295541835949,-4.44909815043211,5.953729702234268,-2.770042986273766,7.931866732695995
6.890321541810408,-3.2374667742848398,3.331035380959511,-2.2797253024578095,5.174372935773833
6.900347541784868,-2.649399139881134,0.032331009507179265,-1.7370165663957597,3.1682152149928138
6.910372541751713,-0.2361299004033208,-2.2826945185661316,-0.8741119623184205,2.4557123849556373
6.920398541726172,2.9353841185569767,-2.842749604582787,1.3617966449260712,4.307225944847103
6.930424541700631,5.943368436098099,-1.5302520042657852,3.9136993110179903,7.278897022271253
6.940449541667476,7.962738275527954,0.8162444078922272,5.702380120754242,9.827949675265252
6.950475541874766,8.046900758743286,3.062268698215485,5.80289492726326,10.382855625404376
6.960501541849226,6.771917724609375,4.925019696950913,4.434529520273209,9.47521718750592
6.970526541816071,5.170672336220742,6.232061845064163,2.6371702730655673,8.516402661828744
6.98055254179053,3.3052038440108302,6.648224555253983,-0.8832437051832677,7.476856400272233
6.9905785417649895,1.4726347106695177,6.171168941259385,-4.50371553003788,7.780451957832369
7.000603541731834,1.3563259899616242,5.360388171672821,-2.322968093454838,5.9974629890700015
7.010629541706294,1.1209628422558309,4.351955725550652,-0.022158608436584473,4.494059115632461
7.020655541680753,0.29273526024073365,3.1738019979000094,0.6216345991194249,3.24732853731874
7.030680541647598,-0.8194463431835175,1.6772504210472108,0.11290374085307121,1.8701359680404264
7.040706541854888,-1.5945919878780843,-0.21376017093658448,-1.247497027516365,2.0358452426807854
7.050732541829348,-2.0222156792879105,-2.2954256612062456,-3.131559665501118,4.377784960259636
7.0607575417961925,-2.692786064743996,-4.340746028423309,-6.0615605449676515,7.926896562593757
7.070783541770652,-1.0865246424078943,-5.306306104660035,-8.957757208943367,10.467990948089742
7.080809541745111,2.664041737318039,-5.121594316363335,-9.780991963148118,11.357625214046545
7.090834541711956,6.101760152578354,-4.691257955431938,-7.954593104124069,11.068646241351047
7.100860541686416,7.884489081501961,-3.5823896402120594,-4.197057720422745,9.623615594940526
7.110886541660875,9.18919175863266,-1.3669310849905014,0.5276550793647766,9.305276226465024
7.120911541860551,10.859727237224579,0.7120587193965913,4.89291789829731,11.932365601433114
7.13093754183501,12.163844608068468,1.6994575613737106,7.211215528249741,14.242503327962286
7.1409635418094695,12.382455629110337,1.6502953416109085,5.976495251655579,13.848002657946402
7.150989541783929,11.491698982715608,0.01713468074798584,1.9670208871364594,11.65884257879239
7.161014541750774,10.628518974781038,-2.4612942123413086,-1.7436027239263059,11.048236748724596
7.171040541725233,10.482425122261049,-3.712217708230019,-3.7311112314462664,11.729577476556031
7.181066541699693,11.214657905101777,-2.971175510287285,-3.977403556108475,12.264427214082891
7.1910915416665375,11.136885259151459,-0.9301692187786103,-3.4805264657735826,11.705105404481355
7.201117541873828,9.224637579917909,0.30233788669109346,-3.3796386069059374,9.828901453969904
7.211143541848287,7.213564354777336,-0.04188419044017792,-0.9919509724527598,7.281567943628142
7.221168541815132,6.277761343717575,-1.382867086529732,0.413534386754036,6.441554125885303
7.231194541789591,6.024752322435379,-4.380605328083038,-2.6836030125617985,7.917642876270106
7.241220541764051,3.6559049284458163,-8.895001382231714,-3.923650687336922,10.386612785310618
7.251245541730896,-1.227523523569107,-13.267028260231019,-0.9771504271030427,13.35947887516095
7.261271541705355,-5.807880263328553,-16.23085557460785,1.4158635091781617,17.29672845695285
7.2712975416798145,-9.30130744099617,-17.55376238822937,1.7301262074708939,19.94096865220254
7.281322541646659,-11.503077664375306,-17.664841943979265,0.5289005362987519,21.086658636107245
7.291348541853949,-12.207982900142671,-16.210406692028048,-1.1708979177474976,20.326906639843383
7.301374541828409,-10.136589213609696,-12.240593991279603,-2.381224780082703,16.07024622082993
7.311399541795254,-7.807536799907685,-7.213971905708314,-2.0498817801475524,10.82594276960868
7.321425541769713,-7.204854927062988,-3.003429921269417,-0.3328690501302481,7.81289495747478
7.331451541744173,-7.04136853158474,0.04597665667533875,3.747322636842728,7.976553867124876
7.3414765417110175,-4.203963282108307,2.8097005569934845,5.552250519990921,7.509674449270341
7.351502541685477,-3.1036810183525088,5.105679949522019,3.7812645542621612,7.070980500606139
7.361528666689992,-2.3133060081303123,6.744061004519463,1.6306763251125813,7.313880556668569
7.371554666664451,-1.5791306340694429,7.350067604184151,0.6639115762710571,7.547047497309172
7.381579666864127,-1.1184133100509643,7.383557531833649,0.7315205919742584,7.503525340430252
7.391605666838586,-0.22711316496133804,7.899980109930039,-0.293223831653595,7.908681706987492
7.401631666813046,0.5028193232417106,8.379890919327737,-1.0483578924089672,8.460168636749087
7.411656666779891,0.5626334157586098,8.493670134544374,-0.6473382282257081,8.536863328922493
7.42168266675435,0.20025661110877993,8.415593433380128,0.5833884000778199,8.438166718641488
7.4317086667288095,-0.6028836017847061,8.031669931411743,2.12030666872859,8.328678820431206
7.441733666695654,-2.190603210926056,7.29438690841198,3.1623320996761324,8.246645809416922
7.451759666670114,-4.436597680449486,6.69344984471798,3.838708770275116,8.900637888652252
7.461785666644573,-6.619119454622269,6.3216020125150685,4.324973748922348,10.12327971993568
7.471810666844249,-8.228740394711496,6.277730353474618,4.600881636142731,11.326525447121401
7.481836666818708,-9.052668043971062,6.466083787679673,4.619250079393387,12.045684271124019
7.491862666793168,-8.82007340669632,6.732060179114342,3.926643877029419,11.769998355638851
7.5018876667600125,-7.7363311618566515,6.666356770992279,2.464154670238495,10.50538864978003
7.511913666734472,-6.044156892299652,6.074118610024453,0.6551161944866181,8.593947094069023
7.521939666708931,-3.545038211345673,5.464529421329498,-2.0168122673034667,6.818790907339979
7.531964666675776,-0.213053534924984,4.297193042635918,-4.717600246667862,6.384905006480773
7.541990666650236,4.612940056622029,1.7417773693799974,-5.2219389688968665,7.182036686439023
7.552016666857526,11.254949898719788,-1.8242231100797655,-4.63882509559393,12.30936169935524
7.562041666824371,14.897253034114838,-6.295848535895348,-4.197166478633881,16.708742118985118
7.57206766679883,14.475088741779327,-11.343327054977417,-4.7466971611976625,18.992903851141122
7.582093666773289,11.993455574512483,-14.562953681945801,-7.201746547222138,20.193755220134992
7.592118666740134,6.850296142101288,-12.5649589240551,-7.228814477920532,16.033106646993687
7.602144666714594,1.5796098133921623,-5.217074085474015,-4.120529361963272,6.833139205276796
7.612170666689053,-2.6241201648116115,1.4957025611400605,-0.31993025824427607,3.0373488704645215
7.622196666663513,-4.0600978034734725,5.71437392950058,3.0504970836639407,7.644867300180443
7.632221666863188,-4.057240561544895,7.899259732961655,7.975951813459397,11.936302301536301
7.642247666837648,-4.822898952662945,7.277141130566597,11.556649854183197,14.483552505997068
7.652273666812107,-5.756360446214676,4.032122384905815,12.958475368022919,14.7416342505592
7.662298666778952,-7.982103084325791,-1.1784250384569168,9.430487637519837,12.411154350078801
7.672324666753411,-16.182971556186676,-14.563436661958695,-29.652989416122438,36.78698189724048
7.682350666727871,-7.816668981313706,-27.205726182460786,-15.430985709428787,32.23921790371255
7.692375666694716,-2.044280878454447,-27.65364395141602,19.263836739063265,33.763864026662965
7.702401666669175,-2.5016186580061914,-21.53475964307785,12.84296830058098,25.198130953801854
7.712427666643634,-2.5407116800546645,-7.818707320690155,5.387218705415726,9.829014466759173
7.72245266684331,-5.662483983635902,1.489343714118004,2.305324412584305,6.2925662659183095
7.732478666817769,-6.081438154578209,5.845627548694611,3.121026198863983,8.994223479545765
7.742504666792229,-5.962630333900452,7.964373157024384,2.273943575620651,10.20563666158005
7.752529666759074,-6.221912248134613,8.841408142447472,0.7013296633958817,10.833953722514368
7.762555666733533,-6.026089580655098,8.820555217266083,-0.8521428036689759,10.716440515990591
7.7725816667079926,-5.125681520104409,7.738829092383385,-2.4528543412685395,9.600967721336179
7.7826066666748375,-3.3208381292223934,4.944360532164574,-2.8699455893039705,6.611448754856182
7.792632666649297,-1.4990793281793595,1.8028293174505234,-2.480577744841576,3.4133119295249177
7.802658666856587,1.087033057808876,-0.6498373281955719,-0.9720171564817429,1.5964794938803717
7.812683666823432,4.670069692432881,-2.076519940495491,2.547994387149811,5.710845943676163
7.822709666797891,8.4825417137146,-1.3639396494626999,5.507743853330613,10.205346032652974
7.832735666772351,8.986345415711403,1.4161149394512178,5.227668070793152,10.49229712268026
7.842760666739196,7.334028106927872,4.398276198506355,2.9374212884902957,9.042192522703303
7.852786666713655,5.687738692760468,6.034858065247536,-0.5948401719331742,8.314067484387728
7.862812666688114,4.670108868777752,6.029951081871987,-1.8519051446020605,7.848552704837328
7.872837666654959,4.037524042725563,5.796502751111984,-0.3159825105965138,7.071130707760864
7.882863666862249,1.158847975730896,5.227369278073311,0.7624979710578919,5.408301152493978
7.892889666836709,-2.417485703229904,3.821077660918236,0.012916499376296998,4.521619007838398
7.902914666803554,-4.224294635653496,1.3639530980587007,-1.5840142285823824,4.713187276023123
7.912940666778013,-4.080975871682167,-1.191408196091652,-2.0356195440888407,4.713551154198164
7.9229666667524725,-3.491278910636902,-2.577439795732498,-2.0267537033557894,4.789567298467575
7.932991666719317,-3.286501817107201,-2.647252627015114,-2.4605890381336213,4.885032147250486
7.943017666693777,-1.5544090448319914,-1.3409220850467682,-4.483535034656525,4.9311607075630945
7.953043666668236,2.274045609533787,0.1791329598426819,-6.861574251651764,7.2308072344982595
7.963069666875526,4.9590341198444365,-0.2560343706607819,-6.774954768419266,8.399856255607467
7.973094666842371,6.105702930092812,-1.6663892179727555,-4.22213525891304,7.608080404469742
7.983120666816831,6.538572889566422,-2.7015352535247805,-1.1434560576081276,7.166499837011852
7.99314666679129,7.20086420238018,-3.0788321059942247,1.9808722101151943,8.078088085111961
8.003171666758135,8.875403269529343,-3.066431331038475,3.731232561171055,10.104349594619618
8.013197666732594,11.226691474914551,-3.109277973175049,4.05028559088707,12.333329816198788
8.023223666707054,12.500397477149964,-3.809464505910874,2.4631179589033128,13.29807907135478
8.033248666673899,11.808530362844468,-4.704158082604408,-0.007015635520219803,12.711040154743193
8.043274666648358,11.182942607402802,-5.163948622941971,-2.9154743492603306,12.65798409787452
8.053300666855648,12.351129755973817,-4.720396385192871,-5.26065864622593,14.230498152712554
8.063325666822493,13.613706167936325,-3.0331343615055086,-5.4740030801296236,14.983244288308242
8.073351666796952,13.025428326129914,-0.4274378961324692,-3.468768299818039,13.48617216826258
8.083377666771412,11.901366605758668,1.5553593635559082,-3.5024418300390243,12.503150347303505
8.093402666738257,10.760669556856156,1.7439741683006287,-4.125980136394501,11.655778279354523
8.103428666712716,7.607286036014557,0.20979985177516938,-1.9104654479026795,7.846317291518163
8.113454666687176,4.373934532105923,-2.9439777714014053,0.1584338529780507,5.274790014344052
8.12347966665402,2.0536272141337397,-6.717710527181626,0.8787792098522187,7.079355363400401
8.13350566686131,-0.06397307083010674,-10.075738409757614,1.2631430071592331,10.154808088397909
8.14353166683577,-1.5993764720857144,-12.872062876224518,1.5308425730466844,13.061067596961244
8.153556666802615,-2.622920608520508,-15.245052437782288,1.2640066409111024,15.520600798216563
8.163582666777074,-4.343921066522599,-15.932254643440247,2.154265104532242,16.65374571669111
8.173608666751534,-5.599696581959725,-14.31225548028946,2.91464287519455,15.642646893445159
8.183633666718379,-5.8031498658657075,-11.667047624588013,1.1398037405312063,13.080355545895186
8.193659666692838,-5.5107791429758075,-9.001875620484352,-0.8192813786119223,10.586485414275502
8.203685666667297,-5.624004626870156,-6.525738251209259,-1.4115424168109894,8.729670083159455
8.213710666866973,-6.9195891559124,-3.998813720941544,2.409975539445877,8.34740722393117
8.223736666841432,-6.643172560930252,-1.1722211426496507,3.0679989695549015,7.4106991410231595
8.233762666815892,-7.416677330732346,1.271958854198456,2.0312069427967074,7.794278901825266
8.243787666782737,-7.070816863775254,4.002902094125748,1.7067157101631165,8.302563147096347
8.253813666757196,-5.283419517874718,5.9813958030939105,1.9105169034004212,8.206198412986838
8.263839666731656,-3.6545703014731408,7.61887580215931,2.5725363206863405,8.832955094326506
8.2738646666985,-1.7042619261145593,9.53708705663681,1.8453767283260822,9.862350303458124
8.28389066667296,-0.4310368573665619,11.01192207455635,1.0633418941497803,11.07153632213542
8.29391666664742,-0.34617475479841237,11.803535671234131,0.908294931203127,11.843491503142372
8.30394266685471,-1.0117983958125114,12.352267624139786,1.595114875137806,12.495865032762904
8.313967666821554,-2.5589900761842728,12.641130602359773,2.488205730021,13.13536375099052
8.323993666796014,-5.097239493727685,12.220678374767305,2.8207038474082946,13.5382126069399
8.334019666770473,-7.616494815945626,10.985527743101121,3.525553242266178,13.8247003128395
8.344044666737318,-9.219263404011727,10.083252081871033,4.452081692218781,14.369684118076362
8.354070666711777,-10.203229930400848,9.637402473092079,4.7581685212254525,14.819770413787449
8.364096916746348,-10.013492460250855,8.542694944739342,4.721321707069874,13.983509818068747
8.374121916713193,-8.33748983502388,6.789475159049035,4.3304853343963625,11.591540575604798
8.384147916687652,-4.959239941835404,4.680441775918007,2.8623275443911553,7.395506405232466
8.394173916662112,-0.8129316678643227,1.882777127623558,0.20081706672906877,2.0605909597027625
8.404198916861787,3.131769872903824,-2.0164076399803164,-2.285365380495787,4.369985953040087
8.414224916836247,9.941879271268846,-6.1580688393116,-4.801080652177334,12.641722616119104
8.424250916810706,17.553268883228302,-11.172728691101074,-5.9606563138961794,21.644318852397607
8.434275916777551,20.279278242588045,-16.985303099155427,-6.530249962806702,27.246904631301163
8.44430191675201,16.032339094877244,-19.1848619055748,-9.81597468495369,26.85978745643301
8.45432791672647,8.978956874012948,-12.59514575958252,-11.38890843987465,19.208503291572768
8.464352916693315,3.545643398165703,-2.4358313423395157,-7.009781287908554,8.224469292276096
8.474378916667774,-1.0607328665256501,3.2503549146652224,-0.7848353581130505,3.5079805907046473
8.484404916875064,-3.2844050055742264,6.615808176398278,5.398638317584992,9.148854013024597
8.49442991684191,-5.278633571863175,8.650678399801254,10.854311546087265,14.84972350928839
8.504455916816369,-7.8423622316122055,9.152802196741105,13.410107288360596,18.030735173858783
8.514481916790828,-10.58887485265732,8.047621720433236,12.795099484920502,18.455434344101473
8.524506916757673,-12.194422037601472,4.887927884459496,7.477543337345124,15.116528113184309
8.534532916732132,-18.93402804851532,-4.254371543526649,-25.26643630027771,31.858906112550777
8.544558916706592,-9.176150128841401,-18.646204705238343,-23.418884553909304,31.31017142792451
8.554583916673437,-0.2895775079727173,-24.55992424964905,16.506965775489807,29.5931352410456
8.564609916647896,-5.894325499534607,-31.155672383308413,17.743633174896242,36.335320460892994
8.574635916855186,-5.076930359601975,-24.606257586479188,9.530338200330736,26.871369159406377
8.584660916822031,-4.898326572775841,-10.2908294069767,4.552569601535797,12.272761020808893
8.59468691679649,-5.712623857855797,-0.8948280626535416,4.027694288492203,7.046780107581635
8.60471291677095,-5.111702581644058,3.9802786320447923,3.7500486087799074,7.485651998330607
8.614737916737795,-4.803959236443043,6.882576280832291,2.0945854979753493,8.65073228202158
8.624763916712254,-4.5933498376607895,8.520772563815118,0.09732105731964112,9.68049064890828
8.634789916686714,-4.185897139906883,9.431618489027024,-2.200114291906357,10.550718699969572
8.644814916653559,-2.988036248981953,8.582367133498192,-3.272342784404755,9.658861917328872
8.654840916860849,-1.8632428957521916,5.674505274295807,-2.4516954231262207,6.456198157147905
8.664866916835308,-0.19305218361318113,2.985602345466614,-1.5342222636938097,3.362280247877521
8.674892916809767,2.521298924088478,1.098865483403206,0.5459171032905579,2.8040112515626308
8.684917916776612,6.077931579351426,0.3266634732484818,3.8539524614810947,7.204228680670004
8.694943916751072,7.012125436663628,0.9082152628898621,6.712336935997009,9.749370505094209
8.704969916725531,5.4378567624092105,2.5823514568805694,6.0859457731246955,8.560231373552185
8.714994916692376,3.732697288691998,4.279878267645836,4.080087094902993,6.992674576788889
8.725020916666836,1.8681867165863515,4.6488089239597326,1.5007114322483541,5.230074647880109
8.735046916874126,-0.449978473931551,4.475879859924317,-0.5797293587028981,4.535644086215315
8.74507191684097,-2.437227803617716,4.782190344929695,-0.32912748992443086,5.3775225491382175
8.75509791681543,-3.2710417789220814,5.15927435874939,1.537672851830721,6.299386004013398
8.76512391678989,-3.861423741281033,4.788606494665146,1.8173771899938584,6.414374897149994
8.775148916756734,-4.583999555110932,3.320971153378487,0.13517476201057435,5.662170391211649
8.785174916731194,-4.507670001983643,0.7198203134536744,-2.9803497916460038,5.451579130032704
8.795200916705653,-1.5251753054559232,-1.511565472483635,-5.781443831920624,6.167339999678165
8.805225916672498,2.4312335304915904,-2.832245666384697,-7.6384715759754185,8.50169159706031
8.815251916646957,5.204330663681031,-3.5483214229345323,-8.032448780536653,10.207638120022258
8.825277916854247,5.911039765477181,-3.5768979352712633,-6.261662789583206,9.324323612941118
8.835302916821092,5.039031046628952,-2.829971684217453,-3.5343889698386195,6.774398793433993
8.845328916795552,4.3051964190602305,-2.0637256479263306,-1.385024416744709,4.97111379789047
8.855354916770011,4.419953288733959,-2.327031615972519,-0.34894984334707263,5.007277624567841
8.865379916736856,5.155375435352326,-3.250669494867325,0.3905019119381905,6.1071466158528205
8.875405916711316,7.203481416106224,-3.8916892218589783,1.4963206118345262,8.323122303866615
8.885431916685775,10.35181703567505,-3.972322325706482,2.515829438567162,11.369646360523245
8.89545691665262,12.565453598499298,-3.711990836262703,1.5770512180030347,13.196840176676464
8.90548291685991,13.490746239423753,-3.2244441479444506,-1.5592255425453188,13.958096519664318
8.91550891683437,14.217819439172745,-2.22623029589653,-3.998302089571953,14.936161171290346
8.925533916801214,14.71871882915497,-1.0749293214082718,-4.870521308183671,15.54085373559688
8.935559916775674,13.953941613435745,-0.036692447662353515,-3.896421373486519,14.487785628130057
8.945585916750133,11.560075153112413,0.9465390837192535,-1.6272748535871506,11.712356604532332
8.955610916716978,9.867393929958345,1.6491633206605911,-2.42600655823946,10.294207616315688
8.965636916691437,9.529991460442544,1.1653676211833954,-4.658775503039361,10.671598198785883
8.975662916665897,7.663754936456681,-1.1628726142644883,-3.8854771399497987,8.67077534296345
8.985687916865572,4.3253842234611515,-4.6266930001974105,-2.1964334696531296,6.7036972474340475
8.995713916840032,1.5884949499368668,-8.089228752851486,-0.9125422024726868,8.29407446875345
9.005739916814491,-0.9504249970614911,-10.878742382526399,1.5178623390197754,11.02516437884851
9.015764916781336,-2.8074189734458925,-13.669765763282777,3.719781081676483,14.442329057706731
9.025790916755795,-4.317118014693261,-16.48530067205429,3.1247801113128664,17.325325305600444
9.035816916730255,-5.493032258749008,-17.87943709731102,2.037359383106232,18.814848061259745
9.0458419166971,-6.405648720860482,-16.40746721506119,2.0839289474487304,17.736405380075862
9.05586791667156,-6.131937632560731,-12.875676455497743,1.1126982414722444,14.304607673503277
9.065893916646019,-5.6528542041778564,-8.886726987361909,-0.1255011284351349,10.533016079681842
9.075919916853309,-6.7264252173900605,-5.936768099069596,-0.1068298725038767,8.972258594631038
9.085944916820154,-6.63144129216671,-2.9891410803794862,2.1304236674308776,7.579556914003322
9.095970916794613,-6.8967627954483035,-0.8310173982381821,0.94501296043396,7.0106331003870554
9.105996916769072,-7.835125132799149,0.6505120968818665,0.4031305090337992,7.872411704307923
9.116021916735917,-7.606572675704957,2.8178767186403277,2.0208657033741475,8.359681528820959
9.126047916710377,-4.517572554051876,5.2330083328485495,1.5850597107410431,7.0926195639833685
9.136073916684836,-2.7671065145730975,6.573307104706765,1.9673226034641267,7.398351369182339
9.146098916651681,-1.0699653276801109,7.961348977088929,1.229256638288498,8.126436809586899
9.156124916858971,0.3071346500515938,9.07284093797207,0.8643425074964762,9.119093285479073
9.16615091683343,0.5893733176589012,9.850591371059418,0.8970470809936524,9.908895232702672
9.176175916800275,-0.5007631498575211,10.237250200510026,1.478608810901642,10.355594594989403
9.186201916774735,-2.6362785726785662,10.568466900587083,2.3589129745960236,11.144816183467825
9.196227916749194,-5.286420308947563,10.237008125782014,3.136842917203903,11.9407855075532
9.20625291671604,-7.319476726055146,8.716858355998994,3.715601491928101,11.973472912594357
9.216278916690499,-8.477401426434517,7.327269895076752,4.526521425247193,12.084892025725091
9.226304916664958,-9.262643896937371,7.36419915497303,5.139065212011338,12.901084931465329
9.236329916864634,-9.761450568437576,7.927733334302903,5.154983671903611,13.590758980920107
9.246355916839093,-9.015525945425034,8.217591508626938,4.391940447986126,12.965248133913446
9.256381916813552,-6.4617702966928485,8.154375506043435,2.909518083035946,10.803407366951237
9.266406916780397,-3.3512091520428657,7.59064602971077,0.07693854063749314,8.297856920201456
9.276432916754857,0.7532128849625588,5.780214747190476,-3.246915582418442,6.672381356986692
9.286458916729316,7.699234671592713,2.3062780934572222,-5.025636245012284,9.47914304353496
9.296483916696161,13.559477920532228,-1.947821554541588,-4.452755291461945,14.404182724867805
9.30650991667062,15.225142668485642,-7.543401696681976,-2.230667455494404,17.137203848068346
9.31653591664508,13.9561565387249,-14.513430104255677,-4.146453577280044,20.557408299516922
9.326560916844755,10.296445072889329,-19.73633854150772,-8.431483826637269,23.80398621413808
9.336586916819215,4.744576376080513,-15.689327391386033,-9.203741970062257,18.798267612576506
9.346612916793674,-0.9075729462504387,-2.7728882414102554,-6.394357162714005,7.028541909704235
9.35663791676052,-5.890197950005532,4.509961525797844,-0.17532496064901354,7.420574350833819
9.366663416847587,-8.112149253487587,7.7912651681900025,4.914053828716279,12.274310712354936
9.376689416822046,-6.539687953591347,6.671490041613579,8.045317332744599,12.32896706501634
9.386714416788891,-5.184749507904053,3.1294730865955356,11.389894280433655,12.89980313721463
9.39674041676335,-4.261284121870995,-1.9394939500093462,14.875670961141587,15.59505580924877
9.40676641673781,-5.091477062702179,-8.813704619407654,11.274111224412918,15.189144534786136
9.416791416704655,-0.5488924589753151,-26.66118668317795,-36.181075909137725,44.946528366822406
9.426817416679114,4.5128728544712065,-34.623330881595614,-0.41483634240925316,34.91866480734994
9.436843416653574,-3.8672507840394976,-23.587064509391787,17.851330701112747,29.83245294301751
9.446868416853249,-6.2155551552772526,-8.350370666384697,8.751894872188569,13.599907352925321
9.456894416827708,-7.746877784729004,3.125412195324898,0.8734547352790833,8.399121381239517
9.466920416802168,-8.603424126505852,9.338010998368263,2.632107753753662,12.96708707973999
9.476945416769013,-6.594285160303116,10.10389976978302,4.23636153459549,12.787499614272349
9.486971416743472,-6.1433560752868654,9.708559579253198,2.322976571917534,11.721483401231724
9.496997416717932,-6.2088893294334415,8.599915797114372,-0.20621260324493051,10.609023614845375
9.507022416684777,-6.589404489398003,7.011700928807259,-2.2754071336984634,9.887450584656339
9.517048416659236,-6.361896929740906,4.472024790644646,-2.1451346772909163,8.066866867409123
9.527074416866526,-5.632707622647286,1.3753347033262253,-1.442150251865387,5.974842094763482
9.537099416833371,-4.507002542316914,-1.375938720703125,-1.3203632748126983,4.893836782837714
9.54712541680783,-2.032771072983742,-3.207348058819771,-0.43855462253093724,3.8225083338715797
9.55715141678229,1.9808903364837172,-3.2579299825429917,2.71118549823761,4.678521251654316
9.567176416749135,6.744175025224686,-1.6412146157026293,6.49450827240944,9.505583616278116
9.577202416723594,8.94310759484768,1.0392431795597077,7.532128264904022,11.738490364533664
9.587228416698053,8.584849276542664,3.290846298336983,5.875253051519394,10.91090761025962
9.597254416672513,7.183257066607475,4.69402310371399,3.9354942226409912,9.440399872865957
9.607279416872188,4.777214949131012,5.291364129781723,1.3129811650514602,7.248740343254226
9.617305416846648,1.8322592309117318,5.508438502550125,-1.95892424762249,6.1267816048526855
9.627330416813493,-0.31100404500961304,5.163705963492394,-2.744636834263802,5.85607497778306
9.637356416787952,-0.37411172792315484,4.003862791657448,-1.77743325188756,4.396606168888021
9.647382416762412,-0.04193330705165863,2.3645824348926547,-1.8418331694602967,2.9975586596040666
9.657408416736871,-0.24177109306678177,0.5330076205730438,-2.5384727811813357,2.6050709099427887
9.667433416703716,-0.4854883222281933,-0.8678671360015869,-2.8815932428836826,3.0483556049457947
9.677459416678175,-1.0201081663370133,-1.2356628477573395,-3.264668606221676,3.636694165420653
9.687485416652635,-1.2814523935317994,-0.1874640727043152,-4.9367047727108,5.103755188912264
9.69751041685231,0.5421308849751949,0.5188480031490326,-6.5235958313941955,6.566613413183347
9.70753641682677,2.1083026273548606,-0.4026918947696686,-6.085385609865189,6.4528302899874035
9.71756241680123,1.8688962762057781,-1.6610167962312699,-4.309546455144883,4.982362967270655
9.727587416768074,1.5584405538439752,-2.8429507488012313,-2.522617763578892,4.107883433241353
9.737613416742533,2.554671030342579,-3.4723970818519594,-0.8328089851140976,4.39061002287978
9.747639416716993,5.025664896368981,-3.0474705648422242,1.2240227955579759,6.003550307794612
9.757664416683838,8.275140974521637,-1.776011062860489,3.8863653320074083,9.31321689522148
9.767690416658297,11.011796944141388,-1.1897633743286133,5.423134058117867,12.332298724820664
9.777716416865587,12.79265067100525,-1.906084713935852,3.4489187568426134,13.385817521480405
9.787741416832432,13.100202519893648,-3.229776223897934,-0.8749295492470265,13.520808490428
9.797767416806892,12.762213574647904,-4.086367589235306,-4.108842532038689,14.016243517874898
9.807793416781351,13.04739982366562,-3.3730376851558685,-4.543093603849411,14.221523296658791
9.817818416748196,13.41609249830246,-1.2107244729995728,-4.166248741149903,14.100178021771953
9.827844416722655,12.467088228464128,1.1266725021600723,-4.312793998718262,13.24001026807807
9.837870416697115,10.661836409568787,2.205791353583336,-1.8355363029241563,11.041261913354928
9.84789541666396,9.409573901295662,1.2551235508918763,-0.2426454893499613,9.496014583258061
9.85792141687125,8.335539203882218,-1.5602564066648483,-1.7747392934560777,8.664024090094227
9.867947416845709,5.909572699069977,-5.528659928441048,-2.652188846468926,8.51605752489244
9.877972416812554,1.2757678766548635,-9.918482222557069,-0.9765066486597062,10.047757884680625
9.887998416787013,-3.6768481931090355,-13.368884418010712,1.674917382001877,13.966088624014628
9.898024416761473,-7.147492572069169,-15.966271405220033,3.3719629669189457,17.81512298310634
9.908049416728318,-9.159254014492035,-17.82779331922531,2.510248271226883,20.199591459190472
9.918075416702777,-9.74727925658226,-17.684856963157653,0.5008000238612295,20.19936680633935
9.928101416677237,-8.312680683732033,-14.317810335159303,-0.9040426167100668,16.580640699204427
9.938126416644081,-6.525071083903313,-9.687163447737694,-0.6700476443767548,11.69900218646493
9.948152416851372,-5.724415937662125,-5.886203716993332,0.3700176537036896,8.219078116757295
9.958178416825831,-4.941630467176438,-2.836259779930115,3.673648889064789,6.779364083267884
9.968203416792676,-4.240819744169713,0.004395936727523804,3.3560199487209323,5.408090358251443
9.978229416767135,-5.5908000433444975,1.7895941448211672,1.657965134382248,6.099880385275287
9.988255416741595,-6.805112367868424,3.3835749524831775,0.9249406385421753,7.65595513200111
9.99828041670844,-5.740019817352295,4.707136069536209,0.9691467583179474,7.486267622779996
10.008306416682899,-4.184329501390457,5.835836970806122,1.7891848397254946,7.400458696374004
10.018332416657358,-2.331030819118023,7.311975333094598,0.9267719864845276,7.730303633518827
10.028357416857034,-0.9834285825490952,8.738401837348938,0.28390585497021675,8.79814758812582
10.038383416831493,-0.5092954069375992,9.803456965684891,0.351211838722229,9.822957805326357
10.048409416805953,-0.7618673488497735,10.11516150712967,0.5005626634508371,10.156155628612737
10.058434416772798,-1.7144726264476777,9.736378877162934,1.339572547674179,9.976519665543954
10.068460416747257,-3.142178793847561,8.674052644371987,2.4237303833663466,9.53870776473916
10.078486416721717,-4.516774409115315,7.226361570954323,3.2595046377182006,9.123920379985288
10.088511416688561,-6.241014516949654,6.196785593032837,4.3328826928138735,9.804299379174509
10.09853741666302,-8.029418753385544,5.989982439279556,5.744841431379318,11.547928741198108
10.108563416870311,-9.474018403887749,6.399413250088692,6.211808259487152,13.011382575085834
10.118588416837156,-10.248558715581895,6.859340615272522,4.94381849527359,13.286265492502627
10.128614416811615,-9.938622372150421,6.798068811893463,3.2566242992877963,12.473794773610763
10.138640416786075,-7.8828401666879655,6.333181253671646,1.5047213065624239,10.223137487866925
10.14866541675292,-4.544048746526242,5.949162442088127,-1.5246205508708954,7.639723856089077
10.158691416727379,-1.5940787485241892,4.235423056483269,-4.607166223526002,6.4580086818682245
10.168717416701838,3.755057918429375,0.3172295755147934,-7.815462116003037,8.676551311495778
10.178742416668683,13.02598615050316,-4.341165858507156,-10.827112637758255,17.48566282057597
10.188768416643143,20.925297338962555,-9.47965336561203,-4.54610141158104,23.417919094158044
10.198794416850433,23.085230734348297,-15.885257062911988,1.9073814801871778,28.087494977727285
10.208819416817278,16.26652709841728,-19.689418144226075,-0.5748013253509998,25.546105129067094
10.218845416791737,9.057210161089898,-13.80425055384636,-6.387628186941147,17.702886293204358
10.228871416766196,3.531498983502388,-2.9438315910100936,-6.4419570064544684,7.914318642796437
10.238897416740656,-2.7899887159466745,3.8363786548376084,-2.3930725546181204,5.3130626262138
10.2489224167075,-6.083725000619888,7.812144990563393,3.4982172167301178,10.50137338314276
10.25894841668196,-7.724526802897453,9.634455476403238,10.320761303901673,16.093761541280262
10.268973416648805,-9.331697174906731,8.10690254688263,14.300901356935501,18.902862764396666
10.278999416856095,-9.622797882556915,4.191421004533768,13.112537806034089,16.795978591331377
10.289025416830555,-14.810370426177979,-4.156230706572533,-13.206818311214448,20.27415536470738
10.299051416805014,-11.891880083084107,-16.74101812362671,-25.009495611190797,32.359749233457016
10.309076416771859,0.5222712555527688,-18.68999099493027,14.216764601469041,23.48839982605317
10.319102416746318,-1.888738363981247,-20.140432598590852,16.431779937744142,26.061614489290694
10.329128416720778,-1.499366134107113,-15.563292996883392,4.481496695280075,16.264931611929796
10.339153416687623,-3.7699694877862933,-4.688742483258248,-0.23060256399214268,6.0208100414869525
10.349179416662082,-7.190921012163162,1.5197685313224794,2.7159533178806305,7.835524476183746
10.359205416869372,-7.431746774911881,4.072355321645737,3.5245729565620425,9.178101792760744
10.369230291806161,-7.148407661318779,5.278856350779534,2.4620479184389117,9.221048553025616
10.37925629178062,-6.177853478193283,5.507943828105927,0.7923509305715561,8.314513744577768
10.38928229175508,-4.842821293473244,5.292986147403718,-0.913958398103714,7.2321463197718705
10.399307291721925,-3.095003457963467,4.0885544478893285,-1.5961869621276856,5.3705806665786
10.409333291696385,-1.100398111715913,1.6803517842292786,-1.9499522799253464,2.7994235151217337
10.419359291670844,2.015858294069767,-0.6136068105697632,-1.6487586933374405,2.6755566165946205
10.42938429187052,5.180647686123848,-1.4222773200273515,0.6286446797847748,5.408990419313596
10.439410291844979,6.021222358345986,0.190363706946373,2.248913399577141,6.430316361452644
10.449436291819438,5.569411513209343,2.2688383716344833,1.7140943115949632,6.253326432316804
10.459461291786283,5.3702758133411415,3.374228178262711,1.695189678668976,6.5649787628753815
10.469487291760743,4.397059977650643,3.9994931674003604,2.437434648871422,6.424264137678197
10.479513291735202,2.8258365333080295,4.5455704843997955,2.2801596044003967,5.81779090060517
10.489538291702047,1.5130785857141018,4.8621480953693395,1.5945427250862123,5.335958902575586
10.499564291676506,0.20066788963973523,5.266215255260468,2.370563697963953,5.778655809336205
10.509590291650966,-1.7069126151502134,5.319414392709732,2.729188490509987,6.217571067053321
10.519615291850641,-4.082809558510781,4.194051666855812,0.5372835431993008,5.8777612133460995
10.5296412918251,-6.166702837944031,2.604163910150528,-3.533857750296593,7.569547156981636
10.53966729179956,-5.40028313934803,0.5192374277114868,-4.919872393012047,7.3237838481883895
10.549692291766405,-1.4894960340857506,-1.2342256021499634,-3.540851020216942,4.034790852067921
10.559718291740865,1.2929192219674588,-1.3801873075962068,-2.692378513813019,3.290206555860073
10.569744291715324,2.2051836816966537,-0.6606201785802841,-2.5505215537548067,3.435755271630459
10.579769291682169,2.645929402112961,-0.10688417851924897,-2.358791498690844,3.546302858313117
10.589795291656628,2.8778039547801018,-0.46955071270465853,-2.2564634706079962,3.686985336035083
10.599821291863918,2.9376133695244793,-1.6705050730705262,-2.404418345689774,4.147455495729023
10.609846291830763,3.304529952406883,-3.247401486039162,-2.55889388948679,5.292775505869905
10.619872291805223,4.124113412797451,-4.578300858736038,-2.278723089694977,6.569758680060327
10.629898291779682,5.978124285936356,-4.9765289890766145,-0.9898704600334168,7.841151336689577
10.639923291746527,8.835087887048722,-4.399633337259293,1.2068908922374249,9.943446942583043
10.649949291720986,11.304838342666626,-3.5089439338445665,3.3420784324407578,12.299656325819669
10.659975291695446,12.215696547031403,-2.880515601038933,3.698746892809868,13.084393025052949
10.67000029166229,11.599063217639923,-2.9208578807115555,1.5765496730804445,12.064625446229662
10.68002629186958,10.693709582090378,-3.3463521623611454,-1.3270163829624653,11.28337138896356
10.69005229184404,10.713447443246842,-3.811525649428368,-3.1152982664108277,11.790282744029717
10.700077291810885,11.078822407722473,-3.9185016292333605,-4.135139214992523,12.45770192641994
10.710103291785344,10.771212086677552,-2.8350353729724884,-4.548162555098534,12.030886002692997
10.720129291759804,9.609108381271362,-0.981369777917862,-4.010007045865059,10.458403656003984
10.730154291726649,8.20213380932808,-0.4136033838987351,-3.3886234384775165,8.884190204689139
10.740180291701108,7.036263327598572,-0.3538641357421875,0.7060471238940954,7.080446594885963
10.750206291675568,6.612758268713951,-0.9962983042001725,2.059135583639145,6.997229564849634
10.760231291875243,5.992565739154816,-2.786066111326218,-1.4433939546346666,6.764347316855368
10.770257291849703,3.5314761793613436,-6.233368113040925,-3.7077206146717074,8.066808178860677
10.780283291824162,-1.2465695129334928,-10.155296795368194,-3.3762097996473313,10.774171947942238
10.790308291791007,-5.385677379369736,-12.488064529895784,-1.5651511108875276,13.689666706585978
10.800334291765466,-7.503624842762948,-13.392087339162828,-0.03882432421669364,15.351022650261626
10.810360291739926,-8.502964868545533,-13.302368831634523,0.8954332494735718,15.813134692173591
10.820386291714385,-8.838707898259162,-12.304045636653901,0.8591465985774994,15.17400504868303
10.83041129168123,-7.815052810907364,-10.037128075361252,-0.10401728868484497,12.721234611264014
10.84043729165569,-6.532819229364396,-7.558159484267235,-0.2845009553432465,9.99422046318587
10.85046329186298,-6.1238205277919775,-4.965805780291557,0.49762845754623414,7.899875884211301
10.860488291829824,-6.303610714673996,-2.5484364366531373,2.605202375650406,7.281285307684946
10.870514291804284,-5.365279367566109,-0.4592812478542328,3.6783254921436312,6.521291312525059
10.880540291778743,-4.817068401575089,1.4157687842845919,2.2690541338920593,5.509732833680822
10.890565291745588,-5.478390246033669,2.6843830311298373,1.338834629058838,6.245890657834299
10.900591291720048,-5.631661555767059,4.1095482909679415,1.780173110961914,7.1953467838245295
10.910617291694507,-4.294921399354935,5.490281143784523,2.1495358765125276,7.294521324175243
10.920642291661352,-1.9121178710460665,6.730886058211327,1.305230680704117,7.117910438552083
10.930668291868642,-0.06865829855203628,7.929389850497246,-0.22815367698669434,7.932968641274926
10.940694291843101,0.6519899806380273,8.638150740265846,-0.9282875847816467,8.712316396141011
10.950719291809946,0.32067095428705217,8.83634269952774,-0.2528850603103638,8.845774868158738
10.960745291784406,-0.7005578309297562,8.889432494044303,1.3349450612068177,9.016366765892357
10.970771291758865,-1.7570058578252794,8.747894791960716,2.8480208694934848,9.366106755141978
10.98079629172571,-3.266295301616192,8.628304029107094,4.3495212373137475,10.199737761820597
10.99082229170017,-5.035486464500427,8.582313923835756,5.741610260009766,11.48818195361135
11.000848291674629,-6.295134590864182,8.140046904087066,6.6579742026329045,12.25633320372604
11.010873291874304,-7.0586067080497745,7.786084535121918,6.887290306091309,12.56510281722236
11.020899291848764,-8.165171220302582,7.745949831604958,5.959529555439949,12.735217013178877
11.030925291823223,-8.888958284854889,7.448825322389603,4.171133505105972,12.324647369834992
11.040950291790068,-8.223052223324776,6.649678173065186,2.515563097894192,10.870366386297801
11.050976291764528,-5.750175261497498,5.29239791750908,-0.7912604248523712,7.854940121676918
11.061002291738987,-0.33310096532106404,2.6950746649503707,-4.036491716802121,4.864940809770177
11.071027291705832,5.894810818433762,-0.6264765322208404,-4.078179148435593,7.195332695385393
11.081053291680291,10.27472734451294,-3.9834051382541658,-4.845140883922578,12.037978596284745
11.09107929165475,14.034643714427949,-7.785102202892304,-5.9145697295665745,17.104419767601463
11.101104291854426,15.304303443431856,-11.952010509967804,-5.227476282119751,20.109668505451438
11.111130291828886,13.503992521762848,-15.095410494804383,-6.804039988517761,21.36642675319919
11.121156291803345,8.56834784924984,-13.590902026891708,-7.143840401172638,17.58305031693136
11.13118129177019,3.9951942944526673,-6.015820700526238,-4.615323089361191,8.57046576158482
11.14120729174465,-0.1721864676475525,0.405187486410141,-1.4771177709102632,1.5413312388721687
11.151233291719109,-2.7015948951244355,4.290774554014206,1.4507843966782095,5.273910941263909
11.161258291685954,-4.239449741542339,6.90852914750576,4.320807023048401,9.185318852572538
11.171284291660413,-5.567795927524567,7.807528029084206,7.6957930004596715,12.295652700097653
11.181310291867703,-7.288649035692215,6.848942511677742,10.367212754487992,14.405260101455378
11.191335291834548,-9.148874621987343,3.887258786559105,10.190329803228378,14.235712459202368
11.201361291809008,-10.462766783237457,-0.6231962442398071,5.792345380783082,11.975354998058755
11.211387291783467,-14.86282579779625,-10.70239035844803,-24.351777405738833,30.470540082166107
11.221412291750312,-3.4247332111001016,-22.203117442131045,-27.135194728374483,35.22819914022115
11.231438291724771,4.249440294206143,-24.720587024688722,7.060003023147583,26.057797457691706
11.24146429169923,-2.367828224301338,-24.398244059085847,19.666866602897645,31.427162863400294
11.251489291666076,-3.826279636323452,-14.62863779425621,13.110134600400926,20.012823109484437
11.261515291873366,-5.508489958047867,-3.550245741605759,6.49486495256424,9.2266449588001
11.271541291847825,-7.124130606651306,3.8775015377998354,1.9725196087360384,8.347400115192405
11.28156629181467,-7.144977099895478,7.869923082590104,1.3579199409484863,10.715891640453483
11.29159229178913,-6.975775635838509,9.437102592587472,1.7399191242456438,11.863712303638144
11.301618291763589,-7.441116353273392,9.735052143931389,0.8522457146644593,12.28282441404174
11.311644291738048,-6.420873116254807,8.756264496445656,-0.5368621051311493,10.871430468281728
11.321669291704893,-4.595815900862217,6.3158278870582585,-1.1184992641210556,7.89064295842868
11.331695291679353,-4.01198311239481,3.1402910202741623,-0.8375529042631388,5.163228743102062
11.341721291653812,-3.163248943090439,-0.48846353173255924,-0.9456076222658157,3.3375012019597285
11.351746291853487,-0.4908918803930283,-4.1299813860654835,-0.5149309533834457,4.190808391496271
11.361772833392024,3.41089782178402,-5.133103975653649,1.4788210648298263,6.337972240181136
11.371798833366483,5.2506066977977754,-2.673085041046143,3.0068318313360214,6.614778302676444
11.381823833333328,5.177839268445969,0.48868923425674443,3.339106877446175,6.1804911937926
11.391849833540618,4.604279745519161,2.9671994036436082,3.1008708465099337,6.294367663452478
11.401875833515078,3.2306629541516307,4.485232481360436,1.9145095284283162,5.849772668200128
11.411900833481923,1.2682286229729653,4.813182926774025,1.1293085731565953,5.103966259696654
11.421926833456382,-0.4507117147743702,4.884472764730454,1.2910434351861477,5.072278422047203
11.431952833430842,-0.7950375799834729,4.585183616280556,1.6511461114883423,4.937841333019591
11.441977833397686,-0.882675355821848,3.6162572979927066,1.0318508371710777,3.8627902841380592
11.452003833372146,-1.5311201696097851,2.0842780262231826,-1.7138218313455582,3.1025359198532008
11.462029833346605,-1.4544688734412194,0.6330394470691681,-4.457878329455853,4.731690801984753
11.47205483331345,-0.2095220359414816,-0.3357430297136307,-5.260900720953941,5.275765277310965
11.48208083352074,1.6004601073265077,-0.48221051931381226,-4.620610726475716,4.913658822680195
11.4921068334952,3.209081758260727,0.3310471308231354,-3.9471711122989657,5.097838534496305
11.502131833462045,4.178635482788086,1.3410004377365112,-3.75488016307354,5.775673269071608
11.512157833436504,4.7640095973014835,1.8681842315196993,-3.7971783363819123,6.372163140124992
11.522183833410963,4.615855770707131,1.381802893280983,-3.9028416162729265,6.200619034706283
11.532208833377808,3.650861120223999,0.41194160521030426,-3.4148148715496065,5.0159189997669245
11.542234833352268,2.641630529165268,-0.5389577472209931,-2.0138921678066253,3.36518186276171
11.552260833326727,2.1286936224997044,-1.289233868122101,-0.09043128311634065,2.490308880872021
11.562285833526403,2.5885106214880946,-1.5879622685909272,1.7734264473617078,3.5166820681186257
11.572311833500862,3.9525973284244538,-1.4215867638587953,3.148458995819092,5.249450315623609
11.582337833475322,5.676951164603234,-1.4518648159503937,3.538071838617325,6.844971753360394
11.592362833442166,7.266144272089005,-2.112138839364052,2.4873143219947815,7.965219117887614
11.602388833416626,8.312547951936722,-3.086876705288887,-0.027569621801376343,8.867244291827582
11.612414833391085,8.516355577111245,-3.7635720491409304,-2.5422997838258743,9.651739484450964
11.62243983335793,8.4737439930439,-3.8353249865770342,-4.199028232097626,10.20518951839027
11.63246583333239,8.652583422660829,-3.66645389020443,-5.486622540950775,10.8817788491574
11.64249183353968,8.61923499763012,-3.2973279368877413,-5.845912308096886,10.924205883345063
11.652516833506525,7.666224215626717,-2.7827548331022265,-4.82717355966568,9.477147395738378
11.662542833480984,6.741601080894471,-2.61074845969677,-3.5862783309817314,8.070104393438518
11.672568833455443,5.975576069355012,-2.961159814596176,-3.5926105731725695,7.575145380697251
11.682593833422288,5.2616316229105,-4.214864830970765,-4.431144567131996,8.06752099801354
11.692619833396748,3.4901445508003235,-6.349368685483933,-4.208776125311852,8.379104257776019
11.702645833371207,0.8900583426654339,-8.579525971412659,-3.2145886659622196,9.205109996019898
11.712670833338052,-2.031001413166523,-10.09932490825653,-2.9104293715953826,10.704761999683145
11.722696833312511,-4.921323671936989,-10.71870642900467,-2.4759151750802997,12.051566294442656
11.732722833519801,-7.1344743311405185,-11.099095873832702,-0.7565314722061157,13.21601275221356
11.742748833494261,-8.373008746504784,-11.138906056880952,0.5942092573642731,13.947601523366021
11.752773833461106,-8.662333654761316,-10.178762841224671,1.0303226673603059,13.405401975441956
11.762799833435565,-7.916264605522156,-8.035152533054353,0.5742035571858287,11.294274268813268
11.772825833410025,-6.169762101173402,-5.79295816898346,0.47144232351332904,8.47623658217888
11.78285083337687,-5.372666155099869,-4.092208372950554,0.7159459483623505,6.791486551763075
11.792876833351329,-5.53193787753582,-2.4854402893781664,1.4563521154224874,6.237043498090685
11.802902833325788,-6.508283143043518,-0.9866229164600373,1.8243125724792482,6.830760617340823
11.812927833525464,-7.228607486486435,0.47109320819377903,1.3496320974826814,7.368595646597087
11.822953833499923,-6.27733391225338,2.2057241106033327,1.2756496167182922,6.774763600499778
11.832979833474383,-3.861033731997013,3.8858180326223377,2.0335423207283023,5.843154767115515
11.843004833441228,-1.4322456532716752,5.158448731899262,2.100745539665222,5.751004499508936
11.853030833415687,0.43534303933382035,6.1374340152740485,1.2925001227855684,6.2871437410910245
11.863056833390146,1.3975561693310738,6.7381073695421225,0.349980561286211,6.890409317536326
11.873081833356991,1.2070167535543443,6.951123189926148,0.33116297878324985,7.062908180304097
11.88310783333145,0.45887866705656055,6.919054720401764,0.980958426296711,7.003296887117957
11.89313383353874,-0.718665780723095,6.896561066508293,2.0882162721455098,7.241524856528053
11.903158833505586,-2.5133484649658207,7.03227435708046,3.3660748207569124,8.191475009943638
11.913184833480045,-4.610790035426617,7.543877075314522,4.039039056301117,9.720252186881325
11.923210833454505,-6.764013458490372,8.101473407149316,4.247105500996113,11.376451756588162
11.93323583342135,-8.03398659825325,8.3380850815773,4.62576007694006,12.468610980295573
11.943261833395809,-8.570939919948579,8.482522417902947,5.494467165470123,13.251542065511602
11.953287833370268,-8.641145099401474,8.429239080548287,6.156341571807862,13.55071959914758
11.963312833337113,-7.2486236751079565,8.053373041749001,5.5482252967357635,12.173009754216244
11.973338833311573,-4.598680159449578,7.432298752069474,4.247753372490406,9.717527085757583
11.983364833518863,-1.911573495268822,6.4024929785728455,1.4425855770707132,6.8357210823483205
11.993389833485708,1.3474177569150925,4.644596589803696,-1.9811442518234255,5.226159645494885
12.003415833460167,5.584610180854797,1.7415896737575531,-2.796494328081608,6.483932910729305
12.013441833434626,10.483133804798127,-1.3845066457986832,-4.282815031707287,11.408569481638786
12.023466833401471,14.372093546390534,-4.633348301053047,-6.398903957605362,16.400334180855253
12.03349283337593,13.979979264736176,-9.330224846005441,-6.234552758932114,17.92658818691886
12.04351883335039,13.166339206695557,-14.335995175838471,-7.843550970554352,20.9855792775686
12.053543833317235,10.761499861478805,-15.941929446458817,-9.29447555422783,21.362169121430945
12.063569833524525,4.1747210642695425,-10.611394819021225,-8.406371204853059,14.166759431972755
12.073595833498985,-2.1614729672670365,-3.4072146606445313,-5.513646032810211,6.832376578253059
12.08362083346583,-5.6108951693773275,1.335588254928589,-2.5999083065986635,6.326568089506802
12.093646833440289,-7.426087839603425,5.081911017894745,-0.38778281047940255,9.006829392378274
12.103672833414748,-8.97354410648346,7.499028346538544,1.5345773358643056,11.794695738887928
12.113697833381593,-10.261629581451416,7.449475532770157,2.8159293034672737,12.989425900415526
12.123723833356053,-10.823224239349365,4.7780803370475775,2.0823045909404754,12.012835928787679
12.133749833330512,-9.006549299955369,0.024885165095329287,2.660477274656296,9.391309221452085
12.143774833530188,-6.674470952153206,-5.642657244801522,-0.14900452338159084,8.741301140072695
12.153800833504647,-3.1241535821557047,-13.725253500938416,-11.021614419221878,17.877888680599792
12.163826833479106,6.1109391117095955,-19.25489283800125,2.7283985316753387,20.38476474177669
12.173851833445951,3.1838337734341624,-21.48092549800873,12.608816549777986,25.11073898820616
12.18387783342041,-2.7313244783878328,-17.680167496204376,5.918251136541367,18.843411384758745
12.19390383339487,-5.317744427919388,-6.78191178560257,-0.914540707692504,8.666551677246808
12.203928833361715,-8.37574992120266,1.2372591376304627,3.261309088468552,9.073044356041914
12.213954833336174,-8.17107339978218,5.240048965215683,6.91949443101883,11.92073642202471
12.223980833310634,-7.196167134046555,7.021100327968598,5.8070616531372075,11.610453749956081
12.234006833517924,-6.210289152860642,7.202753437757492,3.171328625679016,10.025201928106839
12.244031833484769,-5.479988290071487,6.49165073812008,0.20411701597273352,8.497850594195288
12.254057833459228,-4.105359345674515,4.533459146618843,-1.496225302219391,6.296420994992364
12.264083833433688,-2.8335861405730247,1.5129033154249192,-0.6757030713558198,3.2824779509557915
12.274108833400533,-3.2756119626760483,-1.1118942493200303,0.9954563782364131,3.599566078386247
12.284134833374992,-2.806224972009659,-3.478417375087738,1.2536430358886719,4.641756875394816
12.294160833349451,-0.2418025401234627,-5.161937765479088,-0.5597475224733353,5.197825242541772
12.304185833316296,1.449479298144579,-4.536692656874657,-0.9212200552225114,4.850898565094338
12.314211833523586,1.140101509988308,-2.1027189749479294,-0.14408124089241028,2.3962508100490623
12.324237833498046,1.7991470333933832,0.2352200371026993,0.33084532879292966,1.8443744590529625
12.33426283346489,2.512401216030121,2.456025286316872,1.3207573771476746,3.7534810678392274
12.34428883343935,2.3066156239807607,4.240104922056198,1.4115196126699447,5.02905090487154
12.35431483341381,2.4850976425409317,6.018255481123925,1.6102185255289079,6.707302962368492
12.364339166786522,2.2730819883942606,6.438739283680916,2.4875844633579254,7.267210039039602
12.374365166760981,1.8564319127798081,5.890911895036698,3.4311999392509462,7.065572547570922
12.38439116673544,0.35507560573518276,5.120416102409363,3.8500301492214204,6.416188268552849
12.394416166702285,-1.030977555513382,3.953744552135468,3.1236901903152465,5.143194640355831
12.404442166676745,-1.7816258516907693,2.413197355270386,0.6721291069686414,3.073998973215721
12.414468166651204,-1.4330356121063232,0.9487750589847566,-1.8653771294653416,2.5364142038020585
12.42449316685088,0.052575239539146425,-0.2137455528974533,-4.043505744338036,4.049492563481348
12.43451916682534,2.220921754986048,-0.9901493722200394,-5.8327613353729255,6.319334934666733
12.444545166799799,4.115646936893463,-1.1075591236352922,-5.52391023516655,6.977020940751583
12.454570166766644,5.230940172672272,-0.5948296469449997,-3.7847740530967715,6.483908700155786
12.464596166741103,5.516181385517121,0.19904448330402374,-2.1407171058654786,5.9203501173160715
12.474622166715562,5.248201737999916,0.9010220181941987,-1.1443214455246926,5.446552462861605
12.484647166682407,4.811114474236965,0.8687570822238923,-1.1059043616056443,5.012443097846098
12.494673166656867,4.265891727805138,-0.008269132375717164,-1.536823397576809,4.5342834899514255
12.504699166864157,3.1363368406891823,-1.0825944364070892,-2.227674850523472,3.9963927148940903
12.514724166831002,2.0585505697131157,-1.4096069884300233,-2.9568071472644806,3.8687634737744396
12.524750166805461,2.352176397442818,-1.539174270629883,-2.8867469787597657,4.029280253275359
12.53477616677992,3.8432462096214297,-1.6777094274759294,-1.1380026519298554,4.345146762378744
12.544801166746765,5.592361249923706,-1.4350663501024248,1.1155451045930387,5.880336781105826
12.554827166721225,6.86496622145176,-0.9625891059637071,2.1988645957410338,7.27250606868066
12.564853166695684,8.00640879034996,-1.0360511845350266,1.861762234568596,8.285055364524451
12.574878166662529,8.633438469171525,-1.8198558247089387,-0.10733792245388031,8.823811900380386
12.58490416686982,8.24640658736229,-2.9525264006853105,-2.482274606823921,9.10397281270758
12.594930166844279,7.5847742557525635,-3.8323662954568865,-4.009190189838409,9.396245947801566
12.604955166811123,7.227095396518708,-3.974615603685379,-4.910375930070877,9.598972280513191
12.614981166785583,7.130839701890946,-3.0567518502473834,-5.100608659386635,9.28487024272633
12.625007166760042,7.195170768499374,-1.5358963215351105,-4.235791431069375,8.489486966000579
12.635032166726887,6.880181261301041,-0.4149628615379334,-3.16259931743145,7.583608824789923
12.645058166701347,6.55759680569172,0.15170893371105196,-2.3847309167683126,6.979400619822352
12.655084166675806,6.060272988080979,0.0074423360824584965,-2.798717147111893,6.675311359627239
12.665110166650265,5.564162467718124,-1.2485647290945054,-3.0704507070779803,6.4766106409523765
12.675135166849941,4.722194111645222,-3.5221761828660965,-2.6375427407026293,6.454570008934687
12.6851611668244,3.063518832921982,-6.618464566469193,-1.5916974699497224,7.464765347492193
12.69518716679886,-0.19196993708610535,-9.450490962266922,-0.006413226127624512,9.45244270091615
12.705212166765705,-3.395350660085678,-11.183314490318299,0.7719564270973206,11.712849602878213
12.715238166740164,-5.069244779348374,-12.362784426212311,0.30706652998924255,13.365252382794274
12.725264166714624,-5.630457614064217,-12.940826132297516,-0.040986642837524415,14.11271461608358
12.735289166681468,-5.481078211069107,-11.797149342298509,0.9812259364128113,13.045219633974733
12.745315166655928,-4.752933216691018,-9.382738105058671,2.1081001675128936,10.72707951059899
12.755341166863218,-3.690770121216774,-6.8009123128652575,3.0609589219093323,8.321277660105153
12.765366166830063,-2.683627278506756,-4.825066807866096,0.8326306450366975,5.583582977029259
12.775392166804522,-4.417895653545857,-3.7169024974107745,-0.7448814797401428,5.821341305896579
12.785418166778982,-7.81201986014843,-2.6457785439491275,0.43021590828895573,8.259109160600794
12.795443166745827,-8.775721106529236,-0.4359602129459381,1.3098020339012146,8.883632343521784
12.805469166720286,-6.106325073838234,2.694475325345993,1.1735992582887411,6.776779353449528
12.815495166694745,-3.331026025414467,4.873527361750603,1.5771905279159546,6.110199120247073
12.82552016666159,-1.049499780535698,6.473278786540032,1.3617744255065918,6.69770241378172
