Time (s),Linear Acceleration x (m/s^2),Linear Acceleration y (m/s^2),Linear Acceleration z (m/s^2),Absolute acceleration (m/s^2)
0.010113874915987253,0.009649513810873032,-0.395607408285141,-0.1490899658203125,0.42287841339464755
0.02014187490567565,-0.05842625588178635,-0.11741969168186188,-0.1859677702188492,0.2275632284249768
0.030169874895364046,0.106259403526783,0.4364092791080475,-0.25183314621448516,0.5149408250097867
0.04019687511026859,-0.020421693027019502,0.6160924619436264,-0.2955305582284928,0.6836119352795803
0.05022487509995699,-0.22325853422284128,0.44749267637729645,-0.27561552643775944,0.5710148745244826
0.060252875089645386,-0.45113651499152185,0.2952411210536957,-0.22003832638263704,0.5823300952183482
0.07027987483888865,-0.3564307710528374,0.3304284954071045,0.21208552837371827,0.5302887482078819
0.08030787482857704,-0.18379026710987093,0.4209439784288407,0.42904061794281007,0.6285288753148628
0.09033587481826544,0.13767985537648203,0.20281009018421173,0.28037048220634464,0.3724181555048509
0.10036287503316998,0.21548056796193124,-0.2772346204519272,-0.12675535619258882,0.3733066169649698
0.11039087502285838,0.022813642770051958,-0.369089115858078,-0.1447653651237488,0.39711994243647547
0.12041887501254678,-0.00832219585776329,-0.10577788531780244,-0.07536768615245819,0.13014802373519382
0.13044587476179004,0.07753217920660974,0.05287227809429169,-0.24472585558891297,0.26210200494679825
0.14047387521713972,0.04165541812777519,0.035939911007881166,-0.35435881018638615,0.3586042629687571
0.15050187520682812,-0.012859635204076767,0.006779261827468872,-0.32658512055873873,0.326908503374986
0.16052887495607138,-0.14446788802742958,0.07930227756500245,-0.18404403626918794,0.24704661338370293
0.17055687494575977,-0.3721843394637108,0.33010163605213166,0.048230173587799074,0.499814387858775
0.18058487493544817,-0.5650860303640366,0.7687223321199418,0.1817437416315079,0.9712296501006995
0.19061187515035272,-0.43101946189999585,0.787453887462616,0.33854910850524905,0.9594148739133906
0.2006398751400411,0.031177792400121692,-0.007123078107833863,0.31229861855506896,0.31393187180036347
0.2106678751297295,0.08552824661135675,-0.39357316195964814,0.3658883500099182,0.5441407901051978
0.22069487487897277,-0.005251822918653488,-0.2973414409160614,0.3772857427597046,0.4803998811612577
0.23072287486866117,0.25098573848605155,-0.3722115290164948,0.2681538945436478,0.5229166036904082
0.24075087485834956,0.5377213534712791,-0.46574008226394653,0.13289025485515596,0.7236835620916646
0.2507778750732541,0.5395068007707596,-0.5103613543510437,-0.14446364879608156,0.756575208367555
0.2608058750629425,0.6125823783874512,-0.6021164470911027,-0.29067327618598937,0.9068033632806705
0.2708338750526309,0.7316600480675698,-0.7428823167085647,-0.3781242334842682,1.109134120999164
0.28086087480187416,1.0006372305750848,-1.0675109589099885,-0.45996712625026703,1.5337614781434652
0.29088887479156256,1.6265129613876343,-1.5256356275081635,-0.4433195185661316,2.2736843837757927
0.30091687478125095,2.368608973771334,-2.023660526275635,-0.2946973299980164,3.1292741830245925
0.3109438749961555,2.927747070193291,-2.4073536479473114,-0.3268979465961456,3.8044601142342658
0.3209718749858439,3.351058586239815,-2.863826478123665,-0.4915900379419327,4.435398123124635
0.3309998749755323,4.224124774038792,-3.3387461042404176,-0.4453555190563202,5.40266574883018
0.34102687519043684,5.362288516759873,-3.3975965756177904,0.21500270426273346,6.351694796703067
0.35105487518012524,5.022337830662727,-3.5850676649808886,0.7015553659200668,6.210375784060796
0.36108287516981363,4.401075845360756,-3.7034451305866245,1.0462498980760575,5.846333319364184
0.3711098749190569,3.988065953850746,-3.6521118396520618,0.6338118642568589,5.444658705636469
0.3811378749087453,3.6827582663297656,-3.4973529982566833,0.11799798130989075,5.0801683009747265
0.3911658748984337,3.901335373520851,-3.2024767434597017,-0.538978797197342,5.076098219391901
0.40119287511333823,4.202682741880417,-2.888872441649437,-1.5100706318020822,5.318687763542076
0.41122087510302663,4.093331623077392,-2.6373994839191437,-2.4482174992561343,5.450230154583045
0.421248875092715,3.9739776724576954,-2.412024403810501,-2.68220786690712,5.366991644028163
0.4312758748419583,4.056362017393113,-2.0880570816993713,-2.2485704603791237,5.086268210375265
0.4413038748316467,4.039954145550728,-1.7028840297460557,-1.711776182949543,4.706508389180878
0.4513318748213351,3.278160179257393,-1.5031738409399986,-1.0529268336296083,3.756929687115856
0.4613588750362396,2.3073206520080567,-1.7139864304661752,0.35771160364151,2.8964522551536813
0.471386875025928,1.6100887173414231,-1.9502797240018845,0.7824036473035813,2.6472876962802823
0.4814148750156164,1.450217070579529,-1.7678496654331686,0.23295365631580353,2.2984101891010096
0.4914418747648597,1.7172991704940797,-1.5977000753581525,0.6641726544499398,2.437803783469494
0.5014698747545481,1.7106941556930544,-1.350826098918915,0.661976147890091,2.2780294256699736
0.5114978752098978,1.5665059107542039,-1.4241832199692728,-0.35060957551002503,2.1459649780248564
0.521524874959141,1.3699815773963928,-1.5622175627946855,-1.2532533189654351,2.426523669245275
0.5315528749488294,1.530967118740082,-1.4210216304659844,-1.4036536458134652,2.516625985386177
0.5415808749385178,1.5820080488920212,-1.5238617284595968,-0.9309705796837807,2.385709591391996
0.5516078751534224,1.6045116430521011,-1.3748745274543763,-0.6021382279694081,2.197113566594769
0.5616358751431108,1.6203564280271532,-1.1308639325201513,-0.0042854243516922,1.9759621839968826
0.5716638751327991,2.15512639939785,-0.9682638287544251,0.3703959685564041,2.391505344543172
0.5816908748820424,3.2004366499185566,-0.43110907047986985,0.22622058749198914,3.2372558649259022
0.5917188748717308,3.596894243359566,-0.10848909303545952,-0.8545389926433564,3.698601758931173
0.6017468748614192,2.173529341220856,-0.23468384742736817,-0.8983989572525025,2.3635623519982847
0.6117738750763237,-0.6486427420377732,-1.0388134092092514,2.5369688773155215,2.8171052146518782
0.6218018750660121,-10.443000855445863,-2.231603302359581,3.283056637644768,11.17205357362417
0.6318298750557005,-21.177571949958804,-3.262895438075066,3.4132162427902224,21.69760552354891
0.6418568748049438,-13.571808528900148,-3.3474113854765895,4.843398121297359,14.793838416385784
0.6518848747946322,1.8077076494693758,-2.186648008078337,2.6071266943216327,3.8530956460263868
0.6619128747843206,7.958480917811394,-1.6858412964642049,-1.0839159071445466,8.206969787308418
0.6719398749992251,5.4665233218669895,-2.168115404248238,-0.6772291946411133,5.9196487240991305
0.6819678749889135,6.455765790939331,-2.650591387152672,-1.4715342646837235,7.132177769885487
0.6919958749786019,5.800600479841233,-2.228714631646872,-0.2786993479728699,6.220273962022227
0.7020238749682903,5.968474041223526,-3.2049805212020877,0.09239156216382981,6.775184036083667
0.7120508751831949,6.112426058650017,-4.407697817087174,0.05371427714824677,7.536075742240678
0.7220788751728833,8.050630112886429,-5.174743167757988,-3.9751058927178384,10.363014953433764
0.7321058749221265,7.637771079540253,-5.692431083321572,-4.618065433502197,10.5861157678317
0.7421338749118149,4.869717900753021,-6.451780328750611,-7.699919965267182,11.16370858249569
0.7521618749015033,1.91124897480011,-6.8293227642774585,-10.422302881479263,12.606225423006036
0.7621888751164079,4.673622753024102,-3.6151954436302187,-6.996074244976044,9.157370942276303
0.7722168751060963,6.982906315326691,8.73387609243393,-9.200007938146591,14.4803908189171
0.7822448750957847,-3.2624738538265228,37.417277870178225,-16.419553409814835,40.9914399971359
0.7922728750854731,-11.306805346012116,45.715169191360474,-2.718003351688385,47.171051329677944
0.8022998748347163,-0.7365959751605988,18.45843423843384,2.1528667429089547,18.59815053648972
0.8123278748244047,5.190222501754761,-0.4923605547845364,-2.7647968643903735,5.901265138508185
0.8223558748140931,-3.9124754887819293,-7.879382708072662,-1.9439515748620033,9.009499655141918
0.8323828750289977,-4.646864724755288,-8.941991361379625,-1.7156362223625183,10.222326981888479
0.8424108750186861,-10.167643775939942,-11.151783964633943,1.9763910502195359,15.220032428732365
0.8524388750083745,-38.16221782207489,-20.087884840965273,5.879948365688325,43.52530045004323
0.8624658747576177,-34.75976981163025,-25.587551350593568,12.024194387197495,44.805642860446675
0.8724938752129674,-5.685244270563126,-13.01102780342102,5.378488227725029,15.183444356704522
0.8825218752026558,2.9805696469545366,-3.414854924976826,1.2671103429794313,4.706442201947308
0.892548874951899,4.208353371620179,-1.0770653092861175,-1.002019219994545,4.458065757493154
0.9025768749415874,5.425937213301659,0.16876496940851213,-2.3426711636781694,5.9124770138006
0.9126046667806804,6.129999865293503,0.4316189476847649,-2.7813626110553744,6.745307349459744
0.9226316665299237,5.094740978479385,0.21756583124399187,-2.1875147116184235,5.548778346831761
0.9326596665196121,0.5023863369226456,0.6055244967341423,-2.61527771294117,2.7310674586100006
0.9426876665093005,-1.7877125108242036,-0.1297350972890854,-3.740577288866043,4.147850729089274
0.952714666724205,-0.16803845286369323,-0.10723881214857102,-1.9203589367866518,1.9306774796863975
0.9627426667138934,-0.3256975132226944,1.2308292469382287,-2.2456348657608034,2.581452198968347
0.9727706667035818,-0.1125732269883156,1.1945183300971987,-0.4465980523824692,1.280233022837865
0.9827976664528251,0.21497083693742752,-0.4353722754120827,2.7860795599222183,2.828073689483259
0.9928256664425135,0.24001358449459076,-0.5498937946557999,2.7139968395233156,2.7795266775272087
1.0028536664322019,-0.5368050216883421,-0.1537254922091961,2.8164441508054736,2.871262581665276
1.0128806666471064,-1.756732646673918,-0.263674488812685,1.8814316833019258,2.5875507737767967
1.0229086666367948,-4.489787462353706,-0.2843233461678028,-1.922315999865532,4.892272480721368
1.0329366666264832,-0.21643731862306595,0.37047008201479914,4.027625876069069,4.050415212313663
1.0429636668413877,0.3656817971169949,1.0602016469836235,5.588424904346466,5.699845929543123
1.0529916668310761,0.3748902846872807,1.2015038524568082,0.07380180180072785,1.2607937733707666
1.0630196668207645,-0.14041532903909684,1.7953065821528436,-3.617536668777466,4.040966931131712
1.0730466665700078,-0.7027243705093861,2.1157864786684515,-4.52288796544075,5.042508256032193
1.0830746665596962,-1.0122595949470998,2.2916976226866246,-4.059823569059372,4.7706094886586525
1.0931026665493846,-1.2597213627398014,2.2310983952879906,-3.327289069890976,4.199470266094955
1.1031296667642891,-1.4268264538049698,2.10292187333107,-2.432943402528763,3.5181426540889666
1.1131576667539775,-1.395920264571905,1.9493472392857076,-1.504816616177559,2.8307280146063816
1.123185666743666,-0.9860586601495743,1.7427193558216096,-0.9299136954545976,2.2077413606229523
1.1332126664929092,-0.3918087646365166,1.547730355113745,-0.27792576134204866,1.620563509710147
1.1432406664825976,0.07438155323266983,1.3645750956237317,0.1418131059408188,1.373939141328466
1.153268666472286,0.15353765040636064,1.173637338280678,0.8009387362003327,1.4291610374779486
1.1632956666871905,0.17322186335921289,1.0420287930965424,2.2060837143659593,2.445942594252486
1.173323666676879,0.3300817555189133,0.9570702114701272,3.243175703287125,3.397517622824326
1.1833516666665673,0.5498095947504044,1.0579206481575967,2.9458634984493255,3.1779865386395034
1.1933786668814719,0.5422085067629815,1.227452187538147,1.5255637067556382,2.0317415093629227
1.2034066668711603,0.5396557585895062,1.2907070741057396,0.29919325411319736,1.4306186396913256
1.2134346668608487,0.4820564451813698,1.2866796581447124,-0.0671722286939621,1.3756580488377215
1.223461666610092,0.5146694366633893,1.2029366395622492,0.0647859799861908,1.3100146606200627
1.2334896665997803,0.5323088783025742,1.1831036880612373,0.4663686579465866,1.3786177148646925
1.2435176665894687,0.5492168332636357,1.1255545876175166,1.0540839976072311,1.6369500095172778
1.2535446668043733,0.6559473761916161,0.9853616720438004,1.461820285320282,1.880989933954855
1.2635726667940617,0.7100269581377506,1.021164904385805,1.37559490442276,1.85450192351086
1.27360066678375,0.7035586220026017,0.7733851942420006,0.9297949969768524,1.3991562206094506
1.2836276665329933,0.7077996075153351,0.5127982545644045,0.30756763637065887,0.9265744358797063
1.2936556665226817,0.7483351376652718,0.6100375239551068,-0.0876164335012436,0.9694472127543906
1.30368366651237,0.7746882462501526,1.0157388344407081,-0.06329377055168152,1.2790126504690071
1.3137106667272747,0.9191676825284958,0.59494001314044,-0.15575052917003632,1.1059299594355416
1.323738666716963,1.16571026802063,0.3719786636531353,0.34396012187004094,1.2710456799890217
1.3337666667066514,1.4220178498327734,0.3751154755800963,0.6072573190927506,1.5911027109694775
1.3437946666963398,1.7764608599245548,0.30903371606022123,0.6947480374574662,1.9323534511203895
1.353821666445583,2.0473822416365146,0.12140614058822394,0.8255373877286911,2.2108879376574015
1.3638496664352715,2.293737277686596,0.25777106679975986,0.7938840705156327,2.4408868346047248
1.37387766642496,2.4962699174880982,0.4470138625055552,0.5700877386331559,2.599266227989745
1.3839046666398644,2.6026673153042794,0.7413346318155527,0.4353322219848633,2.740979447931079
1.3939326666295528,2.7552112314105037,1.081800896152854,0.2930595248937607,2.9744522174240178
1.4039606666192412,2.9610107105970385,1.2816123148798944,-0.011938844919204713,3.2264930016877744
1.4139876668341458,3.3207977834343914,1.3709589394927026,-0.0501761269569397,3.5930132167797715
1.4240156668238342,4.22678379535675,1.4110994902253151,0.5600428068637848,4.491163654279861
1.4340436668135226,5.103421754837036,1.250288342088461,1.4249804878234864,5.44414400404544
1.4440706665627658,5.819391676783562,1.1147192584723236,2.3828561532497408,6.386385672671753
1.4540986665524542,6.590848166942597,1.4185181450843811,4.0901448905467985,7.8854776972159595
1.4641266665421426,6.532723919749261,2.0616529561579227,5.219184345602989,8.612013699285791
1.4741536667570472,6.3422450226545335,2.873649508059025,5.22458191037178,8.705066890078337
1.4841816667467356,7.296055119037629,3.01773571908474,4.001002918481827,8.851393874637777
1.494209666736424,7.818852916359901,2.024142190665007,2.373992943763733,8.418281002243859
1.5042366664856672,7.170741101503372,0.9199275282025338,1.1195365601778031,7.315678827799193
1.5142646664753556,6.351491224765778,0.33864471048116684,-0.21938051462173463,6.364294841410889
1.524292666465044,6.947024876475335,0.1602381940931082,-0.6817485076189042,6.9822354544124305
1.5343196666799486,7.004763207435608,0.11191811956465245,-0.5946542304754258,7.0308496578687265
1.544347666669637,6.451718348264695,-0.061417472139000895,-2.4051246893405915,6.885714670424193
1.5543756666593254,7.05869090795517,-0.6004035052657127,-3.23657185792923,7.788517130668957
1.56440266687423,5.746771012544632,-1.8380690243840219,-4.00475683093071,7.241681578467081
1.5744306668639183,4.9850945752859115,-5.21369556427002,-5.054905652403832,8.808283630545631
1.5844586668536067,3.45609562933445,-9.23987717807293,-3.564385478496552,10.489269331287797
1.59448566660285,1.0108391600847244,-11.34272011399269,-0.1707591623067856,11.388953160121735
1.6045136665925384,-1.117851684987545,-12.517403519153596,0.47668080747127534,12.576255716355318
1.6145416665822268,-3.778683593273163,-12.67835397720337,0.9876309764385224,13.26629278340265
1.6245686667971313,-6.113907743096352,-11.993349155187607,3.0326642453670503,13.799179115964128
1.6345966667868197,-7.317595092058182,-11.24990258216858,3.6742458897829056,13.91429440892293
1.644624666776508,-7.995425380468369,-10.140864697694779,2.739262073636055,13.201042403524461
1.6546516665257514,-7.344873522520066,-8.495355886816979,1.7345735996961595,11.363405487716046
1.6646796665154397,-5.409253352880478,-6.372851688265801,2.5476441389322284,8.738635541943415
1.6747076665051281,-4.061698186397552,-3.3071626612544063,3.364976128935814,6.225574782595447
1.6847346667200327,-1.714841878116131,-1.2779314926266672,2.712918612957001,3.4545215250909087
1.694762666709721,0.3497251841425896,0.4544597800076008,1.9244765460491182,2.0080964549446496
1.7047906666994095,1.0542725703120233,1.474328649044037,1.5106492137908936,2.3594907639216096
1.7148176664486527,1.7767999984323979,1.6315728494524957,0.3677050799131394,2.440134263374422
1.7248456664383411,1.0235356579720976,2.040119853615761,-0.47545873939991,2.331474913682178
1.7348736664280295,0.11308873213827611,2.1153150469064714,-1.3734127235412599,2.524600823534404
1.744900666642934,-0.1463923528790474,2.2304344439506534,-1.6614044666290284,2.785055355190954
1.7549286666326225,-0.1816452891379595,2.4606402012705804,-1.4038012880086899,2.838732686849854
1.7649566666223109,-0.14418276317417622,2.9458915650844575,-2.1887619227170947,3.672838757251471
1.7749836668372154,-0.5351653162389994,3.2342686396837235,-3.963126409649849,5.143273907562273
1.7850116668269038,-0.5564349286258221,2.914059030711651,-4.591526675820351,5.466578187407259
1.7950396668165922,-0.7894905457645655,2.3454474216699603,-4.660736074447632,5.277014277536818
1.8050666665658355,-1.1469589783251286,2.083355627954006,-4.455328651070595,5.050330579233282
1.8150946665555239,-0.9782537966966629,1.8975381311774255,-4.029834369421005,4.560394335470403
1.8251226665452123,-1.0071928364038467,1.659382207095623,-4.268787268996239,4.689406302174417
1.8351496667601168,-0.8037858916819096,1.7880028250813484,-3.315256669521332,3.851487069557866
1.8451776667498052,-0.3576559089124203,1.7914898121356966,-2.3008606481552127,2.937909668181646
1.8552056667394936,0.1941878590732813,1.7595505660772324,-1.930236053466797,2.6190720382030825
1.865233666729182,0.7017484702169896,1.7666876775026323,-1.972229586839676,2.7392199270042794
1.8752606664784253,0.7379351337254048,1.6343646025657654,-1.397242466211319,2.2733196926720565
1.8852886664681137,0.9209451629966497,1.2800514006614685,-0.5824253636598588,1.68103863305298
1.8953156666830182,1.142697235196829,0.7721219033002854,0.0008332282304763794,1.3791047455330638
1.9053436666727066,1.4351815402507784,0.2647335657477379,0.6603880441188813,1.601855887127575
1.9153720000758767,1.700897730588913,-0.2970087343454361,1.478867257833481,2.273392980655107
1.925400000065565,1.6595757499337198,-1.1795038497447967,1.976396312713623,2.8375276890699888
1.9354269998148084,1.5745018319785595,-2.1399177914857868,1.7338690102100374,3.1724763068915083
1.9454549998044968,1.1245270856469871,-2.9965041866898536,1.5675192332267762,3.563806259287868
1.9554829997941852,0.3810535423457623,-3.889765487909317,1.3796557956933977,4.144746972693875
1.9655100000090897,0.10789581991732121,-4.645002094209194,1.356237697005272,4.840151511465482
1.975537999998778,0.31778769224882125,-5.258306311368942,0.7803904509544373,5.3253904586864005
1.9855659999884665,0.3774529365822673,-5.548609458804131,0.17095738291740417,5.564060034942039
1.995593000203371,0.28464772045612335,-5.626855144500733,0.1320032322406769,5.63559650749388
2.0056210001930594,0.39189040638506417,-5.607093309760094,-0.5209407216310501,5.644860734369497
2.015649000182748,0.20307350724935533,-5.352736505270005,-1.2096181797981262,5.491466387504783
2.025675999931991,0.40871408835053447,-5.066817600131035,-1.8678901165723802,5.415597962053924
2.0357039999216795,0.49638811692595486,-4.655515095591546,-2.301247733831406,5.216892092076492
2.045731999911368,0.8621082133054734,-4.111564995646477,-2.5142501056194306,4.895881011470917
2.0557590001262724,1.495690135806799,-3.773775440454483,-2.7233751887083053,4.888276022873421
2.065787000115961,2.2239310245215895,-3.4050526526570324,-2.54685301065445,4.798615740718981
2.0758150001056492,2.8530588304996494,-3.1114560610055926,-2.0498110288381577,4.692848683242089
2.0858419998548925,3.629369679093361,-3.021302520632744,-1.5642547327280045,4.974684518395713
2.095869999844581,4.2394079339504245,-2.5998030567169192,-0.7022272109985352,5.022417607091551
2.1058979998342693,4.840885865092278,-2.46657366335392,0.17433824300765993,5.435858296403282
2.115925000049174,4.67364263355732,-2.1126804377138617,1.3722777789831162,5.309378532445607
2.1259530000388622,3.826240167617798,-1.548192431330681,2.1436641025543213,4.65105465559173
2.1359810000285506,2.8403756350278857,-0.6064600512385369,2.1683253192901613,3.624522345369537
2.146007999777794,1.8814569725096226,-0.1204589281976223,1.4623570597171784,2.3859754531202255
2.1560359997674823,1.2491820488870145,0.38454286828637124,1.4293471884727478,1.9368434097795355
2.1660639997571707,0.5663971222937108,0.7268774642050266,1.7370060414075852,1.9663027579694272
2.1760909999720752,-0.3910489189624787,0.976613067984581,1.933875945210457,2.2014923377208513
2.1861189999617636,-1.012823997437954,1.2145497214794159,1.9502937573194505,2.5108941068016275
2.196146999951452,-1.0261774300038815,1.3915032778680325,2.233104282617569,2.8241947927173467
2.2061740001663566,-1.2951272767782211,1.7696891994774342,3.1536893302202227,3.841212167707862
2.216202000156045,-0.992120176255703,2.074579395800829,3.3901144784688952,4.096469002780249
2.2262300001457334,-0.7179085662961007,2.589835600554943,2.645007296204567,3.770769781415792
2.2362569998949766,-0.560540112555027,2.9148943054676058,1.551068676710129,3.3491234778225167
2.246284999884665,-0.3341227662563324,2.721715748906136,0.5118635040521622,2.7895123028147824
2.2563129998743534,-0.13396219566464423,2.2833947226405145,-0.3761075288057327,2.318036712926307
2.266340000089258,-0.1467111723124981,1.908667721450329,-1.563222114443779,2.471477294670897
2.2763680000789464,-0.028324935883283615,1.982194704115391,-1.1998755490779878,2.317239625133986
2.2863960000686347,0.6918929882347584,2.063112713545561,-0.5230527359247208,2.2380201385421197
2.296422999817878,1.3995034383237364,2.4363096445798873,-0.5586973625421524,2.8646740305075715
2.3064509998075664,2.144126909673214,3.039344104528427,-1.5861320900917053,4.043600845500851
2.316478999797255,1.7009781298041344,3.463476277291775,-2.878571401834488,4.814059392746857
2.3265060000121593,0.995227679014206,3.5590346914529802,-2.6811898666620255,4.565740374696413
2.3365340000018477,1.2885821959376336,3.4596168226003647,-2.679791797399521,4.561872062247763
2.346561999991536,1.2221516865491868,3.2262006515264514,-2.2815630823373794,4.136128079197931
2.3565890002064407,1.5823398783802987,3.005821724832058,-1.2208933657407761,3.6096183098348207
2.366617000196129,2.611843350827694,1.8092633011937143,-0.41046986103057864,3.203692383660403
2.3766450001858175,2.7348407015204432,0.7852537263929844,0.09197494804859162,2.8468291955393883
2.3866719999350607,2.978095105290413,0.5735670512169599,0.5030353778600694,3.0742599450559247
2.396699999924749,3.287958943247795,0.26709072455763816,0.6057779735326767,3.3539496747633586
2.4067279999144375,3.3682640182971957,0.1853114202618599,0.6659744739532472,3.438468382782128
2.416755000129342,2.552454643249512,0.45685041412711147,0.9432973873615266,2.7592656573329775
2.4267830001190305,1.8897000847756864,0.7612377499043942,0.8871658712625504,2.2220514407667933
2.436811000108719,1.3294662201404572,1.0473616730421782,0.7172036844491959,1.8381588695321651
2.446837999857962,1.0323624685406685,1.230457948744297,0.7914580607414246,1.7905878621257272
2.4568659998476505,0.9514058674871922,1.469520775973797,0.9841542220115662,2.008288815985111
2.466893999837339,1.1671711948513985,1.7634962671995165,1.2410574889183046,2.452025973214329
2.4769210000522435,1.7641628497838975,1.9899884578585625,1.2781867235898972,2.9506077210177257
2.486949000041932,2.047253749072552,2.3371687875688076,1.091472263932228,3.2931622428314724
2.4969770000316203,2.113950306773186,2.5571256914734843,0.7558701521158219,3.4027955254995543
2.5070039997808635,2.2185337521135806,2.7590078285336497,0.2257820463180542,3.547533472656276
2.517031999770552,2.2199727518856527,2.840262199044228,-0.28713921904563905,3.6163264937707784
2.5270599997602403,2.2439847815036775,2.9221565473079685,-0.7500053948163986,3.7599168446720515
2.537086999975145,2.3073377551138403,2.9158786842226982,-1.4260592991113663,3.982436583532759
2.5471149999648333,2.355962323397398,2.7813532555103304,-2.029375594854355,4.171911996458752
2.5571429999545217,2.407334059774876,2.674610579609871,-2.355006449818611,4.3005644288396025
2.56717099994421,2.4301807393133643,2.4084793831408025,-2.7183196860551835,4.36987565959709
2.5771980001591146,2.5243687123060226,2.2024724739789963,-2.923023689389229,4.446053292869458
2.587226000148803,2.5204504930973055,2.2862456788122656,-2.6510878157615663,4.313682487031428
2.5972540001384914,2.3396157011389733,2.311587365269661,-1.9922785198688509,3.845310322590514
2.6072809998877347,1.97667010858655,2.0100258426368236,-0.9303814727067948,2.9686761849355516
2.617308999877423,1.3565363435447217,1.5177367700636388,0.4303790456056595,2.080610938512371
2.6273369998671114,1.4663409139215946,1.616978199183941,1.8596525591611863,2.8675916399081838
2.637364000082016,2.1205053278803825,1.53470041975379,3.0300961482524875,4.004164193888171
2.6473920000717044,2.5650378513336185,1.5700624796748162,3.801936800479889,4.847601345376915
2.657420000061393,2.9698563784360887,1.698977797329426,4.137657026052475,5.369057471251102
2.667446999810636,2.565179353952408,1.674439956843853,3.329821498990059,4.524555834792554
2.6774749998003244,0.67867652669549,1.3559180004894733,1.3265923136472704,2.0146867296348687
2.687502999790013,-0.5197680625319481,0.9649772550165654,0.09941669940948487,1.100556051116433
2.6975300000049174,-0.931986679583788,0.5125591765344143,-0.030229520201683045,1.064062923074982
2.707557999994606,-1.3631314180791378,-0.06181530207395554,0.2497872054576874,1.3872065608752349
2.717585999984294,-1.2126495225727558,-0.5227448069304228,0.980596776008606,1.6447951346253216
2.7276130001991987,-0.2163250520825386,-0.6567215475440026,1.5346724992990495,1.6832407431118979
2.737641000188887,0.30720832496881484,-0.3562010120227933,1.6806190019845964,1.745203812088407
2.7476690001785755,0.5641335189342499,0.07558357631787659,1.5892498254776002,1.6880978976276
2.7576959999278188,0.7558448629081249,0.4569778468832374,1.6725170999765397,1.89141313811673
2.767723999917507,0.9073163996636868,0.7561737687885761,1.7314821767807007,2.095960960087718
2.7777519999071956,0.9375406573712827,0.983928958028555,1.5414967846870422,2.0550695890581965
2.7877790001221,0.8857699947059154,1.1410146988928318,1.0816536194086075,1.804571300611466
2.7978070001117885,0.8359145875275136,1.1061904366314412,0.5409715282917023,1.4883079903563012
2.807835000101477,0.6534342429041863,0.9216926564276219,0.14609911501407624,1.139227200395193
2.81786199985072,0.5291372023522855,0.7124740178883076,-0.22211876571178438,0.9148454247360253
2.8278899998404086,0.43639217600226404,0.5205656227469444,-0.5589370983839035,0.8796802707869049
2.837917999830097,0.4987610632181168,0.4424749613553286,-0.681131626367569,0.9531458346166107
2.8479450000450015,0.5907618851959706,0.3461742797121406,-0.6194446706771851,0.9233352245879515
2.85797300003469,0.7433926324546337,0.17425261784344911,-0.4450590652227402,0.8837839964324227
2.8680010000243783,0.8664256511628629,-0.038992998115718366,-0.32138460695743565,0.9249334724639544
2.8780279997736216,0.9177555799484254,-0.24640839189291003,-0.2379851853847504,0.9796067315940283
2.88805599976331,1.0359628915786743,-0.3901227200031281,-0.11531820237636567,1.1129749041150943
2.8980840002186596,1.1442426542937756,-0.4815508437529207,-0.04632690489292145,1.242307791628698
2.908110999967903,1.2894345737993718,-0.48050258416682484,-0.05508077144622803,1.3771558172128802
2.9181384998373687,1.4123965488374235,-0.43117631345987323,-0.07380472540855408,1.4785885708841873
2.928166499827057,1.4497590874135495,-0.2979131889715791,-0.12895040094852447,1.4856587379361954
2.9381935000419617,1.422287406474352,-0.035440083704888825,-0.07078171491622925,1.4244885107697538
2.94822150003165,1.6102772900462152,0.3364877822622657,0.21283280253410342,1.6587690557412993
2.9582495000213385,1.9041391991078855,0.684135267958045,0.42251395583152773,2.066955538301599
2.9682764997705817,2.1416143611073495,0.9082751968502999,0.5054947167634964,2.380546326705385
2.97830449976027,2.372431883364916,1.0755742692947388,0.45632080256938934,2.6445267487459616
2.98833250021562,2.367882018685341,1.1196492652595045,0.30502292811870574,2.63695254380651
2.998359499964863,2.4216495054960254,1.0929954636096955,0.22155626356601715,2.666104384465442
3.0083874999545515,2.5024939861893656,1.0603055081516506,0.12965031266212465,2.7209434255610785
3.01841549994424,2.4605539548397064,1.0335431675612927,-0.047701585292816165,2.6692344754871944
3.0284425001591444,2.397428584098816,0.9932836259901524,-0.1815759265422821,2.601393087292631
3.038470500148833,2.392121651172638,0.9136335852742196,-0.32358140587806705,2.581022519928867
3.048498500138521,2.4279425713419918,0.8346900343894958,-0.4658236974477768,2.609330239802509
3.0585254998877645,2.453398717045784,0.6716515356302262,-0.5543177980184555,2.6033726723841073
3.068553499877453,2.545499964952469,0.5922144431993366,-0.5128774112462998,2.6633308576430434
3.0785814998671412,2.6377605494856837,0.606708046272397,-0.5856606280803681,2.769273143104193
3.088608500082046,2.609371440410614,0.573388455323875,-0.5019407790899277,2.718370500951382
3.098636500071734,2.759392282962799,0.6069519482553005,-0.3918365389108658,2.8523976426843434
3.1086645000614226,2.9485748523473743,0.5865780562162399,-0.3923218578100205,3.0318449689991187
3.118691499810666,3.079639021754265,0.6185001991689205,-0.36391023695468905,3.1621432069474618
3.1287194998003542,3.1344353261590006,0.6909943442791701,-0.38678103625774385,3.2329178102308593
3.1387474997900426,3.191361186504364,0.787921079993248,-0.4304568135738373,3.3152524669135546
3.148774500004947,3.236059641838074,0.8023120278865099,-0.4635625791549683,3.366107077978556
3.1588024999946356,3.1079395455121994,0.7400532875955105,-0.36653271317481995,3.215791242737438
3.168830499984324,2.845824362933636,0.6375057696551085,-0.104783273935318,2.9182373867639333
3.1788575001992285,2.5778912007808685,0.49450790818780666,0.18340025782585145,2.631291844112754
3.188885500188917,2.230578285455704,0.35756202455610037,0.43422475934028626,2.3004089268161203
3.1989135001786053,1.8446405638754368,0.20255030935630203,0.5393740689754486,1.9325242104558884
3.2089415001682937,1.4886318156123162,0.021112486738711595,0.6333364856243134,1.6178953994533978
3.218968499917537,1.1896249414980413,-0.1509503853879869,0.8061936289072037,1.4449711718832199
3.2289964999072254,0.9658052207529545,-0.26827460300177336,0.9119329226016999,1.3551282752471443
3.2390244998969138,0.5787774319946766,-0.38466660998761654,0.9258165514469148,1.1576217014028267
3.2490515001118183,0.37886390626430516,-0.3956761130690575,0.9947903072834016,1.1356518838923706
3.2590795001015067,-0.04696468994021416,-0.4200293642655015,1.096402051448822,1.175043747001637
3.269107500091195,-0.4894945420324803,-0.387686733417213,1.4275421530008316,1.5581343037561128
3.2791344998404384,-1.0809724187850953,-0.22116497520357373,2.37207681119442,2.6161352630621346
3.2891624998301268,-1.4370663902163505,0.17319812731817366,3.9717224013805392,4.2272610795672385
3.299190499819815,-1.7556064729392529,1.0756363959610462,5.489932065010071,5.8633183286060815
3.3092175000347197,-2.1204132342338564,1.7644973105192185,6.193773107528687,6.780297069471898
3.319245500024408,-2.4994446632266047,1.6374164105951787,5.685505641102791,6.422875564825308
3.3292735000140965,-2.7348538577556614,1.0502945633232594,4.102325810194015,5.040994083116088
3.3393004997633398,-2.7971071162819863,0.16847792593762279,2.651829827427864,3.858029868355048
3.3493285002186894,-2.736114809811115,-0.5546960763260722,1.9277065479755402,3.392648600233603
3.359356500208378,-1.9758734254539014,-1.2125971899926664,0.7544463551044465,2.437961657065884
3.369383499957621,-0.9980923761427403,-1.4433272963762285,-0.7195150887966156,1.8965980171836563
3.3794114999473095,-0.20062352389097216,-1.5166420251131059,-1.6796454405784609,2.271929056272142
3.389439499936998,0.4726731258630753,-1.4291725029051305,-2.009840632081032,2.5110582019015744
3.3994665001519024,1.24463890850544,-1.0692295286804439,-1.7656100356578828,2.410343667526199
3.409494500141591,1.893654995262623,-0.5531305574253201,-1.0936409962177278,2.255644759985232
3.4195225001312792,2.2405792169272902,0.02473072551190853,-0.5811687970161439,2.314857232473754
3.4295494998805225,2.637642143368721,0.7477692002803088,-0.05328567624092102,2.7421076230985255
3.439577499870211,3.1165092247724533,1.4875348779559137,0.601028864979744,3.5052283032301834
3.4496054998598993,3.306231199800968,2.012950473725796,0.8935551238059998,3.9726030654333204
3.459632500074804,3.2129555386304856,2.248543709367514,0.7878251856565476,3.999962578488367
3.4696605000644922,3.082160341143608,2.4432961902022363,0.6353917819261551,3.9841098576864744
3.4796885000541806,2.9930478975176813,2.5044221055507663,0.46998691499233247,3.9308209702135195
3.489715499803424,2.8731995648145676,2.4712125518918038,0.19610742688179017,3.794815586923351
3.4997434997931123,2.7182582902908328,2.477747984826565,-0.12235357224941254,3.6800996733361906
3.5097714997828007,2.531233343482018,2.487736198604107,-0.4187267142534256,3.5736963629035183
3.519798499997705,2.2998604819178583,2.3909408059716224,-0.5995337319374084,3.371260427448237
3.5298264999873936,2.1396458959579467,2.327826544940472,-0.6362548309564591,3.225163746747537
3.539854499977082,2.1847744140028955,2.3416205652058126,-0.5561906611919404,3.250503678366418
3.5498815001919866,2.231475686877966,2.3102322730422022,-0.4315479040145874,3.2408163308019504
3.559909500181675,2.1990334340929985,2.2316945189237596,-0.4263573306798935,3.1619596840373663
3.5699375001713634,2.4040607884526253,2.301216451227665,-0.4662575608491898,3.360431749496684
3.5799644999206066,2.6150824159383776,2.298650692999363,-0.5629827868938446,3.5269534543165317
3.589992499910295,2.722979916930199,2.3309825795888903,-0.6991527450084687,3.651973983369124
3.6000204998999834,2.9063994705677034,2.4293421024084094,-0.8309384608268738,3.878056170136228
3.610047500114888,3.1644245257973673,2.6166260808706285,-0.9476529783010483,4.214067013449492
3.6200755001045763,3.343010478615761,2.7310049280524256,-0.9452053338289261,4.418995372285432
3.6301035000942647,3.5210424077510836,2.8365746524930002,-0.8774296724796296,4.605841750049066
3.640130499843508,3.480466239452362,2.852035567760468,-0.8705819982290268,4.583193770655883
3.6501584998331964,3.007822349667549,2.6483460563421253,-0.755801739692688,4.078231036984663
3.660186499822885,2.808589001297951,2.729992482662201,-0.43269161939620976,3.9405904597026655
3.6702135000377893,2.7443289783596994,2.726923279166222,-0.2713213312625885,3.8782814978701015
3.6802415000274777,2.611189047396183,2.6366492861509325,-0.19187930524349214,3.715783277746797
3.690269500017166,2.269780358076096,2.5852502140402795,-0.0698332965373993,3.440973442560788
3.7002964997664094,1.8821754491329195,2.4989356631040573,0.045797147154808045,3.128795494809391
3.710324499756098,1.6096478372812273,2.3268892362713816,-0.07635995864868164,2.830408189859649
3.7203525002114475,1.405191171169281,2.231946533918381,-0.2188840860128403,2.6465180522550846
3.7303794999606907,1.1946649490296841,2.1694503235816955,-0.17463235795497895,2.4827878498522056
3.740407499950379,0.9715599042177201,2.020082030296326,-0.1730577027797699,2.248245766169945
3.7504354999400675,0.9177482709288598,1.8454077185690403,-0.3143837356567383,2.0848569902495924
3.760462500154972,0.9568889477849007,1.731228992342949,-0.520760042667389,2.0454782581001973
3.7704905001446605,1.0732744131982328,1.6561703315377236,-0.852148066163063,2.149645193923228
3.780518500134349,1.1188965824246406,1.8716143544018269,-0.7854786980152131,2.3177244527337977
3.790545499883592,0.904142823368311,2.1449303171038627,0.0768552178144455,2.328971239578755
3.8005734998732805,0.7062819626927376,2.421240492761135,0.7825866651535035,2.6407729215302425
3.810601499862969,0.5802212557196618,2.6662005293369293,1.3290306025743486,3.035062488780842
3.8206285000778735,0.557615042924881,2.9260262346267703,2.079054708480835,3.6324967367743857
3.830656500067562,0.9690754222869874,2.922026446759701,2.49079692363739,3.9599766469570645
3.8406845000572503,1.2333752708137036,2.34814444988966,1.9360189497470857,3.28377317882679
3.8507125000469387,0.6143536461889744,1.85815289452672,0.765991097688675,2.1016433911969976
3.860739499796182,0.2115310661494732,1.121939473450184,-0.7549106240272523,1.3687160495519968
3.8707674997858703,0.20547788232564926,0.49985770851373673,-1.7730436009168626,1.853580993546781
3.8807954997755587,-0.41667434155941013,-0.0663927948474884,-1.6781766200065613,1.730405235214652
3.8908224999904633,-1.1822017550468444,-0.41433172769844534,-0.7501223391294479,1.460121670914603
3.9008504999801517,-1.572932585477829,-0.4015173353254795,0.33408651351928714,1.6573915914895656
3.9108790000900626,0.1964670306444168,-0.1512948777526617,0.9036205208301544,0.937026936555074
3.920905999839306,1.442901619076729,-0.031100024431943894,1.3005722039937975,1.942786748888101
3.9309339998289943,1.878206505328417,-0.07426190458238126,1.2630938905477525,2.264636987128234
3.9409619998186827,2.0540588848292827,-0.17511906556785106,1.047493600845337,2.312372684772808
3.950989000033587,1.8689250737428666,-0.31312212578952314,0.5623296529054642,1.9766489408745573
3.9610170000232756,1.5027271136641502,-0.36003521405160427,-0.16599894404411317,1.5541459979430288
3.971045000012964,1.1922250521183015,-0.4943230265378952,-0.6025690215826035,1.4243753912628117
3.9810719997622073,1.084817693978548,-0.5969786448776723,-0.4932319360971451,1.3328505821715557
3.991100000217557,0.9617962235212326,-0.7293270090222359,-0.27457179844379426,1.2378851053994004
4.001128000207245,0.736821677684784,-0.8432600060105324,-0.048416699767112735,1.1208647551151931
4.011154999956489,0.6645566703379154,-0.9910249927639961,0.14268375635147096,1.2017174204862229
4.021182999946177,0.6225105120241642,-1.0476130302250386,0.27641191720962527,1.2495663034242623
4.031210999935865,0.5757153913378715,-0.9445158740133047,0.440692949295044,1.190700937954111
4.04123800015077,0.4643727108836174,-0.7508937330543995,0.6081554514169694,1.0720711105341612
4.051266000140458,0.19606035679578782,-0.6903173828870058,0.492226215004921,0.8702093997199336
4.061294000130147,0.14967424884438515,-0.7027225432544947,0.12132095396518708,0.7286563850239831
4.07132099987939,0.0402534019947052,-0.6425685082376004,-0.2756675666570664,0.7003622144701058
4.081348999869078,-0.06367851734161377,-0.6406265748292208,-0.6220770871639252,0.8952302856374996
4.091376999858767,-0.08788628250360489,-0.6682513797283173,-0.8405571305751801,1.077413660077634
4.101404000073671,-0.06774101659655571,-0.6568126179277897,-0.9222778165340424,1.1342786391665376
4.11143200006336,0.18780350357294084,-0.6638748119026423,-0.8523725992441178,1.0966033785171436
4.121460000053048,0.4313878364861012,-0.5927214333415032,-0.6512786668539048,0.9806008693191969
4.131486999802291,0.6865889789164067,-0.4938317142426968,-0.37011471748352054,0.9231787974489344
4.14151499979198,0.9432298520207406,-0.3491767153143883,-0.12411066055297852,1.0134152102291096
4.151542999781668,1.1252520672976971,-0.08514097820967437,0.11271677613258363,1.134083891407494
4.161569999996573,1.2502908271551132,0.25593080185353756,0.2952124696969986,1.3099153140834001
4.171597999986261,1.3819521434605122,0.6489490630477667,0.42063407599925995,1.5836223158118952
4.1816259999759495,1.5305209761857987,0.9920935714244843,0.4519769060611725,1.8791027743631132
4.191653000190854,1.5381320044398308,1.3011209651827813,0.42897103607654574,2.0598014416231605
4.2016810001805425,1.4907919232547284,1.542598400115967,0.4072761118412018,2.1835622761346563
4.211709000170231,1.3953251641988755,1.6163002145290375,0.24288281321525576,2.149034843432881
4.221735999919474,1.513144366890192,1.5555358032882214,0.17089306354522707,2.176810039836027
4.2317639999091625,1.6877164985239506,1.4513210248947144,0.19150566816329956,2.234142814958359
4.241791999898851,1.8516757875680925,1.4115976729989053,0.08175752341747285,2.329805894343389
4.2518190001137555,2.045255024582148,1.2266107732057572,-0.17747176587581637,2.3914720011336175
4.261847000103444,2.2223701103031637,1.0666998039186002,-0.4969700610637665,2.514708058690432
4.271875000093132,2.3554493764042856,0.9438123808801174,-0.7647093880176544,2.6502271644574678
4.2819019998423755,2.452263333946467,0.8168707908689976,-0.9373735731840134,2.7494622317276787
4.291929999832064,2.507011252641678,0.853735292851925,-0.9993102049827576,2.830651913767505
4.301957999821752,2.5799137526750564,0.9696665757894517,-1.0736452728509904,2.9578577402167956
4.311985000036657,2.763618358075619,1.1043253941088915,-1.1898662853240967,3.205136936562509
4.322013000026345,2.812018977999687,1.2605028431117535,-1.2639101618528368,3.330733710064208
4.332041000016034,2.782999831438065,1.2680230933427812,-1.2996308022737504,3.322952128643084
4.342067999765277,2.7008593153953555,1.2080398701131345,-1.3016188555955888,3.2323695665228005
4.352095999754965,2.5004916071891787,1.0724984876811505,-1.256630963087082,2.9969705806182088
4.362124000210315,2.3953310416638853,0.904486420378089,-1.165060642361641,2.8130184471821513
4.372150999959558,2.2246328365802768,0.6652725888043642,-0.8566860902309418,2.474972713425513
4.382178999949247,1.8957129228115084,0.5866303887963296,0.09307188570499421,1.986586286744819
4.392206999938935,1.5108738930523395,0.9320594774186611,2.0473581218719485,2.7098247303742937
4.40223400015384,0.8534456364065409,1.5511050756275655,4.6847435724735265,5.008105305379568
4.412262000143528,0.034569250568747524,2.633445889055729,6.510359489321709,7.022892065514792
4.422290000133216,-1.0517184334248304,3.3299542307853702,6.749709414839745,7.599558146833752
4.43231699988246,-1.9678280952572824,3.1762829715013505,5.257133944630623,6.449695980379299
4.442344999872148,-2.8363884186744692,2.2304750820994377,3.2776848006248476,4.874765225701059
4.452372999861836,-3.6327905926108364,0.8750042474269868,1.7380222874879838,4.121106816691606
4.462400000076741,-3.9309515208005905,-0.20804305583238603,0.7705174273252487,4.0111543074003615
4.472428000066429,-3.4601942351460457,-0.991172196418047,0.08802515387535095,3.6004325983977097
4.482456000056118,-1.7659693470597269,-1.8001433989405633,-1.0317961657047272,2.7246591197922023
4.492482999805361,-0.8476454908400775,-2.173413712531328,-1.851703269481659,2.9784282838721823
4.502510999795049,-0.5611504887789488,-2.494221053123474,-1.9491915571689606,3.2148680003135404
4.512538999784738,-0.3381868004053831,-2.7208515304327014,-1.4859651929140092,3.118572737195394
4.522566999774426,-0.4771590000763536,-2.6800104832649234,-0.5448564183712006,2.7761493869033864
4.532593999989331,-1.0936628501862289,-1.6625388264656067,0.8087927162647248,2.1480873905095144
4.542621999979019,-1.4381370154023172,-0.436154121235013,1.8269034737348557,2.36559607602081
4.552649999968708,-1.6157489682734014,0.6403572374582291,2.6897162765264513,3.2023859492967137
4.562677000183612,-1.4283433677256108,1.3286107724905014,3.2038087391853334,3.750968114791682
4.5727050001733005,-1.2790029948949815,1.7346998995542526,3.1457903265953067,3.8132701427206115
4.582733000162989,-0.9337979277223349,1.818488160967827,2.8061442804336547,3.4717896658653142
4.592759999912232,-0.41443127654492856,1.3592107138037681,2.132699988484383,2.5627360941733532
4.602787999901921,0.2403404438495636,0.6873544525355101,1.4692719769477844,1.6398109081885774
4.612815999891609,0.8436602479219437,0.0622541356086731,1.0195661294460296,1.3248219818668683
4.6228430001065135,1.3215299405157568,-0.24582790955901146,0.6459313881397247,1.4913417123455794
4.632871000096202,1.8336283564567566,-0.44444401122629645,0.3067396706342697,1.9114948742432052
4.64289900008589,2.25056494563818,-0.5860799465328456,0.028227433562278748,2.325796436979995
4.6529259998351336,2.51639983445406,-0.5840938666462898,-0.15913255870342255,2.588195692588513
4.662953999824822,2.7399172541499137,-0.5542640036344528,-0.2470647418498993,2.8063136196759357
4.67298199981451,3.077086127400398,-0.4881464664638043,-0.37571050286293034,3.1381370891219196
4.683009000029415,3.3030114305019382,-0.3731941536068917,-0.49246887445449833,3.360310101556001
4.693037000019103,3.4218072643876076,-0.23966435953974724,-0.68923177421093,3.498748976195827
4.703065000008792,3.50176150649786,-0.07676882520318032,-1.001869531273842,3.6430714594429943
4.713091999758035,3.539010901451111,0.03370759025216103,-1.2730394196510315,3.761165208577768
4.723120000213385,3.8188048481941226,0.33477794677019124,-1.3041167861223222,4.049205765836137
4.733148000203073,3.826123223304749,0.5526343846321107,-1.4694585031270981,4.135690024095394
4.743174999952316,3.994858664274216,0.8201732982695104,-1.5123542618751527,4.349574163079991
4.753202999942005,4.1844897150993345,1.0064043393731117,-1.4452814358472825,4.5400046584652225
4.763230999931693,4.365104944109917,1.1539480090141296,-1.2404470396041871,4.682354753610976
4.773258000146598,4.533209470510483,1.3547321851551533,-0.995189672112465,4.834841246669895
4.783286000136286,4.608626857995987,1.5576418241858483,-0.7400323837995529,4.920704979753108
4.793314000125974,4.6017429310083395,1.7970630857348442,-0.5043311208486557,4.9658658476294475
4.803340999875218,4.55535726159811,1.9200914266705513,-0.4599840831756592,4.964837985709437
4.813368999864906,4.332616059780121,2.281378017961979,-0.15388760626316073,4.898972236874399
4.8233969998545945,3.9099994853138926,2.5985447359085083,0.011040127873420716,4.69474734188073
4.833424000069499,3.7179245907068252,2.6611219301819804,-0.16301978766918182,4.57505285659627
4.843452000059187,3.5190619558095935,2.7391369432210926,-0.49738696753978734,4.487099512828244
4.853480000048876,3.351997649073601,2.7288630929589273,-0.8662024337053299,4.408275022689186
4.863506999798119,3.3678868728876115,2.5728076314926147,-1.2025646835565567,4.405469658886872
4.8735349997878075,3.477257287502289,2.4083789572119714,-1.389547530412674,4.452240984527361
4.883562999777496,3.5203746557235718,2.1391452281177044,-1.4078861528635025,4.353288807679132
4.8935899999924,3.5010721197724344,1.9345505677163601,-1.3909830218553543,4.2349528514482175
4.903617999982089,3.4041246995329857,1.803768672645092,-1.2708642554283143,4.0566910592392595
4.913645875174552,3.4261739650368694,1.8523040708899499,-1.0630167889595032,4.037289078495831
4.9236728749237955,3.391728309988976,2.0512213772535324,-0.9886659336090088,4.085191598390646
4.933700874913484,3.183038552105427,2.329911077320576,-1.1196394711732864,4.100464924593275
4.943728874903172,3.2191588497161865,2.6893978956341744,-1.1840956681966783,4.35866118116443
4.953755875118077,3.04430605173111,2.836502439379692,-1.0680605971813202,4.2958466993673
4.963783875107765,2.7069021204113963,2.829165645539761,-0.8973335945606232,4.017051769559015
4.973811875097454,2.4904615858197214,2.8921293407678608,-0.446165943145752,3.842639077899089
4.983838874846697,2.196578042060137,3.0371195313334467,0.2906317609548569,3.7594570037365185
4.993866874836385,1.8138244217634203,3.127697287201882,1.0674343603849412,3.769862791546375
5.003894874826074,1.2759225355088712,3.133735706806183,1.7902133649587633,3.8279422264198835
5.013921875040978,0.7223720383644104,3.006304704844952,2.358198444843292,3.8885459037338066
5.023949875030667,0.9300223074853421,2.7073409539461135,2.538185098171234,3.8258358728404342
5.033977875020355,0.4398673224449158,2.4130445967614653,2.9225915801525115,3.8154697000098055
5.044004874769598,-0.5658706536144018,2.159504940658808,3.5751490330696107,4.214897601841635
5.054032874759287,-2.5385853400826455,2.115760020017624,4.338852699995041,5.454035088211457
5.064060875214636,-2.7395868864655495,1.3831555004417897,2.8290051394701003,4.173934058660322
5.07408787496388,-2.250726182609797,0.8906631640344859,1.3315834969282152,2.7626371151754197
5.084115874953568,-1.8192380663752556,0.5764750177413226,0.3591237062215805,1.9418857908226637
5.094143874943256,-1.3053933794796468,0.3935543777793646,-0.24757169544696808,1.385723156999652
5.104170875158161,-1.1670818786323072,0.37062097672373057,-0.4488433831930161,1.3041857239119434
5.114198875147849,-1.6731083996593954,0.22438635248690844,-0.34977517783641815,1.723944206528651
5.124226875137538,-2.0236861078441146,0.057462378926575186,-0.5481887465715408,2.0974075164213652
5.134253874886781,-1.9210782904922963,-0.14368277141824365,-1.0743504470586778,2.205768668763434
5.144281874876469,-1.568019170165062,-0.2615317035466433,-1.6745846754312517,2.308964439993464
5.154309874866158,-1.1824568398296833,-0.27132189771160486,-2.0212812942266467,2.357413374999891
5.164336875081062,-1.393083780258894,-0.4679418513178826,-1.537998395562172,2.1272261421360525
5.174364875070751,-1.8795098496973515,-0.6911191823333502,-1.28817610681057,2.381092329469001
5.184392875060439,-2.223670531064272,-0.9086682759225368,-0.9796021646261216,2.594226101813772
5.194419874809682,-2.4227318251132965,-0.9944057066738606,-0.3050416392087937,2.6365740284569164
5.204447874799371,-2.9290656173229217,-1.165037692040205,0.38210034012794497,3.175332877728502
5.214475874789059,-2.0311845771968366,-1.3016746965050698,0.13850942909717562,2.416454564876543
5.224502875003964,0.19341361463069917,-1.0434935937076808,0.059238726496696474,1.0629190623704297
5.234530874993652,0.6072422625124455,-1.0279371495544911,0.3774412786960602,1.252142111614797
5.2445588749833405,0.611624239012599,-0.9267007235437632,0.20440813422203066,1.12900005584606
5.254585875198245,0.6122011399269104,-0.8897034166753293,-0.0768037623167038,1.0827101289253573
5.2646138751879334,0.49768122866749764,-1.1339998673647642,-0.1933902257680893,1.2534121764104278
5.274641875177622,0.30815045759081844,-1.2806141951680183,-0.19412112772464754,1.3313949202277855
5.284668874926865,0.24300999015569688,-1.3572919499874117,-0.2856259596347809,1.40814682531098
5.2946968749165535,0.2084883213043213,-1.3394762147963049,-0.37267228960990906,1.4058977720902834
5.304724874906242,0.13988542512059213,-1.223048210889101,-0.3492857658863068,1.2796153346107506
5.314751875121146,0.18916546627879144,-1.1471427270770074,-0.28449803173542026,1.1969374001924553
5.324779875110835,0.21425981551408768,-0.956349688321352,-0.11834589064121247,0.9871766532531753
5.334807875100523,0.30348364859819416,-0.8441569688916207,-0.016446463465690613,0.8972033210233281
5.344835875090212,0.311128079071641,-0.6449713484197855,0.056291145086288456,0.7183017575395255
5.354862874839455,0.33757313512265685,-0.49617571681737904,0.16219883859157563,0.62165458797972
5.364890874829143,0.330804690644145,-0.4064251957833767,0.29988614916801454,0.6037755258227558
5.374917875044048,0.21838392980396748,-0.3321793710440397,0.27099330246448516,0.4811154178827009
5.384945875033736,0.16239464722573757,-0.29561115844175223,-0.025107359290122987,0.33821347982209377
5.394973875023425,0.065681042522192,-0.23905831390991808,-0.1188961136341095,0.27495301895696656
5.405001875013113,-0.033945060297846795,-0.14350941974669695,-0.2644403278827667,0.30278029606532075
5.415028874762356,-0.0378132127225399,-0.0010157344490289689,-0.4038894045352936,0.4056569016653668
5.425056875217706,-0.028442684188485147,0.12653009220957756,-0.5168494248390199,0.5328716341435672
5.435084875207394,0.057633373439311984,0.22017964627593756,-0.6413863474130631,0.6805711785082165
5.445111874956638,0.2133486731350422,0.24337463714182378,-0.7778363871574402,0.8424834215096085
5.455139874946326,0.4330300270020962,0.24268718730658295,-0.6512178558111191,0.8188386720810444
5.465167874936014,0.705034459233284,0.32501627605408434,-0.3911395508050919,0.8693096781989966
5.475194875150919,0.971874849870801,0.3378167447447777,-0.27119853973388675,1.0640533467806692
5.485222875140607,1.1621844700723887,0.21586164196953178,-0.16174275577068328,1.1930757352303818
5.495250875130296,1.1796759771555663,0.03488023107871414,-0.030352896451950075,1.1805817802766005
5.505277874879539,1.286600574553013,-0.11631566427648068,0.15555172383785248,1.3011789696214542
5.515305874869227,1.4847654904425145,-0.13931278171017766,0.37301669061183934,1.5372306477011954
5.525333874858916,1.5482218135893346,-0.10785830637440086,0.17517848789691925,1.5618296004845258
5.53536087507382,1.760798946619034,0.017151637673377993,-0.24168764233589174,1.7773913540769404
5.545388875063509,1.9560877633094789,0.07124665992334485,-0.6623497849702835,2.066412994047776
5.555416875053197,2.109866319000721,0.11610639791004361,-0.9744957911968232,2.326941904463801
5.56544387480244,2.2502768240869044,0.09488638635724783,-1.257987517118454,2.579783286356518
5.575471874792129,2.3523740333318712,0.05160641529131681,-0.8601207447052003,2.505221449346445
5.585499874781817,2.297875352203846,0.4742292526736856,1.126292433142662,2.6026254366143062
5.595526874996722,2.284492245018482,1.3287078362703324,3.5313358461856845,4.410748484131887
5.60555487498641,1.4131458695232868,2.3333936789631844,5.223842237591744,5.893236380192431
5.6155828749760985,-0.6193268492817879,2.968675533235073,6.141760370135308,6.849658430318584
5.625609875191003,-2.043628036826849,2.1380465362966063,5.068071827888489,5.867964774682245
5.6356378751806915,-4.1314978614449505,0.4805866744369269,3.1582682847976686,5.2225373803860276
5.64566587517038,-5.294027536511422,-1.272577197253704,2.6495447355508808,6.05526775510354
5.655692874919623,-3.9956886765360835,-1.4412149897217752,3.947807874083519,5.798949530481641
5.6657208749093115,-2.8839066937565807,-1.4840913064777852,3.211782587170601,4.564536363258511
5.675748874899,-2.234945717006922,-1.8966730356216432,0.8204935795068741,3.0439383495783563
5.6857758751139045,-1.2069154505431652,-2.0642527744174006,-0.8321774858236314,2.531857774315431
5.695803875103593,-0.2307930918596685,-1.982235634624958,-1.567960113286972,2.537916956735592
5.705831875093281,0.404303423948586,-1.6710485717654229,-1.7598060894012453,2.4602402443886477
5.7158588748425245,0.695011600703001,-1.1777255652844907,-1.8886664432287217,2.3317674768326815
5.725886874832213,0.9111493957042694,-0.5446987993642688,-1.6547515046596528,1.965983861961872
5.735914874821901,0.9813610801845789,0.3332765279710293,-1.1840471363067628,1.5735661520233948
5.745941875036806,0.9025598359107971,1.03674364104867,-1.0593915152549744,1.735442887924696
5.755969875026494,0.7246676552295686,1.632293080240488,-1.1027953970432283,2.0989715572338357
5.765997875016183,0.589988371655345,2.045042185932398,-0.8039330953359605,2.275212570883904
5.776024874765426,0.22720321208238603,2.057113908827305,-0.2864042240381241,2.0893459055451276
5.786052874755114,-0.06594679847359658,1.8538527059555054,0.49925924599170685,1.92103582223645
5.796080875210464,-0.30164272584021096,1.7710035073757173,1.325875445008278,2.23279812183397
5.806107874959707,-0.5573832008242607,1.7439066329598427,1.6695911532640457,2.477785502439628
5.816135874949396,-0.6559662334620953,1.5683118233084679,1.4949658119678497,2.263805745536545
5.826163874939084,-0.4486405579000712,1.324325640499592,1.1161282181739807,1.7890944501847204
5.836190875153989,0.0009238600730895997,1.0275081101059915,0.7237426257133485,1.2568123002761682
5.846218875143677,0.5289508223533631,0.6704724445939064,0.34703107953071594,0.9218203955154617
5.856246875133365,1.0144395831227304,0.46641689747571946,0.13420938670635224,1.1245641598135654
5.866273874882609,1.5347780415415764,0.41826186060905457,-0.024109239578247073,1.5909330206741534
5.876301874872297,1.8848932349681855,0.5908383375406265,-0.3703240478038788,2.009739373331391
5.8863298748619854,1.9951338614523413,0.9421346685290337,-0.7412702393531799,2.327586395068669
5.89635687507689,2.164300096035004,1.2597443130612374,-1.06504811167717,2.7213008139811303
5.906384875066578,2.372279124855995,1.4268346399068834,-1.3835447788238526,3.094795872246904
5.916412916500121,2.760445658862591,1.5718952894210816,-1.5461792349815369,3.5329287090352675
5.926439916715026,2.9954046177864075,1.6979147735238076,-1.615919560790062,3.803493056303703
5.936467916704714,3.083509293794632,1.630858612060547,-1.5941041839122774,3.835218054637383
5.946495916694403,3.6544027787446978,2.2341942036151887,-1.8962877041101456,4.684249189093595
5.956522916443646,3.9652898794412614,2.577259993851185,-2.138429675102234,5.190248007490871
5.966550916433334,4.17334316790104,2.9307811903953556,-1.9610432785749436,5.463694933237531
5.976578916423023,4.301705338954926,3.1258916670084003,-1.643089817762375,5.565573796680829
5.986605916637927,4.390055890381336,3.1977174022793773,-1.4665945369005204,5.625734337949019
5.996633916627616,4.455145048499108,3.2437089693546297,-1.0779038000106813,5.6153220640596615
6.006661916617304,4.6182554680109025,3.188525286912918,-0.5700585025548935,5.640916926301152
6.016688916832209,4.248819027543068,2.450594100058079,-0.4511846083402634,4.925590535443912
6.026716916821897,3.368065797686577,1.9179607012867927,-0.5130095583200455,3.9096827590169476
6.036744916811585,2.8771283090114594,1.8666320881247522,-0.6770765823125839,3.495799673500786
6.046771916560829,2.518415077328682,1.7922683688998222,-0.6004371267557145,3.14883552302465
6.056799916550517,2.1956287465989592,1.7360469518601895,-0.5911330372095108,2.8607836128647186
6.0668279165402055,1.7972002029418945,1.6328972437977791,-0.7097215873003007,2.529819501414445
6.07685491675511,1.524102926105261,1.5727498599886895,-0.6729233050346375,2.291125842444234
6.086882916744798,1.3853910371661187,1.594512173384428,-0.5116465723514557,2.1733751659412923
6.096910916734487,1.1986540657281877,1.7477258880436422,-0.39739665627479553,2.156209973876162
6.10693791648373,0.838294842839241,1.8102804243564607,0.0165341717004776,1.9950255229377132
6.1169659164734185,1.0052721722424032,2.0373225456476214,0.16373724102973938,2.277732464401624
6.126993916463107,0.9737248358130456,2.3061362984776497,0.4515447968244553,2.5436779250869352
6.137020916678011,0.5129142487049103,2.5112738728523256,1.0298554748296738,2.762278007375777
6.1470489166677,0.6432673966884613,2.8015904688835147,1.45518778860569,3.2218431990226373
6.157076916657388,0.27741076782345775,3.1228297725319862,2.130700825452805,3.79063431761781
6.167103916872293,0.07874840006232262,3.479808135330677,2.7958286225795748,4.4645183005629105
6.177131916861981,-0.18597332507371903,3.706861073970795,3.0264685356616976,4.789041333785829
6.1871599168516695,0.0002971847355365753,3.798782812356949,2.904643551707268,4.782018936208006
6.197186916600913,0.045909706056118015,3.659080843627453,2.149145282506943,4.24379615045697
6.207214916590601,-0.2098814204335213,3.449878284931183,1.234461829662323,3.6700962385714306
6.21724291658029,0.0016933536529541017,3.0230350506305697,0.19733007967472077,3.0294690863469786
6.227269916795194,0.10314283758401871,2.733599045276642,-0.6441386318206788,2.810358831588249
6.2372979167848825,-0.05877825826406479,2.6783852496743203,-1.0638845157623291,2.8825427476789263
6.247325916774571,-0.3339555358886719,2.694667114019394,-0.9166171270608903,2.865823461581271
6.257352916523814,-0.43638062775135045,2.6433113113045694,-0.824012433886528,2.802948310609196
6.267380916513503,-0.6138085395097733,2.5490691053867343,-0.7418081831932068,2.7248474467141555
6.277408916503191,-0.8889299762248993,2.217729906141758,-0.8373405772447586,2.531730965471512
6.2874359167180955,-0.9563438411056996,1.6137581375241281,-1.203231850862503,2.2285815569047838
6.297463916707784,-1.3170170594751835,0.8329331653565168,-1.4795426112413408,2.1488038373426113
6.307491916697472,-1.1432439498603344,0.06416036445647479,-1.7841614967584611,2.119989511241704
6.317518916446716,-0.8072506593167782,-0.44330815304070714,-1.9384063678979875,2.1460650019575835
6.327546916436404,-0.827403672784567,-0.7480501589924098,-1.7794603353738785,2.1001559378472057
6.337574916426092,-0.7099752102792264,-0.979033157452941,-1.4694374531507493,1.9031072358975116
6.347601916640997,-0.536147575378418,-1.2703994017839433,-0.9952569150924683,1.7005602575846976
6.357629916630685,-0.10953296720981598,-1.1189073266834022,-0.5167365735769273,1.2373228208853209
6.367657916620374,0.29870998173952107,-0.49088552154600623,0.27124765634536746,0.6354302003581307
6.377684916835278,0.6665408498793841,-0.06655490890145302,0.9488499033451081,1.16147423541585
6.387712916824967,0.8881379708647729,0.4388497607409954,1.4435606002807617,1.7507842169945382
6.397740916814655,1.0375477062910796,0.857945141941309,1.7409049648046495,2.2007555988550958
6.407767916563898,1.1361607789993287,1.0873349934071304,1.8360023260116578,2.417449739858983
6.417795916553587,1.189881926625967,1.080140433087945,1.5524100279808046,2.2343901292025747
6.427823916543275,1.1729041705280543,0.822464529722929,1.066945533156395,1.7862040383497193
6.43785091675818,0.9561576072871686,0.39935021102428436,0.509335168004036,1.1546169383756517
6.447878916747868,0.8376759881526232,-0.10155747469514609,0.1489081174135208,0.8568480665938203
6.4579069167375565,0.8208759874105453,-0.7017222308367491,-0.10958032965660096,1.0854765426324933
6.4679339164868,0.5916543164849282,-1.1502540305256843,-0.07024844884872437,1.2954049596637651
6.477961916476488,0.39756454445421696,-1.3529169170558453,0.16980255782604217,1.4203079455200018
6.4879899164661765,-0.08197050824761391,-1.569319883286953,0.38019590198993686,1.616797137612536
6.498016916681081,-0.45069877780973916,-1.6725005815923215,0.35172580897808076,1.7675119882046435
6.5080449166707695,-0.601334016546607,-1.5304684974253178,0.22237721264362337,1.6593336149703388
6.518072916660458,-1.0080905301868917,-1.6572576212882997,0.46776614248752596,1.9953832976218633
6.528099916875362,-0.9601177802681924,-1.6769485585391521,0.20946831464767457,1.9436716787603296
6.538127916865051,-0.9398050647228957,-1.5559065167605877,-0.13650500357151032,1.8228308381681853
6.548155916854739,-0.8646395460516215,-1.4381054404377938,-0.40573712468147277,1.7263752247868724
6.5581829166039824,-0.056921913474798205,-0.6830743637681008,-0.5982572847604752,0.9098035334289511
6.568210916593671,0.5737325274199248,-0.20948585629463196,-0.4952030324935913,0.7863074337674792
6.578238916583359,0.9680321328341961,0.11229623341932893,-0.6129057294130326,1.1512385015221704
6.588265916798264,1.239901494383812,0.41104285161942244,-0.7723949682712555,1.517532842693492
6.598293916787952,1.5113184276223184,0.6339412339031697,-0.8418248069286347,1.8424532241752851
6.608321916777641,1.642477321922779,0.8017965227365494,-0.9261153441667557,2.048975121275062
6.618348916526884,1.759190085232258,0.7804163979738951,-1.0977293694019319,2.2155832818139767
6.628376916516572,1.814020011126995,0.7147393754124641,-1.226517802476883,2.3034467424550766
6.638404916506261,1.7967400270700455,0.6877617111057044,-1.192842518091202,2.2636616728444365
6.648431916721165,1.631710843741894,0.5693511356413364,-1.1504309087991715,2.0760858048648787
6.658459916710854,1.3711282163858414,0.3832209955528379,-1.0636026799678804,1.7771048303453525
6.668487916700542,1.2388226830959321,0.20203993879258633,-0.9384553080797196,1.5672268955972257
6.678514916449785,1.1817874067276717,0.059644550671800974,-0.9653472375869752,1.527113039772027
6.688542916439474,1.1716583481431009,-0.06038812464103103,-0.8887282472848893,1.4718246865347624
6.698570916429162,1.1967335477471353,-0.09927867771126331,-0.7194308888912201,1.3998600801659975
6.708597916644067,1.2892185191810133,0.05083294743206352,-0.5858471542596817,1.4169986827439478
6.718625916633755,1.4757983466982842,0.2710269970446825,-0.5500171709060669,1.5981099090913495
6.728653916623443,1.6825173005461693,0.5788696718215943,-0.5239906293153763,1.8548640767458764
6.738680916838348,1.7494769829511643,0.8038333272188902,-0.5502762025594712,2.00240396297225
6.748708916828036,1.9380181127786638,1.1015372955054046,-0.5532682228088379,2.29682483990782
6.758736916817725,2.1615549744665623,1.469217305481434,-0.5229930943250657,2.6654157602668618
6.768763916566968,2.2763912200927736,1.70778823569417,-0.3299116015434265,2.8648454251012954
6.778791916556656,2.4044459737837314,1.8923532588779928,-0.09671353161334992,3.0613256612827198
6.788819916546345,2.473937354385853,2.002470801472664,-0.004591818451881409,3.1828095181730465
6.798846916761249,2.4479305471479895,1.9881483390927315,-0.2607431334257126,3.1643458666091004
6.808874916750938,2.3926030232012274,1.5951349018514158,-0.7879432994127274,2.9815866958426005
6.818902916740626,2.311120172739029,1.192684277817607,-1.0741522264480592,2.813818623326299
6.828929916489869,2.3626373586058618,0.7000226645171642,-0.9356153154373169,2.635804059029932
6.838957916479558,2.353696673512459,0.24591020911931993,-0.21076347291469574,2.3758748080165724
6.848985916469246,2.148855845332146,0.24894834928214551,1.5740458953380585,2.6752901160919027
6.859012916684151,1.7090654137730599,0.7722643560916186,3.714065428376198,4.160718547379065
6.869040916673839,0.5995444031059742,1.6489110133051874,5.144260463118553,5.435234745022477
6.8790689166635275,-1.1918676410615445,1.7058646479249002,5.0413360190391545,5.453951918353434
6.889095916878432,-2.6783042657375336,0.8955317019671202,3.807137314081192,4.740209414927293
6.89912391686812,-2.8344053354859353,0.25639952927827836,2.9003645592927936,4.063460212829325
6.909151916857809,-2.466221660971642,-0.34577400125563146,2.261344580054283,3.3638502122911085
6.919178791809827,-3.807460372745991,-0.8780002145469189,2.8441622918844223,4.832897475568122
6.9292067917995155,-3.62361104875803,-1.1982185212522747,3.165703019499779,4.958624836083415
6.939234791789204,-2.963505425155163,-1.5438608139753343,2.173932799100876,3.98645888387918
6.949261791538447,-2.9648251417279243,-1.9715160803496838,1.66666052877903,3.931262023102681
6.9592897915281355,-2.4504233613610267,-2.2741688396036626,0.6030344599485398,3.397067723907424
6.969317791517824,-0.9170817614346743,-1.3227948394417763,0.010194620490074158,1.6096363175254391
6.9793447917327285,0.02157410614192486,-0.8698586245626212,-0.16233098566532136,0.8851388691549327
6.989372791722417,0.19365174248814584,-0.7281502568721772,-0.18518541276454925,0.7758849341574363
6.999400791712105,0.18200087293982506,-0.44420416574925187,-0.4210328561067581,0.6385219843836711
7.0094277914613485,0.13108774099498988,-0.06020731776952744,-0.8145569014549255,0.827231444433793
7.019455791451037,0.33039549518376593,0.36000897467136384,-1.147095656991005,1.2468344282098076
7.029483791440725,0.42167798671871426,0.7877525340020657,-1.1771977078914644,1.4778906667188683
7.03951079165563,0.5707223808020354,1.2143724046647548,-0.6850738191604615,1.5065691191773125
7.049538791645318,0.6887778840959072,1.5644821894168854,0.052774044871330264,1.7102060093551208
7.059566791635007,0.8406395763158798,1.8710942445695402,0.9051770496368409,2.242100368074332
7.069593791849911,1.0251078280806543,2.2574515038728715,1.7297215801477432,3.0230564163374347
7.0796217918396,1.270833557546139,2.706382010579109,2.492460456490517,3.8925416690564165
7.089649791829288,1.3875261479616166,3.1048647871613504,2.8404417085647586,4.43097317274501
7.099676791578531,1.3638798616826535,3.4136477673053744,2.641513584852219,4.526671335019949
7.10970479156822,1.0722613099962472,3.5032198020815852,1.9174493622779847,4.1350822670790555
7.119732791557908,0.550717959702015,3.3207781952619553,0.9941289871931076,3.509864746175156
7.1297607915475965,0.20568787045776846,2.5758119308948517,0.24751731634140015,2.5958388673572492
7.139787791762501,0.35664455987513066,2.005544536560774,-0.13790833532810212,2.0416716041445704
7.149815791752189,0.31987734094262127,1.6161655823886396,-0.4728491270542145,1.7140300463825204
7.159842791501433,0.43522989571094517,1.2052155187726021,-0.8863215333223343,1.5580549955767693
7.169870791491121,0.8386024794727565,0.8919399035722018,-1.1355251866579057,1.669798897980447
7.1798987914808095,1.3246951845288277,0.6335109519213439,-1.0816653138399124,1.8237744677680265
7.189925791695714,1.7638029536604882,0.5468069033324718,-0.8833733671903611,2.04703374538251
7.199953791685402,2.1326235361397265,0.5594124039262534,-0.7980051881074905,2.344746823179452
7.209981791675091,2.3810055094957354,0.6138361676037312,-0.8730027455091477,2.6092366451845628
7.220008791424334,2.432829820364714,0.6544619641453028,-0.9435254287719727,2.6902084737261664
7.230036791879684,2.734749192595482,0.7063541758060455,-1.0796936327219009,3.0238266664312117
7.240064791869372,2.905199329555035,0.8109279001504183,-1.2588891577720642,3.2684230318680365
7.250091791618615,2.9679191958904267,0.9370722953975201,-1.2426654732227327,3.351248471611189
7.260119791608304,3.036479845941067,0.9428435703366995,-1.2814190644025802,3.4280021399564387
7.270147791597992,2.9121841210126878,0.991832639425993,-1.3287727403640748,3.3511468685875028
7.280174791812897,2.7246185991168024,0.9710444721579552,-1.3112819641828537,3.175835995002414
7.290202791802585,2.436655653566122,0.9228406110405922,-1.2951015490293503,2.9096758564726315
7.3002307917922735,2.225709601342678,0.845390731394291,-1.236748090982437,2.682911582364402
7.310257791541517,2.0411270365118983,0.7755246904492379,-1.077627811431885,2.4349373348502636
7.320285791531205,1.871861106902361,0.7601444667577744,-0.9553941071033478,2.234829191183075
7.330313791520894,1.713275262862444,0.7734337992221118,-0.8891065621376038,2.0794283942833123
7.340340791735798,1.6078609281778335,0.8584488795697689,-0.8475006991624833,2.0100767841742697
7.3503687917254865,1.5991136397421362,0.9568272596597672,-0.899498233795166,2.069246217886597
7.360396791715175,1.5868318556249144,1.0585501009225846,-0.931840353012085,2.122943733990826
7.370423791464418,1.6443671420216561,1.063031699359417,-0.8070829904079437,2.1178674757900384
7.380451791454107,1.81787888109684,1.0745770266652108,-0.6266268056631089,2.202739332320122
7.390479791443795,1.9438931027054787,1.1066571906208993,-0.5187006533145905,2.2961839865411173
7.4005067916586995,2.0872912426292896,1.1369481796771288,-0.35752507746219636,2.4035931593850095
7.410534791648388,2.062263844013214,1.1797992803156376,-0.2633474832773209,2.390441465735138
7.420562791638076,1.9339339788258076,1.200467945113778,-0.12337040305137635,2.2795710513278094
7.430589791852981,1.714475550055504,1.2574308621883392,-0.04844476640224457,2.1267124112849864
7.440617791842669,1.2804060342907906,1.374592545479536,-0.21414082467556,1.8907143019316557
7.450645791832358,0.6798569333553315,1.4790187007188798,-0.46285214245319367,1.6923161266976658
7.460672791581601,0.1285486972332001,1.4987501299381256,-0.6165783655643463,1.6257138740971309
7.470700791571289,-0.30494720667600633,1.4257757091522218,-0.46040274381637575,1.5289865461087835
7.480728791560978,-0.3486355555057526,1.4787617155909538,0.4155534303188324,1.5751087630732217
7.490755791775882,-0.25056503131985663,1.576689275354147,1.8116235297918322,2.4146866711092194
7.500783791765571,-0.03187558449804783,1.8080511733889582,3.1261775958538056,3.6115165040877995
7.510811791755259,0.4875917118787766,1.9747735641896726,3.994552270174027,4.482624693911785
7.520838791504502,1.0570900511741639,2.2353414273262024,4.135410525798798,4.818278830651006
7.530866791494191,1.4426007798314096,2.3315102908015253,3.329206956624985,4.312847806974389
7.540894791483879,1.2244671839475632,2.542006838321686,1.8986914944648743,3.4009040036131495
7.550921791698784,0.9098839120566845,2.729480266571045,0.6920407766103744,2.959201192131385
7.560949791688472,0.6186545656621456,2.616829271614552,-0.3348595154285431,2.709734268054047
7.57097779167816,0.3288461657613516,2.3463592949509624,-0.9758529299497605,2.5623876917106534
7.581004791427404,0.03332488998770714,1.926222817003727,-1.3719824945926666,2.3651175138895706
7.591032791882753,-0.36760699287056925,1.4885784597694875,-1.6403375333547594,2.245374791750682
7.601060791872442,-0.6543484550714493,1.1601305624842644,-1.9223200929164888,2.338672564147214
7.611087791621685,-0.8817719610035419,0.926581221073866,-2.108779029250145,2.466378629623593
7.621115791611373,-1.0405550023913384,0.7725003643333912,-2.1342717200517654,2.4969235672942776
7.631143791601062,-1.1128906148672104,0.6901862590759993,-2.0186804527044298,2.4062321922474155
7.641170791815966,-0.8593074700981379,0.6858740837126971,-1.5324616670608522,1.886072996436278
7.651198791805655,-0.3245150600373745,0.7105263834446669,-0.7357697635889053,1.0730866278049
7.661226791795343,0.3846243638545275,0.6854518416523934,0.11127134442329407,0.7938270848143977
7.671253791544586,0.9822458370029927,0.6276813510060311,0.7454925137758256,1.3836725952356885
7.681281791534275,1.4207998748123647,0.5321852096915245,1.1220754212141038,1.8870470668677164
7.691309791523963,1.6644903346896172,0.3625286860764027,1.2376602566242219,2.1056490764917526
7.701336791738868,1.5731729060411455,0.2085366339236498,0.8296555817127228,1.7907230115953794
7.711364791728556,1.3085688561201096,0.007406668066978455,0.1560955148935318,1.317866882393371
7.7213927917182446,1.0072083315253257,-0.2830875371396542,-0.29574164271354675,1.087230562490189
7.731419791467488,0.878082367926836,-0.456680406332016,-0.6414541751146317,1.179427444637256
7.741447791457176,0.792643802985549,-0.5699029666185379,-0.6899194067716599,1.1954339704108141
7.751475791446865,0.8029256200790406,-0.596479000300169,-0.33105648636817936,1.0536010375587361
7.761502791661769,0.839376431554556,-0.5934885880351067,-0.1061854362487793,1.0334683569652765
7.7715307916514575,0.8976396232098341,-0.6906076240539551,0.06635069489479065,1.1345035029786217
7.781558791641146,1.0172915625572205,-0.7237130972743034,0.3710993885993958,1.3024429072459653
7.7915857918560505,1.1193677949160339,-0.5791754812002182,0.6550319945812225,1.420385656166572
7.801613791845739,1.161711284145713,-0.20728774175047876,1.1344650864601136,1.6369338251708427
7.811641791835427,1.1807069143652917,0.4313102146983147,1.7182475888729096,2.128960332087163
7.8216687915846705,0.7693642102181912,0.7561215823888779,1.8129245352745058,2.1095820690172746
7.831696791574359,0.1813694467395544,1.017494899481535,1.7785282891988756,2.0570254306065907
7.841724791564047,-0.31392531394958495,1.2856417773663997,1.7251461338996887,2.1742936935375643
7.851751791778952,-0.6398120576888323,1.4839460031688214,1.4970345568656922,2.202854437754523
7.86177979176864,-0.8478465619683266,1.7564861865341663,1.1358631557226182,2.257049539698895
7.871807791758329,-1.0921050057560207,1.9151499447226525,0.6361115741729737,2.294587237209637
7.881834791507572,-1.3004375718533994,2.1472224256396295,0.18625428378582,2.5172192359201193
7.89186279149726,-1.0036970054358245,2.5981690523028376,-0.21404726922512055,2.793511470627568
7.901890791486949,-0.7619365652650595,2.993414225578308,-0.6993030184507371,3.1670334331984575
7.911917791701853,-0.4517970310896635,3.226275495886803,-1.0449693578481676,3.42124759283842
7.921945791691542,-0.16287879668176175,3.11523160815239,-1.2432408392429353,3.3581014367052258
7.93197379168123,0.3270830109715462,2.517962210476399,-1.158677237033844,2.7909944337231827
7.942000791430473,0.8644921231269836,1.7954119782149793,-1.087248820066452,2.270013391855281
7.952028791885823,1.1887222044914962,0.9787860395014286,-1.1866567486524582,1.9440259333909202
7.962056791875511,1.3937800374627114,0.3626032380759716,-1.169571184515953,1.8552629616156266
7.972083791624755,1.613615465462208,-0.09760640144348146,-1.230855267047882,2.0318185372717408
7.982111791614443,1.3321063841879368,-0.22637846231460573,-1.2262371361255646,1.8246676796084296
7.9921397916041315,1.2534481774270536,-0.4449375893175602,-1.1931003803014757,1.7867821102077472
8.002166791819036,1.0953651939332485,-0.6772769956290722,-0.9512794214487076,1.601081376620362
8.012194791808724,0.933707442060113,-0.6917494390904904,-0.3960944813489914,1.227687953836631
8.022222791798413,0.6339456924051047,-0.6562191255390645,0.10110245168209077,0.9180045682775068
8.032249791547656,0.05027443327009678,-0.9656890073418618,0.6165900599956513,1.1468505044804143
8.042277791537344,-0.466596443541348,-1.3411308306455614,1.7394250345230104,2.2454272637426635
8.052305791527033,-1.518159085214138,-1.4915770581364634,3.3644463711977006,3.9810938839774463
8.062332791741937,-2.764905622601509,-1.4588072150945663,4.516408665776253,5.492792443648698
8.072360791731626,-4.353609318137169,-2.1138836485147476,3.9367940586805346,6.238650946710448
8.082388791721314,-3.9820690494775772,-2.6873051771521568,4.483349677920342,6.571065923004005
8.092415791470557,-2.547590929269791,-2.9845442917943004,5.424582413434982,6.695059262824173
8.102443791460246,-1.1538000744581223,-2.480730357170105,4.372468342781067,5.157883008117525
8.112471791449934,-0.4183861504867673,-1.6274736589193346,2.5441165137290955,3.0489746336800687
8.122498791664839,0.30973198324441914,-1.2318264895677566,1.3133816993236542,1.8271020469485642
8.132526791654527,0.6189795977622271,-1.1179028481245041,0.40680833458900456,1.3410203359315047
8.142554791644216,0.6164595209062099,-1.1157211057841778,-0.8528637653589249,1.533698969508158
8.15258179185912,0.5065462288632989,-1.1510961757600309,-1.6144957637786865,2.0465111920251795
8.162609791848809,0.6767904341965915,-0.6811648093163968,-1.4130925136804582,1.7084675125652258
8.172637791838497,0.8908157032728196,-0.08820290923118591,-1.1209416460990906,1.4345182272643426
8.18266479158774,1.0722664263099433,0.34336838364601135,-0.6395573383569718,1.2948709298325551
8.192692791577429,1.0854425420612097,0.5727031251043082,-0.09868930578231812,1.231224577685297
8.202720791567117,0.9449347539246082,0.787719351053238,0.1102638691663742,1.2351362621354105
8.212747791782022,0.9071357937902212,1.047102422118187,-0.012868552207946778,1.3854545934158642
8.22277579177171,0.9484941002726556,1.3612451063096525,-0.39767790734767916,1.706099943056221
8.232803791761398,0.9249581801891328,1.603525510132313,-0.7981121921539307,2.015893044784033
8.242830791510642,0.9785852607339621,1.7611436399817468,-1.1276524955034257,2.3088646958600707
8.25285879150033,1.124858622774482,1.7464691752195358,-1.3772227692604067,2.492429348525533
8.262886791490018,1.3070405401289464,1.5827782733738422,-1.4978818184137346,2.5411005446733674
8.272913791704923,1.5132053241133692,1.3957448481023311,-1.4731843489408494,2.5314355926812597
8.282941791694611,1.7081177262961866,1.24133450075984,-1.323504399061203,2.4920355944485006
8.2929697916843,1.7684646463394167,1.1588882484287024,-1.200049211382866,2.431174055356626
8.302996791433543,1.8310345315933227,1.1562162901461126,-1.0801532238721847,2.419969948682812
8.313024791423231,1.832988232523203,1.221088735833764,-0.9533119136095047,2.3999389921367693
8.323052791878581,1.8325710336863996,1.3452674433588983,-0.7062231981754303,2.380506730364138
8.333079791627824,1.765569836050272,1.5378221020102503,-0.3762151175737381,2.3714281515771947
8.343107791617513,1.7523687234520913,1.8087719888985159,-0.056819733381271366,2.5190634634440086
8.353135791607201,1.71656476020813,2.127448457926512,0.1191019356250763,2.736204814737363
8.363162791822106,1.6071597008407117,2.488076214194298,0.1620590901374817,2.966437037987158
8.373190791811794,1.6308194357156753,2.788999367058277,0.14482266783714295,3.234047480554194
8.383218791801482,1.6080916008353234,2.9814765501022342,0.04377985775470734,3.3877835957203133
8.393245791550726,1.5774263168871403,3.13018907815218,-0.07806793034076691,3.5060593337733197
8.403273791540414,1.5817263592779638,3.291543286442757,-0.22352268218994142,3.658698931534883
8.413301791530102,1.7581514735519888,3.5020117673277857,-0.36924523651599883,3.9359274722922764
8.423328791745007,1.941460660994053,3.6079998600482943,-0.4695857959985733,4.124008160527764
8.433356791734695,2.022898341715336,3.475228596031666,-0.5465778386592866,4.058088075597219
8.443384791724384,2.0066695408523083,3.0904323971271515,-0.6907830405235291,3.748956689063294
8.453411791473627,2.110526762008667,3.1124050641059875,-1.0322434777021408,3.8996044791088744
8.463439791463315,2.229874280691147,3.0959173777699474,-1.0474772286415102,3.9565454960341735
8.473467791453004,2.536416607797146,3.034749947190285,-0.9345470291376115,4.064049040052366
8.483494791667908,2.6291087168455127,2.623320265710354,-0.9660512423515321,3.8376134334151786
8.493522791657597,2.6449494087696075,2.3986911441385748,-1.1227618843317033,3.743002915952324
8.503550791647285,2.659228309392929,2.3020952877402308,-1.2315727204084397,3.7266485319877964
8.51357779186219,2.628855240046978,2.2202358765900136,-1.2357154726982118,3.6561345640287426
8.523605791851878,2.616674320399761,2.2183367009460926,-1.1860831367969513,3.6297101020877744
8.533633791841567,2.363051341474056,2.326624503582716,-1.1506466710567476,3.510153983050862
8.54366079159081,1.8021739907562733,2.002543599307537,-1.539516332745552,3.1029216069498586
8.553688791580498,1.4525360763072968,2.202931188046932,-0.2775673270225525,2.6532641205267353
8.563716791570187,2.0194125241041183,2.399887338280678,0.8365658211708069,3.246125159647987
8.573743791785091,2.2184435588121416,2.7272744044661525,1.7117536711692811,3.910194129663232
8.58377179177478,2.0739084278047084,3.1542033004760746,1.9975521236658098,4.270867489681147
8.593799791764468,1.9099096700549127,3.528972986340523,2.476120412349701,4.715143431810454
8.603826791513711,1.5317661407589913,3.656696056723595,2.7744067633152008,4.838911700947095
8.6138547915034,0.9717250149697065,3.442555232048035,2.5213287448883057,4.376360893507209
8.623882791493088,0.3294964857771993,2.937259612977505,2.036821439266205,3.5895269247663735
8.633909791707993,-0.2903396559879184,2.2652364867925643,1.514320680499077,2.740211776546238
8.643937791697681,-0.8224857989698648,1.515346574485302,0.9868199676275253,1.986598041582601
8.65396579168737,-1.293038505166769,0.7366677497327329,0.4530598104000092,1.5555999296541168
8.663992791436613,-1.8792246517539026,0.04336507089436054,0.15095113456249237,1.8857762502903024
8.674020791426301,-2.465317973792553,-0.5584402677789331,0.08651247918605805,2.5292553555615025
8.68404879188165,-2.8391646766662597,-0.9368201342225075,0.05069009721279145,2.9901601146208785
8.694075791630894,-3.037595202326775,-1.1680737856775523,-0.18907498061656952,3.2599279639711187
8.704103791620582,-2.4374659314751628,-1.05306577809155,-0.6462026989459991,2.7327212862300354
8.71413179161027,-2.179329779148102,-0.9175944160670042,-0.7327537697553635,2.4755576918685933
8.724158791825175,-4.421911813616753,-2.1679686391353608,-1.110850521326065,5.048502846231566
8.734186791814864,-3.0448931121826175,-2.2090815818309784,-0.7057723778486252,3.8274704635223644
8.744214791804552,-1.3364979355037212,-0.9445912300050259,-0.10214091718196869,1.6397902580424395
8.754241791553795,-1.008912721797824,-0.5177923249080777,-0.12187936305999757,1.1405561586695836
8.764269791543484,-0.31040185488760474,-0.11339571096003057,-0.35557736992836,0.48543090629559854
8.774297791533172,0.19392436891794207,0.05085871629416943,-0.06729677438735962,0.21147606419227707
8.784324791748077,0.724269167482853,0.05015602715313435,0.31122974753379823,0.7899021520264663
8.794352791737765,0.970657167211175,-0.021475836373865607,0.4374927681684494,1.0649114845873684
8.804380791727453,0.616666366159916,-0.27814963661134245,0.23237127363681795,0.7152908753168143
8.814407791476697,-0.15243468280881645,-0.8704194456338883,0.3397162127494812,0.9467171959278445
8.824435791466385,-0.828346974849701,-1.7671405443549157,0.5843771642446518,2.037263135762354
8.834463791456074,-0.9994394284486771,-2.420294413268566,1.529715229868889,3.0326115647292644
8.844490791670978,-1.2348803441226484,-2.4817799323797227,2.0501741409301757,3.447807289452523
8.854518791660666,-1.9728935381770134,-1.858699755370617,1.902126733660698,3.311368267725914
8.864546791650355,-1.8885037444531918,-1.317625608444214,1.078107283115387,2.5426165559808958
8.87457379186526,-1.3224346509575844,-0.8764938256144524,0.6907549738883972,1.7303806709349034
8.884601791854948,-0.7590026517212392,-0.4485018327087164,0.08694283425807953,0.8858882410844937
8.894629791844636,-0.2272312056273222,-0.0942028833925724,-0.460275274515152,0.5218826806671395
8.90465679159388,0.21147127836942675,0.12330177135765553,-0.7478729152679444,0.7869163397633252
8.914684500079602,0.5869459557160736,0.23254478976130485,-0.9240939617156982,1.119165887728892
8.92471250006929,0.7658992964029313,0.21878029793500903,-0.9604905402660371,1.247801518245422
8.934739499818534,0.9237716339528561,0.06470514222979545,-0.91610666513443,1.302609768514974
8.944767499808222,0.9547770796716214,-0.19422433108091355,-0.8505546998977661,1.2933544217144337
8.95479549979791,0.8948941361904145,-0.3352077536657453,-0.7480512553453446,1.2135816551552554
8.964822500012815,0.9295861051976682,-0.41817616235464816,-0.5969381529092789,1.18124374628481
8.974850500002503,1.0304073058068752,-0.4214531247317791,-0.4679140770435333,1.2076032194814097
8.984878499992192,1.2704328770935536,-0.38174355033785107,-0.40413323342800145,1.3867413254770058
8.994905500207096,1.6483565510809421,-0.35708390504121784,-0.352414026260376,1.723015925821927
9.004933500196785,1.8567089246213437,-0.3513454841449857,-0.36189294755458834,1.9240005679540142
9.014961500186473,2.1410350482165814,-0.3793378230929375,-0.5234415757656098,2.236497114901035
9.024988499935716,2.4141560062766074,-0.3295566024631262,-0.8268717223405838,2.573028103631
9.035016499925405,2.407492665499449,-0.37651080396026376,-1.0297765374183656,2.645415097286209
9.045044499915093,2.366947341263294,-0.3320855963230133,-1.1704558682441712,2.6613319032217317
9.055071500129998,2.2076696254312993,-0.27342245511710644,-1.2698322218656541,2.5614524953046667
9.065099500119686,2.1471309167146684,-0.08636176720261574,-1.2999752032756806,2.5114866229940342
9.075127500109375,2.2202842622995376,-0.026978614479303362,-1.5269553440809251,2.694806611590435
9.085154499858618,2.2616904428601265,0.11839179128408432,-1.468670883178711,2.6993062884128625
9.095182499848306,2.298682121783495,0.25472998475655917,-1.1587082272768021,2.5867801642389514
9.105210499837995,2.335834891498089,0.34910881452262404,-0.8780196565389634,2.5197063563014797
9.1152375000529,2.4114142468571664,0.35896203070878985,-0.6731741505861283,2.529216449110999
9.125265500042588,2.460585237443447,0.42806274421513085,-0.49065799176692965,2.545282437882753
9.135293500032276,2.15317269846797,0.4155673905462027,-0.3736400038003922,2.22451248096143
9.14532049978152,1.6862643425166608,0.3275709611177445,-0.15187616407871246,1.7244873257365545
9.155348499771208,1.1980847661942244,0.183643721267581,-0.08002382397651672,1.2147164013676193
9.165376499760896,0.7151623483747245,0.0690076331421733,-0.17887334346771241,0.740415363811458
9.1754034999758,0.4845819672569633,0.08218881038948894,-0.193998920917511,0.5284035057236341
9.185431499965489,0.1706784890033305,-0.005147084668278694,-0.13016603708267213,0.2147110530430374
9.195459499955177,-0.44165540099143985,-0.17105108454823495,0.24866161644458773,0.53493043121781
9.205486500170082,-0.9524830707907678,-0.2337373659387231,1.2022331464290619,1.5515223797134559
9.21551450015977,-1.4178622336685658,0.0824868904799223,2.702073197364807,3.0525951196779983
9.225542500149459,-2.0591939096152783,0.85903520911932,4.674562985301018,5.179745182096287
9.235569499898702,-2.1992652761936187,1.7893767745792866,6.049936864972115,6.68134515398085
9.24559749988839,-1.945833208858967,2.1923056277632713,5.930042046904564,6.614973130729782
9.255625499878079,-1.3617437276244164,1.8392348130047322,4.578842895627022,5.118880047425124
9.265652500092983,-1.0015620408207178,1.2368298058211804,3.156276723146439,3.5348206804952134
9.275680500082672,-1.2965711005032063,0.5961447222903371,2.3128386694192886,2.717665884419184
9.28570850007236,-1.7253716902434826,0.4074089167267084,1.562629206776619,2.363196888283625
9.295735499821603,-2.1706922721862796,-0.02390696246176958,0.8884434878826142,2.3455933821837935
9.305763499811292,-2.7275138479471206,-0.6843486182391644,0.37883233129978183,2.8374599128916675
9.31579149980098,-2.9840116104483605,-1.0483386696875097,0.39717329263687134,3.187645821297719
9.325818500015885,-3.2384792196750642,-1.228120524287224,0.6705598604679108,3.52784327952837
9.335846500005573,-2.511627337038517,-0.7042273242026568,0.5547580933570863,2.6668266809933514
9.345874499995261,-1.343287429958582,-0.06070319820195437,0.2535715234279633,1.368358328527384
9.355901500210166,-0.6258471525460482,0.22177136801183225,0.2679012948274613,0.7159876408081821
9.365929500199854,-0.119811074975878,0.48555932935327295,0.2787057799100876,0.5725377435280279
9.375957500189543,0.29871886219829324,0.8137996870279313,-0.011927735209465027,0.8669747171094604
9.385984499938786,0.6341822853684426,1.169911419376731,-0.3813326007127762,1.3843028760461302
9.396012499928474,0.7396621819585563,1.5590792159736158,-0.7539815014600754,1.883166548567754
9.406040499918163,0.6891892357170583,2.0226691308617593,-0.919049568772316,2.32611786576474
9.416067500133067,0.6532421618700027,2.33821441590786,-0.9189197605848313,2.5958400380603606
9.426095500122756,0.7109579810500145,2.5216743153333665,-0.8507646149396897,2.754651163661961
9.436123500112444,0.8306428840756417,2.594282700419426,-0.7133328276872635,2.815868259279421
9.446150499861687,0.9911876184493303,2.6062373328208923,-0.5847624957561494,2.8490126546576753
9.456178499851376,1.2471333307027817,2.410730561167002,-0.6252913016080857,2.785310143406137
9.466206499841064,1.4647237202525138,1.913318450599909,-0.7831976991891861,2.53369329361145
9.476233500055969,1.6887746983766556,1.7367758072912693,-0.8421423107385636,2.5646742206770616
9.486261500045657,1.7379053431749345,1.6868758150935175,-0.8595892328023911,2.569972499178388
9.496289500035346,1.7055262403190137,1.6597505816817284,-0.8455869054794312,2.525590814943669
9.506316499784589,1.6899698692560197,1.7560688415169716,-0.7841835397481919,2.5602186936181783
9.516344499774277,1.775950544178486,1.9118307727575303,-0.6258122885227204,2.683419136008492
9.526372499763966,1.8899466910958291,2.120626072883606,-0.45326680183410645,2.8765264173691745
9.53639949997887,2.021002382040024,2.3394065169990066,-0.4888699132204056,3.1298989236141477
9.546427499968559,1.9728540694713594,2.3759181395173075,-1.0383836388587953,3.25812534543512
9.556455499958247,1.7239933553338052,2.2581096079945566,-0.9485487717390061,2.995155565796211
9.566482500173151,2.1421888500452044,2.3202070382237436,-0.5920188903808594,3.2129145858626207
9.57651050016284,2.7889338782429696,2.1949722504615785,-0.6880693477392197,3.615175622954715
9.586538500152528,2.8970667296648025,1.982384300082922,-1.1696501219272615,3.700124938035259
9.596565499901772,2.8990065434575083,1.829489989578724,-1.5865811562538148,3.7773684393182907
9.60659349989146,2.6940025779604913,1.6897634625434876,-1.8069656378030778,3.6576051270750667
9.616621499881148,2.401992628276348,1.6569534198939802,-1.9978357136249543,3.536440408182726
9.626648500096053,2.1161305873095992,1.7332054974138738,-2.104110027551651,3.450983767979263
9.636676500085741,1.9147923874855042,1.8054918470978738,-2.242245234847069,3.457440439154913
9.64670450007543,1.6775414662063122,1.945363677442074,-2.0798540228605273,3.3052046781949365
9.656731499824673,1.418389506340027,1.9353935900330546,-1.78051926612854,2.987946786188043
9.666759499814361,1.155823941975832,1.8156889526546003,-1.5403372818231584,2.6467516504974293
9.67678749980405,1.0636911191046239,1.7192129641771317,-1.352991322875023,2.432635922786612
9.686814500018954,1.0191747314482928,1.8133048966526986,-1.2964481627941131,2.4510343980163936
9.696842500008643,1.0354506754875183,1.8618543282151223,-1.4270580035448075,2.564206346287723
9.706870499998331,1.1728293992578984,1.9354365670681,-1.4627482384443284,2.6946383642299723
9.716897500213236,1.413388382792473,2.0143538054823877,-1.3225974959135056,2.7936628483893284
9.726925500202924,1.6452801847457887,2.0955616906285286,-1.120390253663063,2.8902595049666764
9.736953500192612,1.8368191820383073,2.2627979055047036,-0.9276040452718736,3.0585304205557766
9.746980499941856,1.8648755845427514,2.605234242975712,-0.8095955389738083,3.304610619017495
9.757008499931544,1.8271046179533006,2.9170729780197147,-0.4660382902622223,3.4734446493401356
9.767036499921232,1.6887214887142181,3.1542629420757295,0.13866905808448793,3.580556392778564
9.777063500136137,1.5817145186662676,3.6183620032668116,1.1188085818290712,4.104399718353349
9.787091500125825,1.472525075376034,3.9076293164491656,2.2634589332342148,4.749857188887044
9.797119500115514,1.1514680586755277,3.8610533201694492,3.3659912055730823,5.250096020773034
9.807146499864757,0.7002590382099152,3.5114041498303417,4.041936936378479,5.399775552900423
9.817174499854445,0.12710604295134545,2.9562981471419336,4.495834652781487,5.382228526001141
9.827202499844134,-0.7314082523435355,2.239549668431282,4.571591178774834,5.142955050826204
9.837229500059038,-1.8059947076439857,1.5236858734488488,4.347695444226265,4.948301850203915
9.847257500048727,-2.565243965685368,0.8545806540548802,3.7274754327535633,4.604873266394138
9.857285500038415,-2.973382834196091,0.15134929340332748,2.8878988802433017,4.147755059042925
9.867312499787658,-3.175567857027054,-0.44884659916162495,2.0186997485160827,3.7895703132177463
9.877340499777347,-3.3334064269065857,-0.8286168238520623,1.0810396617650986,3.600951401785646
9.887368499767035,-3.3857825687527656,-0.9263919174671174,0.14104595124721528,3.5130641252305246
9.89739549998194,-2.967371896505356,-0.8868955837190151,-0.7661366933584214,3.1904302502170867
9.907423499971628,-2.05276577308774,-0.7381848098337651,-1.623277696967125,2.7191532899233013
9.917451249901205,-2.369064471870661,-0.8930763830244541,-1.5056480902433396,2.945679559872267
9.92747825011611,-2.625534606277943,-0.9516505734622479,-1.704366883635521,3.2716872186637214
9.937506250105798,-2.5815834251046184,-0.627011990994215,-2.212979335784912,3.457599536996217
9.947534250095487,-1.890998751372099,0.06206654962152243,-2.74498883664608,3.333870460528477
9.95756124984473,-0.41221715524792674,0.5047495622187853,-2.9287592232227326,3.000387590171139
9.967589249834418,0.09706502236425878,0.6574797852337361,-2.65924175798893,2.7410341139777206
9.977617249824107,0.5066890105605125,0.7209188590943814,-2.2929786014556885,2.4564626236835805
9.987644250039011,0.7606898657977581,0.6320387692004442,-1.7377591627836229,1.999482179350009
9.9976722500287,0.8594147665053606,0.32272683531045915,-1.349299390912056,1.6319789206459174
10.007700250018388,0.5546874882280827,-0.2608461906015873,-0.946111067533493,1.127317655702023
10.017727249767631,0.3856199254095555,-0.9062813694030047,-0.25038654506206515,1.0162391792033874
10.02775524975732,0.21210946541279554,-1.501816117465496,0.7312381714582443,1.6837907647313055
10.03778325021267,-0.4019760859385133,-2.0104510813951495,1.1945779716968536,2.372870593777238
10.047810249961913,-1.3143887360394002,-2.585519770681858,1.3542525672912598,3.2010201889442977
10.057838249951601,-1.8763055755198004,-2.7946872460842136,1.7733347922563554,3.8046702487310706
10.06786624994129,-2.084763491302729,-2.856046172976494,1.891026964187622,4.009890464355239
10.077893250156194,-2.141161055713892,-2.313111295849085,1.9469473958015442,3.704815608840591
10.087921250145882,-2.047288393825293,-1.1171291884034873,1.7653977817296982,2.925063540986917
10.09794925013557,-1.4061097687482835,-0.23362802300602198,1.3977809947729112,1.9963763283137284
10.107976249884814,-0.8284930090606213,0.5957652014493943,0.8985387057065964,1.3596722571904032
10.118004249874502,-0.3071248559653759,1.1118990732729435,0.253366870880127,1.1810334447239716
10.12803224986419,0.17503901353105902,1.3830941046774388,-0.023675376176834108,1.3943272507157445
10.138059250079095,0.4183049107342959,1.3100525870919228,-0.12823937952518463,1.3811814210130657
10.148087250068784,0.6213887237012387,0.9360974914580584,-0.16380565345287323,1.1354447373431464
10.158115250058472,0.6283264450728894,0.47350478265434504,-0.28032604336738587,0.8352146977660815
10.168142249807715,0.5151881577819586,0.009498150867875666,-0.39740659654140476,0.650723486408244
10.178170249797404,0.4383106474578381,-0.21740517899394035,-0.4814813715219498,0.6864441322139438
10.188198249787092,0.39346856988966467,-0.32858019053936005,-0.6470973229408264,0.8255406728096952
10.198225250001997,0.3824398440867663,-0.40224341332912444,-0.7418590539693832,0.9265068018466585
10.208253249991685,0.45450001616030933,-0.4562588951736689,-0.7993775296211243,1.0265217381906677
10.21828025020659,0.7239623348414899,-0.4263261211663485,-0.7397370994091035,1.1194134178667323
10.228308250196278,1.0068936051428319,-0.39977033346891405,-0.8706457328796388,1.3898471296444437
10.238336250185966,1.1948394884169102,-0.3656217900663614,-0.850800867676735,1.511682113703539
10.248364250175655,1.4675774538517,-0.49664619840681556,-0.7765663719177246,1.733059825695362
10.258391249924898,1.5429968878626825,-0.5797959438711405,-0.7127440130710602,1.7958303819269763
10.268419249914587,1.5681653505563737,-0.8196555273234845,-0.6913040274381638,1.899704979334886
10.278446250129491,1.4418250004947186,-1.0123178478330375,-0.43261852920055394,1.81405775787337
10.28847425011918,1.5269559288024903,-1.001479814350605,-0.19425269007682802,1.8363796815089417
10.298502250108868,1.4032908260822297,-0.975557645559311,-0.22706024765968325,1.7240922882615797
10.308529249858111,1.2265701350569727,-0.754968219101429,-0.18356514930725099,1.451946098209936
10.3185572498478,1.1233968919515611,-0.419081494063139,-0.20364858090877533,1.2161918516495571
10.328585249837488,1.1663891297578812,-0.15371730610728265,-0.38644599080085756,1.2383186649729077
10.338612250052392,1.3091582554578782,-0.01489329680800438,-0.47868289411067966,1.394006621662
10.34864025004208,1.512767660021782,-0.013193182311952115,-0.38981398701667785,1.5622403777079676
10.35866825003177,1.537465129494667,-0.14769006930291653,-0.29513236284255984,1.5724867225448316
10.368695249781013,0.9847086842358113,-0.3615684270858765,0.13557178795337677,1.0577157604780467
10.378723249770701,-0.1953424283489585,-0.3429469455778599,1.2474110734462738,1.3083599114734585
10.38875124976039,-1.8157575112581255,-0.19173473283648493,2.807505512237549,3.349003545640166
10.398778249975294,-3.6748861598968507,0.04548841416835785,4.3734641236066825,5.7126216332345825
10.408806249964982,-3.842641607522965,0.23684095837175848,4.883129074573517,6.218274497187652
10.41883424995467,-4.084747325778007,-0.37428202807903294,4.630549823641777,6.1860520060231
10.428861250169575,-4.2841239309310915,-1.795328363031149,4.251248545646668,6.296827453848762
10.438889250159264,-2.4871201944351196,-2.4296208684146405,3.871270744800568,5.203418261619149
10.448917250148952,-1.064293967038393,-1.5281252257525921,2.877956859469414,3.427903738266695
10.458944249898195,0.2443358645774424,-1.1145011573284864,1.269291354417801,1.7067259260950827
10.468972249887884,0.988357566073537,-1.1305049134790899,0.07724756598472596,1.5036153844204092
10.479000249877572,0.7134103032946587,-1.3050671048462392,-0.738099879026413,1.6604053241355037
10.489027250092477,0.2675082888454199,-1.4421090289950371,-1.0325440245866777,1.7937074172840082
10.499055250082165,-0.012844322808086873,-1.1695666529238224,-0.8977054774761201,1.4744240423129502
10.509083250071853,-0.21368232987821104,-0.8123797637969256,-0.5032330137491227,0.9792162605144759
10.519110249821097,-0.2729375382140279,-0.6369197324663401,-0.16856294810771943,0.7131445245152584
10.529138249810785,-0.6244583657383919,-0.761162832453847,0.14480103313922882,0.9951303669610401
10.539166249800473,-0.8111181539297104,-0.9937113498151303,0.5267101693153382,1.386650103250976
10.549193250015378,-0.752894284799695,-1.1588377431035042,0.4368881660699845,1.4493536451043485
10.559221250005066,-0.47518618606030943,-1.1043222512304784,0.0424613106250763,1.2029682077616572
10.569249249994755,-0.09809632502496243,-1.0148342701792719,-0.4145716828107834,1.1006276232687708
10.57927625020966,0.29213303357362747,-1.0632902193814517,-0.8039272481203079,1.3646343173932998
10.589304250199348,0.6583835455030204,-1.1744080743938685,-1.130560900568962,1.7580873607662233
10.599332250189036,0.9515644732117653,-1.2872502002120019,-1.4097818201780319,2.1330665261845696
10.60935924993828,1.2077181270718576,-1.3194584181904794,-1.52582917034626,2.351107876910635
10.619387249927968,1.478807762414217,-1.3270252999663354,-1.4844320529699326,2.4802030289498105
10.629415249917656,1.7352113847434523,-1.326265161931515,-1.4741812992095948,2.6349854520349454
10.63944225013256,1.8636198949813845,-1.2294997362792492,-1.4447341364622117,2.659324244905157
10.64947025012225,1.89525172367692,-1.268224237561226,-1.3847925746440888,2.6679621975634316
10.659498250111938,2.370703300237656,-0.9905197202414274,-1.3598425054550172,2.906980408187686
10.66952524986118,2.5094588971138,-0.5432666335254908,-0.990345253944397,2.7519640828717082
10.67955324985087,2.394429839551449,-0.09326038531959058,-0.6086945647001267,2.4723472306898584
10.689581249840558,2.130500119775534,0.479540973007679,-0.4649548012018204,2.2327501589558425
10.699608250055462,1.9886678642034532,1.1255632122606039,-0.4737104219198227,2.33368677905699
10.70963625004515,1.9506638860702517,1.6535727059841157,-0.6296398758888245,2.6335980452042453
10.719664250034839,2.010780718177557,2.1383407974243167,-0.6678128385543823,3.010268169094238
10.729691249784082,2.1432264384627344,2.7581555968523026,-0.7157980138063431,3.565558674253229
10.73971924977377,2.327115231156349,3.366659542322159,-0.5540049719810486,4.129985869463532
10.749747249763459,2.4589614656567576,3.7687886425852777,-0.3017408859729767,4.510133798939048
10.759774249978364,2.445740764886141,4.023570832014084,-0.2878905862569809,4.717377567983693
10.769802249968052,2.392123551517725,4.427186586856842,-0.2393347227573395,5.03780877664965
10.77983024995774,2.3354752877354623,4.731050304472447,-0.14798074901103975,5.278179620394681
10.789857250172645,2.2543805462121966,4.797890118956566,-0.09787128031253815,5.3020335747928895
10.799885250162333,2.141038702726364,4.80833324611187,0.006773999333381653,5.263474253694405
10.809913250152022,2.013657402098179,4.877965983152389,0.004642689228057862,5.277252108851719
10.819940249901265,1.8013029018044473,4.824991963505745,0.021383267641067506,5.150310363082904
10.829968249890953,1.5406784668564797,4.721686865687371,0.1273301374912262,4.968322650528385
10.839996249880642,1.4118683990836145,4.5938632231950765,0.18093507170677187,4.809333549456589
10.850023250095546,1.3409682780504228,4.611900714039803,0.3586179220676422,4.816267323657033
10.860051250085235,1.229772655069828,4.725661218166351,0.5922369915246963,4.918837198583543
10.870079250074923,0.9869878558069468,4.559526618719101,0.2778713822364807,4.67339710696453
10.880106249824166,0.7492589977383614,4.443005059361458,0.49522700607776643,4.532872465749743
10.890134249813855,0.7580117679387331,4.3797604054212576,0.3520520836114884,4.458791733060043
10.900162249803543,1.0856388623267412,4.348109427094459,0.03437110304832459,4.481723853843135
10.910189250018448,1.5362553405761719,4.080038563013077,-0.4694746989011765,4.384883309739379
10.920217416714877,1.8550095775723459,3.7703899025917056,-0.9500737255811692,4.3080785316066725
10.93024441646412,1.92352388843894,3.68523514688015,-1.5087634867429733,4.422360172591649
10.940272416453809,2.055302879959345,3.48770450770855,-2.0588110631704333,4.541701845706374
10.950300416443497,2.123505680412054,3.1881060415506366,-2.598342422246933,4.628680141267269
10.960327416658401,2.3902258376777175,3.283756549358368,-3.0781655234098437,5.0962083572068675
10.97035541664809,2.575726561546326,3.2753502997756008,-3.4901229161024094,5.435369801181753
10.980383416637778,2.6192298460006715,3.1589690735936165,-3.725820670723915,5.542669958106401
10.990410416852683,2.8264224243164064,2.987888022065163,-3.802600459456444,5.601420249127668
11.000438416842371,3.163939791619778,3.0321292251348497,-3.526651057004929,5.625085805637622
11.01046641683206,3.4706107574701313,3.243118985295296,-2.8047520583868026,5.516302556212376
11.020493416581303,3.6026017105579378,3.575203996896744,-1.6349674504995346,5.332348569676816
11.030521416570991,3.80354624658823,3.9475777861475945,-0.28118149101734163,5.489025182900156
11.04054941656068,4.0131066548824315,4.1779095509648325,1.1162124180793762,5.89965112542932
11.050576416775584,4.080932309925556,4.14013390660286,2.400314769744873,6.289374235697251
11.060604416765273,4.008421865701676,3.875079036355019,3.238611951470375,6.447657773458529
11.070632416754961,3.7012804913520814,3.364590212702751,3.301946067810059,5.993562580786569
11.080659416504204,2.491530456840992,2.6513678973913195,2.4882644945383072,4.407826668491347
11.090687416493893,1.2112122769653797,1.8118717440962793,1.3253164511919022,2.550760296995006
11.100715416483581,0.10736308375373484,0.7589107773452998,0.2737654674053192,0.8138918422417144
11.110742416698486,-0.9042580135166646,-0.1261174249649048,-0.059045768380165106,0.914917790106022
11.120770416688174,-1.6915037401020527,-0.756900285333395,0.48312151551246646,1.9150690179385363
11.130798416677862,-1.8800207501649857,-0.8833711013942958,0.9625587004423142,2.2893976883946316
11.140825416427106,-1.9690710671246052,-0.8924436412006617,1.1286406749486924,2.4387550703699965
11.150853416882455,-2.8420488157868387,-1.4105001506209374,2.0457770347595217,3.7751762637215394
11.160881416872144,-5.009725386500359,-2.679329282641411,1.5475714570283892,5.888219702726358
11.170908416621387,-10.852559720277787,-6.636411425471306,-1.1008090978860856,12.768390257205908
11.180936416611075,-5.2441279828548435,-5.659680243730545,2.8781907480955127,8.23509810167782
11.190964416600764,-3.060464247465134,-4.49648135483265,3.7133316028118135,6.5858649831902065
11.200991416815668,-1.422334330379963,-3.2268695729970935,2.5275478434562686,4.338688775364314
11.211019416805357,-1.1990348656475545,-1.9934707671403886,0.9943909424543381,2.5299058589040353
11.221047416795045,-0.07087453946471214,-1.5415321603417398,0.17998957693576814,1.5536218489444988
11.231074416544288,0.538579322732985,-1.3825384730100632,-0.005496382713317871,1.4837488084077606
11.241102416533977,0.6693801847100258,-1.114614885672927,0.09507280290126802,1.303639142131596
11.251130416523665,-0.44441046282649044,-1.1276473791897297,-1.1473236984014512,1.668964032020075
11.26115741673857,-1.5323067158460617,-2.0997379182279112,-2.8036153596639632,3.8232345313379246
11.271185416728258,-1.864896049797535,-2.904502049088478,-2.559298809170723,4.296973332978959
11.281213416717947,-1.7301801480352879,-3.2102140715718273,-1.539019904136658,3.958229401550899
11.29124041646719,-1.168470299988985,-3.1589053389430046,-0.0007320713996887208,3.3680864475674466
11.301268416456878,-0.5267566546797753,-2.9461959126591686,0.8778214359283447,3.1189923697236455
11.311296416446567,-0.11260355941951275,-2.200393496453762,1.0296958458423615,2.432012466204681
11.321323416661471,0.20574546553194523,-1.2641361567378044,0.9107745891809464,1.5715857506533029
11.33135141665116,0.40264891773462297,-0.7101938961446286,0.40464778840541843,0.9111758083571726
11.341379416640848,0.4882105300202966,-0.3933494328707457,-0.15636331737041473,0.6461600304735021
11.351406416855752,0.4924715787917376,-0.29149912230670455,-0.39887307822704315,0.69756700520991
11.36143441684544,0.5571482889354229,-0.27800681836903096,-0.6738465803861619,0.9174809103308171
11.37146241683513,0.9431971076130867,-0.2767022314667702,-0.6918624365329743,1.2020226868881163
11.381489416584373,1.5094907341897488,-0.14712829805910588,-0.8633963549137116,1.7451825917000088
11.391517416574061,1.913971438407898,-0.03777359783649445,-1.205911045074463,2.262506344823655
11.40154541656375,2.191076981574297,0.02491659387946129,-1.174751817584038,2.4862584356322026
11.411572416778654,2.239003538489342,0.00226798877120018,-0.8558674800395966,2.3970087885800897
11.421600416768342,2.1873572753369808,-0.023322204351425173,-0.6617498606443406,2.2853858871639674
11.43162841675803,2.111981256902218,0.03912569336593151,-0.6983645403385162,2.224794075996667
11.441655416507274,2.0130399361252787,0.07883135743439199,-0.6571089255809784,2.1190413651999345
11.451683416496962,1.9185047847032548,0.12428980462253095,-0.44547772586345674,1.9734636983493936
11.46171141648665,1.7766361302137377,0.1735778857022524,-0.20275337219238282,1.796572890678553
11.471738416701555,1.6131555819511414,0.22765509221702815,-0.002482143044471741,1.6291420851560376
11.481766416691244,1.6586951592564583,0.4094291662797332,0.18196885943412783,1.718142758720905
11.491794416680932,1.739745754301548,0.5384358466789126,0.2711903536319733,1.8412421509682355
11.501821416430175,1.6511594139039518,0.6802932818233968,0.20661838173866273,1.7977256506736485
11.511849416885525,1.6390299497544767,0.856201648414135,0.11685426592826843,1.8528775886185465
11.521877416875213,1.6326440593600273,0.9682693836092949,0.1006510466337204,1.9008426702352763
11.531904416624457,1.7042272813618184,1.03876699693501,0.1382316863536835,2.000633774475343
11.541932416614145,1.7611874940991403,1.1286060301959515,0.11420840084552765,2.0948929613680902
11.551960416603833,1.7583641660213472,1.1926977995038033,-0.00725347101688385,2.1247176739818765
11.561987416818738,1.827187794595957,1.1963767214119434,-0.09763446807861328,2.186198752541457
11.572015416808426,1.9317044354975224,1.2568066719174387,-0.2276408761739731,2.315786131144723
11.58204241655767,2.0458094868063927,1.2628424602746964,-0.3733154833316803,2.4329965034653975
11.592070416547358,2.1591902142763137,1.3322101722657682,-0.5053450280427934,2.5869402625268627
11.602098416537046,2.291292995363474,1.4463618551194668,-0.615216549038887,2.7785747441373005
11.612125416751951,2.3669488030672077,1.5236007964611054,-0.721460457444191,2.9059097052341087
11.62215341674164,2.4137601497769356,1.5715580512583256,-0.8195498389005661,2.9946109442743953
11.632181416731328,2.4321791714429857,1.607072138786316,-0.8917290383577348,3.0485007887672793
11.642208416480571,2.287100541740656,1.4804312418401242,-0.8245655804872514,2.846473949708827
11.65223641647026,1.789985323548317,1.240943760573864,-0.7209920954704285,2.29430130478898
11.662264416459948,1.5232246743142606,1.1336752738058569,-0.6167467653751374,1.9964492499132716
11.672291416674852,1.4108530300855637,0.9975709506869317,-0.4035748243331909,1.774408834793045
11.68231941666454,1.3500121665000917,0.8226336604356767,-0.1533087319135666,1.588320671735093
11.69234741665423,1.2658140152692796,0.6401818209886552,0.5445260506868362,1.5194165015074337
11.702374416869134,1.018814762234688,0.7610358747839928,2.1282841712236404,2.479264535287967
11.712402416858822,0.02067702905740589,1.3338675655424597,4.662168057560921,4.849272236003891
11.72243041684851,-1.5879355175793173,2.077115625590086,7.003879108428955,7.47597960775362
11.732457416597754,-2.6692396196722985,1.9145336481928827,6.991397057175637,7.724630220818031
11.742485416587442,-2.284097119420767,1.1313391649723052,4.585899900197983,5.246666165459963
11.75251341657713,-3.013274001181126,0.08013429980725051,3.220263973474503,4.410934342183921
11.762540416792035,-4.731632102429867,-1.48561757594347,2.3447960418462754,5.485751581374697
11.772568416781723,-5.280917494297028,-3.021196101307869,1.268354630470276,6.214856308295925
11.782596416771412,-2.6312979143857955,-2.5922578096389772,1.9328854268789293,4.168881785242447
11.792623416520655,-2.143348206728697,-2.2514298950135707,0.5043749749660492,3.1491700847715323
11.802651416510344,-1.3869627687335015,-1.3974902419745923,-0.7961451888084412,2.1237918589000038
11.812679416500032,-0.9018558311462402,-0.8499801378697157,-1.8608465605974198,2.235745982224444
11.822706416714936,-0.5787694651633501,-0.14517812373116612,-2.060250062942505,2.144919836094153
11.832734416704625,-0.3144085863232613,0.6393725663423538,-1.4289314514398574,1.5967138537192622
11.842762416694313,-0.24936657138168813,1.469843542277813,-0.9464583921432496,1.7659012468869353
11.852789416443557,-0.12218656115233899,1.9375611528754235,-0.5945022028684617,2.030395440812855
11.862817416433245,0.09556426137685776,1.9374541488289834,-0.006858199238777161,1.9398216778260686
11.872845416422933,-0.0031791311502456666,2.4441761961579322,0.7274181854724885,2.5501263892787778
11.882872416637838,0.047856244146823886,2.7494271656870843,0.8613024669885636,2.8815762872363
11.892900416627526,0.19626003921031954,2.8873182517290115,0.8185482108592987,3.0075148982605673
11.902928416617215,0.32341446787118916,2.9622275161743166,0.7567337858676911,3.0744161719393674
11.91295541683212,0.7781822499632836,2.658640956580639,0.5541628468036652,2.82507270896582
11.922983416821808,1.3326169922947884,1.76051097124815,0.30018318772315983,2.2283125620589113
11.933011416811496,1.6773008532822133,1.361444788724184,0.23280338287353516,2.1728017581553183
11.94303841656074,1.9226131846010686,1.0905673342198134,-0.04784074902534485,2.210897398192978
11.953066416550428,2.0105627632141116,0.9604281943291426,-0.48857053577899934,2.2811151022508445
11.963094416540116,1.6753519763052465,0.7551978684961796,-1.0985164046287537,2.1409965801769864
11.97312141675502,1.6408088189363481,0.7762085954099894,-1.2450739413499832,2.201127548170806
11.983149416744709,1.7480392988026143,0.902743146121502,-1.4879006212949752,2.4666647191861437
11.993177416734397,1.7963754531741143,0.9994974620640278,-1.5187593019008638,2.5558931438049863
12.00320441648364,1.748199658691883,1.1846900376677514,-1.6014272367954254,2.65033238042889
12.013232416473329,1.7894074724614621,1.3665844912827017,-1.6997920221090317,2.8211389885542384
12.023260416463017,1.8429991042613985,1.5226456537842752,-1.7613246113061907,2.969403958994021
12.033287416677922,1.8874087071418764,1.6903237719833852,-1.7675852251052857,3.0893144239357726
12.04331541666761,1.96856674477458,1.8761601260304452,-1.6785297918319704,3.1957306064820985
12.053342416882515,2.034876216799021,2.030104157924652,-1.5767022854089738,3.2784194677513643
12.063370416872203,1.9582105949521065,1.9878077387809754,-1.4394131702184678,3.1397258821652883
12.073398416861892,2.0811355863511563,2.343358065336943,-1.4219779425859451,3.441580105178118
12.083425416611135,2.171104354709387,2.743051654100418,-1.2658064138889313,3.7202543425878103
12.093453416600823,2.2738076278567316,2.9526488998532296,-1.1724532771110536,3.906786830800011
12.103481416590512,2.3661218605935574,3.133169403970242,-0.9172392708063126,4.031948790977293
12.113508416805416,2.321095084100962,3.16475694000721,-0.7917632853984833,4.003755484400421
12.123536416795105,2.2788542135059835,2.8903164115548137,-0.79136392056942,3.7647526266802807
12.133564416784793,2.5081456124782564,2.2056925356388093,-0.9615354377031327,3.4756904886836
12.143591416534036,2.5033918261528014,2.0361944715678693,-0.9728217333555222,3.3703769353265303
12.153619416523725,2.4095741280913354,1.9137460282444956,-1.1183618545532228,3.2740196360297573
12.163647416513413,2.3226991215348245,1.9151686558127403,-1.0182048976421356,3.177977879559368
12.173674416728318,2.152188173532486,1.8957518067955972,-0.8813209944963456,3.0004192278083237
12.183702416718006,1.8527791571617127,1.9135043920576573,-0.6986925691366196,2.753626875559494
12.193730416707695,1.4657355809211732,2.0076175206899642,-0.4276875722408295,2.522265957826197
12.203757416456938,1.104733895212412,2.188442080020905,-0.0036048084497451783,2.451474803354375
12.213785416446626,0.7256192895770073,2.248582739531994,0.42695023834705353,2.401027737439127
12.223813416436315,0.4560297574102879,2.2242004349827766,0.9074106860160828,2.445081771171966
12.23384041665122,0.11418793559074403,2.286008135676384,1.3711855190992357,2.6681495102037545
12.243868416640908,-0.1490208224952221,2.298163912296295,1.6528669470548631,2.834736975097448
12.253896416630596,-0.5844035498052835,2.4932112389802934,2.0554875057935718,3.283695886904898
12.2639234168455,-0.8538726293295622,2.883686546087265,2.5092922514677047,3.9167964162665823
12.273951416835189,-0.6609153167903423,3.2318961319327357,2.810936658382416,4.333973530261573
12.283979416824877,-0.36911389343440537,3.313097585141659,2.758006492853165,4.326599182916995
12.29400641657412,-0.15275982454419137,3.1833347135782244,2.3795460444688796,3.977335143084427
12.304034416563809,-0.16908824734389782,2.841241607666016,1.6917363131046297,3.311074819692126
12.314062416553497,-0.4523098319023848,2.4335867424309257,0.6830968755483627,2.5677908712266784
12.324089416768402,-0.838120084181428,1.9216728061437607,-0.26916370868682865,2.113698358672487
12.33411741675809,-0.7803423576056958,1.4212774461507798,-1.0603568905591965,1.9373488352299555
12.344145416747779,-0.6038406448066235,0.7900385029613972,-1.6855850422382355,1.9570338001933534
12.354172416497022,-0.9314679584652186,0.3527458557486534,-1.9437694340944291,2.184102060187433
12.36420041648671,-0.8656773537397385,0.024080149680376053,-2.1167452758550644,2.2870478126268368
12.374228416476399,-1.1442186807096004,-0.32560965880751613,-2.1111816501617433,2.4232923882959785
12.384255416691303,-3.5080411237478257,-1.0876670421659946,-2.8846478283405306,4.670178285041136
12.394283416680992,-3.926802336573601,-1.0724509790539742,-1.1885594326257707,4.2405897252478235
12.40431141667068,-1.3618690042197705,-0.35360992804169655,-0.13837786674499514,1.4138159710051017
12.414338416885585,-0.0975305338203907,0.038478187322616576,-0.4279372483491898,0.4405939904851187
12.424366416875273,0.522974529415369,0.20148452639579775,-0.11734016954898835,0.5725967937248261
12.434394416864961,0.9991641707718373,0.17189154870808127,0.4537538748979569,1.110751242923611
12.444421416614205,1.24285799279809,-0.0955595836043358,0.7482155621051789,1.4538411713997854
12.454449416603893,1.391759532094002,-0.3084833834320307,0.5978976809978486,1.5458454741567134
12.464477416593581,1.2549963739514352,-0.4881871777027846,0.4224999225139618,1.41132873691035
12.474504416808486,0.8614612919837237,-0.7738563336431981,0.33847660303115845,1.2064557984051762
12.484532416798174,0.33030745804309847,-1.1512220370769501,0.20448473274707796,1.2150017289770167
12.494560416787863,-0.14409286223351955,-1.6055879692733288,0.04612517595291138,1.6127005338495386
12.504587416537106,-0.5205523203313351,-2.0423420879244807,0.062571639418602,2.1085661318463775
12.514615416526794,-0.96616635940969,-2.3512981456518176,0.4946329289674759,2.5897378512543687
12.524642416741699,-1.2201316928118469,-2.467071261405945,0.9050466567277908,2.897286904590772
12.534670416731387,-1.3882038402557373,-2.3480668281018735,1.1808919787406922,2.9723784410446927
12.544698416721076,-1.2270018057525158,-1.8653842923045159,1.4729586464166642,2.6748456335553206
12.554725416470319,-0.8842972272634506,-1.391114145666361,1.1593707168102265,2.0152718455374536
12.564753416460007,-0.5087288117408753,-0.9021207831054926,0.5705473297834397,1.182434423860014
12.574781416449696,-0.023763084411621095,-0.3714179887622595,0.2540287756919861,0.4506069522727375
12.5848084166646,0.5038629781454802,0.12687361612915993,0.03361505806446076,0.5206772391261204
12.594836416654289,0.9481673140078783,0.5752010556310415,-0.2620271819829941,1.1395331297728593
12.604864416643977,1.2146345061063768,0.9075385207682849,-0.5402722012996674,1.6096139914898098
12.614891416858882,1.4438621704280377,1.1266890205442905,-0.698228884935379,1.960022880470103
12.62491941684857,1.3520282864570619,1.3034880642592908,-1.0985111421346665,2.175727085468318
12.634947416838259,1.3092749074101449,1.3058512164652347,-1.1987201392650604,2.20371916427598
12.644974416587502,1.251569759398699,1.1108695247769356,-1.0510604023933412,1.976154329296855
12.65500241657719,1.1797444626688958,0.9039932808279991,-0.8737342321872712,1.724068547789203
12.665030416566879,1.047437321394682,0.7549538934230805,-0.7899184888601304,1.5136219945839207
