Time (s),Linear Acceleration x (m/s^2),Linear Acceleration y (m/s^2),Linear Acceleration z (m/s^2),Absolute acceleration (m/s^2)
0.020215624943375587,-0.693360493183136,-1.4640328717231752,0.6809836918115616,1.7572364130948552
0.030243624933063984,-0.9588884031772614,-1.4896047922968865,1.0567988598346711,2.0628168210312685
0.04027162492275238,-0.9100502653419972,-1.6806499922275544,0.8537589740753174,2.0932463466199236
0.05029862490482628,-0.2341320164501667,-1.7361790989339352,-0.042002888917922976,1.7523983301120565
0.06032662489451468,0.4728659377992153,-1.975876056700945,-0.7382975149154664,2.1616594567843386
0.07035462488420308,1.2725926923751831,-2.4110249684751035,-0.7915340745449067,2.8388483140990033
0.08038262487389147,1.584926394224167,-1.6937920479476454,3.3033014523983004,4.036424613716429
0.09041062486357987,1.170517921820283,-1.629229139238596,1.972182224392891,2.8131836981715046
0.10043862485326827,0.42910226952284575,-1.8643831028044224,1.2677780950069428,2.2950630514022343
0.11046662484295666,-0.2920125809311867,-1.6788318005204201,0.4572013932466507,1.7643074210146619
0.12049362482503057,0.8920067080110312,-1.1364623491466046,-0.6349970948696136,1.5781140480514535
0.13052162481471896,2.3185130998492243,-0.6485211199522019,-1.753855962753296,2.978605944948376
0.14054962480440736,2.9030007764697077,0.004843687266111374,-2.29979937851429,3.7035812602000204
0.15057762479409575,3.1329322993755344,0.7126476801931858,-2.3439581358432773,3.9770933168761697
0.16060562478378415,3.062155262231827,1.1293420484662056,-2.224726392030716,3.94988807839487
0.17063362477347255,2.097390407323837,1.338488473892212,0.4816059172153473,2.5342735004283163
0.1806606249883771,0.6574533265829087,1.4751738640666008,3.635029783844948,3.9776656892328153
0.1906886249780655,-0.4055704790353775,0.6938586759567261,3.9174561470746996,3.999048629351581
0.2007166249677539,-2.309872376918793,-1.0029685154557229,2.851265489459038,3.8040992537035647
0.21074462495744228,-2.6797239696979522,-3.3208594715595248,0.7298395174741745,4.329167807429887
0.22077262494713068,-0.8010422319173813,-5.370637171268464,-2.2525328260660173,5.878717242326821
0.23080062493681908,-0.1636743834614754,-5.087143106460571,-4.314558103680611,6.672422792318157
0.24082862492650747,-0.39944259703159335,-2.7484258300065996,-4.493905656337739,5.2828578420619206
0.25085662491619587,-0.5425578778982163,-0.002930332124233246,-4.146557072997093,4.181903059294655
0.2608836248982698,0.21230246007442474,1.9186285994946957,-3.4590771245956424,3.96124003201693
0.27091162488795817,1.1040528407692909,2.933686379492283,-1.6856142783164978,3.559036940478945
0.28093962487764657,1.8776963357627392,3.5605292397737505,-0.38026139080524446,4.043230233607505
0.29096762486733496,2.4969332841038705,3.8862247064709665,0.6004663628339768,4.658108859542267
0.30099562485702336,2.6628129449486733,3.703880748152733,0.7533213508129121,4.62350499447262
0.31102362484671175,2.2317807653546335,3.6889282482862473,-0.42842899918556215,4.332734519094644
0.32105062482878566,0.9555709853768349,3.099981192648411,-2.2554166728258136,3.950937062385148
0.33107862481847405,-0.4866794000566006,1.7466688576340677,-3.882366421222687,4.284912830537584
0.34110662480816245,-2.1087924778461455,0.41980932623147965,-4.975870007872582,5.4205652768191355
0.35113462479785085,-3.5550235015153886,-0.2898789319396019,-5.514474583268166,6.567469209750419
0.36116262478753924,-3.908787649869919,-0.21132802158594133,-6.122190908789635,7.266670623342542
0.37119062477722764,-3.91769471347332,-0.1936925268173218,-7.381736708879472,8.3591797146694
0.3812186249997467,-3.8326449152827267,-1.2056213155388833,-7.994767568707466,8.947569406312585
0.3912466249894351,-3.8063812690973284,-2.9186663442850116,-8.036012073755264,9.358666659548112
0.401273624971509,-5.57665972173214,-4.576874430477619,-6.855963263511658,9.95244419602395
0.4113016249611974,-6.970995537042618,-5.929358507394791,-5.383898656368256,10.617835741276421
0.4213296249508858,-6.928806121945382,-7.434618927240372,-4.764449892640114,11.22416569943027
0.43135762494057417,-6.0948563450574875,-8.503438493013382,-3.8015462064743044,11.131374292121723
0.44138562493026257,-4.655473580360413,-9.327684230804444,-3.6808801406621936,11.055677544906645
0.45141362491995096,-3.0848640936613085,-8.849370296001435,-4.16364059060812,10.254932670665024
0.46144162490963936,-1.8045671099424363,-7.425265721082687,-4.762592232227326,9.004072314983018
0.47146862489171326,-0.9633287787437439,-6.480439871549606,-5.169411091804505,8.345472682886045
0.48149662488140166,-0.289330170750618,-6.732936092019082,-4.909584217071534,8.337874882212954
0.49152462487109005,0.6410688436031342,-7.453363931179047,-3.4940621852874756,8.256638160140925
0.5015526248607785,2.256766794919968,-8.033786038756372,-0.0071791748329997065,8.34474481477543
0.5115806248504668,3.81506438434124,-8.493794680237771,4.404611656665802,10.300479026372548
0.5216086248401552,5.252992946505547,-8.627300646901132,8.10270541548729,12.949057355584799
0.5316366248298436,6.169174456000328,-8.187080152630806,9.574104609489442,14.026777034216206
0.541664624819532,7.335136154294014,-7.91887070953846,7.894845085144043,13.373156494816039
0.5516916248016059,8.891573159694673,-6.62784700870514,4.183942415714264,11.853008198892688
0.5617196247912943,9.99429605126381,-3.8663374489545825,0.1958516111969948,10.71787650064622
0.5717476247809827,11.471424347162248,-1.0714812183380127,-2.636072165966034,11.81907462613291
0.5817756247706711,13.093742516040802,0.7142780300974846,-4.72614361345768,13.93889233890847
0.5918036249931902,14.041767961978913,1.466918472647667,-5.111123707294464,15.01488204598091
0.6018316249828786,14.576216336488724,2.6334426730871203,-4.5568743216991425,15.497296750863294
0.611859624972567,15.592441366910935,5.11738549053669,-4.358896955251694,16.979748075451923
0.6218876249622554,16.44230492591858,7.45026490688324,-3.7025113302469257,18.42727404176291
0.6319146249443293,16.142883045673372,8.507379516363144,-8.459951580762864,20.11315390510837
0.6419426249340177,13.752182267904283,10.167529170513154,-15.068044356107713,22.793576447774193
0.651970624923706,10.508116618394853,11.083400777578355,-19.002781949043275,24.379663850535255
0.6619986249133945,7.465112741589547,8.036887401938438,-10.6017293715477,15.255036316692811
0.6720266249030828,6.143422148823738,5.365712061524391,3.11739040017128,8.732160358864608
0.6820546248927712,8.370533620119096,3.447160499095917,-1.8688392658531667,9.243446802663275
0.6920826248824596,9.40419972538948,5.583731344342232,-6.9324530303478245,12.94897421492468
0.702110624872148,8.24395017206669,8.197159582972526,-11.844068570137024,16.596327905965957
0.7121376248542219,7.124760351777077,7.679238948225976,-12.71207136154175,16.472087882085116
0.7221656248439103,7.019537951946259,3.6770250713825225,-7.910441948175431,11.196853051185544
0.7321936248335987,4.267533041238785,1.6491884636878968,-4.169875184297561,6.1902762377333875
0.7422216248232871,1.791427246928215,-0.3570134460926056,-3.3016852819919587,3.773300396609054
0.7522496248129755,1.388158231973648,-0.751708688735962,-3.2086011171340942,3.5759153175923366
0.7622776248026639,4.0563514924049375,1.2809577190876007,-2.029541655778885,4.713160239220344
0.7723056247923523,9.469441788196564,4.457752321958542,0.5387767758965493,10.480084157973904
0.7823336247820407,11.922706604003906,6.575047236084939,2.9915314221382143,13.940281172614375
0.7923610415309668,8.557755618095399,5.802666301131249,2.6622349476814273,10.676779118160303
0.8023890415206552,7.068344660997391,5.19767828643322,3.210478073358536,9.34261875896826
0.8124170415103436,5.411206322908402,5.344729328155518,4.301920516490936,8.738066467504996
0.822445041500032,5.317388332486153,4.212059629261494,4.7498581659793855,8.281136250288084
0.8324730414897203,4.269332229495049,2.0274302262067794,4.462695558071137,6.500255583588225
0.8425010414794087,1.3353543663024903,0.6447347554564477,4.171325293779374,4.427054200596621
0.8525290414690971,-1.5804275465011597,-0.05888555467128754,3.456124280691147,3.800791204719291
0.8625570414587855,-5.109101740121842,-1.6904917332530023,4.936849783658982,7.30295616018106
0.8725850414484739,-10.658795857429505,-4.531795906126499,8.790184779167175,14.540098064216883
0.8826120416633785,-15.005856878757477,-7.280415571331978,6.673078730106354,17.964135695747903
0.8926400416530669,-16.166170166730883,-6.225765563249588,2.8622974312305454,17.558415682887595
0.9026680416427553,-15.568132152557373,-7.4617301273345955,0.9464911365509033,17.289881453735674
0.9126960416324437,-10.724544289112092,-6.8392688781023026,-2.13842368170619,12.898228748110625
0.9227240416221321,-9.05108403325081,-6.330877450704575,-3.8559346675872805,11.699160808943043
0.9327520416118205,-10.15312397003174,-6.686141409873962,-3.946050785779953,12.781303928301643
0.9427800416015089,-11.899826449155809,-7.082699575424194,-2.3268446512520313,14.04224728548826
0.9528080415911973,-11.026878082752228,-8.561608933210373,-3.1875207352638246,14.319688411932919
0.9628360415808856,-9.232083424329758,-9.470222976207733,-3.792320469617844,13.758567589584304
0.972864041570574,-7.304628306627274,-10.658091852664947,-3.5095292401313785,13.389149044101366
0.982891041552648,-4.635678416490555,-9.231309837698937,-2.5039388331770898,10.629031253176642
0.9929190415423363,-6.871778812408448,-5.638747796416283,1.830990092754364,9.075755917719459
1.0029470415320247,-4.113933702707291,-4.450701749324799,6.427483978271485,8.834350392793484
1.0129750415217131,2.765820127129555,-3.6592261469364167,9.724436523914338,10.751946924985132
1.0230030415114015,7.297424536943436,-1.9093293339014055,10.586768685579301,12.999138993781203
1.03303104150109,9.747915433645248,-0.5724394887685776,8.716052609682084,13.088892824244025
1.0430590414907783,8.613054490685464,-0.27203469157218935,1.3312905514240265,8.719578261891266
1.0530870414804667,3.5745321518182758,-0.2818527513742447,-3.9199856525659564,5.3125331617000535
1.0631150414701551,-9.16176890194416,0.8405992305278779,-4.674654201865197,10.319738775085884
1.073142041452229,-8.544622187018394,2.9623438757658005,1.646967106461525,9.192309296740422
1.0831700414419174,-3.438303721547127,5.015010684728622,4.036482653617859,7.298318769586935
1.0931980416644365,-0.13320541977882386,6.348371150493622,4.222266236543655,7.625424061685664
1.1032260416541249,5.303669595122337,6.612420299649239,1.6441563498973848,8.634596892521754
1.1132540416438133,8.52525854766369,5.264710181951523,0.226274345330894,10.0223952568142
1.1232820416335016,9.931949529647827,3.644501103758812,1.4373830169439317,10.676707343191989
1.13331004162319,10.387538845539094,2.7749435377120975,2.550240302681923,11.0501131445111
1.1433380416128784,9.424958510398865,1.6757751685380937,2.38860572040081,9.866281093996882
1.1533660416025668,7.283197091817856,0.45993145823478704,2.1640667921304706,7.611811998817359
1.1633940415922552,4.704187318682671,0.9305890488624573,2.244901624917984,5.294804775690695
1.1734210415743291,1.9154338270425797,1.921189241409302,2.191722221821547,3.487621129754809
1.1834490415640175,0.13534667015075685,2.303228185772896,1.7747911874949933,2.9108525479779104
1.193477041553706,-1.6670172089338304,2.4053691029548645,-0.732402205914259,3.01681286916499
1.2035050415433943,-4.3622351306676865,1.5208789175748827,-7.935262793898583,9.182078393554818
1.2135330415330827,-4.801867979764938,1.6023282927274705,-6.481970672607422,8.224435290845777
1.2235610415227711,-2.5448164254426957,2.714945842623711,0.343786605745554,3.7370055924326313
1.2335890415124595,-1.7325504630804063,3.373858634233475,2.8684223896265033,4.755260265876361
1.243617041502148,-1.6158292213082315,3.477750792503357,3.2549367928504944,5.029937193707607
1.2536450414918363,-1.8050769871473313,3.5153899043798447,0.9117710278183222,4.055563526381198
1.2636730414815247,-1.9741237923502923,3.522242841124535,-1.8186185538768769,4.428400707239777
1.273701041471213,-2.2760895037651063,3.54843485891819,-0.766480582728982,4.284794727969592
1.283728041453287,-1.9983166471123697,3.1175377500057224,1.002662925347686,3.8363581671559217
1.2937560414429754,-1.2329453542828561,2.5097395634651187,1.3942270570993425,3.1245505292469917
1.3037840416654944,-0.5140427613258363,1.7150199258327485,1.5038108950853348,2.3381575042439318
1.3138120416551828,0.32523616790771487,0.6970354682207108,1.5096119177341463,1.6942742254540522
1.3238400416448712,1.1935069079697134,0.18295060694217682,1.3137641072273254,1.784350244035836
1.3338680416345596,1.8823466263711452,0.024303951859474184,1.1457296743243934,2.2037504374393895
1.343896041624248,2.3192299684882167,0.04421722948551178,0.5739340370893479,2.3895989389533354
1.3539240416139364,2.3510771209001544,-0.532040491104126,0.28627602383494377,2.4274646597668985
1.3639520416036248,1.3243108762800695,-0.12120810270309448,1.63212278008461,2.10530650273676
1.3739800415933132,-0.19086415551602842,-0.27040448784828186,0.8590163518488407,0.9205741717281827
1.3840080415830016,-1.3914372043311596,-1.4139619946479798,-0.6615060317516327,2.091166240629759
1.3940350415650755,-2.4342815378308296,-1.9533056581020356,-0.1734213995933533,3.125892605518362
1.404063041554764,-3.039570976495743,-2.727159506678581,0.22758357346057892,4.090010388609268
1.4140910415444523,-3.6939767342805863,-6.946170598268509,0.24914635062217713,7.871265717639349
1.4241190415341407,-5.223803645968437,-15.889249541759492,-0.23503994286060334,16.727570633737503
1.434147041523829,-7.593435151576997,-18.60052391767502,-0.4792505125701428,20.09650289147354
1.4441750415135175,-6.2480364382267,-11.10487292289734,-0.93133939281106,12.775897425688294
1.454203041503206,-3.373316012620926,-1.9296133249998093,-2.2028708155453205,4.467136480453991
1.4642310414928943,-2.9973596343398095,1.0449974244832994,-1.8695473636686804,3.683936989111909
1.4742590414825827,-1.386963061094284,2.157175263762474,-0.5971200013160706,2.6331775381467217
1.484287041472271,0.46805835708975796,2.770667468905449,0.3238964246213436,2.8285306685229665
1.4943150414619595,1.9684233418107033,2.642826284766197,0.7083697110414505,3.3706095697302683
1.5043430414516479,2.411132118701935,2.2387725734710693,0.7088483056426048,3.365728249573151
1.5143700416665524,1.8548452708125116,1.5063497561216355,0.8607690547406673,2.5397763547254297
1.5243980416562408,1.1895753863453866,0.5482559895515442,1.0498200617730618,1.6786293194088784
1.5344260416459292,1.3930799795687199,0.33385671794414523,0.8743690936267376,1.6782888456643166
1.5444540416356176,1.037993995025754,-0.098153116106987,0.5928918796777726,1.199410834075997
1.554482041625306,1.0251690776646138,0.020605003237724306,-0.21038062646985056,1.0467359800599139
1.5645100416149944,0.8373511022329331,0.08309068858623506,-0.3319571037590504,0.9045752869034946
1.5745380416046828,0.8757217007875443,0.4276197445392609,-0.3386755545437336,1.0317210254693647
1.5845660415943712,0.2602110368013382,0.4905194127559662,-0.07118049502372742,0.5598086644877054
1.5945940415840596,0.04200201183557511,0.4000121158361435,0.2756915402412415,0.48762658579545487
1.604622041573748,-0.13767254635691645,0.0980513745546341,0.599705640077591,0.6230687416435875
1.6146500415634364,-0.24080661311745644,-0.23709114611148835,0.45199547097086906,0.5643579912287389
1.6246780415531248,-0.27288809269666675,-0.35283677995204926,0.00892095074057579,0.4461404350478347
1.6347060415428132,-0.2018035650998354,-0.04416694343090058,-0.3974435801804066,0.4479249906018319
1.644733041524887,-0.15079420991241932,0.40909050285816195,-0.590848423987627,0.7342995256709058
1.6547610415145755,-0.22340296044945718,0.5054444307088852,-0.6185307508707046,0.8294354978205891
1.6647890415042639,-0.40108603008091454,0.10172284126281739,-0.7272072471678257,0.8366886638971844
1.6748170414939523,-0.6003982427716256,-0.4624761664867401,-0.8817846786975861,1.1627151302349739
1.6848450414836407,-0.7055783964693547,-0.7958586752414704,-1.0427637881040575,1.489492605655529
1.694873041473329,-0.7167266247421503,-0.5675167179107666,-1.2950857615470888,1.5852505825529561
1.7049010414630175,-0.6262567500025035,0.0023985278606414796,-1.2817823226749898,1.4265935625053439
1.7149290414527059,-0.4110548018664122,0.33349477529525756,-1.3215539140999317,1.4236184752803398
1.7249570414423943,-0.030496226325631145,0.3234241157770157,-1.5357929719984533,1.569774898297871
1.7349850416649133,0.6845026192814112,0.1421282708644867,-1.3234606911242008,1.4967606629428063
1.7450130416546017,1.6167296925187111,-0.1520147430896759,-0.8472485379874707,1.831598609387486
1.75504104164429,2.5594879665970804,-0.35403370499610903,-0.27158562541007997,2.5980910814207254
1.7650690416339785,3.0309948652982714,-0.4955877792835236,0.03266561642289162,3.0714172889622064
1.7750960416160524,2.826130355894566,-0.6838915121555329,0.1352658323943615,2.9108447630061733
1.7851240416057408,2.1633215644955635,-0.8796703255176545,0.09258890569210053,2.3371676830011854
1.7951522499788553,1.5709951105713844,-0.9990903496742249,-0.12463471725583077,1.865942383086038
1.8051802499685436,1.176899865344167,-1.0871277827024461,-0.4733911639451981,1.6706403871186775
1.815208249958232,0.9885101053118707,-0.7744438326358796,-0.772996062040329,1.474597704508349
1.8252362499479204,0.7252564698457719,-0.32942102015018465,-1.1648321624100209,1.4111517006171748
1.8352642499376088,0.27865929454565047,-0.09881560564041138,-1.5327750778198244,1.5610300975767026
1.8452922499272972,0.13868089869618416,-0.028467754125595095,-1.5160355226695539,1.5226314428265575
1.8553202499169856,0.3847016201913357,-0.2685158371925354,-1.177885194271803,1.267876027964
1.865348249906674,0.6994706142693758,-0.615496045947075,-0.6018172158300877,1.109179193851174
1.8753762498963624,0.9533585451543332,-0.7643070995807648,-0.06585119649767876,1.2236806111761858
1.8854042498860508,1.0775810337066651,-0.6872016209363938,0.3036869855225086,1.3136410229578248
1.8954322498757392,0.9445690105855465,-0.8021613889932633,0.8333146230876446,1.493347505037546
1.9054602498654276,0.4210797069221735,-1.2093316662311555,1.5952625173330308,2.0456426124176246
1.915488249855116,-0.4618756574392319,-1.99189728140831,1.7302823281288149,2.678593070559918
1.92551524983719,-1.5552834959328175,-2.8576974266767503,1.3713303838670254,3.5307064954301723
1.9355432498268783,-2.212755387425423,-3.306553673744202,1.1259071016311646,4.13488215109391
1.9455712498165667,-2.5584369295835496,-3.850821277499199,0.6517312413454056,4.6689589465793215
1.955599249806255,-3.0902160501480105,-4.891783538460731,0.16098744168877602,5.7883415915207745
1.9656272497959435,-3.4899270343780517,-6.088615611791611,-0.4827209812402726,7.03447583826719
1.975655249785632,-3.634290111064911,-6.889874775409699,-1.1876946294307709,7.879661005715268
1.9856832497753203,-3.352232122421265,-6.730201349258423,-1.8798682840168477,7.750288715228957
1.9957112499978393,-2.300359834134579,-5.633104063868523,-2.1260405945777894,6.445429804959823
2.0057392499875277,-1.1539211118221284,-4.232514651417732,-1.915515103340149,4.7869522995219835
2.015767249977216,-0.05034613475203514,-3.0771498620510105,-1.4588067765533925,3.4058043423137394
2.0257952499669045,0.849378678649664,-2.1000824654102326,-0.9149641191959381,2.443143434324757
2.035823249956593,1.3248448732495308,-1.3472856098413468,-0.5867990809679031,1.9785665553844558
2.0458512499462813,1.4925769320130349,-0.7080954766273498,-0.3787294203042984,1.694880844130816
2.0558792499359697,1.5032425457239151,-0.27876308262348176,-0.3235943428426981,1.5627412793639452
2.065907249925658,1.4532742872834206,-0.2557677376270294,-0.4920595693588257,1.5554889615447536
2.0759352499153465,1.5437184342741967,-0.5249238449335099,-0.7470367634296418,1.793509289971254
2.085963249905035,1.871467150747776,-0.6891662853956223,-1.057799318432808,2.257493934284412
2.095990249887109,2.287313380390406,-0.6175519269704819,-1.587475780248642,2.8518857332463337
2.106018249876797,2.4916313213109973,-0.4180952149629593,-2.1312761914730074,3.3053545126737305
2.1160462498664856,2.997938801050186,-0.15846714556217195,-2.694558355808258,4.034029452535139
2.126074249856174,2.9105328673124315,-0.13030227720737458,-2.355619822740555,3.7466151396213085
2.1361022498458624,2.0119025065004825,-0.5112197256088257,-0.7039357674121857,2.191944996608416
2.146130249835551,1.564879215359688,-0.4700892412662506,0.9829006520658732,1.906810044354327
2.156158249825239,0.8359850464761258,-0.17843597173690798,2.4365066957473758,2.5821067507682907
2.1661862498149276,-0.16387965727597475,0.19791889429092407,3.4645863711833957,3.4741023522884245
2.176214249804616,-1.1166294707357884,0.5769061768054963,3.7436201798915865,3.9489712790856726
2.1862422497943044,-1.6327864390611648,1.1488638550043107,3.0606750395894053,3.654259351891025
2.1962702497839928,-1.799304615855217,1.2295811587572099,1.5993643391132355,2.7032079490552943
2.206298249773681,-1.8319402652978898,0.4932740360498429,0.500257511883974,1.9620351649389338
2.2163262499962,-2.0024105751514436,-0.2503058534860611,-0.44278040528297424,2.065999907809842
2.2263542499858886,-1.853796572685242,-0.5683470225334167,-1.3117000401020051,2.340969257834402
2.236382249975577,-1.5037231868505478,-0.22362968623638155,-1.261418663263321,1.9754419007571884
2.2464102499652654,-1.509857208430767,0.654577665925026,-0.48565438315272336,1.7158091066472563
2.256438249954954,-1.5451217660307885,1.4479044967889787,0.4770768101513386,2.1705830982636956
2.266466249944642,-1.2489532765746116,1.843135929107666,1.392293382883072,2.625931302272401
2.2764942499343306,-1.0881943148374558,1.9217751324176788,1.8617403075098993,2.888505409209164
2.2865212499164045,-0.36403200522065166,1.646677669286728,2.055656197965145,2.6589074921074363
2.296549249906093,0.9462799058854581,1.2289929288625718,2.2551810300350192,2.7370989674665775
2.3065772498957813,1.5245841519534589,0.7856564533710481,2.19630980104208,2.7866448717525385
2.3166052498854697,0.8220480617880822,0.42906225264072423,2.0984443679451945,2.294194019234551
2.326633249875158,-1.0227002370357514,0.5741983312368393,1.3734144777059556,1.8060694410792946
2.3366612498648465,-2.347408577799797,0.9525623005628586,0.4803756630420685,2.5784613135016743
2.346689249854535,-2.606084720492363,1.143918280005455,-0.11384850472211838,2.848365861988565
2.3567172498442233,-2.709904373288155,1.26975153028965,-0.7867262014746667,3.094315558750583
2.3667452498339117,-2.375878378450871,1.180303164124489,-0.6322569434344769,2.727207815872074
2.3767732498236,-1.5291813790798188,0.9519027346372605,-0.5143035471439362,1.873238544590407
2.3868012498132885,-1.0813744148612023,0.3849426716566086,-1.0217411474883558,1.5367193816859852
2.396829249802977,-0.39103400856256487,-0.713502396941185,-1.1659269073605538,1.4217520246515107
2.4068572497926652,0.6722146224975586,-1.188206845521927,-0.8635553991794587,1.6153748586308685
2.4168852497823536,1.845625088810921,-1.5057422304153443,0.008319710791110994,2.381944762267199
2.426913249772042,2.694039123058319,-1.4421777337789536,0.36018965363502503,3.0769237882928393
2.436941249994561,2.2796633219718934,-1.4634580904245378,0.297170994579792,2.725231190925369
2.4469692499842495,1.1283500683307648,-1.6386324852705003,-0.10261688053607941,1.992189881175179
2.456997249973938,0.13151089668273927,-1.8599455046653748,-0.6778256106376648,1.983970754499057
2.4670252499636263,-0.6253100126981735,-2.1228035759925845,-0.7038808035850526,2.3222307852328186
2.4770532499533147,-0.926329352259636,-2.300408658385277,-0.49826755821704866,2.529473586342282
2.487081249943003,-0.9901306611299515,-2.3301943749189378,-0.29665439307689667,2.549150521241403
2.4971092499326915,-0.7915317356586457,-2.1601830714941026,0.0910358852148056,2.3024336957492015
2.50713724992238,-0.49832252204418187,-1.7370943343639376,0.5129557639360428,1.8785488224187772
2.5171642499044538,-0.5150297713279725,-1.2917814999818802,0.7592246997356416,1.5844170075261925
2.527192249894142,-0.5465100109577179,-0.914871148467064,1.055738759636879,1.5000822440699928
2.5372202498838305,-0.5382046258449554,-0.7950441581010819,0.9447977828979492,1.3469975067461881
2.547248249873519,-0.9608361107110978,-0.7002368187904359,0.7630432239174844,1.4127181585873974
2.5572762498632073,-1.199468582868576,-0.6571428394317628,0.7365986064076424,1.553428176539511
2.5673042498528957,-1.2681096321344376,-0.6515008610486984,1.0333614653348924,1.7607928126552568
2.577332249842584,-1.1079678440093994,-0.6438252210617066,1.5115052461624146,1.9816033326098577
2.5873602498322725,-0.9811025601625443,-0.6104896599054337,1.9245841348171235,2.244834949478185
2.597388249821961,-1.1718346416950227,-0.42810974121093753,2.2909075176715854,2.6085880534343446
2.6074162498116493,-1.3211286753416063,-0.032702892422676086,2.5379816150665286,2.861433405550159
2.6174442498013377,-1.3780817252397537,0.49418795585632325,2.6794421339035037,3.0533164143420493
2.627472249791026,-1.4528512412309647,1.005334591269493,2.7281055861711505,3.2502360620188173
2.6375002497807145,-1.80614118039608,1.3873659342527391,2.8596141439676286,3.6557247231468666
2.647528249770403,-2.133288803100586,1.5685138446092606,2.6447710686922075,3.7424551839610016
2.657556249992922,-2.184322131872177,1.4290524888038636,2.4109198647737506,3.5533067396305387
2.6675842499826103,-2.0848206478357314,1.1569897305965424,2.408335980176926,3.388979870663562
2.6776122499722987,-1.995226686000824,1.0780950039625168,2.568435668349266,3.4263800356276173
2.687640249961987,-1.7476152294874192,0.9466455030441284,2.5721316933631897,3.250562743091329
2.6976682499516755,-1.7837475138902665,1.0510118705034257,2.630682202577591,3.3476663507893525
2.707696249941364,-1.8080111199617386,1.5706574338674546,2.980869024395943,3.823800351099887
2.7177242499310523,-1.7961471194028855,2.2528842437267302,3.140098062157631,4.261671940698574
2.7277522499207407,-1.9291198199987412,2.8484050315618514,2.832949671149254,4.4565141470664615
2.737780249910429,-1.8750740057229998,2.9880891662836078,2.3759073221683504,4.253177047353278
2.7478082499001175,-2.0307187002897265,2.5148354119062426,1.9806805676221848,3.790951213038777
2.757836249889806,-2.1762132132053376,1.912830646634102,1.5670929712057113,3.2940257152054055
2.7678642498794943,-1.9213681662082673,1.6224795520305635,1.4261908614635468,2.891040625829729
2.7778922498691827,-1.6450860571861268,1.5714824759960175,1.4962323188781739,2.7229719903014664
2.787920249858871,-1.5387316364049912,1.724309397339821,1.5789090245962143,2.7989090114863266
2.797947874991223,-1.480273513197899,1.9762033545970918,1.5439847749471665,2.912126088936518
2.807974874973297,-1.432273719906807,2.1551082730293274,1.4542276757955552,2.9682785937753344
2.8180028749629855,-1.3620293641090393,2.1988203030824662,1.3061732518672944,2.897589218270341
2.828030874952674,-1.303108726143837,2.066666797399521,1.0403026950359344,2.655453577249061
2.8380588749423623,-1.1819438928365709,1.7522433006763458,0.7591323137283326,2.245802711799354
2.8480868749320507,-1.0787089616060257,1.3649541413784028,0.6484538769721985,1.8566650916294727
2.858114874921739,-0.9633007121086121,1.0433221971988678,0.5285543811321258,1.5152026936785707
2.8681428749114275,-0.8942462646961212,0.8010855013132095,0.3487916761636734,1.2502279774898122
2.878170874901116,-0.9982325631380081,0.5985619246959687,0.21654987752437593,1.1839081371713946
2.8881988748908043,-1.1310818874835968,0.5571841031312943,-0.5556614881753922,1.377882451596279
2.8982268748804927,-1.0966733622550966,0.5471397560834885,-2.7031467461586,2.9680055100074907
2.908254874870181,-0.09245032668113709,-0.332606583237648,-6.771990230083466,6.780783574076257
2.9182828748598695,3.4033905816078187,-3.2102780985832218,-9.132241047620774,10.260934629607075
2.928310874849558,7.192506777048111,-6.532281285524369,-5.724366236329079,11.277021829309335
2.9383388748392463,7.1737758064270025,-7.8848650574684145,-0.03758180916309357,10.659998531319962
2.9483668748289347,4.11024352490902,-5.083362296819687,0.7236069703102113,6.577102790915311
2.958394874818623,2.5783969849348067,-0.36717415273189546,-1.1279278993606567,2.8381630003421985
2.9684228748083115,-0.16041426837444306,2.4334497714042667,-0.7006127947568894,2.537374394058284
2.978450874798,-2.0247831916809083,4.012021996378899,0.07180614709854126,4.494577132000606
2.9884788747876883,-2.616074688434601,5.260887272357941,0.5343314301967621,5.899685732750694
2.9985068747773767,-2.428829301595688,5.962321016192437,0.3747954136133194,6.4489499361124984
3.0085348749998957,-2.02278402864933,5.081788811087608,-1.5303163236379624,5.6796215364623395
3.018562874989584,-1.876919971704483,2.4504593217372896,-2.8018845838308337,4.168709235336667
3.0285908749792725,0.24512229681015016,0.1506663751602173,-0.5566590231657028,0.6266215485196764
3.038618874968961,4.6716206663846975,-1.935644727945328,2.678062775731087,5.722130756472771
3.0486468749586493,4.591251856684685,-4.521116843819619,1.6573622864484787,6.653340580153834
3.0586748749483377,1.104637269973755,-6.785607810616494,-1.9340472686290742,7.141794991107362
3.068702874938026,-0.6986732733249664,-7.859612102508545,-3.131194799244404,8.48917119721193
3.0787308749277145,-1.2729128274321557,-7.700775412917138,-0.16046163082122802,7.8069198126659565
3.088758874917403,-1.4744222044944764,-6.386632990837097,1.4199793642759324,6.706664088183084
3.0987868749070913,-2.0279634922742846,-4.357053328156471,0.912122957110405,4.89167843580141
3.1088148748967797,-2.4363073056936266,-2.263077694773674,1.0097533321380616,3.475156936329953
3.118842874886468,-2.7414582878351212,-0.7239847004413605,1.0911442351341247,3.0381479773505893
3.1288708748761564,-2.6686148446798326,0.1356021934747696,1.2126578548550606,2.9343537988903816
3.138898874865845,-2.5404400768876076,0.5613607692718506,2.292411129176617,3.467579917277612
3.1489268748555332,-2.6983742487430575,0.6312361657619476,3.255610099732876,4.275357272173662
3.1589548748452216,-2.9600596609711647,0.3613702064752579,3.714465962648392,4.763381048195718
3.16898287483491,-2.943697105050087,-0.06898369610309601,3.3777362152934076,4.480983523369947
3.1790108748245984,-2.367257536053658,-0.5643101048469543,2.858849912881851,3.754381035646193
3.189038874814287,-1.6829076021909715,-1.0616485404968263,2.375585725307465,3.0988196396911842
3.1990668748039752,-1.2518084719777107,-1.5198158937692643,1.8422831127047539,2.696455426819801
3.2090948747936636,-1.6120753088593485,-1.8626603668928148,1.5777297873795033,2.925324208666761
3.219122874783352,-2.1720192977786064,-1.806641117334366,1.486701503545046,3.192475734819129
3.2291508747730404,-2.348625383377075,-1.4569694352149964,1.5202924418449402,3.1543763623456016
3.2391788749955595,-2.0861400720477103,-0.7641515636444092,1.2151882374286653,2.532309314599701
3.249206874985248,-1.5541016274690629,-0.058185642957687383,0.6146134818345309,1.6722341850354436
3.2592348749749362,-1.0953951609134676,0.36354127764701843,0.14895672239363195,1.1637185760535584
3.2692628749646246,-0.6990366777777672,0.6325009185075761,-0.4356375197321177,1.0385036048997887
3.279290874954313,-0.2898748388886452,0.7787924069166184,-0.790134324207902,1.1466722659867448
3.2893188749440014,0.11542286753654481,0.7814102053642273,-1.023441663980484,1.292809803091261
3.29934687493369,0.9431664097309113,0.7425174504518509,-1.38757000207901,1.83473310084594
3.3093748749233782,2.1572463074326516,0.7367936110496521,-1.895928100347519,2.9649822626624176
3.3194028749130666,3.2481335574388503,0.7342266833782196,-2.5173245716094974,4.174491996443865
3.329430874902755,3.970801172554493,0.9538557046651841,-2.5059903287887573,4.791355777362524
3.3394588748924434,3.2984058710932733,1.2044258522987366,-1.6144817304611208,3.864799371525105
3.349486874882132,2.4924204030632975,1.2469929975271226,-0.7145847165584565,2.87711353940487
3.35951487487182,1.9944846743345261,1.2032014453411104,-0.2759932565689087,2.34559909445279
3.3695428748615086,1.7321417427062988,1.2690036714076995,0.05434168795589358,2.147938163430626
3.379570874851197,1.516933801174164,1.4351657527685167,0.2894570553302765,2.1082159002210368
3.3895988748408854,1.4270419237017633,1.5088722449541092,0.3311108654737473,2.103040301285274
3.399626874830574,1.3695368966460228,1.5251853919029237,0.30618710875511174,2.0725762558990946
3.409654874820262,1.3560760214924814,1.6370724481344223,0.3863413256406784,2.160603618530133
3.4196828748099506,1.3526890218257905,1.8596841341257095,0.6098236620426178,2.3790917525967705
3.429710874799639,1.3177010375261307,1.8750640654563904,0.764328734278679,2.4158641700036316
3.4397388747893274,1.4879044219851494,1.5373569560050966,0.7584698241949082,2.269934460145154
3.449766874779016,1.4800665217638016,0.9172451180219651,0.6395392119884491,1.8549786842581057
3.459794875001535,1.5173814055323602,0.286339904665947,0.26085777539759875,1.5660407561250915
3.469822874991223,1.6179564383625984,-0.3306109285354614,-0.12407850086688996,1.6560441107903616
3.4798508749809116,1.4122019827365877,-0.9593637818098069,-0.3297777368500829,1.7388061023632069
3.4898788749706,1.3330175265669824,-1.2601544952392578,-0.756631459593773,1.9842923785706248
3.4999068749602884,1.0585492238402368,-1.302740936279297,-1.039792744740844,1.9745453548516745
3.509934874949977,0.8509476327896118,-1.0065853106975555,-1.3033940702676774,1.8536887451433917
3.519962874939665,0.605803408920765,-0.5844789057970047,-1.7034693360328674,1.900110823185306
3.5299908749293536,0.4136878761649132,-0.18407327234745027,-1.37118376493454,1.4440102304688132
3.540018874919042,0.11784741550683976,0.12887321770191193,-0.4811107311397791,0.511824047110273
3.5500468749087304,0.08778629511594772,0.23729345977306368,0.7376263276487589,0.7798122972240494
3.560074874898419,-0.1619047236442566,0.5624588763713837,1.7163975298404694,1.8134479886640664
3.570102874888107,-0.5356230801343919,0.790536539554596,1.9218686878681184,2.1460240813540588
3.5801308748777956,-0.7472425854206085,0.2937898421287537,1.4843636405467988,1.6876075877352115
3.590158874867484,-1.3084864103794098,-0.4155066525936127,0.28210827469825744,1.401558968845182
3.6001868748571724,-1.487771982550621,-0.5154320597648621,-0.8048452609777451,1.7683075452008874
3.6102148748468608,-1.031207351088524,0.1030121523141861,-0.15985242404043676,1.0485956808679955
3.620242874836549,-0.7834529301524162,0.5132756066322327,0.6546699057519436,1.1427348894758365
3.6302708748262376,-0.954752959907055,0.32609453916549686,0.6205427046865225,1.1844678599542096
3.640298874815926,-0.8140902936458588,-0.1714760309457779,0.09396650969982148,0.8372435370562646
3.6503268748056144,-0.3950209325551987,-0.40602948546409606,-0.21768248319625855,0.6068666605717493
3.6603548747953027,0.3486647915840149,-0.18279156267642976,0.10307413280010223,0.4069449214924654
3.670382874784991,0.7332607233524323,0.20399064302444458,0.1737550563365221,0.7806883439986578
3.6804108747746795,0.6592884752154351,0.4697454249858856,0.09090563848614693,0.8146078154275453
3.6904388749971986,0.17435958534479143,0.3058105480670929,-0.16549023628234863,0.3889837716608379
3.700466874986887,-0.5935289338231087,0.1264764440059662,-0.23183990791440012,0.649632687813158
3.7104948749765754,-1.143730584383011,0.13158866465091706,-0.41009856283664703,1.2221358588791995
3.7205228749662638,-0.6085454607009888,-0.12696410179138184,-0.6597185379266739,0.9064634632281542
3.730550874955952,-0.33626343190670016,-0.12649983286857605,-0.670399062037468,0.7605985838365507
3.7405788749456406,-0.8789017090201379,0.08204345226287842,-0.7251569209992886,1.1423886826517928
3.750606874935329,-0.4872315233945847,0.34832740724086764,-0.46796538636088375,0.7600777215893413
3.7606348749250174,-0.35876410245895385,0.1957975244522095,-0.36447390854358674,0.5476217506672203
3.7706628749147058,-0.23871579498052597,-0.5229001235961914,-0.5334939627349377,0.7842356650297944
3.780690874904394,0.4436472550034523,-0.964561956524849,-0.6748319824039937,1.2580146498838745
3.7907188748940825,1.128825739324093,-0.22735553205013276,-0.4576623000204563,1.239109708046224
3.800747374771163,0.8810365274548531,0.8616936457157135,-0.21742038175463677,1.2514043807574255
3.810775374993682,0.3468793442845345,1.315225911140442,-0.12981213435530664,1.3663804986358503
3.8208033749833703,0.08601400405168534,0.8129038935899735,-0.016125889867544176,0.8176008766083623
3.8308313749730587,0.012703953087329864,-0.04693793892860413,0.029316185116767885,0.05678027161533354
3.840859374962747,-0.002661067843437195,-0.2827502989768982,0.038921990990638734,0.2854290353770409
3.8508873749524355,-0.25770638197660445,-0.09150424718856812,-0.20412293627858163,0.3412503182123176
3.860915374942124,-0.4026313760876656,-0.046437417268753056,-0.4904651798307896,0.6362582426651054
3.8709433749318123,-0.12230182439088821,-0.2705489140748978,-0.44605382278561595,0.5358343624461833
3.8809713749215007,0.05525560319423676,0.036485456228256226,0.002928285598754883,0.06627929584033633
3.890999374911189,0.10976627111434938,0.6513342154026032,0.19291250824928285,0.6881134574090985
3.9010273749008775,0.19157700419425966,0.8416663473844529,0.10668639644980431,0.8697620226492869
3.911055374890566,0.09078913271427155,0.6363536489009858,0.035790807008743285,0.6437931460919305
3.9210833748802543,-0.30561525106430054,0.4366133469343186,0.22910501897335053,0.5801043062441981
3.9311113748699427,-0.7236344522237778,0.2799693632125855,0.5000451117753982,0.9230789666075909
3.941139374859631,-0.8012141400575639,-0.18734478950500488,0.48126517072319985,0.9532357174036686
3.9511673748493195,-0.625720194876194,-0.8229675364494324,0.22120601534843445,1.057229128217664
3.961195374839008,-0.40293221533298496,-0.9009372335672379,0.21043997570872308,1.0091220205491616
3.9712233748286963,-0.16453801721334457,-0.186045538187027,0.5029030846059322,0.5608896628517599
3.9812513748183846,-0.17367633819580078,0.6485573726892472,0.71492502450943,0.980769048649319
3.991279374808073,-0.12706452772021296,0.6181793332099915,0.7509503048658371,0.9809268283571432
4.001307374797761,0.03986485451459885,-0.06240557849407196,0.5355223618447781,0.5406180378866944
4.01133537478745,0.1849009457230568,-0.2467758893966675,0.3866336864233017,0.49454252273598176
4.021364374784753,-0.2428195171058178,0.09857937812805176,0.23115417569875718,0.349444508645633
4.031392374774441,-1.1238949285447597,0.27631485342979434,-0.04671998396515847,1.1583058600975236
4.04142037499696,-1.6493615412712097,-0.005163676142692566,-0.2927389512956143,1.6751466356655178
4.051448374986649,-1.6161763997375966,-0.35653105080127717,-0.2448292051255703,1.6730456912280254
4.061476374976337,-1.0061298125982285,-0.39610968410968783,-0.0009378933906555177,1.0812959637807011
4.071504374966025,0.030324683636426927,-0.3990642821788788,0.3256291007995606,0.5159517409953411
4.081532374955714,1.1748341171443464,-0.5401154959201813,0.44381813988089563,1.3670897896724916
4.091560374945402,1.717838722318411,-0.6504115247726441,0.8063181746006013,2.0060294180656655
4.1015883749350905,2.1176325908303264,-0.7851079845428467,1.6618913935124875,2.804040895024637
4.111616374924779,2.04685233771801,-0.7715868830680848,1.9807413786649706,2.950980721675425
4.121644374914467,1.3451595622301102,-0.34420628964900973,1.693194316327572,2.189712129604491
4.131672374904156,0.6051530523598194,0.05051351130008698,1.3623923300206662,1.4916013852579415
4.141700374893844,0.012356628477573395,0.3880165529251099,0.9051003049314023,0.9848431822367126
4.1517283748835325,-0.43447209656238556,0.6162246090173722,0.08950493797659874,0.7592824937874723
4.161756374873221,-0.5265039087831974,0.5757203614711762,-0.9953178723156453,1.2646414383244882
4.171784374862909,0.38366666302084923,0.2954557138681412,-2.041270147114992,2.0979223056809677
4.181812374852598,1.6717457060515881,0.4843500155210495,-2.6668139022588733,3.1845290126670793
4.191840374842286,2.927305313050747,1.4815604853630067,-2.89825780749321,4.377674746517785
4.2018683748319745,3.4291382110118866,2.7133635860681533,-2.8075680774450302,5.19651511398849
4.211896374821663,3.4703008550405503,3.0624675035476687,-2.308359263688326,5.172061264625196
4.221924374811351,3.0621254414319994,2.385440622568131,-1.5288936960697175,4.171864704990452
4.23195237480104,2.4011061903834343,1.6285074466466904,-0.7904811371862889,3.0070264164999783
4.241980374790728,1.8427368566393854,0.916270387172699,-0.020212070345878602,2.0580668290933795
4.2520083747804165,1.1909417344629765,-0.0396219027042389,0.7321865898370743,1.3985740282147496
4.262036374770105,0.36360281959176066,-1.1803171974420548,1.4352454210817815,1.893484912992117
4.272064374992624,-0.2588294859230518,-2.116761063337326,2.1319071060419086,3.015410089993755
4.282092374982312,-0.5131089609861375,-2.617881478071213,2.5646455031633377,3.7005392574553944
4.292120374972001,-0.323047116547823,-2.574636055827141,2.518993366956711,3.6164122887534416
4.302148374961689,0.15120446518063546,-2.339884380698204,2.0123185358941558,3.089878249256624
4.3121763749513775,-0.011383797973394394,-2.198724993467331,1.189667479991913,2.4999659799094314
4.322204374941066,-0.4165685069561005,-2.008351930975914,0.3651397602260113,2.0833467892168662
4.332232374930754,-0.49776572093367577,-2.1310417181253434,-0.08362746298313141,2.1900007008885254
4.342260374920443,-0.4404270471632481,-2.565406810641289,-0.24667531728744507,2.6146006961133685
4.352288374910131,-0.6625635007023811,-3.375566021203995,-0.4716073246300221,3.4721534851752525
4.362317374907434,-0.7999640053510666,-4.895678953528405,-0.8373259592056275,5.030778228846699
4.372345374897122,-0.28686133012175563,-7.11353896021843,-1.3383089643716812,7.2440180042143965
4.382373374886811,0.5216665072739125,-9.019368735551835,-2.0135683782398703,9.256111815795487
4.392401374876499,1.3329382967948915,-9.036865943670273,-2.598607885837555,9.497074998717617
4.402429374866188,2.3600118125975134,-6.925457421541214,-2.630974563360214,7.775194107302308
4.412457374855876,2.958154930472374,-4.869034361243248,-2.165995057672262,6.095056258436514
4.422485374845564,3.126037847399712,-3.442076929807663,-1.7232498818635942,4.95878980895868
4.432513374835253,2.986839323937893,-2.270772045850754,-1.5015983086824418,4.041337935866903
4.442541374824941,2.7986768013238907,-1.3973050314188005,-1.5832798182964325,3.5059703609873267
4.4525693748146296,2.5947922852635386,-0.8034577167034149,-1.7916751688718797,3.254011557592493
4.462597374804318,2.368283576220274,-0.3517591381072998,-2.195447629094124,3.2484599244459966
4.472625374794006,2.2811708803474904,-0.18921355962753297,-2.743879035115242,3.5732918318879605
4.482653374783695,2.611990115940571,-0.4996130025386811,-3.15600716650486,4.127043342770583
4.492681374773383,3.285656309723854,-0.7739760553836823,-3.3515912675857544,4.756862447548021
4.502709374995902,3.894215803742409,-0.5952383673191071,-3.2454941242933275,5.104160807700749
4.512737374985591,4.164358628690243,-0.27105937600135804,-2.9241422617435457,5.095680910396547
4.522765374975279,3.9898809295892717,-0.06303181529045106,-1.5301134252548219,4.2736834155309165
4.532793374964967,3.5705183306336403,-0.013449765443801881,1.102837496995926,3.736981748732735
4.542821374954656,1.3793494015932084,-0.8902941316366196,3.8035693430900577,4.142748865209751
4.552849374944344,-0.09284735262393952,-1.7205952459573746,4.759865090847016,5.06215214255404
4.562877374934033,-1.3312083980441094,-2.0607540929317474,5.366186270713807,5.900404928693917
4.572905374923721,-2.594448176622391,-2.0957186883687973,4.645574244260788,5.71878992627782
4.582933374913409,-2.937044435441494,-1.3597109431028367,2.432684955596924,4.048826985404422
4.592961374903098,-2.187987459003925,-0.12763419270515441,-1.3406262159347535,2.569213548687124
4.602990374900401,-2.422150904238224,0.7463403600454331,-6.154831820726395,6.656259736320465
4.613018374890089,-3.274217109382153,1.2242946910858155,-5.767058511972428,6.743764456926515
4.623046374879777,-3.971152005493641,1.3271068686246872,-2.6714220929145815,4.966664563869712
4.633074374869466,-3.438017207980156,1.1326910412311555,0.3205385148525238,3.633964261898684
4.643102374859154,-2.7023883622884752,0.5242280262708664,1.5614688268303871,3.1647911117991816
4.653130374848843,-2.31417621999979,-0.10183452308177948,1.7673163993656635,2.9136213039395877
4.663158374838531,-0.5724377346038819,-0.512787948846817,2.572177301645279,2.6845358093309426
4.673186374828219,1.469804658293724,-1.1095705658197403,2.687855107784271,3.2582261515305326
4.683214374817908,2.1730133244395256,-1.1079514718055725,2.432424169778824,3.444739571258189
4.693242374807596,-0.1404360866546631,-0.7140450185537338,2.4747825694084167,2.5795603014475166
4.703270374797285,-1.0754467999935151,0.1706825637817383,3.015879228115082,3.206438191478423
4.713298374786973,-1.2271770760416985,1.0512364035844803,3.296280408203602,3.671038828681929
4.723326374776661,-2.0246378883719447,1.3377616649866104,2.667777815759182,3.6063559621307193
4.73335437499918,-2.529786449968815,1.3454256105422975,2.0635057926177978,3.5310119954647763
4.743382374988869,-2.9556119763851165,1.491622958779335,1.6258627510070802,3.688361545621723
4.753410374978557,-3.1181423521041873,1.5151480615139008,1.370648159980774,3.7278897186952626
4.763438374968246,-2.9281400030851366,1.4352435207366945,1.593378836810589,3.6294330079338777
4.773466374957934,-2.5639403289556504,1.2780171543359757,1.6438850390911104,3.302949572574461
4.783494374947622,-1.994071276187897,0.7965568327903748,2.0110825806856156,2.9419850762231574
4.793521749787033,-1.26063396692276,0.4545941197872162,2.4548415175080303,2.7968018679172926
4.803549749776721,-0.7811646223068238,0.33460866987705234,2.473641485273838,2.6155464680958
4.813578749774024,-0.8313594603538513,0.18080994129180908,2.3874655133485794,2.534530008624595
4.823606749996543,-1.067265375852585,0.04066621541976929,1.9514167150855066,2.2245755369250637
4.833634749986231,-1.370797263979912,-0.1354115742444992,1.353266726732254,1.9309977387492754
4.84366274997592,-1.5653154176473618,-0.07155997931957245,0.9418431848287583,1.8282236657950612
4.853690749965608,-2.0951339668035507,0.021786140799522402,0.7218232771754265,2.2160978810190652
4.8637187499552965,-2.4852894312143325,0.011460542678833008,0.6807650059461594,2.5768655173029558
4.873746749944985,-2.5595607644319536,-0.0012764471769332885,0.47949507236480715,2.604086876538303
4.883774749934673,-2.2975745129585268,-0.08985123932361604,0.4033263176679611,2.334436550075456
4.893802749924362,-1.864299926161766,-0.09729182124137879,0.7422145646810532,2.008970475938339
4.90383074991405,-1.4081434303522111,-0.06526311278343201,1.053757430613041,1.7599806581057853
4.9138587499037385,-0.9786572545766831,-0.061072998046875,1.1665101671218874,1.5238916966191325
4.923886749893427,-0.8120730042457581,-0.03482367753982544,0.850468745827675,1.176423537834834
4.933914749883115,-0.9337898147106171,-0.0299552857875824,0.5136656159162521,1.0661674831744432
4.943942749872804,-0.8581911635398866,-0.0275602662563324,0.4748132067918778,0.9811723716035071
4.953970749862492,-0.7481489038467407,0.002631247043609619,0.6070205068588257,0.9634353125847266
4.9639987498521805,-0.7911388027667999,-0.05438612222671509,1.1212801998853683,1.3733636598472803
4.974026749841869,-0.8992824715375901,-0.02132947325706482,1.354696370959282,1.6261507210386217
4.984055749839172,-1.1824701422452928,0.1190855634212494,1.2633073139190674,1.7344631382991016
4.99408374982886,-1.2261260390281679,0.35098087370395664,1.0920756965875626,1.6790479339096032
5.004111749818549,-1.204083205461502,0.4954942238330841,0.9708968299627304,1.6241833473958769
5.014139749808237,-1.2228135913610458,0.5129019695520401,1.2122880184650422,1.7966590520467591
5.024167749797925,-1.5447665476799013,0.4474768888950348,1.4175586169958114,2.1438310767280937
5.034195749787614,-1.7155280488729479,0.5816108465194703,1.3950059062242508,2.2863396820375272
5.044223749777302,-1.9449909174442293,0.8875307375192643,1.6645064145326616,2.709480039233065
5.054251749999821,-1.6769393491744995,1.2550580620765686,2.0621094775199893,2.939318257227507
5.06427974998951,-1.0409400415420533,1.6203505808115006,2.3154114443063736,3.0116809809883027
5.074307749979198,-1.1953275847434999,1.639907178282738,1.9332187181711198,2.802755465701417
5.084335749968886,-1.3849843633174896,1.2505545365810395,1.2064717930555344,2.2220806742861536
5.094363749958575,-1.6209949439764024,0.8036851733922958,0.8234961247444154,1.9878833803311338
5.104391749948263,-1.6831964546442033,0.45243474304676057,0.7703501969575882,1.9055935893036582
5.114419749937952,-1.6219036012887955,0.3011871546506882,0.9665792459249497,1.9119519953840332
5.12444774992764,-1.7219722652435303,0.4971215039491654,1.0415826505422592,2.072971946232571
5.134475749917328,-1.8048694109916688,0.8930797451734543,0.8927979093790055,2.202778502020577
5.144503749907017,-1.6672434961795808,1.351867488026619,0.6993182212114335,2.2574969668318134
5.15453274990432,-1.5162853449583054,1.7341274571418763,0.48980429828166966,2.355043000788706
5.164560749894008,-1.3127437680959702,1.8838302111625673,0.23766358852386477,2.3083752828501805
5.174588749883696,-0.9905387967824937,1.7005521601438522,0.27941738605499267,1.987742144477255
5.184616749873385,-0.9799050503969193,1.3135126769542695,0.34769239962100984,1.675237136965145
5.194644749863073,-1.1669259041547775,0.9690526181459428,0.44043157875537875,1.5794806165597306
5.204672749852762,-1.2905635249614715,0.8293088418245316,0.5349313545227051,1.624641166886036
5.21470074984245,-1.3172730213403703,0.8599687170982361,0.5634575808048249,1.6709993574221385
5.224728749832138,-1.519573234319687,1.0197368681430816,0.3886930757761002,1.870841629285424
5.234756749821827,-1.8354620432853699,1.182198246717453,0.12864400684833527,2.18702146477375
5.244784749811515,-2.1457655918598175,1.3793616807460785,-0.33422860085964207,2.5726751406177875
5.254812749801204,-2.0422336220741273,1.5917237824201584,-1.8779356330633163,3.198584844674417
5.264840749790892,-1.3313262194395066,1.415223823785782,-4.939635981917381,5.308040279409231
5.27486874978058,1.5549962514638902,-0.33743638336658477,-7.7934958809614185,7.954272732402935
5.284896749770269,5.3950680077075965,-3.546387748718262,-5.992957502603531,8.809038795468036
5.294924749992788,6.414490295648575,-5.503237404227257,-1.161229839026928,8.531105580128651
5.304953749990091,4.2158009701967245,-4.920513832569123,1.2488734620809556,6.5987967934393765
5.314981749979779,2.777672433257103,-1.5368827468156816,-0.4990078157186508,3.213484327655022
5.3250097499694675,0.5370047771930695,1.2467170089483262,-1.0663190039992334,1.726184708951842
5.335037749959156,-1.4445704144239426,2.2474229443073273,-0.9875137397646905,2.8483112468710337
5.345065749948844,-1.8549549061059953,2.8064419037103656,-0.7149028050899506,3.4391946562114866
5.355093749938533,-1.633944187760353,3.0559952205419543,0.18907147228717805,3.4705371944879007
5.365121749928221,-1.0122524321079254,2.769888035058975,0.711114394068718,3.033581776468701
5.3751497499179095,-0.15021146178245545,2.0659733176231385,0.6757331845164299,2.178858547276141
5.385177749907598,0.3950209325551987,1.3145236605405808,0.46786876112222675,1.4501431546270989
5.395205749897286,0.8558598786592484,0.9162358886003494,-0.38168635725975036,1.3105986459538683
5.405233749886975,1.5709673362970353,0.29227658271789553,-2.1485558831691742,2.6776213988572626
5.415261749876663,1.4202009737491608,-0.9304218184947968,-3.876696960926056,4.2321903186202
5.4252897498663515,-0.21254745841026307,-1.8285137969255447,-2.781497974097729,3.33547149703509
5.435318749863654,-0.020731887817382815,-2.2010328894853592,0.9797191089391709,2.4093204693832875
5.445346749853343,3.114716176092625,-2.285139824151993,4.188090430498123,5.6976681482487574
5.455374749843031,3.839426808357239,-2.516183779835701,3.188180885910988,5.588996009296187
5.46540274983272,0.5701739850640297,-3.2093150621652606,0.5103654474020004,3.2992839270645455
5.475430749822408,-1.1027179214358331,-3.9706587928533557,-2.075520358979702,4.614098267707209
5.485458749812096,-1.4684638917446138,-4.4026007992029195,0.051297038197517394,4.64132646822304
5.495486749801785,-2.5777625620365145,-4.029250232577324,3.269105473458767,5.79368344488716
5.505514749791473,-2.7801285561919213,-3.0315006494522097,3.162779411673546,5.188668864312793
5.5155427497811615,-2.0361016470193865,-2.0175677275657655,1.6057147076725962,3.285515054713041
5.52557074977085,-1.631418775320053,-1.3133261507749558,1.7847386169433594,2.751662175773952
5.535598749993369,-2.240779045522213,-1.0483794540166855,2.565125267207623,3.5637140523508255
5.545626749983057,-2.665784207582474,-1.063893286585808,2.226670006513596,3.632675829818252
5.555654749972746,-2.118807004094124,-1.1665113365650177,1.683111962378025,2.9466858836382657
5.565683749970049,-1.510522329211235,-1.3348626154661178,2.1230133448541166,2.927579473155843
5.575711749959737,-1.7573198533058167,-1.6266094404459,2.295628851950169,3.317219191503111
5.5857397499494255,-2.1272816661000253,-1.9971007186174394,1.726466581374407,3.3903429655169437
5.595767749939114,-1.9817248803377152,-2.3427442538738252,1.2399289762973786,3.3095480064006058
5.605795749928802,-1.8875464090704919,-2.190064682364464,1.2288077183067798,3.1415256115310255
5.615823749918491,-2.0162985894083976,-1.462975110411644,1.1183385387808085,2.730647773451686
5.625851749908179,-2.1977689737081527,-0.959207661151886,0.7898349467664958,2.524699396391636
5.635879749897867,-2.3694385474920274,-0.8310536509752274,0.3414714737981558,2.5340662912714556
5.645907749887556,-2.4194831120967866,-0.7287104201316834,-0.062150055170059205,2.5276036151833
5.655935749877244,-1.7712487980723381,-0.6292551290988923,-0.30846280854195357,1.9048447775143138
5.665963749866933,-0.6819467282295227,-0.7650438487529755,-0.7033077764511109,1.242974359781537
5.675991749856621,0.4306778383255005,-0.6450104516744614,-1.478680146932602,1.6697355659285216
5.686020749853924,1.35830819606781,-0.10333901166915894,-2.5593613743782044,2.899312116950646
5.696048749843612,1.2196438157558442,0.7509929895401002,-2.942525907754898,3.272610613173929
5.706076749833301,0.81989687114954,1.644835211634636,-2.1836333298683166,2.8541142710245078
5.716104749822989,1.5085158571600914,2.043864995241165,-1.29143709897995,2.8497041935431406
5.7261327498126775,1.9046503919363023,2.157412075996399,-0.6871864181756974,2.958774265550406
5.736160749802366,1.7193187987804415,2.3872684621810913,-0.22104112386703492,2.9502486371159797
5.746188749792054,1.8365449476242066,2.5807241767644884,0.24015042761340738,3.1765872959929258
5.756216749781743,1.6082234555482866,2.802779792547226,0.43535911917686465,3.2605973089508002
5.766244749771431,1.5576672595739365,2.7991054022312167,1.0747808021306993,3.3788270327108
5.77627274999395,2.197271668016911,2.618624074459076,1.955417087674141,3.938127830984475
5.7863007499836385,3.0801453906297684,2.3962503701448443,2.327709892988205,4.543956955094565
5.796330416575074,3.8053433883190158,2.2808865594863894,2.1498253136873244,4.929992969532483
5.806358416564763,4.450832726955414,1.9592353194952012,1.5622965002059936,5.107767159439702
5.816386416554451,4.702660318315029,1.5129495084285738,0.7445517698675395,4.995837029219624
5.826414416544139,4.767641887664795,1.1329377937316896,-0.5763115149736405,4.934175936848297
5.836442416533828,3.513397465646267,0.31234364211559296,-2.3622891569137576,4.2452244184791885
5.846470416523516,1.6025423008203508,-0.5086580604314804,-3.552653040289879,3.9304221749121835
5.856498416513205,1.3519578275084496,-0.9834952408075334,-2.1885812437534335,2.754077107954997
5.866526416502893,0.7513569787144662,-1.7129681378602983,-0.05830149091780186,1.8714155643872228
5.876554416492581,-0.7104103893041611,-2.438561407327652,1.1732135613262653,2.7978017654971494
5.88658241648227,-2.4546620079874995,-2.2182675576210023,-1.0280223727226259,3.4645211111305594
5.896610416471958,-4.103210201561451,-1.4756793558597565,-2.8014600759744646,5.182870061730998
5.906638416461647,-4.526601239740849,-0.8207052487134934,-1.583148255944252,4.865185946003359
5.9166674164589494,-4.442866772711278,-0.5588031971454621,-0.9350580757856369,4.57445732063311
5.926695416448638,-2.3907849776744845,-0.01730074167251587,-0.12435975193977357,2.3940796714058883
5.936723416438326,-0.9682068184018136,0.2172223073244095,0.12307095251977444,0.9998782092601214
5.946751416660845,0.3014564189314842,0.2336822193861008,0.21912206768989564,0.4398838854980976
5.956779416650534,1.17032869130373,0.33363452374935154,0.23323666155338288,1.2391047499782757
5.966807416640222,1.1911134964227676,0.3709643179178238,0.1519070812314749,1.256758388815039
5.9768354166299105,0.8799284800887108,0.6091810530424119,0.39574993416666987,1.1410493836158075
5.986863416619599,0.6762638193368912,0.7265615683794022,0.10960123345255852,0.9986174925187213
5.996891416609287,0.1320257440209389,0.9297546511888505,0.18984505891799927,0.9580791485504536
6.006919416598976,-0.10196491599082948,0.9120241391658783,0.3015555292367935,0.9659816829151373
6.0169484165962785,0.00555397778749466,0.49656894207000735,0.09122138813138009,0.5049088061723683
6.026976416585967,0.48525311797857285,0.28591422736644745,0.14705937400460245,0.5821030779862831
6.037004416575655,0.8796516144275666,0.3988648921251297,0.06244694754481316,0.9678738482843103
6.047032416565344,0.7555763295292854,0.7986910665035248,-0.2525541079044342,1.1280897955734241
6.057060416555032,0.3846351081132889,0.9775749349594117,-0.6572492587566376,1.2391825967105772
6.0670884165447205,0.33845555305480957,0.6244428706169128,-1.0269428305327892,1.248636311037215
6.077116416534409,0.5764688050746918,0.18799675405025484,-1.1225852984189988,1.2758749213712712
6.087144416524097,0.6700774651765824,0.04506916880607605,-0.9300709855556488,1.1471996676633063
6.097172416513786,0.3899990513920784,0.26546943783760074,-0.7894550970196724,0.9196807232528434
6.107200416503474,0.2537805613875389,0.5684926182031632,-0.5664813221991063,0.8417181943442292
6.117229416500777,0.19741164833307268,0.8261449134349823,-0.23667526289820673,0.8817607141169369
6.127257416490465,0.21606982111930848,1.0150895011425018,-0.0028511023521423343,1.0378347612760355
6.137285416480154,0.222752750068903,0.9108219516277314,-0.1587099511921406,0.9510017160014067
6.147313416469842,0.2623967260122299,0.5790293008089066,-0.5300134076178075,0.8276721484209968
6.157341416459531,0.48036996200680737,0.2103471511602402,-0.6778342352807523,0.857006694791991
6.167369416449219,0.8409475784003735,-0.07147870302200318,-0.6179086071252823,1.0459986048569407
6.177397416438907,1.1503651276230813,-0.2893553137779236,-0.6607147572934627,1.3577961610522207
6.187425416661426,1.4499523378908634,-0.48583930134773257,-0.6985342557728291,1.681175694380969
6.197453416651115,1.558193362802267,-0.5194800871610642,-0.6327967876195908,1.760186891003219
6.207481416640803,1.6316778069734574,-0.3957915955781937,-0.27420503184199335,1.7012383290966355
6.217510416638106,1.701838109046221,-0.4074983060359955,0.44371055111289026,1.8053218195084022
6.2275384166277945,1.7321155764162541,-0.5557474422454834,1.5030612820386888,2.3597187983295798
6.237566416617483,1.432196829020977,-0.632941798567772,2.2543641740083697,2.7448061692010945
6.247594416607171,0.7329394188523293,-0.9929256302118302,2.1258264403045177,2.4580967338851676
6.25762241659686,0.25828978791832924,-1.6158289289474488,1.341420121639967,2.1158980799903713
6.267650416586548,0.5730544696748257,-1.9214868646860124,0.33341481462121014,2.0326506426299806
6.2776784165762365,1.3347920103371145,-1.6845606100559236,-0.36933542981743817,2.1807849090477065
6.287706416565925,1.9007163852453233,-1.4695543974637986,-0.8567745293676854,2.5507597884588145
6.297734416555613,2.2240514771640303,-1.829341762661934,-0.9444570364058018,3.0306592271832553
6.307762416545302,2.4470403085649015,-2.7421155148744583,-0.8177554745972156,3.7650933301699627
6.317791416542605,2.50387422144413,-3.9375764161348346,-0.9680166377127171,4.765600734493221
6.327819416532293,2.647863661050797,-5.29735518693924,-1.316184708327055,6.06675334347288
6.337847416521981,2.6086826384067536,-6.396165121793747,-1.5358232313394546,7.07636250987028
6.34787541651167,2.5938693022727968,-6.636303251981736,-1.5079858070611956,7.283041947142316
6.357903416501358,2.9140058210492135,-5.894185166358948,-1.4562606064975263,6.734503964990377
6.3679314164910465,3.3502154177427292,-4.932735682725907,-1.4686719064414502,6.141076601841804
6.377959416480735,3.5044985881447794,-3.922107022404671,-1.5401164032518864,5.480546723190153
6.387987416470423,3.213459276258946,-2.7745038270950317,-1.5721660155057908,4.527239554855806
6.398015416460112,2.793211408853531,-1.7395016330480577,-1.4773031276464463,3.6069821786197336
6.408044416457415,2.2539498987793922,-1.0841193902492523,-1.3962823534011841,2.8644736704919445
6.418072416447103,1.7584904658794405,-0.6007078528404236,-1.4356440550088883,2.348236039186735
6.428100416436791,1.7224216237664223,-0.3736669009923935,-1.606399124264717,2.38471829559675
6.4381284166593105,1.7428731375932693,-0.4298908030986786,-1.853066840171814,2.579974726712916
6.448156416648999,1.8021805688738823,-0.563858699798584,-2.205892510414124,2.9037481302045234
6.458184416638687,2.1186045442521575,-0.6848492860794068,-2.5519845271110535,3.3867578576248394
6.468212416628376,2.5894096308946613,-0.7890191870927811,-2.7533082550764085,3.861126760628622
6.478240416618064,3.3103204500675205,-1.0379550379514695,-2.769879848957062,4.439347533208283
6.488268416607752,3.910399727225304,-1.3036957865953447,-1.3161217045783997,4.327011101433937
6.498297416605055,3.4494356507062913,-1.4232999980449677,2.4918377280235293,4.48705298114473
6.508325416594744,1.8172453352808953,-2.153968650698662,5.627308888435364,6.2935337357208505
6.518353416584432,0.2903937792778015,-2.1098210030794147,6.334934248924256,6.683342363688381
6.5283814165741205,-1.373532883822918,-2.2981861317157746,5.809476553201676,6.396739005239595
6.538409416563809,-2.712025158405304,-2.193982901573181,4.030184032917023,5.330199318167953
6.548437416553497,-3.4613437977433206,-1.58040415763855,1.7224143147468567,4.17675582950479
6.558465416543186,-3.7339228650927545,-0.7356814706325532,-1.3423615233600141,4.035510085242258
6.568493416532874,-3.605798968076706,0.01995537757873535,-5.126363890171051,6.2675187394795255
6.5785214165225625,-3.658892270922661,0.17888854622840883,-4.207611944675445,5.578843252786799
6.588550416519865,-3.8681994947791103,0.4715288257598877,-2.6968609893321993,4.739025845119829
6.598578416509554,-3.6563624730706215,0.9339301478862763,-0.7724358256906272,3.8519954777258443
6.608606416499242,-2.742848463356495,0.7601865667104721,0.1815129227936268,2.85202528920857
6.618634416488931,-0.11654319405555726,0.9401071465015411,1.0353090266883374,1.4032991640153905
6.628662416478619,2.194237547814846,0.7099928981065751,2.000698656588793,3.053123555652225
6.638690416468307,2.1505240559577943,-0.42120008647441864,2.0813302986323836,3.022267201970135
6.648718416457996,0.33720600306987764,-1.1941715902090073,1.9790401312708856,2.33588388336179
6.658746416447684,-1.6027063152194023,-0.8155404031276703,2.242081074267626,2.874143563840691
6.668774416437373,-1.5238203594088555,0.02553946852684021,1.7816221971809865,2.344537994081046
6.678803416667506,-1.1066305857896805,0.3381906741857529,0.32282828450202944,1.2013418692387063
6.6888314166571945,-2.0486240440607073,0.11199932277202607,-0.7245387241244317,2.175858608678629
6.698859416646883,-2.8229012310504915,-0.029357700347900393,-0.7991272687911988,2.933979827224751
6.708887416636571,-3.2534475070238114,-0.223085310459137,-0.27029456019401554,3.2722693785769805
6.71891541662626,-3.380501071214676,-0.48986978709697726,0.686564274430275,3.4841254862185975
6.728943416615948,-2.891687291264534,-0.86308411359787,1.5677042976021767,3.4006567516181594
6.7389714166056365,-1.6592947912216187,-1.4459883642196656,1.9294805932044985,2.9269501043213295
6.748999416595325,-0.3317008495330811,-2.000683307647705,1.8903872787952425,2.7724219042043385
6.759027416585013,0.23501479983329773,-2.117666797041893,1.4934464129805565,2.6019467342508853
6.769056416582316,0.27332751095294955,-1.9657257288694383,0.6987156656384469,2.104041147599447
6.779084416572005,-0.1984813964366913,-1.8373267203569412,0.5614335671067238,1.931417094348922
6.789112416561693,-1.1055558675527573,-1.7874055320024491,1.1531387543678284,2.3972486935940283
6.799139749957249,-2.2511172151565555,-1.5216431486606599,1.9837000697851181,3.3642224294932723
6.809167749946937,-2.658335439562798,-1.022490906715393,2.6423590922355653,3.8851379043569563
6.819195749936625,-2.9510961717367175,-0.3275054723024368,2.6343162471055988,3.969363996787354
6.829223749926314,-3.227001135349274,0.5014344102144241,2.5184016287326814,4.123993156989474
6.839251749916002,-3.0174825346469882,1.203143557906151,2.719859257936478,4.236790017314223
6.849280749913305,-2.7312572354078295,1.74697671353817,3.0136467611789706,4.426483991248217
6.859308749902993,-2.865024572610855,2.0687431436777115,2.879716871380806,4.55859992272768
6.869336749892682,-2.7499431824684146,2.198843107223511,2.5643244910240175,4.355784500208251
6.87936474988237,-2.774405009150505,2.1246255683898925,2.2546770000457763,4.1587167894905885
6.889392749872059,-2.9751750057935715,1.8603887236118317,2.2283692073822023,4.1567224880246725
6.899420749861747,-3.1151690429449084,1.7103550171852113,2.6459381729364395,4.4306411800026355
6.909448749851435,-2.9251585078239444,1.8688800501823426,3.004496453404427,4.590889225017757
6.919476749841124,-2.414995374083519,2.196474400162697,3.2523874068260192,4.608115264562656
6.929505749838427,-2.012110521197319,2.443599953055382,3.2412338429689407,4.530492942814548
6.939533749828115,-2.1128393357992175,2.55550922870636,2.812691992521286,4.348097712988659
6.9495617498178035,-2.2558394265174866,2.4735482221841814,2.604891303777695,4.241781586809712
6.959589749807492,-2.423514767289162,2.250682182312012,2.476165435910225,4.131632773981962
6.96961774979718,-2.43897129714489,2.11340242266655,2.387274309396744,4.014240826947876
6.979645749786869,-2.1531798613071444,1.9538061797618866,2.224762060046196,3.661025584045458
6.989673749776557,-1.716903898715973,1.8536562395095826,2.0474984550476076,3.252084004929955
6.999701749999076,-1.5022596287727357,1.8669188940525057,1.9014999121427536,3.059063919745635
7.0097297499887645,-1.4294793355464936,2.0567411488294605,1.981358844637871,3.1936465357436616
7.019758749986067,-1.3701657646894456,2.189844827055931,2.1136865973472596,3.337730609428519
7.029786749975756,-1.622277238368988,2.1785912758111956,2.007213478088379,3.377417553662918
7.039814749965444,-2.1020061993598937,2.1854944986104967,1.7415031349658967,3.4968056043623896
7.049842749955133,-2.6209185218811037,2.193188264966011,1.5187961393594742,3.7397901514466416
7.059870749944821,-2.8817949718236924,2.1675792145729065,1.4705688893795015,3.894318267615999
7.069898749934509,-2.939178961515427,2.141500048041344,1.3592150992155076,3.882301007071889
7.079926749924198,-2.9240229785442353,2.05748666882515,0.9521863245964051,3.69997575237951
7.089954749913886,-2.711626378297806,1.8869561326503754,0.5740480577945709,3.353066094589406
7.099983749911189,-2.3106898176670074,1.708964549303055,0.4482990074157715,2.9087487454736527
7.1100117499008775,-1.6062430036067963,1.641773609519005,-0.577944057583809,2.368429121853825
7.120039749890566,-0.3518018227815628,1.438941884636879,-3.4042980694770817,3.712622202126167
7.130067749880254,2.700505558848381,-0.36877804398536684,-7.75235721051693,8.21752820734742
7.140095749869943,8.75200421512127,-5.161192245483399,-9.667732565402986,14.024996831817532
7.150123749859631,12.882365670204162,-10.261876333951951,-4.918324635028839,17.18869885621682
7.1601517498493195,11.042988331317902,-12.1254143679142,1.613089216053486,16.479542520901223
7.170180749846622,7.713772019147873,-8.364598696231843,0.06971284389495849,11.37864886500133
7.180208749836311,6.920143471956253,-2.3342757314443587,-1.83381371319294,7.529946985043342
7.190236749825999,3.248645188808441,1.153495434522629,-0.5489456686377525,3.490786247731151
7.2002647498156875,-0.5849618858098984,3.275254697799683,-0.7197209107875824,3.4040375927322057
7.210292749805376,-5.7062883996963505,4.742156213521958,-1.43662054002285,7.557357436959667
7.220320749795064,-9.280369731187822,6.760185286402702,-2.6918432012200357,11.792853228714298
7.230348749784753,-6.126378099918366,7.913311761617661,-1.7184469789266588,10.15411599692942
7.240376749774441,2.2100826251506804,4.5956279128789905,3.1820711302757263,6.010810078663247
7.250405749771744,5.659427059292794,-0.9718113344907761,6.594323751926423,8.7440629946565
7.260433749994263,1.5059112149477005,-4.374710165262223,2.665924540758133,5.33975760445831
7.2704617499839514,-1.159720380306244,-5.632533960342408,-3.8897391754388813,6.942655185723409
7.28048974997364,-2.0971000930666923,-6.928917803764343,-1.2330210757255555,7.343573496932282
7.290517749963328,-3.549026304781437,-7.527324777245522,3.6441336062550547,9.084927944370412
7.300545749953017,-2.987132561802864,-7.038604552745819,2.539102818667889,8.056795772233794
7.310573749942705,-1.754761696457863,-5.790298270583153,0.892248855829239,6.1157870053168555
7.320602749940008,-2.1606628355383872,-4.096066365838051,0.8234259581565857,4.703642617248105
7.330630749929696,-2.9214797320961954,-2.561089226603508,0.6127674427628518,3.9331546868364504
7.340658749919385,-3.3018393561244013,-1.417455706000328,0.7511839011311532,3.6709128381702976
7.350686749909073,-3.4456495785713197,-0.444586610198021,1.22944521099329,3.6853349643024873
7.3607147498987615,-3.3848645558953288,0.36986504137516024,1.739718564748764,3.8237061726967765
7.37074274988845,-3.18286839812994,0.7945003670454026,1.6473220324516298,3.6709061485755936
7.380770749878138,-2.8723376852273943,0.7731141757965089,1.423224130421877,3.2975136439763353
7.390798749867827,-2.6251530754566192,0.486843268275261,1.4117995481193066,3.020202476906832
7.40082774986513,-2.638117229640484,-0.15778009772300722,1.4800669603049756,3.0290518786494682
7.410855749854818,-2.7878802099823954,-0.982010048031807,1.5171282210946084,3.3223933901464178
7.420883749844506,-2.8715714076161385,-1.7626414042711258,1.3867736113071443,3.643620193997623
7.430911749834195,-2.8410726231336594,-2.12309067428112,1.1654951635748148,3.733307734095238
7.440939749823883,-2.718926334679127,-1.8916882842779161,0.8193118572235107,3.4120839523190276
7.450967749813572,-2.067215266227722,-1.280118643641472,0.24525678277015686,2.4438153752315666
7.46099574980326,-0.948839085996151,-0.828368609547615,-0.3405874113366008,1.3047949835735984
7.471024749800563,0.20644822776317598,-0.6654593342542648,-0.8672134172916413,1.1124370127891878
7.481052749790251,1.4033007663488388,-0.37333302497863774,-1.5467803287506103,2.1215937343857294
7.49108074977994,2.898180331885815,0.31354466021060945,-2.2045020425319675,3.6548035166892316
7.501108749769628,3.6761234307289126,1.1422763818502426,-2.2096341437101366,4.438599087497836
7.511136749992147,3.473014255464077,2.056641161441803,-1.5673204278945925,4.329906951574026
7.5211647499818355,3.0269544392824175,2.8086001110076904,-1.214628074169159,4.304185070324443
7.531192749971524,2.638557524979115,2.9618170416355136,-1.3401139998435976,4.186914321230286
7.541221749968827,2.534667997956276,3.0633948719501496,-1.0698270410299302,4.1174579413848305
7.551249749958515,2.476582927107811,3.0071610295772553,-0.40705040931701664,3.9169082818436256
7.561277749948204,2.3926287509500983,2.8599772560596466,0.18774468423798682,3.7335492914264723
7.571305749937892,2.3975635085999967,2.798672123551369,0.6993872183561325,3.751002387910968
7.58133374992758,2.5545555478334427,2.5821497279405596,1.213727018237114,3.829671596791151
7.591361749917269,3.0354954671859744,2.2740359616279604,1.430535927414894,4.05362866154617
7.601389749906957,3.3634599459171297,1.9489857351779938,1.527242442369461,4.176586845917465
7.61141874990426,3.8500745880603793,1.801455221772194,1.6234063357114792,4.5501388309046975
7.621446749893948,4.037081993222237,1.4272807824611664,1.3260146087408067,4.482574728275728
7.631474749883637,3.253155146241188,0.7066406893730164,-0.4931904208660126,3.365352323401978
7.641502749873325,1.297631931602955,-0.37277870893478393,-2.1950938725471496,2.577062223743296
7.651530749863014,1.0417001795768739,-1.1276595121622086,-2.975448070764542,3.3481407469395363
7.661558749852702,0.3904542571306229,-1.5251976710557937,-2.268910292387009,2.7616365397360214
7.67158674984239,0.3289351165294647,-1.6420437508821488,-0.6984158496558667,1.8144670539163545
7.681615749839693,0.19768032789230347,-1.794258468747139,0.4391773509979248,1.85777224393519
7.691643749829382,-1.3807419160008432,-1.769985507130623,-1.0932995919138193,2.4969182869555526
7.70167174981907,-2.8029277271032336,-1.2789322435855865,-2.65511596262455,4.067150390879425
7.7116997498087585,-2.678979326784611,-0.7701736110448838,-1.0668225954473018,2.9846621374363567
7.721727749798447,-1.9319226828217508,-0.4980523806810379,0.46679857447743417,2.0489710430939247
7.731755749788135,-1.684696850180626,-0.1262039637565613,0.7714360249042511,1.8572141658937622
7.741783749777824,-1.7765229865908623,0.5463188070058823,0.6851841853559018,1.9809027054946131
7.751812749775127,-1.4268059885501863,0.7691374844312668,0.391071138381958,1.6674184940186108
7.761840749997646,-0.1425387454032898,0.6530872106552125,-0.02084356963634491,0.6687859545906559
7.771868749987334,0.7290764558315277,0.5510679155588151,0.25099874854087834,0.9477492800183422
7.781896749977022,0.8357013103365899,0.3411885416507721,0.5912393103539944,1.0790598793208563
7.791924749966711,0.4558916169404984,0.10809806048870087,0.4046787786483765,0.6191019875322503
7.801952624926344,0.4105680942535401,0.32806095778942107,0.16622450038790704,0.5511993619135506
7.8119816249236465,0.41417231798172,0.6912204122543335,0.2540566961467266,0.8449077891441125
7.822009624913335,-0.011258229017257692,0.8735173004865647,0.054056339263916016,0.8752607096086035
7.832037624903023,-0.013778671324253084,0.5593393868207932,-0.2824427354335785,0.6267569706287479
7.842065624892712,0.34317133247852327,0.1884721326828003,-0.18136659622192383,0.4314882970118826
7.8520936248824,0.5276723286509514,0.021631774306297303,-0.21858236968517306,0.5715630082683291
7.862121624872088,0.3411318236589432,-0.2620400458574295,-0.7033726805448532,0.8244810698146394
7.872149624861777,0.08361430674791337,-0.2417373436689377,-1.1425903773307802,1.1708719255264184
7.88217862485908,0.01492531031370163,0.18815638303756715,-1.2616725786030294,1.2757128536487188
7.892206624848768,0.09008600503206253,0.5694509768486024,-0.9779452098906041,1.1352386255252427
7.9022346248384565,0.40901156544685363,0.5955570405721665,-0.7701478832960129,1.0559859901483977
7.912262624828145,0.7897598831355572,0.37734070658683777,-0.6654546564817428,1.0995165217908176
7.922290624817833,1.181978245228529,-0.00040170371532440187,-0.6374488323926926,1.3429124124373095
7.932318624807522,1.4695184370875358,-0.2720668512582779,-0.8067369814217091,1.6983313474370068
7.94234662479721,1.6714653320610524,-0.05350026905536652,-0.680308923125267,1.805402688032457
7.952375624794513,1.607572660446167,0.6393275427818299,-0.33652231737971305,1.7624632863319543
7.962403624784201,1.354393777549267,0.997575336098671,-0.18439501538872718,1.6921999224550148
7.97243162477389,1.1116945669054985,0.6133167886734009,-0.26775803804397585,1.2975810804312062
7.982459624996409,1.1320004850625993,0.2651992964744568,-0.36581335946917537,1.2188417366494433
7.992487624986097,1.4625758917629719,0.46728257775306703,-0.4648266009986401,1.6042272331667207
8.002515624975786,1.6869423271715642,0.6643343299627305,-0.4665443667769432,1.8721052757100338
8.012544624973089,1.851397898644209,0.6176875823736191,-0.17786279842257502,1.959807976202125
8.022572624962777,2.015295499563217,0.5090223419666291,0.5490254831314088,2.149871781364792
8.032600624952465,2.2388613049685957,0.3482894003391266,1.5085424619913101,2.722040743432228
8.042628624942154,2.1361001443862917,-0.07918474853038789,1.7126909798383714,2.7390699961239906
8.052656624931842,1.2479029704630376,-1.094142102599144,1.1762836419045926,2.0342202364992046
8.06268462492153,0.18250943452119828,-2.2838815033435824,0.57658004835248,2.3625979275285793
8.072712624911219,-0.6506473137438298,-3.0500836855173112,0.12923603743314743,3.1213866099719767
8.082741624908522,-1.1490822485089303,-2.876197432279587,-0.152908343821764,3.1010131642578274
8.09276962489821,-0.929117450863123,-2.011227591633797,-0.2511994542181492,2.2296629405914623
8.102797624887899,-0.23478631988167764,-1.6931922698020936,0.05942393705248833,1.710425643755368
8.112825624877587,0.6695044380426407,-2.656215823888779,0.07544823154807091,2.740330478478767
8.122853624867275,1.9520104998350145,-4.5142621529102325,-0.30063634693622593,4.927401951308927
8.132881624856964,2.8868843883275987,-6.346455017924309,-0.6944277562201023,7.006698414711107
8.142910624854267,3.188389046788216,-7.6861918723583225,-0.8293806163966656,8.362490204433168
8.152938624843955,3.142107165455818,-7.957923678159714,-0.8612627059221268,8.59902088352134
8.162966624833643,2.760788598060608,-6.85505519092083,-1.0793995177745819,7.468523192219736
8.172994624823332,2.7700573119521144,-5.419630406498909,-1.1216367338597775,6.188996705225374
8.18302262481302,2.869069091677666,-4.60689081966877,-1.039775714725256,5.525950960160696
8.193050624802709,2.7586549490690233,-3.9971133506298067,-1.061993672400713,4.9714105469197785
8.203079624800012,2.3342619904875757,-3.3884035831689836,-1.198832990527153,4.285703958726466
8.2131076247897,1.8208212000131607,-2.6298244160413744,-1.2830042445659637,3.446370002364662
8.223135624779388,1.632808073759079,-1.7675027793645859,-1.5549044501781464,2.864935624054784
8.233163625001907,1.7103826452791693,-0.9499100035429001,-1.8156680488586427,2.669154973348155
8.243191624991596,2.0332534682750705,-0.44858844459056857,-2.0383996027708053,2.9138332483944525
8.253219624981284,2.531545000076294,-0.2970946884155274,-2.4094358414411547,3.507472938643611
8.263248624978587,3.1043066704273223,-0.1705018848180771,-2.8613589531183243,4.225300682244576
8.273276624968275,3.8513983976840973,0.010955343246459961,-3.0585650718212127,4.918151068825964
8.283304624957964,4.783572334349156,-0.01997993588447571,-2.1029639732837677,5.225458922307019
8.293332624947652,4.125126442909241,-0.2657308083772659,0.13212247889488937,4.135787395640547
8.30336062493734,3.3375629201531414,-0.39855674386024476,2.6047907316684724,4.2524238358662725
8.313388624927029,1.265102701485157,-0.7570355021953583,4.610799683332443,4.840770735813439
8.323416624916717,-0.28508801579475407,-0.7598123449087143,5.395349843502045,5.456041597165751
8.33344562491402,-2.165661035478115,-0.8395648580789566,5.028492025136948,5.53901515780334
8.343473624903709,-3.0250090706348423,-0.5342027914524079,3.78863555431366,4.87748007307341
8.353501624893397,-3.443355715870857,0.049034750461578375,2.108366800546646,4.037860022142995
8.363529624883085,-3.328051254451275,1.1139764428138734,0.29239352703094484,3.5216988289813416
8.373557624872774,-3.039911869168282,1.9160501235723497,-1.6148441116511822,3.9395474046248395
8.383585624862462,-2.497056367993355,2.2384574085474016,-2.8272641310095787,4.386274562919
8.393614624859765,-2.2244851943850517,1.9723278200626375,-3.115737977027893,4.30653393709201
8.403642624849454,-2.5379824921488763,1.552925752401352,-3.3990811836719517,4.517376054317179
8.413670624839142,-2.5065361663699153,1.273780261874199,-2.327176480740309,3.6497931559708343
8.42369862482883,-2.1367667269706727,0.8799129849672318,-0.40001503944396977,2.345214475988127
8.433726624818519,-0.6712866693735123,0.5645188504457475,1.1640929281711578,1.4575389087105948
8.443754624808207,1.8137969398498537,0.6381733024120331,2.7189845144748688,3.3301653551849815
8.45378362480551,2.110226507484913,0.4988668978214264,3.4753823778033257,4.096365067542179
8.463811624795198,0.6000550112128258,0.28477694392204284,3.7269708180427554,3.7856935167566705
8.473839624784887,-0.3012374407052994,-0.12887087881565096,2.0902687910199167,2.1157918890574425
8.483867624774575,-0.33439144581556324,-0.33721185028553013,0.01930312067270279,0.4752915752202205
8.493895624997094,-0.931579567193985,-0.4730081713199616,-0.8304592815041543,1.3346309746087803
8.503923624986783,-2.0853530368208886,-0.45306682705879214,-0.4237564891576767,2.1756691844263605
8.513952624984086,-2.7708384999632836,-0.2863866823911667,0.3074270108342171,2.802512210806629
8.523980624973774,-2.9021704718470573,-0.5037516617774964,0.9777383646368981,3.1035997638367285
8.534008624963462,-3.0733918565511704,-0.9526435768604279,1.1615613761544228,3.4208905447298714
8.54403662495315,-2.698750224709511,-1.557440387606621,1.1416247096657755,3.3184605337471416
8.55406462494284,-1.5790043342113496,-2.273593912124634,1.1665791642665864,3.0038959554567386
8.564092624932528,-0.614960440993309,-2.9060702723264695,1.0866059187054635,3.162931108047102
8.57412162492983,0.047160717844963077,-3.219643583893776,1.2764495158195497,3.463762738273506
8.584149624919519,0.2940810334682465,-3.3978977072238923,1.633952081501484,3.7817974413823605
8.594177624909207,0.09547392189502717,-3.2217392259836197,1.8350831437110902,3.7089417701463216
8.604205624898896,-0.6901322454214096,-2.5421360617876054,2.242096715569496,3.459152490824727
8.614233624888584,-1.451694661974907,-1.6048396718502045,2.2930531534552574,3.1529383959287585
8.624261624878272,-2.0693781512975695,-0.61099076628685,2.171413818597794,3.061155602244517
8.634290624875575,-2.718169412612915,0.301008814573288,2.449378756284714,3.6713086977063245
8.644318624865264,-2.8988185554742816,1.0765893459320068,2.646526987552643,4.070171830915837
8.654346624854952,-3.031114733219147,1.7273610591888429,3.0429804879426956,4.629380412618966
8.66437462484464,-3.0751682406663896,2.0998690420389177,3.0115142816305163,4.789084251773112
8.674402624834329,-3.231060857176781,2.4723296624422075,2.7018106573820115,4.883845723496451
8.684431624831632,-3.1489226800203327,2.540062054395676,2.884008727669716,4.968413793777881
8.69445962482132,-2.979968553185463,2.577711106538773,3.1553639727830887,5.047883608749818
8.704487624811009,-2.572240451574326,2.539586091041565,3.343041468858719,4.923600787740221
8.714515624800697,-2.2062936294078828,2.3694578433036804,3.5458147215843203,4.801548093080317
8.724543624790385,-2.067994700074196,2.3078954333066943,3.5507497715950014,4.71283432247462
8.734571624780074,-2.331353877782822,2.5241295611858368,3.3607281267642977,4.8063431512044446
8.744600624777377,-2.5963730800151827,2.7972559279203417,3.2599227136373523,5.019251935876674
8.754628624999896,-2.920272574424744,3.0426688313484194,3.061436639428139,5.211354893252764
8.764656624989584,-3.057133088707924,3.1920137357711793,2.9975406056642533,5.34043669506818
8.774684624979272,-3.2229911148548127,3.177296293973923,2.5801102191209795,5.209592326559345
8.78471262496896,-3.2398480528593065,2.993451647758484,2.1306312435865404,4.898668969141654
8.79474062495865,-2.6735259211063385,2.821979125142098,2.013554783463478,4.377865906988691
8.804769749986008,-1.7311781215667725,2.8589405447244647,2.2129278802871704,4.008437168051053
8.814797749975696,-1.0362096440792083,2.8543113040924073,2.2909320759773255,3.8038392741931455
8.824825749965385,-0.7483213967084885,2.835434737801552,2.417396825551987,3.8004581930725565
8.834853749955073,-0.87060129404068,2.7844838547706607,2.5592707425355914,3.880871510918966
8.844881749944761,-1.1596443665027618,2.724490837454796,2.2896141135692596,3.742987866556913
8.85490974993445,-1.563750702738762,2.5496766310930252,1.6850102609395983,3.43299093545695
8.864938749931753,-2.025164430141449,2.3175333988666535,1.1174882805347444,3.2742987159245356
8.874966749921441,-2.522979998588562,2.0876448529958727,0.6904398089647293,3.3466993045867373
8.88499474991113,-2.914942837357521,1.963901397585869,0.4764480882883072,3.546942799839776
8.895022749900818,-2.8971754878759386,1.8713545918464662,0.030845816731452945,3.449136889191826
8.905050749890506,-2.1632084208726883,1.885186180472374,-1.6224134784936906,3.2963044614198678
8.91507974988781,-0.5621811336278916,1.5206508761644364,-5.546776356697083,5.778854096220164
8.925107749877498,3.5071324664354324,-1.3613756453990937,-10.637667528390885,11.283319202681147
8.935135749867186,10.411520615816118,-7.243447719812393,-11.155521504878998,16.89120944305165
8.945163749856874,14.148086714744569,-12.734310661554337,-3.4860900914669037,19.351585202218754
8.955191749846563,9.7435300219059,-13.970083436965943,3.0736386090517045,17.307422188836355
8.965219749836251,7.660215032100678,-8.681558130383491,-0.4046828716993332,11.58499521518657
8.975248749833554,7.306660798788071,-2.1259324210882187,-1.9079172313213348,7.8451914475781415
8.985276749823242,2.5138600963354114,2.283816014528275,-0.6783799266815186,3.463453117495272
8.99530474981293,-4.616642805933952,5.481551250815392,-2.940637841820717,7.74649248561215
9.00533274980262,-10.99090601205826,7.45459243118763,-3.8378433823585514,13.823892545463872
9.015360749792308,-11.127864174842834,9.499216395020486,-0.864568721652031,14.656464522102034
9.025388749781996,-0.9296669429540635,9.374392958879472,5.404860924482346,10.86075713683474
9.035417749779299,7.1518469935655595,4.213296607732773,9.742892090678216,12.79940350230062
9.045445750001818,2.349482292830944,-1.5374084115028381,3.470263140499592,4.463901649050516
9.055473749991506,-1.5952347430586815,-5.712767114639282,-6.0341078674793245,8.46114293390328
9.065501749981195,-2.7126063716411593,-8.967369446754455,-2.32712195545435,9.65336442478016
9.075529749970883,-3.868722528219223,-10.696372404098511,3.4689472246170046,11.891719449040544
9.085558749968186,-2.9592299410700798,-10.452009075880051,2.5362429454922677,11.155001741145712
9.095586749957874,-1.545010376572609,-8.766384857296945,1.0955109357833863,8.968651221916437
9.105614749947563,-1.561026484966278,-6.178042927980424,1.2549536892771722,6.494607522319227
9.115642749937251,-1.8179695129394533,-3.781254029273987,1.234960889518261,4.373559600887795
9.12567074992694,-2.0280342435836793,-1.7810566252470017,1.1434323763847352,2.9313005978318065
9.135699749924242,-2.1538131147623063,-0.311658348441124,1.3295045194029809,2.550220407452679
9.145727749913931,-2.448712173700333,0.6258491259813309,1.7623683393001557,3.081204407611964
9.15575574990362,-2.6394553649425507,1.0072396141290665,1.7265414257347584,3.310921557296865
9.165783749893308,-2.747625346183777,1.0207039976119996,1.4161548466980458,3.255268997112067
9.175811749882996,-2.9990904101729394,0.7851383900642396,1.387961619347334,3.396678235677502
9.185839749872684,-3.119919613301754,0.3799719536304474,1.2770329217612744,3.3925049981205397
9.195868749869987,-3.033757089972496,0.0009472489356994629,1.302255909740925,3.301447172482713
9.205896749859676,-3.0666529405117036,-0.1956957828998566,1.1792337083816529,3.2913901676916715
9.215924749849364,-3.091456536948681,-0.3386502653360367,0.9495294228941202,3.251675513792319
9.225952749839053,-2.87440233707428,-0.33981853902339937,0.5746842348575593,2.9509197557093785
9.235980749828741,-2.095057953000069,-0.19094667434692383,0.1049528431892395,2.1063578893831156
9.246009749826044,-0.80208859115839,-0.20230839908123016,-0.4223642671108246,0.928798347617676
9.256037749815732,0.46879554480314256,-0.4745991986989975,-1.0261682206392289,1.2239423512906509
9.26606574980542,1.8024653282761576,-0.4763545328378678,-1.8453520238399506,2.6231887069906086
9.276093749795109,3.516300900578499,-0.07157225847244263,-2.8033522349596023,4.497585837407109
9.286121749784797,4.705328110456467,0.798971148133278,-3.0408100014925004,5.659062907211586
9.296149749774486,4.848666754961014,2.0952731305360794,-2.6370240926742556,5.903696711176406
9.306178749771789,4.017503761053086,3.3263751500844956,-2.261789553165436,5.685138528829675
9.316206749994308,3.5279994249343876,3.799280410408974,-1.9234930443763734,5.530021434951138
9.326234749983996,3.0821258425712585,3.932642535567284,-1.523886725306511,5.223735040520725
9.336262749973685,2.557686147093773,3.7029025089740757,-0.7117383650690318,4.556294208928242
9.346290749963373,2.4337090954184535,3.1974633407592776,-0.18085606120526793,4.022365061937649
9.356319749960676,2.4148369145393374,2.4434455865621567,0.4648179763555527,3.466687094252266
9.366347749950364,2.2051734490692616,1.8322653704881668,1.0640430483967067,3.058132426369322
9.376375749940053,2.1390259449183944,1.4140795236825943,1.1029732254892588,2.791344269071553
9.386403749929741,2.128924148976803,0.8950894331932069,0.6009452132508158,2.3863441233065714
9.39643174991943,2.2451600718498232,0.43868326127529145,0.28456352055072787,2.305246873803336
9.406460749916732,2.6455171734094622,0.09916585385799409,0.35183449409902096,2.6706520725496405
9.41648874990642,2.877086793780327,-0.4711487567424774,0.5868299981206656,2.973882818239388
9.426516749896109,3.0223427402973178,-1.0552546101808549,0.39615404985845093,3.2256868979110633
9.436544749885798,2.760155344605446,-1.4242063164710999,-0.1707035406678915,3.110620654632567
9.446572749875486,2.1113336777687075,-1.3466394925117493,-0.4913572456687689,2.5519795776110428
9.456601749872789,1.5793613067269325,-1.3861865508556366,-0.4521067142486572,2.149487327719791
9.466629749862477,0.5421666991710663,-1.2667554169893265,-0.2372045820951462,1.3981702435428902
9.476657749852166,-0.42872603774070744,-1.1566541004180908,0.12900244116783144,1.2402807558283282
9.486685749841854,-0.9697791346907616,-1.201595215201378,0.5286502023786307,1.6321071250844337
9.496713749831542,-1.3625135135650634,-1.1081678187847137,0.396212010383606,1.8004063281408738
9.506742749828845,-1.9355619898438454,-0.7701484680175782,-0.07241783894598484,2.0844119608934544
9.516770749818534,-2.357998762428761,-0.33066004514694214,-0.11146824941039087,2.383677704661174
9.526798749808222,-2.960864237844944,0.014808658361434938,0.1570801129192114,2.9650650065700583
9.53682674979791,-3.480651303827763,0.1541536545753479,0.15210588656365873,3.4873819763232357
9.546854749787599,-4.35438845962286,-0.06984031319618225,-0.09494949974119664,4.355983463483899
9.556882749777287,-2.381841661334038,-0.2137654334306717,0.2851540162414313,2.408355906666394
9.56691174977459,0.3171006444096565,-0.15525760889053344,0.5228194320201874,0.630870749283351
9.57693974999711,0.6696915489435197,0.31775640964508056,0.5711152406036855,0.9357502469391651
9.586967749986798,0.347046574652195,0.8310437107086182,0.3907493953406811,0.9817128215752705
9.596995749976486,0.2342713263630867,0.9875064307451249,0.06658750712871551,1.0170968003216374
9.607024749973789,0.4761934420466423,0.780356537103653,-0.1587865497171879,0.9278629681260714
9.617052749963477,-0.2508958375453949,0.493933601975441,-0.3759666109085083,0.6695296983525587
9.627080749953166,-0.8187426307797432,0.23645555377006533,-0.6223201851546765,1.0552407958450971
9.637108749942854,-1.0107415115833283,-0.053206738829612736,-0.757682204246521,1.2643226182136031
9.647136749932542,-0.6216192501783371,-0.24719981253147127,-0.6601962554454803,0.9398815538205367
9.657165749929845,0.13517242312431335,-0.18940593302249908,-0.3438168650865555,0.41515807610519695
9.667193749919534,0.5199309074878693,-0.06001289784908295,-0.008214753270149231,0.5234473981602098
9.677221749909222,0.37302458435297015,0.10816764235496522,-0.14408606484532357,0.41425641029071425
9.68724974989891,0.16003376081585885,0.286425274014473,-0.32686052441596986,0.4631285400583906
9.697277749888599,0.21805012688040734,0.3891491585969925,-0.6277677436172963,0.7701138002890614
9.707305749878287,0.6343141400814056,0.4320332229137421,-0.6834858615696431,1.0276964809582865
9.71733474987559,1.1849749432504177,0.49781381428241733,-0.8095382362604142,1.5189918912849278
9.727362749865279,1.7007908727228642,0.6546823310852051,-0.7959284032881261,1.98866803930001
9.737390749854967,1.6932840710878374,1.0163565927743912,-0.5203636014461518,2.042295264349839
9.747418749844655,1.376816241592169,1.3135120922327042,-0.21554941892623902,1.9150453079634855
9.757446749834344,1.151664817482233,1.253847103714943,0.08655267879366875,1.7046864161854216
9.767475749831647,0.9996449580788613,0.843480738401413,0.023404065370559692,1.3081657190671796
9.777503749821335,1.0159570817649366,0.5397705101966859,-0.3410879695415497,1.199942498052425
9.787531749811023,1.1030367408692838,0.5826095509529114,-0.538837148398161,1.3588485614898176
9.797559749800712,1.1715104135870935,0.784586997628212,-0.5128173311054707,1.5003316370297577
9.807589249918237,1.2282408307492734,0.7594556647539139,-0.40696021601557736,1.5003216530017554
9.817617249907926,1.274840362071991,0.3901396769285202,-0.4989623536169529,1.4235133812538272
9.827645249897614,1.4186600862443448,-0.09813966751098634,-0.7398758246004582,1.6030109389739629
9.837673249887303,1.6372104424238205,-0.39226513981819155,-0.858826024979353,1.8899502940236348
9.847701249876991,1.6458327466249467,-0.5249735462665558,-0.7119446986913681,1.8684827824032637
9.857730249874294,1.341778994500637,-0.6123438119888306,-0.14492557883262636,1.4820051408696682
9.867758249863982,0.971904159039259,-0.6327774918079376,0.6364489585161209,1.3229029916410382
9.87778624985367,0.6770227879285813,-0.6838002955913544,1.3856484608352184,1.6869986237814252
9.887814249843359,0.1931265163421631,-1.19849385201931,1.6906246112287044,2.0813209605283736
9.897842249833047,-0.4988100336492062,-2.3322262823581696,1.5765600518882275,2.8589565367457306
9.90787124983035,-1.4892071816325188,-3.270627211332321,1.186400494426489,3.7844796892715284
9.917899249820039,-2.2541962127387523,-3.480562718510628,0.9018961769342423,4.243717016600003
9.927927249809727,-2.320332899540663,-3.387991354465485,0.5065863919258118,4.137518574593722
9.937955249799415,-1.6874368554353716,-3.762274551987648,0.15820533648133278,4.126400595447156
9.947983249789104,-0.5984047807753087,-4.778439940810204,-0.35024076238274576,4.828482695549339
9.958012249786407,0.35666729092597965,-6.140928896069527,-1.1259896935522558,6.253484792736293
9.968040249776095,1.4733428084850313,-7.338657932281494,-1.49885537981987,7.633688933141539
9.978068249998614,2.5185776299238207,-7.519133997559548,-1.4211505615711213,8.056070895285272
9.988096249988303,3.20764772862196,-6.6656954509019855,-1.3345227460563183,7.516744691344169
9.998124249977991,3.4926211389899255,-5.187464954853058,-1.419826313406229,6.412807640853471
10.008153249975294,3.498737034201622,-3.7416216015815738,-1.3348361568152904,5.29364530446244
10.018181249964982,3.487805664539337,-2.7913894164562225,-1.0376829962432386,4.58622167242152
10.02820924995467,3.6644424480199818,-2.1602134770154953,-0.8251491326093674,4.33307417570667
10.038237249944359,3.674886744618416,-1.5785032278299334,-0.8527762763947249,4.08946113853932
10.048265249934047,3.61336672693491,-0.8503664195537568,-1.0593226642906666,3.8602728735032263
10.05829424993135,3.388080524504185,-0.14807956695556643,-1.6063219410181047,3.7525041474821146
10.068322249921039,2.995474199652672,0.3348618543148041,-2.2887615895271303,3.784630464913942
10.078350249910727,3.2929320001602176,0.33972556829452516,-2.909168127179146,4.407048197107359
10.088378249900416,3.671355611085892,0.10470375180244447,-3.4361039990186693,5.029575090478863
10.098407249897718,4.072871046066284,-0.09022370696067811,-3.784505081176758,5.5604763810878195
10.108435249887407,4.654468443989754,-0.30371198236942293,-3.7127153062820435,5.961591432648848
10.118463249877095,5.136216448545456,-0.7541341137886047,-2.3474044847488407,5.697345476878473
10.128491249866784,4.426082924902439,-1.6620125770568848,0.16550660848617554,4.730738663450011
10.138519249856472,2.5967218664288523,-2.488840445280075,3.1609778845310212,4.788431100072954
10.148548249853775,0.9414503981173039,-2.590298992395401,4.7923639154434206,5.528356864400494
10.158576249843463,-0.6752984440326691,-2.644554136991501,4.952285263538361,5.654628538060747
10.168604249833152,-2.792623178958893,-2.5435306227207186,4.24461312532425,5.681991977471582
10.17863224982284,-4.363561279177666,-2.171267638206482,3.4919279515743256,5.9957177229125325
10.188660249812528,-3.6589065966010095,-0.9091245049238206,1.7546921145915986,4.15849122460458
10.198689249809831,-2.7159585803747177,0.6001517826318741,-1.8702833819389344,3.3518014710397463
10.20871724979952,-1.8629506811499597,1.4022447592020035,-6.856650896072388,7.242274305473169
10.218745249789208,-2.253212857246399,1.598741610646248,-6.523816856145859,7.084710953186804
10.228773249778897,-3.058077414035797,1.634349399805069,-3.581518989801407,4.9849988671199466
10.238801250001416,-1.7171357408165933,1.5678227037191392,-1.2528887450695039,2.6412787414827648
10.248830249998719,0.9110540860891343,1.0834837979078293,-0.4727368605136872,1.4924599918915142
10.258858249988407,2.7186488842964174,0.3034389173984528,0.9026473979651929,2.880607445961951
10.268886249978095,3.1874113923311236,-0.723997564315796,2.1659197747707366,3.921093256713025
10.278914249967784,1.7412455651164056,-1.1409385389089586,2.1870026417076587,3.019380304373985
10.288943249965087,0.5729879575967789,-0.892490930557251,1.790769581347704,2.081276280112303
10.298971249954775,-0.10044054687023163,-0.3983690482378006,1.7198874405026436,1.7682757166370342
10.308999249944463,-1.407076313495636,-0.11756411790847779,2.1260581362247466,2.5522163451454327
10.319027249934152,-2.501706658601761,0.1007791006565094,2.164663208127022,3.3097521716044382
10.32905524992384,-2.895096217989922,0.4302369582653046,1.7174509057402612,3.3935709164985743
10.339084249921143,-3.0498685079813006,0.5870657140016556,1.5913440057635309,3.4898022599012513
10.349112249910831,-3.0948113769292833,0.17933351933956146,1.4539595809578896,3.4240351097774804
10.35914024990052,-2.763736179471016,-0.6777431648969651,1.356496143937111,3.1524046783047783
10.369168249890208,-2.1335273694992067,-1.5711784207820894,1.816169155240059,3.212321756421497
10.379196249879897,-1.4267217886447907,-2.2074689197540285,2.428757965564728,3.578731527953434
10.3892252498772,-0.9297295081615449,-2.553116548061371,2.89076401591301,3.967280890235607
10.399253249866888,-0.6883552765846253,-2.596561945080757,3.067379749417305,4.077350297506805
10.409281249856576,-0.64533906519413,-2.1850436782836917,2.714119046330452,3.543630988509791
10.419309249846265,-0.9184057903289795,-1.4883865249156953,2.49127054810524,3.0438778863674867
10.429338249843568,-1.2014121973514558,-0.7604982233047486,2.831985465288162,3.168894206375142
10.439366249833256,-1.8011745554208756,0.013031689524650574,3.0530692738294603,3.5448034634982237
10.449394249822944,-2.599596650004387,0.8263285160064697,3.1722665190696717,4.1837777698020595
10.459422249812633,-3.185010525584221,1.6720107311010362,3.294330654144287,4.87775833676024
10.469450249802321,-3.518821050524712,2.3099115532636643,3.3630769532918934,5.387771298345902
10.479479249799624,-2.9989877915382386,2.6145842331647873,3.6546705812215805,5.402461989070889
10.489507249789312,-2.761326541900635,2.78200405061245,3.6254485362768176,5.339320921036749
10.499535249779,-2.7809866350889205,2.6665402525663375,3.4269227010011676,5.156367207805984
10.50956325000152,-2.6502966874837877,2.461114118099213,3.1640073269605637,4.805423768935986
10.519592249998823,-2.7276126658916473,2.2583379417657854,3.112818462252617,4.714827663159302
10.529620249988511,-2.61033389210701,2.3072791367769243,3.1426228898763657,4.691850239645707
10.5396482499782,-2.4326294070482257,2.4085774701833724,3.2475909358263015,4.718662750014234
10.549676249967888,-2.2685898649692535,2.557288536429405,3.105472605228424,4.618461295260433
10.559704249957576,-2.1853448098897936,2.784871525168419,3.008430460095406,4.645631838946774
10.56973324995488,-2.108382588028908,2.9287258940935135,3.0035720086097717,4.69512058536748
10.579761249944568,-2.3233642423152925,2.857940670847893,2.898807445764542,4.6871026112275125
10.589789249934256,-2.4425550556182865,2.6548341268301012,2.773181186914444,4.550247612621142
10.599817249923944,-2.6523145616054538,2.604867914915085,2.562884321808815,4.515361052544063
10.609846249921247,-2.727288730144501,2.5924648010730746,2.0488076466321945,4.28445916485087
10.619874249910936,-2.6140954059362413,2.5663739401102066,1.6735695987939836,4.027481246861518
10.629902249900624,-2.1334414154291155,2.5335973727703096,1.558633219599724,3.6606045175102713
10.639930249890313,-1.7626823347806932,2.568109393715859,1.8009055835008623,3.597984962742915
10.649958249880001,-1.7853619301319124,2.688255642056465,1.7571298187971116,3.674471501960348
10.659987249877304,-2.1436161553859714,2.7106066238880158,1.4251102960109712,3.73810350938732
10.670015249866992,-2.471529178619385,2.759337319135666,1.0785300368070603,3.8581894668143053
10.68004324985668,-2.7097207707166673,2.795143913626671,0.9193811058998108,4.000084720480694
10.690071249846369,-2.7630707663297653,2.8229485934972764,0.7971158266067505,4.0297633258420245
10.700099249836057,-2.3510964167118074,2.877074514627457,-0.716695269048214,3.784027514708371
10.71012824983336,-1.1791518473625184,2.8045807349681855,-4.5410850852727895,5.466033839062845
10.720156249823049,2.6641089802980424,0.798824383020401,-10.747091152668,11.101151530249798
10.730184249812737,11.111572662591934,-5.449902611374855,-13.73413191318512,18.487694959575162
10.740212249802426,16.9555992436409,-11.933602305650712,-2.9000347763299943,20.93593588556077
10.750241249799728,12.867028423547746,-14.533075579404832,9.432749925255775,21.581183410589222
10.760269249789417,9.377949820160866,-10.159070588350296,-1.0391911393404007,13.864796293946148
10.770297249779105,2.7592104345560076,-4.069296643137932,-8.290886941552163,9.639046823707028
10.780325250001624,-8.068249527812004,0.5801443648338318,-3.7878186982870106,8.932009203879034
10.790353249991313,-11.449368649721146,3.9658804482221606,-0.32712774217128754,12.121190649705428
10.800381749868393,-3.5900717121362686,7.891480012536049,5.031433174610139,10.023940915483513
10.810409749858081,3.5035311663150788,7.968897147774697,6.946626681089402,11.137040658611962
10.82043774984777,-0.014426542818546296,3.814041706323624,3.640519149899483,5.2726181298761405
10.830465749837458,-2.377752118706703,-0.014480629563331605,-3.252379220724106,4.028881410769584
10.840494749834761,-2.8660975366830828,-3.3425228208303452,-1.2406750810146332,4.574521674908006
10.85052274982445,-3.6669459334015846,-5.941923004388809,2.319648044407368,7.357561315986316
10.860550749814138,-2.87076800018549,-7.464502292275429,2.673910667896271,8.432668714123876
10.870578749803826,-1.9650582692027092,-8.068767591118814,0.5318916794657708,8.321620827671504
10.880607749801129,-1.3105589559674264,-7.7672325271368035,-0.49854734748601914,7.892782485623416
10.890635749790817,-1.3155305510759354,-6.437655794620515,-0.18161364108324052,6.573204414549479
10.900663749780506,-1.777399484217167,-4.404223401546479,0.5625802060961723,4.782554671461299
10.910691749770194,-2.3443981388211252,-2.2028496193885805,1.1727280962467195,3.424038590126406
10.920719749992713,-2.4723015958070755,-0.4268941050767899,1.0763060483336448,2.7300088767729513
10.930748749990016,-2.5952363812923434,0.6261286228895188,1.5059293413162231,3.065144712443772
10.940776749979705,-2.79017319560051,1.0506779944896698,1.8864930331707002,3.5281506024763147
10.950804749969393,-3.0011176398396495,0.9521769690513612,2.041554321795702,3.752504779129702
10.960832749959081,-3.1931074574589733,0.45624537348747257,1.899581586867571,3.7433281022206897
10.970861749956384,-3.261064382493496,-0.15789119482040406,1.8390650975704195,3.7472164294675054
10.980889749946073,-3.5686776271462444,-0.7414187586307526,1.9699773855507374,4.143183882200383
10.990917749935761,-3.592091925144196,-1.0049293792247773,1.7450079560279848,4.118016539854618
11.00094574992545,-3.5372070354223255,-1.057713949084282,1.086762331724167,3.8485899723383383
11.010974749922752,-3.143038042187691,-1.3715229034423828,0.45815277177840474,3.4597206782620895
11.02100274991244,-2.226755960583687,-1.87850105881691,-0.013227589521557094,2.9133113985799355
11.03103074990213,-0.9603586855530739,-2.2417417895793914,-0.5312195420265198,2.495974610827343
11.041058749891818,0.4756666079163552,-2.2850252187252047,-1.1243815630674363,2.590720531331543
11.051086749881506,2.0491067317128184,-1.8040578174591064,-2.1152343553304673,3.4536472582845517
11.061115749878809,3.974120344519615,-0.6758141684532166,-3.498394387364388,5.337520078889583
11.071143749868497,5.045651264190674,1.1899224185943604,-4.099634921550751,6.6091995379244555
11.081171749858186,3.882821919322014,2.9948280823230746,-3.6666082566976548,6.12285206484052
11.091199749847874,3.36719573199749,3.4362846779823304,-2.5716013509035114,5.455198712575648
11.101228749845177,2.824899224638939,3.7477763807773594,-1.4934420275688172,4.925063707139958
11.111256749834865,2.347819198518992,3.9753868514299393,-0.5817125880718231,4.653422949031995
11.121284749824554,2.255042158663273,4.098259071707726,0.2990049372240901,4.687253621116289
11.131312749814242,2.3588438312709332,3.9901031237840656,1.2601936715841293,4.803452430144071
11.141341749811545,2.662961464226246,3.6760801613330845,1.838314899802208,4.897379991723684
11.151369749801233,2.909520421922207,3.11377389729023,2.010028327703476,4.711805476375144
11.161397749790922,3.147078175842762,2.6674641126394274,2.042830038070679,4.603544330353397
11.17142574978061,3.3698193776607517,2.201819339990616,1.9476613408327104,4.471809001130178
11.181453749770299,3.4100216165184976,1.4891437393426896,1.543442738056183,4.028400673617922
11.191482750000432,3.2217529669404033,0.3361435639858246,0.11014166235923768,3.241113367561468
11.20151074999012,2.673389096260071,-0.9131655156612397,-1.6040532213449479,3.24867161404507
11.211538749979809,1.9769653929769995,-1.6576400291919708,-2.0440269631147387,3.2915359419803276
11.221566749969497,1.9923463475704195,-2.2011469101905825,-1.3697055888175964,3.2696460189073826
11.2315957499668,1.9085727041959764,-2.409086177945137,-0.7783940653502942,3.170527290679077
11.241623749956489,1.6398760418593885,-2.0210748875141147,-0.6341808235645294,2.6788285593859102
11.251651749946177,0.7729375898838043,-1.6522401255369188,-0.5841252223402262,1.9153412817729523
11.261679749935865,-0.7360820049047471,-1.4771680569648744,-1.215088250041008,2.0494588656154322
11.271708749933168,-1.7985136337578298,-0.8245755207538605,-1.246738058924675,2.338574751383962
11.281736749922857,-1.9991140611469747,-0.3136686211824417,0.10007392644882203,2.026045365766751
11.291764749912545,-2.298459635227919,-0.014858359694480896,0.7335058678686619,2.4127097471147723
11.301792749902233,-2.51539235919714,0.4720784640312195,0.3208998727798462,2.579347499903716
11.311821749899536,-2.709130201935768,0.687130869626999,0.19851721063256264,2.8019536694871
11.321849749889225,-1.7772078417241575,0.3617882823944092,0.11755359292030335,1.8174645309254887
11.331877749878913,-0.6018449901044369,0.02208551824092865,0.44514501929283146,0.7489053681413931
11.341905749868602,0.3055956628918648,0.2283741170167923,0.8770151048898698,0.9563989443252785
11.35193374985829,0.6259923827648163,0.7145391082763672,1.200694159269333,1.5310450890288794
11.361962749855593,0.31840471968054773,1.018824702501297,0.7332092678546905,1.2949830772676978
11.371990749845281,-0.16512478530406952,0.9119089490175247,0.01625525951385498,0.9268809845292029
11.38201874983497,-0.7008050219714642,0.5193894553184509,-0.3924532739818096,0.9565106676746804
11.392046749824658,-0.39426211014389995,0.18265239894390106,-0.5432934576272965,0.6956811708215954
11.402075749821961,0.5320590560138225,-0.1344701725244522,-0.40030023738741877,0.6792711876986243
11.41210374981165,0.846878116875887,-0.11516909837722779,-0.14318369328975677,0.8665841194531361
11.422131749801338,0.7150494240224362,0.3156122356653214,0.2016557036340237,0.8071999658725298
11.432159749791026,0.4949127182364464,0.6138336825370789,0.1686430549621582,0.8063317359971571
11.442188749788329,0.3163706195354462,0.600291531085968,-0.16072650969028474,0.6973329922755691
11.452216749778017,0.005847069472074509,0.489485040307045,-0.4790186704695225,0.6849004888041691
11.462244750000536,-0.05724497213959694,0.08554476499557495,-0.935787954479456,0.9414318825078402
11.472272749990225,0.22844384506344798,-0.061558316946029666,-1.1715019351243974,1.1951538816122416
11.482301749987528,0.5103267095983028,0.4287207752466202,-1.0830565126240255,1.2717099760538209
11.492329749977216,0.671747576147318,1.0732616955041885,-0.7809539763629437,1.487623805366604
11.502357749966905,0.8660891439020634,1.2062016516923906,-0.4039866144955158,1.5389080591191953
11.512385749956593,1.1202312093973161,0.6518014079332352,-0.20271828889846802,1.311814675381185
11.522414749953896,1.2318001770973206,0.3013555544614792,-0.07779822751879692,1.2705114760232756
11.532442749943584,1.2901222063601017,0.4010833257436753,-0.043236797600984575,1.351722072838885
11.542470749933273,1.285753897726536,0.5020857900381088,-0.10298013880848884,1.3841452723851593
11.552498749922961,1.2635236608982088,0.5763120996952057,-0.34788550391793255,1.4316605749062667
11.562527749920264,1.390550766438246,0.6469780397415161,-0.5184891302883625,1.6189635561608393
11.572555749909952,1.6639806036651135,0.5005830556154252,-0.6048517745733262,1.8399077460969322
11.58258374989964,1.8870425252616407,0.1448144817352295,-0.48006283700466157,1.9525268381610117
11.592611749889329,1.8113358467817307,-0.20394269585609437,-0.25156958296895027,1.8400590827755265
11.602640749886632,1.4527076920866966,-0.6221940314769745,0.18317908689379692,1.5909241431723486
11.61266874987632,1.1515717005729675,-0.9770486855506898,0.8909244614839554,1.753421772297619
11.622696749866009,0.9534610176086427,-1.0061385834217071,1.541627031415701,2.0731658556759838
11.632724749855697,0.4645653766393662,-1.0555422931909562,1.9071388207376003,2.2287146527654236
11.642752749845386,-0.11880343526601791,-1.9489237546920777,1.7015606586635115,2.5899279397206163
11.652781749842688,-0.7217472633719445,-3.0547199428081515,1.1374179303646088,3.3385554644920363
11.662809749832377,-1.0371608398854733,-3.3178048861026768,0.641436048746109,3.5348227783963595
11.672837749822065,-0.7326084664463998,-2.8951716470718387,0.5769264958798885,3.0416407106635486
11.682865749811754,-0.12896750405430796,-2.874357313513756,0.7132344482839108,2.9643322959936307
11.692894749809057,0.2682350246608257,-3.703901798129082,0.33839357256889346,3.7289876332048326
11.702922749798745,0.5486610554158687,-5.070218925476074,-0.5322083061933518,5.127513489710876
11.712950749788433,1.0370104202628136,-6.579509246349335,-1.204365041255951,6.768739002733782
11.722978749778122,1.5949885752797128,-7.6225384980440145,-1.3102126546204091,7.897071540119374
11.733007749775425,2.26038914501667,-7.0869896775484085,-1.201718152910471,7.535178053345617
11.743035749997944,2.891959186792374,-5.097652891874314,-1.2367796659469605,5.989917936516931
11.753063749987632,3.2876613199710847,-3.512400807738304,-1.055669323951006,4.925455726180663
11.76309174997732,3.3829943239688873,-2.6129838502407075,-0.8541308569908143,4.359113983195246
11.773120749974623,3.3008029371500016,-2.091416307091713,-0.7976286274194718,3.988174222215761
11.783148749964312,3.1667511329054836,-1.7519801759719849,-0.97788958825171,3.7488685388485004
11.793176749954,2.9239601209759716,-1.3325120347738266,-1.2848098647594453,3.460616635869695
11.803205499891192,2.853918955922127,-0.9195845890045167,-1.6033328443765642,3.4001713829104103
11.813234499888495,2.860131330192089,-0.6536134600639344,-2.011693029999733,3.557312275872421
11.823262499878183,2.914873840212822,-0.5279509484767914,-2.570036051273346,3.9217734525593495
11.833290499867871,3.125732622742653,-0.5568829715251923,-3.2961742812395096,4.576580378968252
11.84331849985756,3.5130089181661606,-0.7175246965885163,-3.8846409881114963,5.286445777253871
11.853347499854863,3.8727150070667267,-0.9726831543445588,-3.6591092026233674,5.416005373098196
11.863375499844551,3.555076711177826,-1.4262452405691148,-1.8661219185590745,4.260886870538996
11.87340349983424,2.5110598647594453,-1.9435928481817246,1.0204268395900726,3.3353029455904983
11.883431499823928,1.6591382320225239,-1.8431634110212327,3.5235274744033815,4.308739594772667
11.89346049982123,0.5936587420105934,-2.150764376521111,4.970815089941025,5.448598054881939
11.90348849981092,-1.6521465700864792,-2.3604291576147083,4.5749445569515235,5.40660076169367
11.913516499800608,-2.7366053912043573,-1.3770034986734392,3.608075873851776,4.733218694926203
11.923544499790296,-2.8450168624520304,-0.4919420403242111,2.2679490101337434,3.671473904475064
11.933573499787599,-2.603295306265354,0.5333473438024521,0.5069466169551016,2.7052912436938423
11.943601499777287,-2.1527065292000773,1.3432516157627106,-1.495789099931717,2.9454804931597005
11.953629499999806,-2.0527472081780433,1.798239837884903,-3.8059257709980012,4.683215624929713
11.96365849999711,-2.448362510204315,1.827978191971779,-3.8714727661013604,4.931965595010057
11.973686499986798,-2.7055739253759388,1.4435535836219788,-2.871810851097107,4.2013420211809835
11.983714499976486,-2.7947018641233448,1.374323719739914,-1.5453009831905367,3.4766477136206784
11.993742499966174,-0.9407652506232262,1.7311775368452074,0.07177106380462647,1.971589715548666
12.003770499955863,2.000580981373787,1.441211189031601,1.07119002699852,2.6882823565179077
12.013799499953166,4.181145107746125,0.8105094587802887,0.8071799080073834,4.3347940433995795
12.023827499942854,3.971516579389572,0.2912275922298432,0.7958715391159058,4.06093203065712
12.033855499932542,1.0006690979003907,-0.19664537072181704,0.25354228734970097,1.0508528616288872
12.043884499929845,-1.2180311536788941,-0.7216423058509827,1.1665896892547607,1.8344751325656559
12.053912499919534,-1.4111611783504487,-0.37308334887027744,1.327611483335495,1.973098909627179
12.063940499909222,-1.7297429224848748,0.17383538246154787,0.7140219220519066,1.879376658164288
12.07396849989891,-2.2545468994975093,0.41859281301498413,0.8442926242947579,2.443569458922778
12.083997499896213,-2.8125984370708466,0.3656948071718216,1.215719164609909,3.0858411733926974
12.094025499885902,-2.8329911863803865,-0.064750896692276,0.8047730478644372,2.945792151408585
12.10405349987559,-2.6373266860842706,-0.7823504376411439,0.1605139634013176,2.7555995697590623
12.114081499865279,-2.1448288679122927,-1.6207540386915207,0.15747838139533998,2.692941508308656
12.124110499862581,-1.6409690326452255,-2.4636447930336,0.7357747337222099,3.050194992312158
12.13413849985227,-1.183938378095627,-3.062297349572182,1.722497345209122,3.707610044837103
12.144166499841958,-0.28556105554103856,-3.3338040375709537,2.225292402505875,4.01842266990625
12.154194499831647,0.4871648651361466,-3.2430821478366854,2.009659076035023,3.8462502551615216
12.16422349982895,0.4733525723218918,-2.907136804461479,1.6285092008113862,3.365642475769759
12.174251499818638,0.1813496392965317,-2.010756890773773,1.7372276508808138,2.6634546882671133
12.184279499808326,-0.5890935283899308,-1.2152338457107545,2.0853287708759307,2.4844356638067264
12.194307499798015,-1.602448160648346,-0.487609253525734,2.4172272562980655,2.9408486020670064
12.204336499795318,-2.343664605617523,0.36513815224170687,2.67756049990654,3.5770686161306147
12.214364499785006,-2.8584230661392214,1.174728428721428,3.0368759948015214,4.332803378193476
12.224392499774694,-3.2731491154432297,2.084379767775536,3.4588911831378937,5.198275903126714
12.234420499997213,-3.0625739228725437,2.941910780668259,3.6539174598455433,5.602259443995356
12.244449499994516,-2.999239221811295,3.150927105545998,3.964535003900528,5.885687328704122
12.254477499984205,-2.986797516345978,3.107973459362984,3.854169393181801,5.782307509904207
12.264505499973893,-2.6799906027317046,2.9280493712425235,3.7383424830436707,5.452616552783911
12.274533499963582,-2.7210187608003618,2.8778656429052356,3.3767009657621387,5.204629013428417
12.284562499960884,-2.5731175339221957,2.5982003349065783,3.258563235998154,4.897939687938721
12.294590499950573,-2.5080245751142503,2.5865959507226943,3.2303200149536133,4.838970270696232
12.304618499940261,-2.6710040169954303,2.806436641216278,3.16641637980938,5.003652842703235
12.31464649992995,-2.4846514999866485,3.020821294784546,3.174125933647156,5.037254193909725
12.324675499927253,-2.429678317308426,3.1903782695531846,3.250299366116524,5.162005055965497
12.334703499916941,-2.478944032788277,3.2978781598806384,3.238151190876961,5.24469131695014
12.34473149990663,-2.5485808628797533,3.2535141652822497,3.165949772000313,5.206136455871858
12.354759499896318,-2.854258679151535,3.139123331308365,2.9589519059658054,5.172647704850492
12.36478849989362,-2.729589024782181,3.031538071632385,2.7786103266477586,4.935742565341258
12.374816499883309,-2.235459541082382,2.6728043746948242,2.6425204753875735,4.37310839655806
12.384844499872997,-2.108556835055351,2.531850809454918,2.6267961430549622,4.213827052118369
12.3948734998703,-2.151087727546692,2.5707611060142517,2.249318611621857,4.0367592561838626
12.404901499859989,-2.260817161202431,2.5611471140384676,1.6492679858207704,3.7935278653501796
12.414929499849677,-2.2347596293687824,2.533825998902321,1.203236528635025,3.586391353102936
12.424957499839365,-2.056410781145096,2.542405618429184,1.1539901089668274,3.4676137041232455
12.434986499836668,-1.8632673078775406,2.6677892178297045,1.348675493001938,3.5224692982051193
12.445014499826357,-1.7712052363157273,2.7581433176994326,1.5009346497058869,3.6051806297063695
12.455042499816045,-1.4207763397693636,2.858137722015381,0.2760090440511704,3.2037068589453903
12.465070499805734,-0.3190813887119293,3.016111362576485,-3.043585090041161,4.296760510478351
12.475099499803036,3.0745314788818363,1.6137005424499513,-9.418089786171914,10.037788027037347
12.485127499792725,12.10546951532364,-4.791254698634148,-14.526177034378053,19.506622798621656
12.495155499782413,18.662621347904206,-12.79594850063324,-4.994290491342545,23.172670780857835
12.505183499772102,14.982975554466249,-16.61906391620636,8.367562065124512,23.88930590934773
12.515212499769405,9.91092177271843,-13.122510817050934,-1.8428517544269563,16.547590855389117
12.525240499991924,0.8566065680980682,-6.134771193265915,-8.368649647235872,10.411699636678689
12.535268499981612,-8.85113615512848,0.20417132198810578,-3.534997080266476,9.533126534502594
12.5452964999713,-11.972185742855073,3.8527666461467747,-0.4195388925075531,12.583841034175926
12.555325499968603,-5.090402344465256,7.547247410416603,5.502339856624603,10.637146393670493
12.565353499958292,1.9360493552684785,9.07213225543499,7.173962917327882,11.726790469064204
12.57538149994798,-0.5439360666275025,6.454049633145333,4.0450564259290696,7.636301762020125
12.585410499945283,-3.180794098377228,2.4187329143285754,-1.7304185682535171,4.3545457201049524
12.595438499934971,-2.7932780671119692,-1.4814201521873476,-0.9700282260775567,3.307259104893769
12.60546649992466,-3.9533393400907517,-4.1692612266540525,1.9727763015031816,6.074823244322636
12.615494499914348,-3.6676595860719683,-6.021774920225144,0.9346107637882233,7.112453677103771
12.625523499911651,-2.5693568971753122,-7.188758711814881,0.10443711876869202,7.634838164200561
12.63555149990134,-1.6029817190766336,-7.8328605061769485,-0.07237478882074357,7.995529514108326
12.645579499891028,-0.9723861157894135,-7.710418640971184,-0.5933336368203164,7.794109004998478
12.655607499880716,-1.28937975615263,-6.266273319125176,-0.4391884607076645,6.412610074655642
12.665636499878019,-1.5635793793201447,-3.6728788107633594,0.4548869191110134,4.017678601278099
12.675664499867707,-0.9883197784423828,-1.1117486536502839,0.2365821459889412,1.5062311127958925
12.685692499857396,-0.6717228716611863,0.8955314826965333,0.6205623659491539,1.279955430023176
