Time (s),Linear Acceleration x (m/s^2),Linear Acceleration y (m/s^2),Linear Acceleration z (m/s^2),Absolute acceleration (m/s^2)
0.00596199999563396,-0.6847384813427926,-0.6427124959230424,-2.263235569596291,2.4503431155111945
0.015985999954864383,-0.6664995539188385,-0.40850695073604587,-2.133489362597466,2.2721963921479618
0.026009999914094806,-0.9359126463532448,-0.3911775577068329,-1.8884658837318422,2.143654766345669
0.03603399987332523,-1.712292199730873,-0.2649183377623558,-1.5728822994232179,2.340103636760738
0.04605900007300079,-2.17086622685194,-0.11555910766124726,-1.321780055165291,2.5442320248913233
0.05608300003223121,-2.1615057116746903,0.09356743723154068,-1.0004743856191636,2.3836549253598833
0.06610699999146163,-1.6250125658512116,0.3419071644544602,-0.4710668957233429,1.7261142397089637
0.07613099995069206,-0.9552757009863854,0.597642742395401,0.5221317994594574,1.2419138973534745
0.08615499990992248,-0.7161347403377295,0.6066921856999398,1.7478391778469087,1.9839017531431629
0.0961799998767674,-0.7183422835171223,0.10955460190773011,2.3394160187244415,2.4496704177811903
0.10620400006882846,-0.3574613428115845,-0.5389027833938599,2.313555538058281,2.402235219380994
0.11622800002805889,-0.13543233186006548,-0.8964465719461442,2.406583569645882,2.571692604211585
0.1262519999872893,-0.10481454740278423,-0.8004197958111764,2.270329411625862,2.409575393335326
0.13627599994651973,-0.17337579131126404,-0.4155054831504822,0.8191990059614181,0.9347678764854397
0.14630099991336465,-0.6924363407492637,-0.09572213619947434,1.1351784467697144,1.333139497336765
0.15632499987259507,-1.5419448275864125,-0.08470539718866349,1.1870935356616974,1.947809004508186
0.16634900006465614,-1.5260838165879251,-0.15171214967966082,1.9012034583091737,2.4426467164734964
0.17637300002388656,-0.7562207657843829,-0.2211639153957367,3.079582303762436,3.178774998285258
0.18639699998311698,0.29825813814997676,-0.24917909502983093,3.6539390945434573,3.6745501826761924
0.1964219999499619,0.930449592769146,-0.07419941246509552,3.6138844978809357,3.7324794924444764
0.20644599990919232,0.5490881945192814,0.02595257431268692,2.993408963084221,3.043463257827643
0.21646999986842275,0.03018566608428955,0.16078147351741792,2.234077844023705,2.2400593005143836
0.2264940000604838,-0.14818642482161523,0.42743321835994724,1.3925436437129974,1.464184473454225
0.23651800001971424,-0.28047909423708917,0.7365959751605988,0.6529784524440766,1.0235345681915744
0.24654299998655915,-0.46974571734666826,0.7427723890542984,0.402877836227417,0.9667897454101649
0.2565669999457896,-0.9511700785160065,0.2945657676458359,0.3896496802568436,1.069261606463632
0.26659099990502,-1.17436531662941,-0.2682956895232201,0.256909698843956,1.2317138739491922
0.2766149998642504,-0.9677337786555291,-0.5785977762937546,-0.029173513054847718,1.1278896874016306
0.2866390000563115,-0.49921831548213963,-0.5444079369306565,-0.405450611114502,0.842608524974108
0.2966640000231564,0.20475809007883072,-0.35811155319213867,-0.7177170699834824,0.827820966470463
0.306687125004828,0.9325798796117306,-0.42892615869641304,-0.40293338477611546,1.1027412180733192
0.3167111249640584,1.758634307384491,-0.6282331819832325,0.5599352180957794,1.9496150918882613
0.3267351249232888,2.2260823613405227,-1.0589019571244718,2.389522563815117,3.4331522129458527
0.33675912488251925,2.369875042140484,-1.1649333192408085,3.452125954627991,4.346326145177555
0.3467841250821948,2.383007303774357,-1.0512342108786106,3.48027094244957,4.346964804184907
0.35680812504142523,2.756516037583351,-1.0641932487487793,2.7476738780736927,4.034922511819183
0.36683212500065565,3.7071446639299395,-1.0703708320856096,2.1958429008722304,4.439633016679964
0.3768561249598861,3.8718127816915513,-1.0789026506245136,2.503373699784279,4.735171066262158
0.3868801249191165,2.701271544098854,-1.0642074282467366,3.610903587341309,4.633360564683918
0.3969051248859614,2.261842178106308,-1.7930165201425554,5.265258066058159,6.004480059285343
0.4069291250780225,2.358877014219761,-2.1637393480539324,6.467290652990341,7.216087383394648
0.4169531250372529,2.1906391713023186,-1.5835365110635757,7.336925987005234,7.819013415994901
0.4269771249964833,2.3782175570726394,-1.3303625982999803,6.422821993231774,6.976992600574104
0.43700112495571375,1.9263792300224305,-1.4458682039380075,4.416142365932465,5.030286790751032
0.44702612492255867,0.8561268040537835,-2.0501036819815637,2.441713056564331,3.3011877956412046
0.4570501248817891,0.004350620806217194,-2.4342894315719605,0.23715721964836123,2.445818372528034
0.46707412507385015,-0.45647370725870134,-2.077963618040085,-0.7600017946958543,2.2591821022789778
0.4770981250330806,-0.8091879880428314,-1.8473356917500496,-0.43316641330718997,2.0627814958506527
0.487122124992311,-0.8730080080032349,-2.0098710376024247,-0.9054682409763337,2.370990785567839
0.4971471249591559,-0.8300882756710053,-2.4093890637159348,-2.560851829648018,3.6127779199906565
0.5071711249183863,-1.1776508671045305,-2.8399318313598636,-4.388628877401352,5.358370815380743
0.5171951248776168,-2.2850956776738167,-3.081953349709511,-5.290092360377312,6.534919730741276
0.5272191250696778,-3.351915495693684,-3.0095800226926803,-5.049581177830697,6.766918018918535
0.5372431250289083,-3.5042787328362466,-3.120302898287773,-3.4459653282165528,5.821592278555936
0.5472681249957532,-3.400450309216976,-3.254171977043152,-2.2866659474372866,5.232737210752708
0.5572921249549836,-3.205603249669075,-3.357083557248116,-2.2554102408885957,5.160695453070231
0.567316124914214,-2.8725569558143618,-3.4339130473136903,-2.426588063836098,5.092314985589608
0.5773401248734444,-2.0406051725149155,-3.350930532217026,-3.207400099039078,5.06756551976931
0.5873641250655055,-1.267524910569191,-3.011362254023552,-4.5977995687723165,5.640450593567339
0.5973891250323504,-1.1139793664216995,-2.3668160712718964,-4.512661769986153,5.216021912754852
0.6074131249915808,-1.300875089764595,-1.3561885803937912,-2.7590063667297366,3.3382090402513427
0.6174371249508113,-1.2798777383565902,-0.9932793867588043,-1.3039518946409225,2.079658988593654
0.6274611249100417,-0.9052092093229295,-1.900087224841118,-1.5607697921991348,2.6202552392636855
0.6374851248692721,-0.6879831013083458,-3.3000112241506576,-2.6046588769555092,4.260005010854953
0.6475101250689477,-0.6557159726321697,-3.4122941368818287,-2.5848637130856513,4.330731477313042
0.6575341250281781,-0.2758254414796829,-2.774959325194359,-2.283395015001297,3.6042158266651247
0.6675581249874085,-0.01726872816681862,-2.6969364184141162,-2.135634998381138,3.4401600399183847
0.6775821249466389,0.24074287846684458,-2.3989307337999346,-1.3404277029633522,2.758545309755488
0.6876061249058694,0.572621190994978,-1.8652249556779863,-0.7694576194882393,2.0973850843011546
0.6976311248727143,1.2626956951618196,-1.5104685348272324,-0.15992719531059266,1.9752195627532727
0.7076551250647753,1.4921933546662332,-1.1623229759931566,0.1398715379834175,1.8966285232932412
0.7176791250240058,0.6468836072087288,-0.8559060716629029,-0.25761575013399124,1.1033582734098197
0.7277031249832362,-0.8185414865612984,-0.12165950775146485,-0.621301161646843,1.0348073900547994
0.7377271249424666,-2.0169391518831254,1.1115703135728836,-1.4669010771811009,2.7304634908107843
0.7477521249093115,-3.2512966087460518,2.138169474005699,-2.8249670523405075,4.808652325176234
0.757776124868542,-4.144952304661274,2.0799364686012267,-3.8463238915801052,6.02502886302415
0.767800125060603,-4.375227643847466,2.434794631004334,-3.3125453156232836,6.0036487487787245
0.7778241250198334,-3.9380365920066835,2.910846862792969,-1.8602315796911717,5.238475273273283
0.7878481249790639,-2.8639641800522804,3.0480757516622545,-0.4411040085554123,4.205666339458897
0.7978731249459088,-1.7417690370976926,2.916432123184204,0.08478696584701538,3.398017736462023
0.8078971249051392,-0.9201394897699356,2.1055197912454604,-0.10029115051031114,2.299984475345668
0.8179211248643696,-0.2156958916783333,0.8749831974506379,-0.8860303419828416,1.2637919450693158
0.8279451250564307,0.879767681658268,-0.20060510516166688,-1.1942338630557061,1.4968059665755753
0.8379691250156611,1.810161433517933,-0.9628814667463304,-0.32415121704339983,2.075788800892321
0.847994124982506,1.704780574142933,-1.9584839522838593,1.956742651462555,3.2512732892485716
0.8580181249417365,0.991994461119175,-2.877966799736023,4.185018303394318,5.175048223062214
0.8680421249009669,0.37713049918413166,-3.1393303227424623,4.847655186653138,5.78769238102633
0.8780661248601973,0.8182424014806747,-1.5257391232252122,2.7389673739671707,3.2402689356560392
0.8880901250522584,1.3698144932091236,0.9424279063940049,0.08881686687469482,1.6650677284715456
0.8981151250191033,0.9442683175206185,-0.014957762360572816,0.07393848046660424,0.9472767752994714
0.9081391249783337,-0.6371960864961148,-2.6514596986770633,2.0692360639572143,3.4231557479518475
0.9181631249375641,-1.2366945889592171,-2.7436854922771454,1.8600998711585999,3.537964827068993
0.9281871248967946,0.14549641326069832,-2.965173928141594,0.614496025890112,3.0316713206146075
0.938211124856025,1.505076963454485,-3.650085194706917,1.5722828136384488,4.249759033239749
0.9482361250557005,2.681002755761147,-3.5664676719903947,2.346924428343773,5.041380932255387
0.958260125014931,3.3756247857213024,-2.6401044058799745,1.5404887247085572,4.55391035033377
0.9682841249741614,4.009361805617809,-0.3129219317436218,-0.10400676369667054,4.022899405976704
0.9783081249333918,2.6775122603774073,0.42776358604431153,0.7436787074804306,2.8116030320755785
0.9883321248926222,-0.8619293615967035,0.12260851085186006,3.822859599888325,3.920741076859595
0.9983571248594671,-2.7600635433197023,0.9721165591478348,2.5455359253287315,3.8784938461819345
1.0083811250515282,-2.7843467375636104,1.9219189739227296,0.004473997056484223,3.383249815481408
1.0184051250107586,-1.4541996091604235,2.5340218806266788,-0.6478809960186481,2.9926097606903603
1.028429124969989,0.46999539345502855,1.8477587378025055,0.4711370623111725,1.9639445395625756
1.0384531249292195,1.4248074102401733,0.589603990316391,1.2981007321178915,2.015632539030199
1.0484781248960644,2.3407222867012023,-0.43387918889522553,0.022006580829620363,2.3806965920956613
1.0585021248552948,2.2075820633769037,-1.2666209310293197,-1.4751531064510346,2.9417382339251645
1.068526125047356,1.5112850984930992,-3.1286234861612323,-1.2406978851556778,3.689390032148503
1.0785501250065863,0.5485911080986262,-4.90977892935276,-0.34418706692755224,4.952307146779308
1.0885741249658167,-0.215895574092865,-6.451030715703965,-0.22945760607719423,6.458719608936091
1.0985991249326617,-0.9892193725705147,-6.7066236215829855,-1.5968102753162385,6.964708064520666
1.108623124891892,-0.6024905227124692,-5.63541079044342,-1.2921773564815522,5.812965846072737
1.1186471248511225,-0.7492332699894906,-4.726255295276642,-0.38643721997737884,4.800851313462383
1.1286711250431836,-0.10188100844621659,-4.313161788582802,0.8015649729967118,4.3881944761266025
1.138695125002414,0.3256545361876488,-3.5409241104125977,1.2171587491035463,3.7584132094755294
1.148720124969259,-0.6342601995170116,-3.621774730682373,0.21570027709007264,3.683213924012217
1.1587441249284893,-1.3910610821843148,-4.6575598669052125,-0.4625685524940491,4.882815224225706
1.1687681248877198,1.4788656498491766,-5.433288917541504,-0.15769238948822023,5.633164205088084
1.1787921250797808,2.136575961560011,-5.679391792416573,0.3144679355621338,6.076128541578226
1.1888161250390112,0.06116202190518379,-5.716544415950775,-0.027774274349212646,5.716939064112643
1.1988411250058562,-2.8099677747488023,-5.664800650477409,-0.7303716140985489,6.365479400599528
1.2088651249650866,-7.677438005805016,-5.520649827718735,-2.1761225813627245,9.703408594014114
1.218889124924317,-4.794632050395012,-6.222814473509789,-1.4966527336835862,7.996992301837019
1.2289131248835474,0.7530396611988545,-7.077670385241509,-0.6420716410875321,7.146519628864949
1.2389371250756085,-1.4500305444002153,-7.228161343932152,-0.26478180527687073,7.3769244538638405
1.2489621250424534,-2.205315390229225,-7.002788017988205,-0.16262802422046663,7.343630156096024
1.2589861250016838,-2.5981784078478816,-6.4773180431127555,0.5120628941059113,6.997741669864723
1.2690101249609143,-2.4981448271870614,-5.258152529597282,0.9892582565546036,5.904873199339104
1.2790341249201447,-1.7825324624776842,-2.3393066757917405,1.5845211821794511,3.340731219353919
1.289058124879375,0.5770606894791127,8.120769803524018,1.3220765089988709,8.247895946046864
1.2990831250790507,5.43065942466259,21.95243795156479,0.33610497236251835,22.616687652183412
1.3091073331888765,6.813620066642762,27.6597718334198,-0.01698150197044015,28.486640459359357
1.3191313333809376,-0.4606027185916901,18.810654137134552,-0.6044758716970683,18.82599944254581
1.329155333340168,-6.091135177016259,8.728001394867897,-0.8025970065593719,10.673523225647608
1.3391793332993984,-8.200700072050095,5.114887560009957,-1.9390688574314119,9.857664249563758
1.3492043332662433,-7.21548165678978,3.526383254528046,-3.334612122774124,8.695872147555859
1.3592283332254738,-3.8914266818761827,2.151018145680428,-4.111768478751182,6.05613083629442
1.3692523331847042,-1.046904493868351,0.977955003976822,-3.7798349100351336,4.042221784638413
1.3792763333767653,0.5893306329846383,-0.42555099964141846,-3.1661976939439773,3.2485707758037297
1.3893003333359957,1.3793537870049477,-1.4294524383544922,-2.453643130660057,3.156947220952194
1.3993253333028406,1.9516137662529947,-2.1524238163232803,-1.6253151592612267,3.3291701585572673
1.409349333262071,2.3172553637623787,-2.7616551554203035,-0.956651258468628,3.729824828148725
1.4193733332213014,2.3586252915859225,-2.8727838277816775,-0.23518495380878449,3.724421048937776
1.4293973334133625,1.8198460306227209,-1.655833239555359,1.3590955236554148,2.8108297591298292
1.439421333372593,0.5180149210989475,1.2028102666139604,3.64177483946085,3.870092502419444
1.4494463333394378,-1.4610579545795919,4.761957809329033,6.157378867864609,7.919864080077115
1.4594703332986683,-3.2865351462364196,7.693972762227059,7.9476442730426795,11.539652491482022
1.4694943332578987,-3.1028056901693346,9.104453909397126,8.269525893330574,12.6847760185093
1.4795183332171291,-1.3473610389232635,8.901997575759887,5.16851003587246,10.381446845163618
1.4895423334091902,0.8014217162132263,8.523000352978707,1.3345705470442772,8.663999672733798
1.499567333376035,2.1138240069150926,8.411009216308594,-1.6509961304068566,8.828313326545286
1.5095913333352655,3.22732945650816,7.9435757803916935,-2.989427009224892,9.080348310673662
1.519615333294496,3.8437955555319787,6.657484205961228,-3.1555233094096184,8.309884931909588
1.5296393332537264,4.102426967024804,5.176724204421044,-2.88279104501009,7.206862335135963
1.5396633332129568,4.059398476481438,3.760657212138176,-2.4334839776158335,6.045089157934702
1.5496883334126323,3.6239797157049183,2.1833245968818664,-1.7295131269097328,4.570705736682591
1.5597123333718628,2.397118681669235,0.09276022911071778,-0.8757228702306747,2.553756640629129
1.5697363333310932,1.0798156933486462,-1.663719964027405,-0.300285513997078,2.006025284043513
1.5797603332903236,-0.06854193896055222,-2.909945806860924,0.24178295195102692,2.920777566354223
1.589784333249554,-1.0717306020855903,-3.880497066378594,1.0222304132580757,4.153530905556066
1.599809333216399,-1.9423853981494905,-4.164680517911911,2.060291285812855,5.036092238394346
1.60983333340846,-2.607119970023632,-4.212160493731499,1.9644340789318087,5.329012273725505
1.6198573333676904,-2.9668807303905487,-4.297857286334038,2.071519986391068,5.618287423768473
1.6298813333269209,-3.0470197445154192,-4.439476264715195,2.1316467587649823,5.791130868197475
1.6399053332861513,-2.802876271605492,-4.60375028014183,1.9322358012199403,5.725745997453183
1.6499303332529962,-2.3074878823757174,-4.592618350982666,1.6567705482244492,5.40014187726188
1.6599543332122266,-1.7624836756289006,-4.29653464615345,1.4740918368101121,4.872320331813737
1.6699783334042877,-1.3914877827465535,-3.926157388687134,1.4102484279870988,4.397698343328653
1.6800023333635181,-1.199796904027462,-3.8134464597702027,1.3750856119394304,4.227617171955215
1.6900263333227485,-1.1538377889990807,-3.78179489672184,1.2707712846994401,4.153092094116178
1.7000513332895935,-1.109989226460457,-3.895289937257767,1.1966806304454805,4.223435131435464
1.7100753332488239,-1.0436901332437993,-3.862018695473671,1.1284401154518129,4.156663877748539
1.7200993332080543,-0.9533222924172878,-3.5820557641983033,1.0250380269438029,3.845861392162605
1.7301233334001154,-0.825106740295887,-2.943967246413231,0.908573112487793,3.189553163308516
1.7401473333593458,-0.6373231172561645,-1.8055278074741365,0.8247708177566528,2.084792152991385
1.7501723333261907,-0.5978488567471505,-0.29905759871006016,0.8642956566810608,1.0926416086795563
1.7601963332854211,-0.8465397092700006,1.2750052535533907,1.0149608623981476,1.8364131964674166
1.7702203332446516,-1.1284898167848587,2.6432157093286515,1.1011827349662782,3.0777722411537702
1.780244333203882,-1.3637899607419968,3.7735795587301255,1.2262909305095673,4.195666239030046
1.790268333395943,-1.6679165107011795,4.508620759248734,1.5023444133996964,5.036531085367339
1.800293333362788,-2.027982495725155,4.843790177106857,1.9386390870809556,5.597618939581595
1.8103173333220184,-2.327951382994652,4.87943714261055,2.5439504528045656,5.974943378526585
1.8203413332812488,-2.521950303912163,4.665496292710304,3.1538273245096207,6.170390245804535
1.8303653332404792,-2.649796750545502,4.221534165143967,3.728726736903191,6.22464268895621
1.8403893331997097,-2.81510192245245,3.6022444456815723,4.099468860626221,6.140570724247321
1.8504143333993852,-3.0441782900691035,2.9158895015716553,4.182975286245346,5.938578558244656
1.8604383333586156,-3.278173920214176,2.3354410815238955,3.9894324481487278,5.667122775693485
1.870462333317846,-3.343556900918484,1.981745930314064,3.414876267313957,5.1737867759562794
1.8804863332770765,-3.2710982045531276,1.9449090564250946,2.52035401403904,4.5645305407761
1.890510333236307,-3.1106766271591186,2.0813035476207733,1.6213878768682481,4.0788518216954355
1.9005353332031518,-3.006763418912888,1.4806775557994842,0.9385206507146359,3.4804961274764947
1.9105593333952129,-3.0550777924060823,0.44047192454338074,0.4285387806594372,3.1162736273461045
1.9205833333544433,-3.0692836028337482,0.09335196733474732,-0.09828467845916748,3.0722754275047026
1.9306073333136737,-3.0768358665704727,0.49781673789024355,-0.5044938196241856,3.157412622445339
1.9406313332729042,-3.009742575287819,1.3653850811719894,-0.6450047506392003,3.3673220692019243
1.950656333239749,-2.7603582429885867,2.2144809007644652,-0.46420489579439167,3.569172099348127
1.9606803331989795,-2.5190571016073227,3.162179487347603,-0.13203583046793937,4.045053924472156
1.9707043333910406,-2.239717191159725,4.1265297746658325,0.22985287785530092,4.700788595867551
1.980728333350271,-1.8883758366107941,4.8504589265584945,0.5840988367795944,5.237755869611887
1.9907523333095014,-1.4080723866820337,5.170907394289971,0.8041944658756256,5.419195499832435
2.0007773332763463,-0.7618840134143829,5.027865788340569,1.1583059388399124,5.215512849510943
2.0108013332355767,-0.13363460540771485,4.490793768167496,1.4772540110349657,4.729415004954988
2.020825333194807,0.5795374238491059,3.749941020011902,1.5896854430437088,4.114003048982176
2.0308493333868682,1.1490899960696699,2.6934614181518555,1.7545102661848069,3.41371476609981
2.0408733333460987,1.484863285124302,1.2168576174974441,1.8112832218408585,2.6393765071497266
2.0508983333129436,1.6498335577547552,-0.4506770700216294,1.6701565790176391,2.390498606603421
2.060922333272174,1.6593852768838406,-1.975781770348549,1.4954005524516107,2.9821964914225703
2.0709463332314044,1.4781262694299222,-3.2710148817300797,1.3321606171131135,3.8287135613239154
2.080970333190635,1.232749326378107,-4.390505248904228,1.064808960556984,4.682950497797697
2.090994333382696,1.0658944961428642,-5.298232854008675,0.997182695567608,5.495614231416179
2.101019333349541,1.0417137743532658,-6.097436136603355,1.2724143522977829,6.315293604541848
2.1110433333087713,1.1486869767308237,-6.748815960288048,1.6611825647950174,7.044538746428231
2.1210673332680017,1.1112987104058267,-7.154686986207962,1.8904247009754183,7.483196926743357
2.131091333227232,1.504514022767544,-7.222539830803871,2.1079504787921906,7.672815602716699
2.1411153331864625,2.2153193914890292,-6.853277052640915,2.2159128838777544,7.535603245626544
2.151140333386138,2.607228728234768,-6.517938650250435,2.101059827506542,7.327729408795262
2.1611643333453685,2.7599082997441293,-6.485150388479233,1.7449038755893709,7.260782252570014
2.171188333304599,2.485813634097576,-6.6870044589042665,1.0465666709840298,7.210450738593638
2.1812123332638294,2.1517136719822885,-6.832780807614327,0.4834308332204819,7.17986564370159
2.1912363332230598,1.8400120541453362,-6.913817954063416,0.06943363934755326,7.154812652446102
2.2012613331899047,1.4487064424157143,-6.8480098807811745,-0.24022554606199265,7.003691740543281
2.2112853333819658,0.9683720022439957,-6.654700931310654,-0.5366241234540939,6.746165894031202
2.221309333341196,0.49022617489099507,-6.296638494729996,-0.846524945050478,6.372172511667948
2.2313333333004266,0.31346952348947527,-5.690823683738709,-1.2094626438617706,5.826365696423048
2.241357333259657,0.6406104218959808,-4.684995002746582,-1.6347943729162218,5.00321022245925
2.251382333226502,1.4018585506081582,-3.435190663933754,-2.0698532375693324,4.248533243199008
2.2614063331857324,2.477626947462559,-2.1300389206409456,-2.535446554720402,4.135721258266983
2.2714303333777934,3.7854795196652415,-0.8076630342006684,-2.7816233968734743,4.766508522246985
2.281454333337024,5.161889233589172,0.5996904373168945,-2.423549558222294,5.733962115467159
2.2914783332962543,6.686285251379013,2.1027873873710634,-1.6742174702882768,7.206325651614269
2.301503333263099,7.9836537659168245,3.535100283622742,-0.5053143301606179,8.745913562434353
2.3115268333349377,8.621007288694383,4.519564408063888,1.0397132956981658,9.789240667570242
2.321550833294168,8.558864250183106,5.249192841053009,2.5363970196247103,10.355746838194998
2.3315748332533985,8.05584582924843,6.034396719932556,3.5615466552972794,10.676853954981839
2.341598833212629,6.878699576854706,6.217681202888489,4.220865243673325,10.18782463603607
2.3516238334123045,4.405488739013672,5.149025943875313,4.205514548420906,7.9754091943459064
2.361647833371535,1.551644773632288,3.6006925946474078,4.753152487277985,6.161578306895561
2.3716718333307654,0.350843610316515,2.796664774417877,5.078205052614212,5.807976554340266
2.381695833289996,-0.40838386684656147,2.251645803451538,4.840540879368782,5.354206030004988
2.391719833249226,-0.9880626471340657,1.871610699892044,3.5890718382596973,4.16660906095122
2.401744833216071,-1.448685246258974,1.9519602137804033,2.1226930636167527,3.2271757716673473
2.411768833408132,-2.5240582251548767,2.5328044903278353,1.9171377056837082,4.057263300890272
2.4217928333673626,-3.3997299322485928,3.0690403586626056,2.0934827131032945,5.035855657719872
2.431816833326593,-3.7379974973201753,3.301415140628815,2.0666627043485644,5.3984314346197255
2.4418408332858235,-3.7599011671543123,3.458761374950409,2.3798436677455905,5.635915446360599
2.4518658332526684,-4.0900001719594,2.8753016388416293,4.119094455242157,6.477839149914111
2.461889833211899,-3.8746059966087345,2.1072394573688507,3.782442183494568,5.810326895375827
2.47191383340396,-3.7932817518711093,1.5077086490392686,2.747464547753334,4.920440352308683
2.4819378333631903,-3.69144167393446,0.7466724818944931,1.4697146111726762,4.042811208252616
2.4919618333224207,-3.4987019509077073,-0.06516721844673157,-0.21502784729003907,3.505909166358374
2.5019868332892656,-3.321733337938786,-0.7773446363210679,-1.407185071706772,3.6903044424580305
2.512010833248496,-2.9544208985567093,-1.5691663938760758,-2.1511239802837374,3.9772126415431237
2.5220348332077265,-2.363734734803438,-2.331643899679184,-2.452502923607826,4.127780973081344
2.5320588333997875,-1.7600955265760423,-3.3074564838409426,-2.4516901606321335,4.477498107081107
2.542082833359018,-1.5353468294441701,-4.024107606410981,-2.475868982076645,4.967963277950857
2.552107833325863,-1.4762886357307434,-4.554050116539002,-2.5578299885988236,5.427825978281921
2.5621318332850933,-1.4190183743834497,-5.013483976721764,-2.603030135035515,5.8244656935711046
2.5721558332443237,-1.4488609550893308,-5.349431658983231,-2.6521841686964036,6.144078287749781
2.582179833203554,-1.5427755707502366,-5.547144146561623,-2.7575977724790572,6.383988574489937
2.592203833395615,-1.652941499054432,-5.565012652873993,-2.815174720287323,6.451882681178321
2.60222883336246,-1.635355997979641,-5.404947463274002,-2.8414848518371585,6.3215411478610255
2.6122528333216906,-1.5725194796919824,-5.152338391542435,-2.9189253759384157,6.126951425078385
2.622276833280921,-1.546983227133751,-4.7080587601661685,-2.975581972002983,5.7804033134652215
2.6323008332401514,-1.5393773151934147,-4.118256549239159,-2.984072713851929,5.313606071721814
2.642324833199382,-1.4131593181192876,-3.324618646502495,-2.9244568419456485,4.6478550131713625
2.6523498333990574,-1.1073033079504968,-2.467611544132233,-2.7149119287729264,3.832228350389145
2.662373833358288,-0.6148065130412579,-1.5964693826436998,-2.1801752865314485,2.7712570826610783
2.6723978333175182,0.07437468275427819,-0.7096549290418626,-1.6066803753376009,1.7579998692386711
2.6824218332767487,0.2173529925942421,0.19683657467365265,-1.3103633666038514,1.3427729193934128
2.692445833235979,0.1381252670288086,0.9256276863813401,-0.9337360203266144,1.3220167014235622
2.702470833202824,0.013468768894672394,1.5903420853614807,-0.16815013468265536,1.5992635255020469
2.712494833394885,0.05321711763739586,2.199021447300911,1.0106701755523682,2.420739885045496
2.7225188333541155,0.1531720532476902,2.7711679905653,2.141927479505539,3.5058076155560487
2.732542833313346,0.2714935317635536,3.2139080500602724,2.9432661652565004,4.366432114618911
2.7425668332725763,0.39053904175758364,3.5861067152023316,3.3162471878528597,4.900018114956127
2.7525918332394212,0.3100391082465649,3.6784424364566806,3.4734314543008806,5.068706844422394
2.7626158331986517,-0.16961340039968492,3.5526992332935334,3.447955135703087,4.953668859104421
2.7726398333907127,-0.8735133536159992,3.297500429749489,2.8656057858467103,4.455135372019764
2.782663833349943,-1.3352340598404409,3.08035062789917,2.154818251132965,3.9893171948057136
2.7926878333091736,-1.639928374439478,3.074704556465149,1.877432187795639,3.9582729570622566
2.8027128332760185,-1.8307085493206978,3.1610357719659805,1.8200598925352098,4.081208026628849
2.812736833235249,-1.8031523761153223,3.5489008820056918,1.9041598105430604,4.412695383309218
2.8227608331944793,-1.8505879130959513,3.767203754782677,2.1831380707025527,4.731024370038311
2.8327848333865404,-1.82153660684824,3.208189473152161,2.2732822555303573,4.333392149233869
2.842808833345771,-1.4632911524176597,2.776052169799805,2.002650310993195,3.722673087220411
2.8528338333126158,-1.4623490197956563,2.5157861691713332,1.5959098041057587,3.3188209966088813
2.862857833271846,-1.5144499039649963,2.1122113448381423,1.0290620076656343,2.795346828660688
2.8728818332310766,-1.516403751075268,1.725601631999016,0.613599209189415,2.3777479509297628
2.882905833190307,-1.402351909428835,1.6014365923404694,0.3914383435249329,2.1643507141744145
2.892929833382368,-1.2275366798043252,1.6602513957023621,0.28768184065818786,2.0847162489511977
2.902954833349213,-1.0187709081172944,1.6265813738107682,0.4015563654899597,1.960843860056116
2.9129788333084434,-0.6784167641401291,1.3965752989053728,0.6972664332389832,1.702014203906891
2.923002833267674,-0.26504566088318826,1.1854650861024858,0.9807219064235688,1.5612149533168262
2.9330268332269043,0.1887194699048996,1.1509495568275452,1.3759562623500825,1.8037615021346691
2.9430508331861347,0.5702546766400337,0.96407839179039,1.6120434415340423,1.962987926386684
2.9530758333858103,0.8274498657882214,0.5273568713665009,1.5330077970027924,1.8201350103335094
2.9630998333450407,0.8637449951469899,-0.25901001870632173,1.2056362259387972,1.505556480417679
2.973123833304271,0.8150420741736889,-1.3373424196243286,0.5895455181598663,1.6734223160883173
2.9831478332635015,0.6140634781122208,-2.3874251675605773,-0.0948944628238678,2.466957203708155
2.993171833222732,0.4132912887632847,-3.341489617824555,-0.5716945534944534,3.4151423422592697
3.003196833189577,0.25680854201316833,-4.265452017188072,-0.9115563619136811,4.369321061575818
3.013220833381638,0.09889468923211098,-4.996369761228562,-1.2014016723632812,5.13973315735698
3.0232448333408684,-0.04142299130558968,-5.53040766119957,-1.3352985253930092,5.689476857777026
3.0332688333000988,-0.07814467504620552,-5.895434131622315,-1.347301689684391,6.047931219314737
3.043292833259329,0.033736972510814665,-6.08090547323227,-1.2979017806053161,6.217965791945049
3.053317833226174,0.2035100018978119,-5.995414502620697,-1.184500295519829,6.114691515456327
3.0633418331854045,0.3826235197484493,-5.8360948330163955,-1.1504578059911728,5.9607010343743445
3.0733658333774656,0.46449871838092804,-5.606026192903519,-1.2517473685741425,5.762825713973149
3.083389833336696,0.6098610842227936,-5.283455185890198,-1.312247339487076,5.478030880101931
3.0934138332959265,0.7013404807448388,-5.124317364692688,-1.1563354271650315,5.299775329590807
3.1034388332627714,0.7815938079357148,-5.08577544271946,-0.9072469639778138,5.224853853268887
3.113462833222002,0.8811485016345978,-4.950538115501404,-0.8152983283996582,5.094012335993737
3.123486833414063,1.025758330821991,-4.643324820399284,-0.8692347997426987,4.83406812923344
3.1335108333732933,1.2135355219244957,-4.049724842905999,-1.005286644101143,4.345519647065321
3.1435348333325237,1.4691895312070846,-3.1602528297901156,-1.1954807817935944,3.6844117748214233
3.1535598332993686,1.8043750289082527,-2.21361434340477,-1.3092947879433632,3.1416732083414796
3.163583833258599,2.214497565329075,-1.1137589263916017,-1.2313680678606034,2.7678016062413375
3.1736078332178295,2.6502961027622223,0.13874214828014375,-0.7756062591075897,2.764938314898342
3.1836318334098905,2.984289937913418,1.412779102921486,-0.12480998754501343,3.30416536513745
3.193655833369121,3.0354276394844057,2.59844240963459,0.5784884333610535,4.037372013855797
3.203680833335966,2.746029641032219,3.5228392571210865,1.467686796784401,4.701614590159028
3.2137048332951963,2.324791693836451,4.468817008137703,2.6355394846200944,5.685160529566717
3.2237288332544267,2.3017935714125635,5.1005080872774125,3.591893704533577,6.649446351272145
3.233752833213657,2.227982998788357,4.8443626195192335,4.4622073155641555,6.952916766318973
3.243776833405718,1.9959915018081666,4.279959543943406,4.86883614063263,6.782890323262872
3.253801833372563,1.4465061351656914,3.611302952170372,5.126409498453141,6.435368160195422
3.2638258333317935,0.5695777152478695,3.494786070585251,5.035291167497635,6.155656390210826
3.273849833291024,-2.5885302096605303,4.012954627275467,5.270815259814262,7.112368592106828
3.2838738332502544,-6.123100150823594,3.750083107352257,5.169747306704521,8.847698343876973
3.293897833209485,-5.644445323348045,3.058263940215111,3.9778526222705843,7.552221714223612
3.3039228334091604,-3.2140495526790622,2.4827277660369873,1.5533718949556352,4.348219857753924
3.3139467500150204,-1.6471724899113178,2.098107860684395,-0.1309916639328003,2.6706539690881304
3.323970749974251,-0.6212877130508423,2.0345486265420916,-0.5067536222934723,2.1868209277075734
3.333994749933481,0.07661621287465097,2.0354876893758775,-0.04880261600017548,2.0375136497713244
3.3440187498927116,0.4617835637927056,2.397905132174492,1.076565957069397,2.668742652002738
3.3540437498595566,0.6699640291929245,3.0229964590072633,1.8817591273784637,3.623310199949078
3.3640677500516176,0.8071240670979023,3.487414485812187,1.9957032340765,4.098333863174735
3.374091750010848,0.7984792511165143,3.6358735370635986,1.7306331610679628,4.105147577148847
3.3841157499700785,0.5808738049864769,3.5923907178640366,1.1260439264774322,3.8092860710993954
3.394139749929309,0.15729580208659172,3.1565918880701065,0.10526976227760315,3.1622612226117637
3.404164749896154,-0.23139581188559533,2.203626129627228,-1.0305004227161407,2.443653670664527
3.4141887498553842,-0.33288549542427065,1.0938748848438264,-2.0430902391672134,2.3412801502887897
3.4242127500474453,-0.20106250360608102,-0.04538257956504822,-2.5390177416801456,2.5473705661820913
3.4342367500066757,-0.11969294294714929,-0.9851500028371811,-2.8061524665355684,2.9764641093292394
3.444260749965906,-0.02292780965566635,-1.7374662172794344,-3.081182101964951,3.537371578744883
3.454285749932751,0.05227761626243592,-2.375451239347458,-3.2597946596145633,4.033827309458237
3.4643097498919815,0.1325319667160511,-2.9842300039529803,-3.428878009915352,4.547570543221501
3.474333749851212,0.19231989294290544,-3.4765240466594696,-3.671017057299614,5.0596020222155635
3.484357750043273,0.20198899492621422,-3.86894062936306,-3.956631907224655,5.537547940819632
3.4943817500025034,0.17765215247869492,-4.1582579362392424,-4.2480395936965945,5.947142989805347
3.5044067499693483,0.14168461337685587,-4.368630815148354,-4.429346548318863,6.222870766281085
3.5144307499285787,0.10269757211208344,-4.447068289518357,-4.57997608602047,6.38460211066256
3.524454749887809,0.0838807936012745,-4.414875859022141,-4.732821133732796,6.472847960675383
3.5344787500798702,0.07562218621373178,-4.225459985733033,-4.865980360507965,6.444997724974615
3.5445027500391006,0.08537519574165345,-3.8454202044010164,-4.92443322122097,6.2485668775110526
3.5545277500059456,0.06796920418739319,-3.315377706885338,-4.772225520014763,5.811237868639549
3.564551749965176,0.1306554490327835,-2.6099368661642077,-4.4010676592588425,5.11842142003754
3.5745757499244064,0.21903552889823916,-1.9096930307149889,-3.986400666832924,4.425640553751187
3.584599749883637,0.270727254152298,-1.2388595205545425,-3.291785945892334,3.5275942044662343
3.594623750075698,0.4001992267370224,-0.4497719210386276,-2.369623904228211,2.444907288533747
3.604648750042543,0.5543680840730667,0.481145156621933,-1.5848918956518174,1.74662730863868
3.6146727500017732,0.6544447879493237,1.4343067967891694,-0.9973800390958787,1.865556461267399
3.6246967499610037,0.7498821647465229,2.3991008877754214,-0.48864070236682894,2.560620640926589
3.634720749920234,0.8024372313916683,3.287111681699753,0.013501805663108827,3.383665322848385
3.6447447498794645,0.709366661310196,3.9307351738214495,0.6077455615997315,4.040202313565459
3.65476975007914,0.42372155204415324,4.2365100538730625,1.195126440525055,4.422203590866926
3.6647937500383705,0.0835694293677807,4.281623661518097,1.5574766403436662,4.556864987424214
3.674817749997601,-0.2720254822075367,4.078741065859795,1.5367301344871522,4.367111866158484
3.6848417499568313,-0.6095504508912564,3.6414219599962236,1.2294437491893768,3.891405604064591
3.6948657499160618,-0.8980814534425736,3.2531224018335343,1.028764969110489,3.528131661375127
3.7048907498829067,-1.3440908373892309,2.881055883765221,1.196613387465477,3.3969025278323026
3.7149147500749677,-1.7882264810800552,2.8796443659067155,1.5875699204206468,3.743058091181416
3.724938750034198,-1.8380729712545874,3.6591477942466737,1.9624319922924043,4.540816463167136
3.7349627499934286,-1.8056739878654482,4.2965451711416245,2.4381222814321517,5.259771783768783
3.744986749952659,-2.0072813057899475,4.565654500722886,2.7967220771312715,5.71804456411966
3.755011749919504,-2.0197086855769157,4.88135853767395,3.10307933986187,6.1266618755562785
3.7650357498787344,-1.8611626026034356,4.590240288376808,2.9705030804872514,5.775648940989354
3.7750597500707954,-1.8060031861066819,3.5269662219285967,2.223951051235199,4.543907626387547
3.785083750030026,-1.8090289740264416,2.513971778154373,1.5463990902900697,3.461790010482117
3.7951077499892563,-1.592998475432396,2.1893168234825136,1.450105973482132,3.07141003948383
3.805132749956101,-1.1846292266249658,2.532654216885567,1.6862679970264436,3.265146787615816
3.8151567499153316,-0.6694092746078968,3.1841509848833085,2.104585990905762,3.8750752850210795
3.825180749874562,-0.04001045018434525,3.604189229607582,2.7847218364477158,4.554827828286377
3.835204750066623,0.49262426421046257,3.5015144616365435,3.0342868477106095,4.659418296840104
3.8452287500258535,0.8816537010669708,2.677489748597145,3.076380368471146,4.172574837431027
3.8552537499926984,1.0018363483250141,1.3373956292867661,2.842296445369721,3.297112709845069
3.865277749951929,0.9335661587119103,-0.19744526982307434,2.2327025789022446,2.4280632638183777
3.8753017499111593,0.7224363577365875,-1.7858647906780243,1.5737383317947389,2.4875449098505253
3.8853257498703897,0.3159537130594254,-3.3161945629119876,0.8779705399274826,3.444968127118685
3.8953497500624508,-0.005515970885753632,-4.7346109664440155,0.3275136584043503,4.745928426129933
3.9053747500292957,-0.22248041599988938,-5.94402390897274,-0.012695474624633789,5.948199638631761
3.915398749988526,-0.37077019035816194,-6.799406070113182,-0.2703156101703644,6.814870796240528
3.9254227499477565,-0.3950674179196358,-7.382484567761422,-0.6305143269896507,7.4198857790721044
3.935446749906987,-0.4157466807961464,-7.845826122164727,-0.833649230003357,7.900936898907661
3.9454707498662174,-0.30973139852285386,-8.023739352822304,-0.852222618162632,8.074813318719398
3.955495750065893,-0.26966978520154955,-7.971976291537286,-0.7977990737557411,8.016334021731426
3.9655197500251234,-0.2989602425694466,-7.799788069725037,-0.9398551315069199,7.861895371186397
3.975543749984354,-0.2809388315677643,-7.472294291853905,-1.4196086508035661,7.611136402180126
3.985567749943584,-0.1264024767279625,-7.070286521315575,-1.7033135077357293,7.273665237365179
3.9955917499028146,0.3945063775777817,-6.568334632515907,-1.6516217824816704,6.784284018157358
4.0056167498696595,1.0163650712370873,-5.932138858437538,-1.0672754622995855,6.112474646674797
4.015640750061721,1.5049870625138284,-5.267992224097252,-0.08883148491382599,5.479472526091824
4.025664750020951,1.283330811560154,-4.828281022310257,-0.06048579141497612,4.9962880354583366
4.0356887499801815,0.867244699895382,-4.413199462294579,-0.7104033726453781,4.553363132384646
4.045712749939412,1.1494412675499917,-3.536039346456528,-1.128330918699503,3.885604219336924
4.055737749906257,2.0812064838409423,-2.3288845986127855,-0.9063428382575512,3.252165623472791
4.065761749865487,3.1075346258282663,-0.9473997938632965,-0.21686358064413072,3.2559741449746853
4.075785750057548,4.009237844645977,0.5244946593046189,0.45081418722867966,4.068453781719444
4.085809750016779,4.7216368719935415,1.771325104236603,1.020414852797985,5.145162178948152
4.095833749976009,4.974878904819489,2.6813313692808154,1.6860548660159111,5.897604517151284
4.105858749942854,4.340762985348702,3.5528705567121506,2.55246224462986,6.16280585431558
4.1158827499020845,2.9448267871141436,5.15831366121769,3.5131878429651264,6.900919754175383
4.125906749861315,1.1711519792675973,6.572251682281494,3.689498936533928,7.627482647405979
4.135930750053376,-1.4283952617645264,7.2380577564239506,2.999166716337204,7.963968489487208
4.145954750012606,-3.598981699347496,6.849389823675156,3.1396080654859544,8.35008676803825
4.155979749979451,-4.77571016818285,6.559029958248138,5.107843419313431,9.587405592750583
4.166003749938682,-6.379483015537263,4.777474565505981,7.479958237409592,10.93031756185412
4.176027749897912,-7.180490748882294,1.5233949744701387,8.228798282146455,11.026935241094034
4.186051749857143,-4.6399439603090284,-0.02317894756793976,7.308830115795136,8.657286808231117
4.196075750049204,-0.3976273289322853,-0.3543237268924713,6.045874804258347,6.069287844955015
4.2061007500160486,1.5966769587993623,-0.28929567217826846,4.852693732380867,5.116806206706524
4.216124749975279,1.6546436235308648,-0.6650014972686767,3.7085912650823594,4.115060349947022
4.226148749934509,2.249896024167538,-1.4827176493406296,3.2802397415041926,4.245050825252224
4.23617274989374,3.8180455872416497,-1.741366310119629,3.5149984332919124,5.47403349627308
4.24619674985297,6.031988836526871,-1.418394184112549,3.6787412291765214,7.2062381598690095
4.256221750052646,7.948904932737351,-1.0727845627069474,3.236925029754639,8.649487845874495
4.266245750011876,8.949136658906937,-0.7668968313932419,2.2698025774955752,9.264296056938086
4.276269749971107,8.741434203386307,-0.27910923779010777,0.9404106169939042,8.796302974960938
4.286293749930337,7.446919130086899,0.10886755406856538,-0.7854532626271248,7.489018193472004
4.2963177498895675,5.823672423362733,0.2208575212955475,-2.274079815745354,6.255827487049879
4.306343083269894,4.489009782671928,-0.0207342267036438,-3.322340863645077,5.584763876058431
4.3163670832291245,3.245161710083485,-0.5805682879686356,-3.5484214103221894,4.843493425908589
4.326391083188355,2.196401309967041,-1.3586660456657411,-3.4389732277393343,4.300777720270813
4.336415083380416,1.1904505683481694,-2.1534242749214174,-3.3983327400684358,4.195601753708561
4.3464390833396465,0.43659434348344806,-3.004775950312615,-3.574906958341599,4.690336117288184
4.356464083306491,-0.021577833741903307,-3.801488319039345,-3.791180262565613,5.368875750654754
4.366488083265722,-0.19099827602505684,-4.324542224407196,-3.9543275195360184,5.863007071792184
4.376512083224952,-0.27873077675700186,-4.62166439473629,-4.096213715672493,6.1819446315822155
4.386536083184183,-0.2252044875919819,-4.684527225494385,-4.264032897949219,6.338571522229824
4.396560083376244,-0.14337007328867912,-4.628146033287049,-4.429331930279732,6.407750933981518
4.406585083343089,-0.14204260915517808,-4.511802814006805,-4.587495605349541,6.435965868802964
4.416609083302319,-0.06928424298763275,-4.281484497785568,-4.747738550305367,6.393506952616867
4.4266330832615495,0.06307698503136636,-3.927580016255379,-4.933545522093773,6.306324992315316
4.43665708322078,0.25171854078769684,-3.4102879571914673,-4.874590385556221,5.954414967206987
4.446681083412841,0.6171778513491154,-2.728393853902817,-4.462245322465897,5.26656195635059
4.456706083379686,1.1874126474559308,-1.8920946657657625,-3.9400714230537415,4.529253121467412
4.466730083338916,1.6640231421589853,-0.9179520463943482,-3.345080977678299,3.8472296167951088
4.476754083298147,2.097572694271803,0.12121102631092072,-2.8676452946662905,3.5549814143924485
4.486778083257377,2.4027109587192537,1.1594613486528398,-2.3096531063318255,3.5287204538979435
4.496802083216608,2.673728819489479,2.213589200377464,-1.875143587589264,3.945246053451353
4.506827083416283,2.7942571833729746,3.168987985253334,-1.657716627717018,4.538544092032261
4.5168510833755136,2.7088460272550585,3.957138276100159,-1.5392988163232804,5.036489946528902
4.526875083334744,2.6011645808815955,4.63417217373848,-1.4895203000307085,5.5190832243125785
4.536899083293974,2.430075197070837,5.158949838280678,-1.2492394977808,5.837861613650219
4.546923083253205,2.0821525633335116,5.457886984348297,-0.8895778477191926,5.908911776128289
4.55694808322005,1.5975913171470166,5.611353006362915,-0.5886637580394746,5.863966711934066
4.566972083412111,0.9183252449333669,5.374731976389885,-0.419303834438324,5.468718385424919
4.576996083371341,0.26073392406105994,4.9187906581163405,-0.44334875464439394,4.945608338291013
4.587020083330572,-0.3569077576696873,4.516633783578873,-0.5775400149822235,4.567375214645329
4.597044083289802,-0.8899775049090386,4.420780377388001,-0.13280196189880372,4.5114294259610315
4.607069083256647,-1.1917014339566232,4.764037663936615,0.18405280709266664,4.914273354922333
4.617093083215877,-1.2977231481671334,5.199851696491241,0.4034210425615311,5.374503844297917
4.6271170834079385,-1.4948728412389756,5.592815578579903,0.8135125887393951,5.846027167189476
4.637141083367169,-2.056769654005766,5.566834645271301,1.3787757897377015,6.092698257406046
4.647165083326399,-2.927821329832077,5.170955926179886,1.8586930310726166,6.22620773132992
4.657190083293244,-3.5659589642286305,4.754154115319253,1.956714000105858,6.256738316805313
4.667214083252475,-3.8820989111065867,4.111632823348046,1.336176484823227,5.81047192818643
4.677238083211705,-3.578981298208237,2.9089207899570466,-0.06203311085700989,4.6124587154804155
4.687262083403766,-3.066907294392586,1.7203783142566682,-1.0506019806861877,3.670066268936408
4.697286083362997,-2.687678229510784,1.20965092420578,-1.2846402955055238,3.2151470126037225
4.7073110833298415,-2.421906052082777,1.2123435670137406,-1.2621057111024858,2.988028894705052
4.717335083289072,-2.194211381524801,1.44533464550972,-0.886941922903061,2.7731249158533524
4.727359083248302,-1.886230200827122,1.6186928951740265,-0.32038473308086396,2.5061279768979263
4.737383083207533,-1.558786124289036,1.6963369023799897,0.2730211168527603,2.319895169592734
4.747407083399594,-1.2212386438250542,1.6346429300308227,0.8521042120456696,2.211235609802217
4.757432083366439,-0.6324181804060937,1.1857223635911942,2.02070885181427,2.426758031248478
4.767456083325669,0.7956579695641995,0.09704156041145325,3.960195200443268,4.040499312534529
4.7774800832849,1.1290393088757993,-1.000179101228714,3.0207838726043703,3.37642165620766
4.78750408324413,0.9500146687030793,-2.2798861008882523,2.1546790874004365,3.2776592979526162
4.79752808320336,0.600554655790329,-3.3006175804138187,1.0554844057559967,3.516929006608223
4.807553083403036,0.3433085958659649,-4.107205311655998,0.3435706973075867,4.1358236287514885
4.817577083362266,0.15777322724461557,-4.676440526247025,-0.044382413327693944,4.6793117213297
4.827601083321497,-0.11637537896633149,-5.101086961627007,-1.181861447095871,5.237502066733927
4.837625083280727,-0.4003851681947708,-5.509721966385841,-1.5500617861747743,5.73759844976488
4.847649083239958,-0.7112596973776818,-5.453003389835358,-1.1958371695876122,5.627713822045059
4.857674083206803,-1.0491676586866379,-4.937722188234329,-0.8179079407453538,5.113787889984285
4.867698083398864,-0.947262091934681,-4.268712424635887,-0.02005185663700104,4.372598004849274
4.877722083358094,-0.29335042387247084,-3.097274224162102,1.5252236911654473,3.464890964942109
4.8877460833173245,0.8075162690877915,-2.3899394702911376,2.4886945572495462,3.54365542847784
4.897770083276555,0.9585934111475946,-3.2104441595077517,2.1443175289034846,3.977932967506587
4.9077950832434,-0.13830623835325243,-6.203939661383629,2.1155515667796134,6.55618443680163
4.91781908320263,-1.5084360426664354,-7.3930949252843865,1.989176279604435,7.803207939073639
4.927843083394691,-2.725926328897476,-7.201044881343842,0.7629610705375672,7.737430537902143
4.937867083353922,-2.830944953262806,-7.286417738199234,0.254366452395916,7.821178624481932
4.947891083313152,-2.6054502975940705,-7.121626828908921,0.18059622555971147,7.585417255507753
4.957916083279997,-2.0831272941827774,-6.504880063533784,0.12694772958755493,6.831471268385456
4.9679400832392275,-1.1671410816907883,-5.209856282472611,0.15047838717699052,5.341110795854835
4.977964083198458,0.17189878463745117,-2.773394610285759,-0.06740904092788697,2.7795342838901536
4.987988083390519,1.9366258907318117,1.236448713541031,-0.24034921467304232,2.3102149265520735
4.9980120833497494,3.0402597784996033,5.233524641990662,1.3916969668865204,6.21045732186665
5.008037083316594,2.6544680911302567,7.098412213325501,4.347117154598236,8.736766241174111
5.018061083275825,1.8519652247428895,8.146406920552254,7.344023922085762,11.123327212531626
5.028085083235055,0.6666083121299744,8.275365507602691,9.036062536239625,12.270960316334431
5.038109083194286,-0.5188895183801652,7.473133952021599,9.589724861383438,12.168804391318744
5.048133083386347,-1.3997845432162286,6.030294313430787,9.949947259426118,11.718587659755935
5.058158083353192,-1.7136700960993767,4.177996966838837,8.844970266222955,9.931053461921747
5.068182083312422,-1.0901712584495544,2.69852276802063,6.233144749403,6.879141804708302
5.0782060832716525,0.07757091701030731,2.0317524880170823,3.4336429059505464,3.990481051867549
5.088230083230883,1.767179135978222,2.0673579382896423,1.870803784132004,3.3010298002848386
5.098254083190113,3.3412086591124535,2.065023729801178,1.487513535618782,4.200082716687744
5.108279083389789,4.461688375174999,1.7016713172197342,1.6506227856874467,5.052415660815196
5.118303083349019,5.607578628659248,1.035662929415703,1.821964915394783,5.986408934652842
5.12832708330825,6.846504807472229,0.3699182510375977,1.725158413052559,7.070193713139484
5.13835108326748,7.472411236166955,-0.29132524073123933,1.299900358915329,7.590226677866048
5.148375083226711,7.344003456830979,-0.8252140367031098,0.7653163290023804,7.429742530111988
5.1584000831935555,6.960089310407639,-1.1895926356315614,-0.011724836826324464,7.061027639047883
5.1684240833856165,6.9943434691429145,-1.6822456973791122,-1.0039353525638581,7.263516871517557
5.178448083344847,7.208897691965103,-2.069844174385071,-1.3478177064657213,7.620306647984589
5.188472083304077,7.2815844297409065,-2.170892831683159,-1.645812281370163,7.774506129626974
5.198496083263308,6.483096846342087,-2.2503179007768632,-2.091399350166321,7.174149887999525
5.208520083222538,5.105341980457307,-2.4111666172742843,-2.661544976234436,6.24195985682353
5.218545083189383,3.8574689769744874,-2.6381689774990082,-3.205050687789917,5.666776188756829
5.228569083381444,2.8492394292354586,-2.9152603411674503,-3.648724547624588,5.470840795191541
5.238593083340675,2.0995644021034243,-3.0567775779962543,-3.9650343561172487,5.428955450647083
5.248617083299905,1.4703766621649266,-3.1446477806568147,-4.216250036358834,5.461463316925691
5.25864208326675,0.9008005549013615,-3.3507463449239734,-4.499714865088463,5.682110221988839
5.26866608322598,0.5018369910120964,-3.522411240935326,-4.748134406805039,5.933296019996091
5.278690083185211,0.8611187182366848,-3.1660041511058807,-5.081715720891952,6.048879433389103
5.288714083377272,0.7830904027819634,-3.1322522681951526,-4.857785487771035,5.832865050362623
5.298738083336502,0.20749838769435883,-3.7971859377622605,-5.622704790830612,6.787966248565525
5.308761708205566,0.0626545237004757,-3.769890550374985,-5.464767403006554,6.639253205000524
5.318786708405241,-0.4844827473163605,-3.660094458460808,-5.049324485063553,6.2551333105510265
5.328810708364472,-0.4395262835919857,-3.223138464689255,-4.364387490749359,5.4433154497913385
5.338834708323702,-0.13251369416713715,-2.6422667062282565,-3.7362982964515687,4.578106397414878
5.348858708282933,0.157878038585186,-1.9169102489948273,-3.1566579616069794,3.6964793877885542
5.358882708242163,0.511617628633976,-1.0323820567131043,-2.6776739358901978,2.915047686727944
5.368907708209008,0.7449351279437543,-0.19941753566265108,-2.228558657169342,2.35821317671214
5.378931708401069,0.6706728579103947,0.5739281898736954,-1.916266470551491,2.109803980380467
5.3889557083602995,0.5549934437870979,1.2798438245058061,-1.6960433721542358,2.196037581190409
5.39897970831953,0.34910991087555887,2.0224472290277484,-1.2740445560216904,2.4156489924660134
5.40900370827876,0.3496889314055443,2.9748762130737307,-0.6977078980207444,3.0755433898451146
5.419028708245605,0.4356422705948353,3.960819098353386,-0.06783413350582124,3.985282121441146
5.429052708204836,0.3117450334131718,4.933649602532387,0.7089655423164368,4.994068031837151
5.439076708396897,-0.01382369488477707,5.683632777929306,1.3552366536855698,5.842990590133235
5.449100708356127,-0.5986972877383232,6.110426310896874,1.8569213247299194,6.414351483157336
5.459124708315358,-1.36523802369833,6.235402944087983,2.32521956384182,6.793435857985674
5.4691497082822025,-2.40456730350852,5.939160779714585,2.8250758105516436,7.002615798383217
5.479173708241433,-2.838478505909443,5.3052834266424185,2.763788219690323,6.621292758126288
5.489197708200663,-2.8338191521167757,4.431807641386986,2.269911335706711,5.729218745093413
5.499221708392724,-2.8443909180164337,3.7108295792341233,1.8692922788858415,5.035381761546535
5.509245708351955,-2.6850034207105637,3.16191168487072,1.3841639989614487,4.372966824499172
5.5192707083188,-2.9877740013599396,2.859335231781006,1.0259536278247834,4.260888674602207
5.52929470827803,-3.531795437335968,2.773258954882622,1.0818383914232255,4.618973754762091
5.539318708237261,-3.871757233142853,2.3168533676862717,1.1331190574169159,4.652125578489323
5.549342708196491,-4.009098388552666,1.6406562066078187,1.04081374168396,4.455099990152243
5.559366708388552,-3.804590266942978,1.3992159014940262,0.6612961167097092,4.107313573649609
5.569391708355397,-3.5788155296444897,1.3094295662641526,0.3523222249746323,3.827095156178165
5.579415708314627,-3.3350521257519725,1.337165248990059,-0.006307976245880127,3.593135590978125
5.589439708273858,-3.032127470970154,1.6180450236797335,0.07008297264575959,3.4375541191261965
5.599463708233088,-2.6766559356451034,2.0899159115552903,0.7504772651195527,3.4778515840468907
5.609487708192319,-2.3452033004164696,2.4675676900148393,1.5806883323192598,3.7533244502733463
5.619512708391994,-1.8751624448597433,2.568336265683174,2.165864810943604,3.8475389208583106
5.629536708351225,-1.4882934080064298,2.4849333357810974,2.3737116926908493,3.744918977976536
5.639560708310455,-1.1111719720065594,2.1069663923978807,2.393250163793564,3.376633956555701
5.6495847082696855,-0.6600497826933861,1.5017947751283647,2.119039138555527,2.6798097195447648
5.659608708228916,-0.3177428148686886,0.63290145277977,1.8179461240768433,1.9510132893902692
5.669633708195761,-0.12565359458327294,-0.36411605894565585,1.4055782568454742,1.4574016489391577
5.679657708387822,-0.000916697233915329,-1.373337294459343,0.6568610036373139,1.5223411387682282
5.689681708347052,-0.17640932679176333,-2.207586448788643,-0.12534149944782258,2.218167863561774
5.699705708306283,-0.493893256187439,-3.0688982713222503,-0.7628488039970398,3.2006257897467245
5.709729708265513,-0.5923229455947876,-4.054619547128677,-0.9448936772346497,4.205188486276693
5.719754708232358,-0.709491499364376,-4.89088949918747,-0.725994388461113,4.995122234040884
5.7297787081915885,-0.719670040011406,-5.609991189837456,-0.6936563622951508,5.6983405712098705
5.73980270838365,-0.7171203616261482,-6.0382857030630115,-0.7027727562189102,6.121196401991813
5.74982670834288,-0.6637855687737465,-6.478262953162194,-0.6817970395088196,6.547774383308348
5.75985070830211,-0.5745465329289436,-6.9410648095607765,-0.6712714666128159,6.997077232024252
5.769875708268955,-0.1116230544447899,-7.301059750914574,-0.5038826394081116,7.319278031814698
5.779899708228186,0.564018621146679,-7.616148076057434,-0.2893436193466187,7.6424831207854265
5.789923708187416,1.2568771308660507,-7.710049096941948,-0.6316121417284012,7.8373165750101075
5.799947708379477,1.6049586626887322,-7.3686447930336,-0.8366941675543785,7.587679192273505
5.809971708338708,1.7440396571159364,-6.860334057211876,-0.9857256612181664,7.1468533482448215
5.819996708305553,1.6918860018253328,-6.288459409475327,-1.0625580748915673,6.598198970196986
5.830020708264783,1.5048429286479952,-5.7282429403066635,-0.8062982940673828,5.977243207540662
5.8400447082240134,1.4915004596114159,-5.210970761775971,-0.7199512910842896,5.46782587164579
5.8500687084160745,1.5380112594366075,-4.563478751778603,-0.8787221994996072,4.895198632944531
5.860092708375305,1.8313725006580355,-3.558951660990715,-0.8854301252961159,4.099274163582735
5.87011770834215,2.6403365403413774,-2.1918492525815965,-0.640832323729992,3.4908804418715857
5.88014170830138,3.4585777723789217,-0.23603513896465303,-0.33735276818275456,3.4829986627359153
5.890165708260611,4.194416825473309,1.7295134192705155,-0.05881831169128418,4.537379063626996
5.900189708219841,4.891768335700036,2.9756375205516816,0.4642370554804802,5.744504517149728
5.910213708411902,5.5023416107892995,3.18879075050354,1.9428783184289933,6.649731258670668
5.920238708378747,5.81069511294365,3.418640704751015,3.8842667663097385,7.780669012085403
5.9302627083379775,4.837767544984818,3.6936715096235275,5.303913424015046,8.073332747370195
5.940286708297208,2.5738709476590156,4.182895179390908,5.628208190202713,7.469816006384609
5.950310708256438,-0.3741285386681557,4.625979055166245,5.827608184218407,7.449877282952527
5.960334708215669,-4.339161140620709,5.237179151773453,7.037908149361611,9.787160772711047
5.970359708415344,-6.523452574610711,4.53157868206501,7.842551681399346,11.162269290801081
5.980383708374575,-7.998207485675812,3.297699819803238,9.262078471183777,12.674077666316272
5.990407708333805,-8.052365566492082,2.6253723460435867,9.091167281270028,12.425075199282796
6.000431708293036,-6.546707535982132,1.7438735961914062,6.209805588126183,9.190329707007358
6.010455708252266,-3.996961907744408,0.9872801434993744,2.9882043564319614,5.087218478648909
6.0204797082114965,-1.7359906724095346,0.45636465668678283,1.3653175458312035,2.2552215668355724
6.030504708411172,0.04283757895231247,-0.08315266907215119,1.1790050822496414,1.1827097735771028
6.0405287083704025,0.8573295763134957,-0.25163434088230135,1.1326325690746308,1.4426331413293356
6.050552708329633,1.7219766506552696,-0.3141100859642029,1.2720108944177628,2.1637653401013375
6.060576708288863,2.861422103047371,0.03036283671855927,1.723375597000122,3.3404613157462495
6.070600708248094,4.324701853394509,0.47593645691871644,2.44397534430027,4.990248201775726
6.080625708214939,5.587246105670929,0.6037408035993577,2.9668082249164582,6.354822817883887
6.090649708407,6.601542724370956,0.26956307351589204,2.9374382454156875,7.230599839427517
6.10067370836623,7.526925412416459,-0.22174045085906985,2.7084805762767794,8.002477242935244
6.1106977083254606,7.802303541898728,-0.7242378848791122,2.0913958418369294,8.110141653576243
6.120721708284691,7.195226317048073,-1.4357481354475021,0.8117309421300889,7.381839986371524
6.130746708251536,6.072879585027695,-2.0671942162513735,-0.6933066987991333,6.452428423512269
6.140770708210766,4.948323774933815,-2.604487845897675,-1.9807904952764512,5.932351650667844
6.150794708402827,4.004308934211731,-2.9677320849895477,-2.8855418676137927,5.7591905367539615
6.160818708362058,3.1302165600657466,-3.3059034633636477,-3.5088819533586504,5.748000172633575
6.170842708321288,2.3709614548087123,-3.689528757333756,-3.983396367430687,5.924654191717978
6.180867708288133,1.8264684408903122,-3.8830955690145497,-4.453830594420433,6.184741314514632
6.190891708247364,1.4972908110916616,-3.983106345534325,-4.761501726508141,6.38583703396472
6.200915708206594,3.0960024547576905,-1.573726637363434,-4.676755106449128,5.8252798263011245
6.210939708398655,4.348916927576065,0.602816943526268,-4.905974730849266,6.583696132879427
6.2209637083578855,2.1137677274644378,-3.839024519920349,-7.289761176109314,8.505688759584993
6.23098870832473,0.5541653318703175,-5.499606283307076,-6.312727108597755,8.390666960025442
6.241012708283961,0.5554740849137306,-4.812926818728447,-5.265265667438507,7.155126733339735
6.251036708243191,0.28779220685362816,-4.412215960621834,-4.799212759137154,6.5255587611297
6.261060708202422,0.4315034651756287,-3.596947453022003,-4.381405227184296,5.685150656320193
6.271084708394483,0.5782734020054341,-3.152500006556511,-3.6230529320240024,4.837268750757339
6.281109708361328,0.8579866571724415,-2.2562920010089877,-3.061413835287094,3.898621470287968
6.291133708320558,1.446894244104624,-1.0554955154657364,-2.92302602827549,3.4280686834961984
6.3011577082797885,1.872979825437069,-0.17947853028774263,-2.5369203454256057,3.158517185066894
6.311182250035927,1.8841554625332357,0.5862944662570954,-2.233855065107346,2.9805857578776807
6.321206249995157,1.8513158914446832,1.4259768533706665,-1.943316274881363,3.0392858800190723
6.331231249962002,1.7006028847396375,2.3666663825511933,-1.492509981393814,3.274255027092864
6.3412552499212325,1.4669472701847555,3.220979087948799,-1.0001428484916688,3.677896993649362
6.351279249880463,1.0152744193375112,3.9873256963491444,-0.19715758681297305,4.1192741435069875
6.361303250072524,0.4651738890632987,4.732239920496941,0.36623918294906616,4.769131215571487
6.371327250031754,-0.12826046604663136,5.174339125156403,0.9871158367395402,5.2692156726041155
6.381352249998599,-0.5516512118652463,5.535104144811631,1.5865805715322496,5.784369876090817
6.39137624995783,-0.9593863666802646,5.659750410318375,1.9168862754106522,6.052078147258897
6.40140024991706,-1.4516408675909043,5.598445277810097,2.0597413551807406,6.139412446426452
6.411424249876291,-2.0579120537638667,5.100344365239144,2.05598101079464,5.871590294102735
6.421448250068352,-2.7189011916518213,4.598677235841751,1.5808415293693543,5.57129392066095
6.4314732500351965,-3.40360692858696,4.092794263958931,0.8585063284635545,5.391895596859444
6.441497249994427,-4.1007786369323735,3.5289957904815674,0.5657280546426773,5.439691622708713
6.451521249953657,-4.391809470355511,3.2128812789916994,0.48963122069835663,5.463546034315284
6.461545249912888,-4.322662344574929,3.1245532393455506,0.6341866707801819,5.3712601337215125
6.471569249872118,-4.56706367969513,2.6035978996753695,0.7898822361230851,5.316080005467113
6.481594250071794,-4.723990083932877,2.041700940728188,0.5549118751287461,5.176152261441448
6.491618250031024,-4.780016934871674,1.8296224290132523,0.25554671287536623,5.124586251871438
6.501642249990255,-4.7225975695252425,1.7693744730949403,0.06942808449268341,5.043652851717894
6.511666249949485,-4.236763823032379,1.7559679770469667,0.2437850385904312,4.592714053107476
6.5216902499087155,-3.3473570063710216,1.923186650276184,0.6460366380214692,3.9141805218420602
6.531714249867946,-2.5263330844044685,2.4438086986541747,1.310327113866806,3.7512020679122204
6.5417392500676215,-1.8409536020457746,2.8770335841178896,1.811791929602623,3.866396565951395
6.551763250026852,-1.3569091035425664,2.915715839266777,2.4656357699632645,4.052401870588627
6.561787249986082,-0.8191415570676327,2.517643829584122,3.45509926378727,4.352842090609482
6.571811249945313,-0.08444987386465073,1.8566359806060793,3.703633410930634,4.143806147521688
6.581835249904543,0.5587290836870671,1.1908901327848436,3.0773282021284105,3.3466918532988617
6.591860249871388,0.9428790190815927,0.39251715481281285,2.0037998735904696,2.2490674722755193
6.601884250063449,1.0253914180397987,-0.5452768331766129,0.9905931758880616,1.5264433252187195
6.61190825002268,0.6584746889770031,-1.4353552025556564,-0.028663051128387452,1.5794477022133209
6.62193224998191,0.3357354283332825,-2.4546026587486267,-0.622365939617157,2.554433763668478
6.63195624994114,0.28743523433804513,-3.5044433319568635,-1.1827642571926118,3.7098077266791445
6.641981249907985,-0.34968615397810937,-3.9217152589559556,-2.2703744351863864,4.544967662652825
6.652005249867216,-0.9048430274426937,-4.310906517505646,-2.7988416928052904,5.218828482367426
6.662029250059277,-0.9448303811252118,-4.904593033790588,-2.461840342283249,5.568518218260373
6.672053250018507,-0.9168635872006416,-5.449335431456566,-2.178754413127899,5.939938238297318
6.682077249977738,-0.8866672499477863,-5.753376027345658,-1.713538826107979,6.068255913583835
6.692102249944583,-0.6735396015644074,-5.916659524440766,-1.3019194024801255,6.0955319418066685
6.702126249903813,-0.21428174257278443,-6.091645638942719,-0.809986132979393,6.148995104183186
6.712150249863043,0.20208971321582794,-6.324159584641457,-0.2669294875860214,6.333015557816276
6.7221742500551045,0.6380680525302888,-6.572882596850396,-0.08905543327331543,6.604380920406855
6.732198250014335,1.0591006162762642,-6.706076322197914,-0.36893241047859193,6.799210606977976
6.74222324998118,1.4979160246253014,-6.587625766396523,-0.6861231020092965,6.790532421396095
6.75224724994041,2.1124323695898055,-6.22291387617588,-0.3489279162883759,6.580940534388566
6.762271249899641,2.760920745134354,-5.848862813115121,0.6114193671941758,6.496592430661961
6.772295249858871,3.1070221173763275,-5.604757931828499,0.8694856452941895,6.467062950028613
6.782319250050932,2.8027186891436577,-5.132376582026482,0.24175166934728623,5.852774154180321
6.792344250017777,2.5234796431660653,-4.12868038058281,-0.347927457690239,4.851288974107576
6.8023682499770075,2.772669847905636,-2.9269202739000324,-0.24893263489007952,4.039372207653737
6.812392249936238,3.5853418993949893,-1.4857061612606048,0.4170988494157791,3.903328167519221
6.822416249895468,4.416416600346565,-0.06912636816501617,1.5617737591266634,4.684938774123845
6.832440249854699,4.87420125335455,1.2477572286129,2.5878566104173664,5.657891638750222
6.842465250054374,4.671178032159806,2.387684199213982,3.2698682427406314,6.181664692313243
6.852489250013605,3.5534839296340945,3.2083333146572115,4.327396250367165,6.453449388024895
6.862513249972835,1.863788587152958,4.351908947825432,5.633759536743164,7.358808728701218
6.872537249932066,-0.6480837482213975,6.158361200094223,6.170681283473969,8.742009649831703
6.882561249891296,-4.28061647862196,8.323778699040414,6.28102175116539,11.272098451764052
6.892586249858141,-7.951406956315041,8.965519387722015,6.564769000411034,13.663879482244868
6.902610250050202,-9.858229004144668,6.732993394732476,7.458218289613725,14.076324065863183
6.912634250009432,-9.207499975562095,3.7646362423896793,7.95935975432396,12.739778237325869
6.922658249968663,-5.964259368181229,1.612466779947281,6.358390354514122,8.865752468220016
6.932682249927893,-2.4983176124095916,0.666455699801445,2.91092053771019,3.8934833336148724
6.942707249894738,0.11267730742692948,0.3938158214092255,1.3282944381237032,1.3900191333760734
6.952731249853969,1.7230168703198434,0.07889472663402558,1.3001827794313432,2.1599737899398823
6.96275525004603,2.604461241066456,-0.39386552274227143,1.9892034691572191,3.3007997285399764
6.97277925000526,3.472044202387333,-0.5967422711849213,2.770885570049286,4.482075314389283
6.9828032499644905,4.38124969124794,-0.41144166827201845,3.39279308795929,5.556588705415848
6.9928282499313354,5.486472267508507,-0.2496152973175049,3.8369885194301605,6.699713922029336
7.002852249890566,6.6170863777399065,-0.4243172371387482,3.8968166452646256,7.690972449243044
7.012876250082627,7.465927258729935,-0.9785011339187623,3.3848911607265473,8.255605518173194
7.022900250041857,7.87359045624733,-1.6782771921157837,2.597578775882721,8.45916405463338
7.032924250001088,7.728524544239044,-2.2283312004804614,1.5493127578496935,8.191210019989468
7.042949249967933,6.986907564997673,-2.5941610783338547,0.19939940929412842,7.455622653178662
7.052973249927163,5.78473113656044,-2.872330083847046,-1.0486466717720033,6.543168519538765
7.0629972498863935,4.590265431404114,-2.987720206975937,-2.012399958372116,5.834960356195406
7.073021250078455,3.527347168028355,-3.1408371502161025,-2.6973492318391803,5.439000728670542
7.083045250037685,2.7197925996780397,-3.37896910071373,-3.184493046998978,5.381050077375829
7.0930692499969155,2.0270728151500226,-3.6495653772354126,-3.686821496486664,5.569650293114628
7.10309424996376,1.6069569486379625,-3.8843597370386127,-4.070504677891732,5.851458752673643
7.113118249922991,1.3834186251461507,-4.011010428071022,-4.227432836294175,5.989427362601032
7.123142249882221,1.3012387865781785,-3.997955934405327,-4.32258340716362,6.030058154365385
7.133166250074282,1.3005334661900998,-3.8738856196403506,-4.328613055944443,5.952752983185967
7.143190250033513,1.4003631252050401,-3.6198124051094056,-4.33043270945549,5.815213339314386
7.153215250000358,1.4643357574939728,-3.2121152937412263,-4.120708871483803,5.426067219864406
7.163239249959588,1.6961363428831102,-2.758317564725876,-4.253057674169541,5.345436732516493
7.1732632499188185,1.7077734714746475,-2.228665076494217,-4.1460325777530675,5.007297114097314
7.183287249878049,1.61133212774992,-1.51352195084095,-3.541939187049866,4.175221326631194
7.19331125007011,1.7705553182959557,-0.7417005944252014,-2.793982656598091,3.3898856901505865
7.203336250036955,2.052299603819847,0.18309678733348847,-2.0522557497024536,2.9081285665454555
7.213360249996185,2.016584810614586,0.9527383017539979,-1.5682238227128984,2.726472176303073
7.223384249955416,1.7932749670743944,1.6328069043159485,-1.4426080888509751,2.8218808607621555
7.233408249914646,1.5544904673099518,2.3000233268737795,-1.3069871842861176,3.068348646586498
7.243432249873877,1.325100104212761,2.9146300113201145,-1.0822202146053315,3.379668472198563
7.253457250073552,1.1796932995319367,3.4975658369064333,-0.648115907907486,3.7476255542060617
7.2634812500327826,1.0578057503700258,4.1614405757188795,-0.5401891708374024,4.3276257937864
7.273505249992013,0.8385296085476875,4.683782874941826,-0.5385466879606248,4.788630958752493
7.283529249951243,0.5141886493563652,4.936787803173066,-0.22913133144378664,4.968779019813064
7.293553249910474,0.19303628649562599,5.120637711882591,-0.15070262789726258,5.126490501923644
7.303578249877319,-0.15278208050876857,5.194790346622467,-0.16168077528476715,5.199550921241491
7.313602083362639,-0.7538123707473279,5.091998634338379,0.16772621154785158,5.150224778049578
7.323626083321869,-1.5042362800240519,4.956395271420479,0.5870388168096543,5.212791521357933
7.3336500832811,-2.3409291319549084,4.842941161394119,0.976435312628746,5.466941943473424
7.34367408324033,-3.0575067257881168,4.6308234733343125,1.0392361629009248,5.6456076042977585
7.353699083207175,-3.494921141266823,4.30425355553627,0.6461184990406037,5.58198365895341
7.363723083399236,-3.8413596054911614,3.7408380746841434,0.024174143671989442,5.361949040127858
7.373747083358467,-3.9720209017395973,3.2144150036573413,-0.4213486057519913,5.127079920106845
7.383771083317697,-4.105591187775135,3.0616442155838013,-0.348133864402771,5.1332973312967765
7.3937950832769275,-4.259810038805008,2.7437889879941944,-0.05047141134738922,5.067238591255155
7.403820083243772,-4.3680674359202385,1.9484249871969224,-0.20190669536590578,4.78718491068746
7.413844083203003,-4.33420416355133,1.3182910215854646,-0.7773042905330658,4.596457212791135
7.423868083395064,-4.025184663534165,0.8941375064849854,-1.1252030968666078,4.274070128724146
7.433892083354294,-3.61212740957737,0.9105348533391953,-1.2703222185373306,3.9357663397456863
7.443916083313525,-3.1378726118803026,1.3056516802310945,-0.9192460352182389,3.52079310834125
7.453940083272755,-2.6654605641961098,1.9511696702241899,-0.1077092206478119,3.305048316969054
7.4639650832396,-2.433207989037037,2.687833473086357,0.8058106362819673,3.7140652496290745
7.4739890831988305,-2.238659722208977,3.1423100638389587,1.6491849553585054,4.195893338268409
7.4840130833908916,-1.9004088217020036,3.1415680521726608,2.414905326962471,4.394629819930962
7.494037083350122,-1.1861063063889743,2.5568423938751224,3.6339346003532413,4.598888113100517
7.504061083309352,-0.20909496992826462,1.6227116864919664,4.159476495981217,4.469693350169235
7.514086083276197,0.15226909697055818,0.7955996435880661,2.567401295900345,2.692157886335877
7.524110083235428,0.5446932810544968,-0.34364320278167726,1.5047797787189485,1.636808969820672
7.534134083194658,0.7129035689681769,-1.6092911571264268,0.5906535655260087,1.856588581652237
7.544158083386719,0.7947503355145454,-2.7491918152570727,-0.08938229262828827,2.8631578592722495
7.55418208334595,0.698530455082655,-3.603660056591034,-0.7087404245138169,3.7385322774436096
7.564207083312795,0.43358785137534145,-4.219056115150452,-0.9906300133466721,4.355431178539265
7.574231083272025,0.1474720412492752,-4.729923838376999,-1.2043539315462113,4.883072384496061
7.584255083231255,-0.18123751893639564,-5.279997727274895,-1.4484699225425721,5.478073398085203
7.594279083190486,-0.1661802077293396,-5.70400915503502,-1.199209551215172,5.831075359647651
7.604303083382547,0.0034038104116916657,-6.021390758156777,-0.9476313436031342,6.095503540456707
7.614328083349392,-0.07693707883358002,-6.019828382134438,-0.7802629816532135,6.070672399741987
7.624352083308622,-0.411141267567873,-5.676486310958863,-0.6721383163332939,5.730907772481078
7.634376083267853,-0.2771764406561852,-5.502691274285317,-0.6072543954849243,5.543031295255905
7.644400083227083,0.13177957624197006,-5.605112273097038,0.04302176624536515,5.6068262255137205
7.6544240831863135,0.841499409377575,-5.856071845293045,0.688500579893589,5.95615075042015
7.664449083385989,1.6370815113186836,-5.940533705949783,1.1242301201820375,6.2636945925988
7.6744730833452195,2.2947178557515144,-5.8031685769557955,1.3395506206154824,6.38254584278588
7.68449708330445,2.713983098566532,-5.522034448385239,1.1520616972446442,6.259857415526034
7.69452108326368,2.779789710044861,-5.062554979920388,0.5574948826432229,5.802369714259976
7.704545083222911,2.5251791363954545,-4.343487787842751,-0.11907006829977036,5.025593847018571
7.714570083189756,2.4410739558935166,-3.373915352225304,-0.2647297650575638,4.17279626996462
7.724594083381817,2.7579304790496826,-2.237142369747162,0.25343586802482604,3.5602269940258946
7.734618083341047,3.1804514515399935,-0.9304990017414093,0.9638409948348999,3.4510997219971693
7.744642083300278,3.429747198522091,0.33766559422016146,1.7409736695885658,3.8611103606981843
7.754666083259508,3.483171161413193,1.3694465571641923,2.648157483637333,4.5848231449832175
7.764691083226353,3.199316908121109,2.272515100836754,3.4425236570835116,5.220241631543537
7.774715083185583,2.418355768918991,3.4130864346027376,4.053084653019905,5.8245256321591095
7.784739083377644,1.3792174006998539,4.451301088929177,4.80351981818676,6.692542466537534
7.794763083336875,-0.7230022220313549,5.023545865416527,5.446559758186341,7.444713458186326
7.804787083296105,-2.9670476683974267,4.769053405523301,5.685448338389397,7.991968784959733
7.81481208326295,-4.948665837049485,4.43619246840477,5.299845516085625,8.500438793255606
7.824836083222181,-6.34381149172783,4.214967157244683,5.464218349456788,9.373770562040104
7.834860083414242,-6.418083994388581,3.5474484336376193,5.3210352408885955,9.060331593442
7.844884083373472,-4.711151060163975,2.4631050950288773,4.090963500738144,6.708040949875981
7.8549080833327025,-1.932251588702202,1.514192626476288,2.236957597732544,3.3211977969056132
7.864933083299547,0.3391158498823643,0.8054065936803818,1.184441238641739,1.471930836887539
7.874957083258778,1.783306341469288,0.3582834613323212,0.8926113831996918,2.0261548873683157
7.884981083218008,2.4843582621216775,0.2689420992136002,0.9929548662900926,2.688926401705862
7.895005083410069,2.766320941150189,0.4782794362306595,1.165534851551056,3.0396964089769436
7.9050290833693,2.997293853163719,0.9863451737165452,1.4780743753910066,3.484444159850241
7.915054083336145,3.264225679636002,1.5061907118558884,2.0396567541360855,4.133277080328516
7.925078083295375,3.4127089968323707,1.783251085281372,2.258437344431877,4.463978759911645
7.9351020832546055,3.476353892683983,1.5934919804334642,1.975853106379509,4.304445211275711
7.945126083213836,3.8974937528371814,1.1172163850069046,1.839253962635994,4.452132651146521
7.955150083405897,4.355394473075867,0.35038621187210084,1.3550466191768646,4.574754950127114
7.965175083372742,4.46069990336895,-0.5690165287256241,0.693958078622818,4.550077060090807
7.975199083331972,4.228663382828236,-1.5770589655637741,0.13984376370906831,4.515336672318659
7.985223083291203,3.9750927364826203,-2.4164004600048066,-0.5366399109363557,4.6827701033424765
7.995247083250433,3.6260505071282387,-3.101310557126999,-1.3099061143398285,4.947951442807134
8.005271083209664,3.2938848039507866,-3.625333930850029,-2.010061656832695,5.2946266229205845
8.01529608340934,3.0482356730103493,-3.9705781012773516,-2.6427350682020188,5.660501728403662
8.02532008336857,2.856278892159462,-4.167300655245781,-3.222228637933731,5.992285144761376
8.0353440833278,2.6792254945635796,-4.251790582537652,-3.7679779261350634,6.281212467375738
8.04536808328703,2.470232266187668,-4.1992995429039,-4.269243936538697,6.4778551920848
8.05539208324626,2.2276562856137754,-4.0462673842906955,-4.750558662414551,6.625899174983812
8.065417083213106,2.0768959164619445,-3.840979828834534,-5.134290960431099,6.739997504427918
8.075441083405167,1.9215845131874085,-3.5599702459573748,-5.2739020049572,6.646797541020418
8.085465083364397,1.9548516619205476,-3.13839944601059,-5.021926771402359,6.2362444307580525
8.095489083323628,2.0638349908590317,-2.5837454330921172,-4.535009243488312,5.612616517368963
8.105513083282858,2.134939472079277,-1.9331894820928575,-3.986776058077812,4.918289485215267
8.115537083242089,2.1466154846549035,-1.2065793818235397,-3.348379392027855,4.156372985736327
8.125562083208933,2.079958688020706,-0.4422512322664261,-2.6487120920419693,3.3966880991405928
8.135586083400995,1.802385806143284,0.3205847078561783,-1.8890745788812637,2.6305839491780967
8.145610083360225,1.4654420506954193,1.1322665333747863,-1.111485528945923,2.1598490659310317
8.155634083319455,1.0505733293294908,1.975501688718796,-0.48538321852684024,2.2895213716531977
8.165658083278686,0.6891230159997941,2.8283911818265914,0.27563540697097777,2.9241515156009155
8.17568308324553,0.3303167770430446,3.545801857709885,0.6885499888658524,3.627109189768367
8.185707083204761,-0.0616052408516407,4.074454472064972,0.4727111327648163,4.102246977653885
8.195731083396822,-0.4826815125346184,4.201797473430633,0.3036587727069855,4.240317452799102
8.205755083356053,-0.7877520954608918,4.195371968150139,0.08499571144580842,4.269534352362934
8.215779083315283,-1.0971811929345132,4.1435861027240755,-0.11797517716884613,4.288010086653869
8.225804083282128,-1.5289520220458508,4.107181922793389,-0.20390761256217957,4.3872788772882565
8.235828083241358,-2.199739923924208,3.9951317292451862,-0.1993198871612549,4.565047829360136
8.245852083200589,-2.8926851186156273,3.8444934207201005,-0.1688699269294739,4.814174270800924
8.25587608339265,-3.4376856708526615,3.689774340391159,-0.18943692326545716,5.046583379128003
8.26590008335188,-3.7913507089018825,3.4933160805702212,-0.27256971180439,5.162547015229443
8.275925083318725,-4.133766581118107,3.3074757796525955,-0.325808025598526,5.30410907219128
8.285949083277956,-4.311124618649483,3.2993458110094074,-0.10661286771297455,5.429810729824103
8.295973083237186,-4.214760458171368,3.631083498001099,0.20707154095172883,5.567032576902433
8.305997083196416,-4.264071489572525,3.804189732670784,0.5204776221513748,5.738036436404305
8.316021708305925,-4.353581251502037,3.5015454518795015,0.5306570398807526,5.612137485752026
8.32604670827277,-4.394797105193138,2.843881625533104,0.19135130167007447,5.238179036316879
8.336070708232,-4.214963648915291,1.987244651913643,-0.33161255657672883,4.6717263143206536
8.346094708191231,-3.723996339440346,1.131409331560135,-0.6665603649616242,3.9487388533358625
8.356118708383292,-3.081225371360779,0.46040040493011475,-0.7517209678888321,3.2048405163971743
8.366142708342522,-2.4522905234992507,0.18282021403312684,-0.7152787810564042,2.5610106944198576
8.376167708309367,-1.944956126511097,0.10397694289684296,-0.7180059224367142,2.075860795757129
8.386191708268598,-1.6653282406926155,0.22062129378318787,-0.35863312482833865,1.7177338626059242
8.396215708227828,-1.3611385408043861,0.5742217200994492,0.1607586693763733,1.4860255922684258
8.406239708187059,-1.0974144968390465,0.9713850724697114,0.6579848384857178,1.6065029052468471
8.41626370837912,-0.7817049781233073,1.3782308292388916,1.1183881670236588,1.9394264573903859
8.426288708345965,-0.5073957196623087,1.6891769868135453,1.7893175715208054,2.5124543141846845
8.436312708305195,-0.19997163243591787,1.6423823046684265,3.268981220126152,3.6638294864805765
8.446336708264425,0.051114824339747435,1.2208366477489472,3.2189144361019135,3.44303136678995
8.456360708223656,0.023510192334651948,0.5738165080547333,2.1383957612514495,2.214171300012243
8.466384708415717,0.1659759206324816,-0.3661479663848877,1.2767056238651275,1.3385027416955235
8.476409708382562,0.18625969246029855,-1.4430612480640412,-0.1810637104511261,1.4662545842867407
8.486433708341792,0.3433068417012692,-2.4964932811260225,-1.0966540664434434,2.748270079834443
8.496457708301023,0.5330615611374379,-3.32516419172287,-1.5285229825973512,3.6982771716309464
8.506481708260253,0.5249846559762955,-4.0375678968429565,-1.6473664712905884,4.392195316850084
8.516505708219483,0.48968443036079407,-4.487370223402977,-1.8182010626792908,4.866429642720582
8.526530708186328,0.3081392017006874,-4.60803979754448,-1.8384300899505617,4.970795282348101
8.53655470837839,0.21861511409282686,-4.625520048737526,-1.8596911507844927,4.990158260585408
8.54657870833762,0.2521681916713715,-4.702226747274399,-1.7891304606199265,5.03741133766061
8.55660270829685,0.3439950589835644,-4.580231024622917,-1.4978297781944276,4.8311844183356705
8.56662670825608,0.5530110915005207,-4.435225923657417,-1.1552218249440194,4.616447522287281
8.576651708222926,0.7801305422186852,-4.299203900098801,-0.894841803610325,4.46010086108103
8.586675708414987,1.0746936786174774,-4.345943033695221,-0.7463736891746522,4.538640880139843
8.596699708374217,1.3567759332060814,-4.600352463126183,-0.46467033416032794,4.818713753416677
8.606723708333448,1.6604753440618516,-4.864483473300934,0.1620555818080902,5.1426296621330225
8.616747708292678,1.9949544981122018,-4.941927505731583,1.0713803538680078,5.43602306692115
8.626772708259523,2.1350587552785876,-4.721194530129433,1.7558188730478288,5.470928037798229
8.636796708218753,2.207997215688229,-4.142589737176896,2.023968382179737,5.1120200945529914
8.646820708410814,1.9420480138063432,-3.414173431992531,2.012860134243965,4.413585462147692
8.656844708370045,1.3933341872692109,-2.5759230279922485,2.2084459894895554,3.667968551125597
8.666868708329275,0.9010755202174188,-1.5359466075897217,2.5966920456290246,3.148631235050322
8.676892708288506,0.6258535113930702,-0.42079078137874604,3.0280092769861224,3.1205124067900116
8.68691770825535,0.6085977932810783,0.7286630576848984,3.277041022181511,3.4117941008627333
8.696941708214581,0.4568093374371529,1.8061230540275575,3.00104864269495,3.5322865417291394
8.706965708406642,0.16189025178551675,2.338570511341095,3.092174575030804,3.8802917535417696
8.716989708365873,-0.1927271515130997,2.1428273659944534,3.853353121876717,4.413296178284676
8.727013708325103,-1.0598551994562149,1.9446804302930834,4.451259573698044,4.9717991524414735
8.737038708291948,-1.936324905306101,2.1500153481960296,4.9838116961717605,5.762837769648353
8.747062708251178,-2.96095516204834,2.455714799165726,4.936634021401406,6.258445981852051
8.757086708210409,-3.578546850085259,2.7819613659381868,4.5714426594972615,6.437654432236883
8.76711070840247,-3.147757329940796,2.864018266797066,3.4219595843553545,5.460840982642211
8.7771347083617,-1.3899467490613462,1.955251026749611,1.4649140471220017,2.8108596030906585
8.787159708328545,0.7894233758747579,1.4307598757743836,0.028876474499702456,1.6343490873381246
8.797183708287776,2.0777237360179424,1.6394867634773256,-0.3083230966329575,2.6645667382797993
8.807207708247006,2.827076143026352,1.9430250835418703,0.03127558708190918,3.430551581901803
8.817231708206236,3.0376636147499085,2.3761119747161867,0.7510292422771454,3.9290397396209316
8.827255708398297,3.054866123199463,2.875781110525131,1.4457568144798278,4.437627383291631
8.837280708365142,3.1319505518674853,3.3262049961090088,2.435478755235672,5.177287967912146
8.847304708324373,3.232583472132683,3.789475214481354,2.949170098900795,5.788550991200166
8.857328708283603,3.373767710030079,3.9093928366899493,2.6653433275222778,5.811171651773145
8.867352708242834,3.6171127456426624,3.6369751524925236,1.8295288735628128,5.445940577507124
8.877376708202064,4.085136750340462,3.2619575446844102,0.8903368163108826,5.30296227959283
8.887400708394125,4.293038595914841,2.668805463910103,0.1334293681383133,5.056728822716587
8.89742570836097,4.097803573608399,1.748487049341202,-0.3223131448030472,4.466887826317614
8.9074497083202,3.829850823283196,0.8090780603885651,-0.8537221366167069,4.006395652323231
8.91747370827943,3.5255026638507845,-0.134595302939415,-1.508499192595482,3.837037234957924
8.927497708238661,3.140730730891228,-0.9656296581029893,-2.1082013243436815,3.9039906486231617
8.937521708197892,2.7958069878816607,-1.6060108691453934,-2.741720827817917,4.232356403115365
8.947546708397567,2.5561097377538684,-2.087802143096924,-3.2931097555160522,4.662315587992222
8.957570708356798,2.3895506304502487,-2.4028273183107376,-3.835577586293221,5.118123362872419
8.967594708316028,2.259085508286953,-2.5947925776243213,-4.283631595373154,5.494171047530787
8.977618708275259,2.2051700869202615,-2.655602450966835,-4.624785053730011,5.770930278822771
8.987642708234489,2.169710378497839,-2.5935944831371307,-4.867974261045457,5.927187265113331
8.997667708201334,2.0347762294113636,-2.4583168101310733,-4.9524992716312415,5.891594425811957
9.007691708393395,1.8439612635970117,-2.305983978509903,-4.834442818164826,5.664767657450402
9.017715708352625,1.6712163868546486,-2.1381729823350906,-4.54499921143055,5.2935588922749846
9.027739708311856,1.4723088745772839,-1.9578126919269563,-4.165490942001343,4.832394721742475
9.037763708271086,1.24578905582428,-1.804032674431801,-3.7681679606437686,4.359542870720659
9.047788708237931,1.0221258211880924,-1.5885966914892198,-3.442197967171669,3.926462464834052
9.057812708197162,0.8001363520324231,-1.267524910569191,-3.218543137907982,3.550472857427831
9.067836708389223,0.5947559720277786,-0.7999470484256744,-2.9450361174345017,3.1091618934274456
9.077860708348453,0.37445846781134606,-0.13940580725669863,-2.5490579956769945,2.580184060980404
9.087884708307683,0.2730841936916113,0.6506454133987427,-2.196211275458336,2.3067852950093446
9.097909708274528,0.10598005279898644,1.3291107094287873,-1.8549987602233888,2.284466556975584
9.107933708233759,-0.1637789024412632,1.8132578265666963,-1.4621652710437776,2.3350920226699348
9.11795770819299,-0.4514526300877333,2.05339771091938,-1.236657459139824,2.4391747185612287
9.12798170838505,-0.6791501511633397,2.2692090851068496,-1.0461662828922271,2.5894050844194294
9.13800570834428,-0.8844609493017197,2.500096335411072,-0.6642080301046371,2.7338480507210074
9.148029708303511,-1.13692157484591,2.7703704303503036,-0.25448778212070466,3.0053796798338386
9.158054708270356,-1.4649317349493505,2.9635577577352525,0.11354181826114655,3.307807629834081
9.168078708229586,-1.940792178064585,3.0516981017589573,0.46405374526977544,3.6462146756896807
9.178102708188817,-2.55699705272913,2.8821627616882326,0.656676231622696,3.9084932884304635
9.188126708380878,-3.264762454032898,2.489273723959923,0.6123414731025696,4.150917926644857
9.198150708340108,-3.8125915968418123,2.050775234699249,0.39192366242408755,4.346853793806789
9.208175708306953,-3.935775473713875,1.985622634291649,0.29140300869941715,4.417911445330028
9.218199708266184,-3.8801184591650966,2.518363037109375,0.45747679710388184,4.648306859892203
9.228223708225414,-3.751212204694748,3.5976941424608233,0.848401170372963,5.266382125637862
9.238247708184645,-3.6530854010581972,4.487051550149918,1.3275074028968812,5.936408044084683
9.248271708376706,-3.5227404391765598,4.657890234589577,1.6193612319231034,6.0603607515353675
9.25829670834355,-2.9790265667438507,4.513256431818009,1.745198575258255,5.68241154544404
9.268320708302781,-2.4188381642103196,3.8311991912126544,1.9263932633399965,4.923398857743558
9.278344708262011,-2.255139807164669,2.6361972963809968,1.740228441953659,3.8811836809779616
9.288368708221242,-2.138787232339382,1.7170611888170244,1.5023958688974381,3.1272836932775667
9.298392708413303,-1.7768635869026186,1.4727697813510896,1.8727731263637544,2.9721329408610995
9.308416708372533,-0.952465382963419,1.4178995096683502,2.672558791637421,3.171781805235012
9.31844100006856,-0.22036109268665316,1.365365200638771,2.918744112253189,3.229837199472764
9.32846500002779,0.2507031717896462,1.178650740981102,2.829572904109955,3.075475974419884
9.338488999987021,0.5828612735867501,0.838223506808281,2.491317910552025,2.692398715467389
9.348512999946252,0.7300437314808369,0.44536955237388615,2.298926389217377,2.452831105293682
9.358536999905482,0.7482034291327,-0.12616186380386354,1.9329216796159745,2.0765142442983233
9.368561999872327,0.795068131685257,-1.0290029507875442,1.2762647438049317,1.8220406425298055
9.378586000064388,0.8821945685148239,-2.085388412475586,0.6602816247940064,2.3586190687868855
9.388610000023618,0.8676769553124906,-2.9598634868860247,0.42193800508975987,3.113147416991456
9.398633999982849,0.7853130756318569,-3.5927386271953585,0.04307351410388947,3.6778176678184056
9.40865799994208,0.710017748773098,-4.085123886466026,-0.4403538107872009,4.169685102021845
9.418682999908924,0.6649061876535416,-4.355752907395363,-0.9135514318943024,4.499917760068428
9.428706999868155,0.7553982818126679,-4.541953981518746,-1.268539987206459,4.775894286261085
9.438731000060216,0.9415389834344388,-4.682124019861222,-1.442289123237133,4.988885537842726
9.448755000019446,1.186314247995615,-4.852869733572007,-1.4562686464190484,5.203691431720352
9.458778999978676,1.347077448964119,-4.848798317313195,-1.48857538998127,5.247982418715295
9.468803999945521,1.2562927016615868,-4.93268481194973,-1.3960964119434358,5.278137550095587
9.478827999904752,1.0790203258395195,-4.89386748611927,-0.9843378245830536,5.107166023165398
9.488851999863982,1.0563661658763885,-4.6144243723154075,-0.2915029960870743,4.742762460945579
9.498876000056043,1.097705980539322,-4.346541203856469,0.28134579777717594,4.491829729014748
9.508900000015274,1.3494423553347588,-4.0730353528261185,0.6829202896356583,4.34476602105785
9.518924999982119,1.5884996277093888,-3.657721073627472,0.7747303462028504,4.062322196603682
9.528948999941349,1.342927680015564,-2.898864163756371,0.902212218940258,3.319767323423136
9.53897299990058,0.8897170114517212,-1.8745518493652344,1.1148503091931343,2.3555110291257884
9.54899699985981,0.6607903325557709,-0.8587057185173035,1.6922955992817879,2.0094486233696025
9.559021000051871,0.4862816432118416,-0.0909768283367157,2.5937500190734863,2.640508621698238
9.569045000011101,0.372149256169796,0.2633223402500153,2.9629338598251342,2.9978009909666694
9.579069999977946,0.16943096727132798,0.017607720494270326,2.828627409338951,2.833751913163022
9.589093999937177,-0.14632540225982668,-0.21247202932834627,2.62771532535553,2.6403490901207975
9.599117999896407,-0.4893221953511238,0.05948372483253479,2.3380074244737625,2.3894043695610905
9.609141999855638,-0.8519815666973591,0.3125646668672562,2.04382874250412,2.2362480161314617
9.619166000047699,-1.1962492521107198,0.30093221604824066,2.1026453000307086,2.4377632636440296
9.629191000014544,-1.4359738379716873,0.2812598437070847,2.0678432571887972,2.5332002880393105
9.639214999973774,-1.429374378025532,0.7357791191339493,1.619564130306244,2.2819881675600397
9.649238999933004,-0.8740787793695927,1.801711329817772,1.0938012099266052,2.2817928291970038
9.659262999892235,-0.017038932591676714,2.467270066738129,0.5548820543289185,2.528953538850035
9.669286999851465,0.8615202757716179,2.553911769390106,0.12407967031002046,2.698162018111431
9.679311000043526,1.2448057003319264,2.761883781552315,0.21863148629665377,3.03732497128326
9.689336000010371,1.14487839281559,3.26214699447155,0.8168741530179978,3.5524122691130104
9.699359999969602,0.9293004687130452,3.792193585038185,1.3770748347043993,4.140128820209728
9.709383999928832,1.0153966992348433,4.221535334587097,1.6534072297811508,4.646089377689261
9.719407999888062,1.5428580164909365,4.367566621899605,1.7120624041557313,4.938340483553698
9.729432000080124,2.2828788520395755,4.304970424175263,1.6050858396291734,5.1303612698026795
9.739457000046968,2.7316127461194992,4.076565316915512,1.1313110983371735,5.035867132784764
9.749481000006199,2.8246363922953606,3.7329595363140107,0.4240260457992554,4.700356979629655
9.75950499996543,2.8303385969996455,3.416686565279961,-0.03004416346549988,4.436830660594208
9.76952899992466,2.7782325965166095,3.0640696406364443,-0.1864109891653061,4.14027151040834
9.77955299988389,2.7517157658934597,2.4333801895380023,-0.4297498852014542,3.6983731243525573
9.789577999850735,2.5222233688831333,1.5819741350412369,-0.8400349742174149,3.093527378962097
9.799602000042796,2.1687738007307056,0.6645220255851746,-1.3385580557584764,2.6338008637441908
9.809626000002027,1.7793167862296104,-0.13421874225139618,-1.9805805802345278,2.665836141125736
9.819649999961257,1.528551049232483,-0.7165037727355957,-2.7246504664421085,3.2052404169948416
9.829673999920487,1.3166909310221673,-1.2157788062095642,-3.2794576764106753,3.737196243821467
9.839697999879718,1.2018430640548468,-1.6687696194648745,-3.560833294987679,4.112025358404115
9.849723000079393,1.1114715687185526,-2.0686934423446655,-3.710605630874634,4.391293175631529
9.859747000038624,0.9610903915017843,-2.4224277698993686,-3.802939597964287,4.610227828077638
9.869770999997854,0.8176018390059472,-2.6280842846632004,-3.9500801020860674,4.814398465783225
9.879794999957085,0.7460575009882451,-2.670328078866005,-4.0875101351737975,4.939128764135386
9.889818999916315,0.415926848128438,-2.821093271970749,-4.239825425148011,5.10956769481374
9.89984399988316,0.23868626654148103,-2.7563388669490814,-4.114741787910462,4.958374236023965
9.909868000075221,0.2350354112684727,-2.542805567979813,-3.962156356573105,4.713786672626577
9.919892000034451,0.008794139251112939,-2.3585019153356552,-3.766641837358475,4.444119637505987
9.929915999993682,-0.06553383886814118,-2.0502016228437423,-3.4197756493091584,3.9877922300385444
9.939939999952912,-0.07844873026013374,-1.5460295462608338,-3.0693508458137515,3.4376265323459
9.949964999919757,-0.15123077765107157,-0.9802441889047623,-2.7009189569950105,2.8772752093335665
9.959988999878988,-0.21265036940574647,-0.36728174149990084,-2.3228771692514423,2.3613289480030506
9.970013000071049,-0.19723038464784623,0.21947523951530457,-1.8585433423519135,1.8818216070577094
9.98003700003028,-0.2702714636921883,0.7071762943267823,-1.3080443608760834,1.5113322021858064
9.99006099998951,-0.36519523568451406,1.128867546916008,-0.8459757453203202,1.45718374281252
10.00008499994874,-0.5392346859723329,1.5270126467943193,-0.5059572315216064,1.6966244104557973
10.010109999915585,-0.7565457978844643,1.8480879360437394,-0.0906967467069626,1.9990038678077329
10.020133999874815,-0.9926084918528796,1.9861781197786332,0.38068999171257023,2.252798262467359
10.030158000066876,-1.2284675565361978,1.9651743364334107,0.6387381434440613,2.4039611323665113
10.040182000026107,-1.4458611872792244,1.8060119569301607,0.6393357288837433,2.4001966452110763
10.050205999985337,-1.6927474428713323,1.5645044088363649,0.4633567571640015,2.3511204637417875
10.060230999952182,-1.954665720462799,1.3510237348079681,0.2264369344711304,2.386892728226283
10.070254999911413,-2.4491263027489185,1.1565441727638246,0.5360429102182389,2.7610063513084837
10.080278999870643,-3.2258293533325197,1.0742007583379747,1.3330382841825485,3.6519684217051953
10.090303000062704,-3.763520301282406,1.2258307546377183,2.618531688451767,4.745888146659859
10.100327000021935,-3.3810191345214844,2.3374051612615587,3.527746825218201,5.4166180351516084
10.11035199998878,-2.5353398430347442,3.8236592066287995,3.914550080895424,6.030922001149989
10.12037599994801,-1.7940612713992596,4.771803351044655,3.8300274091959,6.37635264251967
10.13039999990724,-1.5599710625410081,4.757175371646881,3.432550646066666,6.070142598850677
10.14042399986647,-0.9696905493736268,3.993084619045258,3.061494526863098,5.124233920735181
10.150448000058532,-0.681077247262001,3.084638391137123,2.744378972053528,4.184552086312773
10.160473000025377,-0.7073663288354874,2.2659913623332977,2.472570567727089,3.427636093538748
10.170496999984607,-0.6793531957268715,1.7922359168529511,2.032292186021805,2.7935357301397343
10.180520999943838,-0.5797290663421154,1.5927534770965577,1.2368732213973999,2.0982861565990127
10.190544999903068,-0.10853499367833139,1.414394103884697,0.787811737060547,1.622633001946807
10.200568999862298,0.23362053126096727,1.2696568053960802,0.4731806641817093,1.3749570528095343
10.21059300005436,0.5082582570612431,0.9608144760131836,0.363400359749794,1.1461024101945256
10.220618000021204,0.7692246079444885,0.4637637233734131,0.305402997136116,0.9487119052927744
10.230641999980435,1.0851625335216524,-0.2552338868379593,0.49056735992431644,1.2179402266830082
10.240665999939665,1.4023456236720087,-1.0146848738193512,0.8382989358901978,1.9232534277376099
10.250689999898896,1.7633607579767705,-1.8140477854013444,1.0872336173057557,2.7535953713448333
10.260713999858126,2.1770862025022506,-2.6771044170856477,1.4157108968496324,3.7297224744696416
10.270739000057802,2.4649001902341845,-3.5984186124801636,1.1656909722089768,4.5147740697790955
10.280763000017032,2.418242625296116,-4.451166018247605,0.5402184069156647,5.0943706425791
10.290786999976262,2.275971682369709,-5.109788203239441,-0.17462768018245697,5.596470084580071
10.300810999935493,2.1212088941037655,-5.586749677062035,-0.6905661088228227,6.015661283452748
10.310834999894723,2.1483750580251217,-5.9539086270332335,-0.989994421005249,6.406608485199226
10.320859833387658,2.188894508332014,-6.132995393872261,-1.41751944065094,6.6644019262412275
10.330883833346888,2.1836464861035347,-6.287398139834404,-1.8518512040376665,6.908620718128995
10.340907833306119,2.2679852628707886,-6.324499307870865,-2.045872344374657,7.023435220555194
10.35093183326535,2.308819001019001,-6.210016087889672,-2.271597672700882,7.003934678302975
10.36095583322458,2.20597232490778,-5.807846349477768,-2.500514411330223,6.697011679747274
10.37097983341664,1.7209031018614769,-5.012535558342934,-2.8034025210142137,5.995505475310452
10.381004833383486,1.1692785313725471,-4.205267211198807,-2.5784844008088115,5.069523291861564
10.391028833342716,0.4249124836921692,-2.815343120098114,-2.068981125354767,3.5195724740024192
10.401052833301947,-0.10179359257221222,-1.939678722023964,-1.630595487356186,2.5360514828267258
10.411076833261177,-0.15192820429801943,-1.8950077486038208,-1.1176847469806672,2.2053017344941668
10.421100833220407,-0.12009625464677812,-1.8315713059902192,-0.716290934085846,1.9703170459498327
10.431125833187252,0.022680764794349672,-1.5035951328277588,-0.4862760883569718,1.5804357546774055
10.441149833379313,0.3624393698573113,-1.0871967798471451,-0.08411453604698181,1.149101557786328
10.451173833338544,0.8586472463607788,-0.5657900351285935,0.5357259911298752,1.1594808299863566
10.461197833297774,1.4002982211112978,0.10765250265598297,1.1672112482786179,1.8261451934289592
10.471221833257005,1.3173689156770707,0.9741747790575028,1.8001062691211702,2.434103518807952
10.48124683322385,0.2924993616342545,2.0337779635190967,2.2914203184843065,3.0777289934974865
10.49127083341591,-0.4603802320361138,3.075496854186058,3.0555186724662784,4.3596817792068325
10.501294833375141,-1.3820297652482987,3.623870957493782,4.003245910406113,5.573905704959713
10.511318833334371,-2.750633446276188,3.739599049687386,4.978376124501229,6.806968065534015
10.521342833293602,-4.138093813061714,3.1798374938964846,5.967839033603669,7.927817456544587
10.531366833252832,-6.73794890999794,2.5700565165281297,6.275692014098167,9.559783275143149
10.541391833219677,-8.725581232309342,2.303031719326973,6.350497782826424,11.034878568953012
10.551415833411738,-10.049335892200471,1.662302014231682,6.437009092569352,12.049376992965563
10.561439833370969,-9.857265383005142,1.05137790620327,5.752129985690117,11.461155077256361
10.5714638333302,-7.328442846536637,0.7930590283870698,4.920040208101272,8.862381893531415
10.58148783328943,-3.182226081490517,1.2505358254909515,4.4564980942010886,5.617007917759487
10.591512833256274,0.12928252279758454,1.9882638216018678,2.9981785368919374,3.599858543619631
10.601536833215505,1.3835472638905049,1.7596289187669756,1.1739899253845216,2.5275975368092705
10.611560833407566,1.8912509125471115,1.0269429767131806,0.2761751049757004,2.169726844614121
10.621584833366796,2.2112364269793034,0.6260777521133423,0.3048691463470459,2.3182935715922324
10.631608833326027,2.3815855532884598,0.6171964162588119,0.5913411980867386,2.5303291438920903
10.641633833292872,2.5129122626781464,0.8693219232559205,1.1238143831491472,2.886764177057848
10.651657833252102,2.9273026818037033,1.3495899975299837,1.834439949989319,3.7088629096321353
10.661681833211333,3.520785422623158,1.5419154453277588,2.542588051557541,4.60849077601542
10.671705833403394,3.9492743557691576,1.0842480289936067,2.8090772438049316,4.966213516067864
10.681729833362624,4.41916099101305,0.2222608530521393,2.2460827624797823,4.96218414886023
10.691754833329469,4.931698386669159,-0.8663041752576829,1.6862481164932253,5.283518203954731
10.7017788332887,5.976063727140427,-1.6900277566909792,1.6857826781272889,6.4351685857562035
10.71180283324793,7.02659495651722,-2.2159210699796676,1.5276435613632202,7.524429395104161
10.72182683320716,7.489457623958588,-2.5575902527570724,0.8801959902048111,7.962913310041874
10.731850833399221,6.8632699441909795,-2.847770023941994,-0.2827391892671585,7.43600765769141
10.741874833358452,5.2390397357940675,-3.1147223156690598,-1.5960437053442003,6.300506961056772
10.751899833325297,3.5411454275250436,-3.5605426883697513,-2.6375713920593262,5.6722092717736174
10.761923833284527,2.488802730739117,-3.99060072183609,-3.2573458456993105,5.7209557865926355
10.771947833243757,1.7420533579587938,-4.244141255021096,-3.6048914802074434,5.834614595551257
10.781971833202988,1.1785715112090112,-4.367378341555596,-3.705696308612824,5.847667014886288
10.791995833395049,0.6424686670303345,-4.43849276304245,-3.689574365615845,5.807404152898737
10.802020833361894,0.2207961255311966,-4.446217519640923,-3.6881722033023836,5.781021999804518
10.812044833321124,-0.04254404872655869,-4.295548805594445,-3.706548832654953,5.673804172350479
10.822068833280355,-0.0939027750492096,-3.9822263395786286,-3.6624695974588395,5.411157722992932
10.832092833239585,-0.024708286821842194,-3.509728045463562,-3.561882870197296,5.000581069591421
10.842116833198816,0.14838157564401627,-2.887940395474434,-3.276888994574547,4.370379651994483
10.852141833398491,0.3492182305455208,-2.2288176888227462,-2.79158529818058,3.58922416959048
10.862165833357722,0.5477899664640427,-1.611084498167038,-2.1707682859897615,2.7582425671161954
10.872189833316952,0.6968670684099197,-0.9510794466733933,-1.4326380014419557,1.85543188182547
10.882213833276182,0.7739868727326393,-0.3012450420856476,-0.7212821173667908,1.1000237030976903
10.892237833235413,0.7395134434103966,0.3583892959356308,-0.0699426394701004,0.8247514736221957
10.902262833202258,0.6659981551766396,1.1748196452856063,0.5547680336236954,1.4599733945447044
10.912286833394319,0.420305754840374,2.040976470708847,0.9727889889478684,2.2996870001279075
10.92231083335355,-0.04633859932422638,2.8534044009447097,1.386393542289734,3.1727198103867673
10.93233483331278,-0.7279742556810379,3.58247442483902,1.6879590117931367,4.026571140195301
10.94235883327201,-1.2628828060626984,4.143594288825989,1.8317835599184038,4.703156134196216
10.95238283323124,-1.3442342403531076,4.398544000983239,2.3207634007930755,5.15170823940797
10.962407833198085,-1.9985712933540345,4.481232985854149,2.6390799736976627,5.571398333964119
10.972431833390146,-3.099666904807091,4.509172151684761,2.6021325874328616,6.05901497084021
10.982455833349377,-3.7479979902505876,4.379442316889763,2.857321450710297,6.4336062837709
10.992479833308607,-4.119212276637555,4.15521738409996,2.9565767669677734,6.5555386863401
11.002503833267838,-4.392131651937961,3.7792390787601473,2.637098937034607,6.366141631011063
11.012528833234683,-4.612527827918529,3.130296959280968,2.2670906388759615,6.017796272846524
11.022552833193913,-4.7387385159730915,2.252072065472603,1.9040247398614885,5.581467685192982
11.032576833385974,-4.844747366309166,1.3016656333208085,1.7875353401899339,5.325522796567113
11.042600833345205,-4.643467784821987,0.5477092748880387,2.207012836933136,5.1703659619862155
11.052624833304435,-4.075965977311134,0.12759384691715242,2.771222369670868,4.930461668052319
11.06264983327128,-3.4781624364852908,-0.13135126769542696,2.9847550839185715,4.585153214569853
11.07267383323051,-3.0090967503190043,-0.4260322254896164,2.543176866173744,3.962816584523858
11.08269783318974,-2.6617537218332292,-0.712658059000969,1.6415660333633424,3.2074216166017737
11.092721833381802,-2.350620453357697,-0.6807153046131135,0.8314822518825531,2.584599113377885
11.102745833341032,-2.0465935984253885,-0.2535621678829193,0.7491867846250534,2.1941102908363774
11.112769833300263,-1.7672127574682237,0.3981088471412659,1.2285228127241135,2.1887895937513404
11.122794833267108,-1.4944135424494744,1.0390151381492616,1.6324730283021929,2.444952449699963
11.132818833226338,-1.3949181979894638,1.6798091626167297,1.8123503386974336,2.8376344641390996
11.142842833185568,-1.2246665740013123,2.3432219713926314,1.8932693713903428,3.2519173324883375
11.15286683337763,-1.1014660325646402,2.866819083094597,2.0958449882268906,3.71812389395039
11.16289083333686,-0.9498445147275926,3.077132905125618,2.2085752129554748,3.9049655554494005
11.172915833303705,-0.7853471356630326,2.723037219643593,2.4432309937477115,3.741801639834462
11.182939833262935,-0.5657982212305069,2.1561794829368592,2.7462266921997074,3.5370890057695203
11.192963833222166,-0.23008998245000842,1.4081399220228197,2.6626413291692734,3.020837348785696
11.202987833414227,-0.00631002277135849,0.4779829823970795,2.292208523154259,2.3415224665737484
11.213011833373457,0.23332992464303973,-0.44085842549800874,1.770616421699524,1.8395329618842213
11.223036833340302,0.5394670397043229,-1.2939549100399017,1.1879788041114807,1.8375629608701465
11.233060833299533,0.6247083342075348,-2.1342711353302004,0.6511576294898987,2.3171922752276988
11.243084833258763,0.5759434327483177,-3.0623201537132263,0.3074547851085663,3.131141007117097
11.253108833217993,0.6833895286917687,-3.8997186183929444,0.017706538438797,3.959184268516637
11.263132833410054,0.9009799182415009,-4.70832422375679,-0.09476933240890503,4.7946911303497615
11.2731578333769,1.3462193700671197,-5.410025770068169,-0.006757042407989502,5.575009514141452
11.28318183333613,1.6465592631697656,-6.012183732390404,0.14112430393695832,6.2351765579101
11.29320583329536,1.920065406560898,-6.561426731944085,0.3827411949634552,6.8472960171489845
11.30322983325459,2.02444902330637,-6.896471019387246,0.2821480357646942,7.193004510168206
11.313257958274335,1.9714399203658104,-6.899530282616616,-0.3877961128950119,7.186131038711453
11.323281958233565,1.9318621641397478,-6.846314188241959,-1.003881850540638,7.184141434799483
11.33330695820041,1.9745620411634446,-6.576855779886246,-1.359889283180237,7.0002304295169555
11.343330958392471,1.9197902950644494,-6.132907100915909,-1.94304847240448,6.713686144853795
11.353354958351701,1.7164621415734291,-5.762580714225769,-2.262103841006756,6.424227000886498
11.363378958310932,1.3306277695298196,-5.63374901175499,-2.4397694420814515,6.281892479102828
11.373402958270162,1.04014394313097,-5.289743866324425,-2.545993469953537,5.961993990503091
11.383427958237007,0.8305195078253746,-4.897638355493545,-2.370414447784424,5.5041337891029825
11.393451958196238,0.6710384550690651,-4.788726362586021,-2.1848559826612473,5.3062028277176205
11.403475958388299,0.7584821033477783,-4.462104989290237,-1.890639001429081,4.9051189455784305
11.41349995834753,1.1357848030328752,-3.863602706193924,-1.4802366757392884,4.290516706215365
11.42352395830676,1.8443404555320742,-3.066482201814652,-1.0816202902793886,3.738289349729681
11.433548958273605,2.7034779909253124,-2.139823651313782,-0.7323041188716889,3.524756421180881
11.443572958232835,3.6414509037137033,-0.8699551767110825,-0.31776956588029864,3.757387947849345
11.453596958192065,4.436857589185238,0.7214785838127137,0.01887130379676819,4.495174383682799
11.463620958384126,4.859020712077618,2.2487327206134795,0.5238520503044128,5.37971208335215
11.473644958343357,4.756288933753967,3.030517147779465,1.8354901099205019,5.93088041929289
11.483669958310202,4.199937181770801,3.7776270014047624,3.489586141705513,6.639815474314506
11.493693958269432,2.2208602130413055,4.800361737012864,5.064430181980133,7.32285094483005
11.503717958228663,-0.7813032013177872,4.999039599895478,5.464286177158356,7.4470970881006
11.513741958187893,-4.740275748968124,4.310383191704751,6.043401432037354,8.80751487675935
11.523765958379954,-10.847221212387085,4.050233550667763,8.346927825808525,14.273675209092847
11.533789958339185,-16.51351465702057,4.807193039059639,9.639640202522278,19.71618458212695
11.54381495830603,-17.8610815179348,4.844223455786706,9.47063169658184,20.78888161042356
11.55383895826526,-11.440492576360704,4.076253075599671,7.13456145465374,14.085548504631655
11.56386295822449,-3.1062888765335086,3.0385792887210847,4.155215629935265,6.012305016345965
11.573886958416551,0.04105183929204941,2.1521133291721344,1.4127370029687882,2.574704424718857
11.583910958375782,-0.6405585278570652,0.9099378526210785,-0.43225483238697054,1.1937949419246834
11.593935958342627,-0.6224744054675102,0.4544374144077301,-1.5217460596561432,1.7057839309697789
11.603959958301857,-0.09037485748529435,1.2008999812602998,-1.8399737548828126,2.1990524774352322
11.613983958261088,0.42904412627220156,2.933676146864891,-0.9428331184387208,3.111184482829264
11.624007958220318,1.0902595514059068,4.242786455154419,0.7842139452695847,4.450269014950545
11.634031958412379,1.8726782552897931,4.3374704182147985,2.3110225242376328,5.259410478775864
11.644056958379224,2.255055753439665,3.82195298910141,1.9952500748634339,4.865554846393685
11.654080958338454,2.481083528995514,3.0648771411180498,1.195359159708023,4.12045275287785
11.664104958297685,2.562969106435776,2.18818187892437,0.8960062766075134,3.487087297948998
11.674128958256915,2.523210086524487,1.3030677956342698,0.13418716728687288,2.842988043700244
11.684152958216146,2.4066608990728855,0.2981559580564499,-0.374220632314682,2.4537633830711694
11.694177958415821,2.3665511924028397,-0.8443092888593674,-0.6723631417751312,2.6010564999505945
11.704201958375052,2.404531489312649,-1.9412305730581285,-0.9968602216243745,3.2471338319091028
11.714225958334282,2.372660363316536,-2.931636053323746,-1.425468145608902,4.031868869760855
11.724249958293512,2.237630758434534,-3.829557877779007,-1.7243468195199967,4.758768423062872
11.734273958252743,2.1607829958200457,-4.582327251434326,-2.030914582014084,5.458142562603157
11.744297958211973,2.2015011052787306,-5.174473026394844,-2.365672355890274,6.1006707756487515
11.754322958411649,2.2905278871953487,-5.633208144307137,-2.548421818614006,6.593482066760761
11.76434695837088,2.3120529498159885,-5.939550788998604,-2.9924354016780854,7.041201747646706
11.77437095833011,2.278131059110165,-6.061923072338105,-3.51254406452179,7.367140439996696
11.78439495828934,2.1428270736336708,-5.961111811995506,-4.0667297154665,7.527606025906778
11.79441895824857,1.8942636904120447,-5.88253458917141,-4.942867738008499,7.913557328853868
11.804443958215415,1.540213320851326,-5.90886635541916,-5.273088657259941,8.06798752275038
11.814467958407477,1.343119468688965,-5.663606649041176,-4.922750392556191,7.623246133350731
11.824491958366707,1.5508681172132492,-5.268792707920075,-4.179600273370743,6.901769842669423
11.834515958325937,2.150226140320301,-4.5357997870445255,-3.757752315402031,6.270379145361086
11.844539958285168,2.6485062700510027,-3.664045422077179,-3.516343000531197,5.727519743739776
11.854564958252013,2.961704775094986,-2.7996456849575044,-3.3034686827659607,5.2462001938676615
11.864588958211243,3.3260512143373493,-1.8527341336011887,-3.01886247754097,4.858885788790544
11.874612958403304,3.618474854528904,-0.9368227654695511,-2.672262922525406,4.5947781550216344
11.884636958362535,3.7954820591211322,-0.042578254938125615,-2.2330265146493913,4.40385108558761
11.894660958321765,4.09187683582306,1.0004714620113373,-1.65895389854908,4.5273090488010235
11.90468595828861,4.365589093565941,2.279609527587891,-0.897368677854538,5.006022200922183
11.91470995824784,4.227154508829117,3.6152468991279605,0.21386542081832888,5.566379775167202
11.92473395820707,3.277216438651085,5.045320896506309,2.0471710109710695,6.355023185059866
11.934757958399132,1.8279793614149094,6.336145792007446,3.723690530061722,7.573250504704297
11.944781958358362,0.3673803401738405,7.22975704908371,4.848225874900818,8.712614385887834
11.954805958317593,-0.6622031660377979,7.420694952607155,5.431866874694824,9.220108695518004
11.964830958284438,-1.3008546245098114,6.848378840088845,5.2607685738801955,8.733166749777006
11.974854958243668,-1.8269547830522062,6.024216717481614,4.763193325996399,7.894109291067544
11.984878958202899,-2.3100580260157586,5.398269358277322,4.140545550584793,7.184831076966472
11.99490295839496,-2.6835495105385783,4.66961273252964,3.2392855507135394,6.284878035918939
12.00492695835419,-3.4740430730581284,3.7726732403039933,2.6393384206295014,5.767854536149471
12.014951958321035,-4.566521642804146,3.101732726097107,2.500679887533188,6.060302444453862
12.024975958280265,-4.881797078847885,2.871139006018639,2.4902455312013627,6.186817010110918
12.034999958239496,-4.895697664618492,2.8661139088869096,2.623404757976532,6.250177364382539
12.045023958198726,-5.100465987324715,2.6290163308382035,2.553984859585762,6.280869272534141
12.055047958390787,-5.392639074325562,1.8710914671421053,1.9924936974048615,6.0457894934038965
12.065072958357632,-5.098518864512444,0.9941821968555451,1.035399804711342,5.296729708785419
12.075096958316863,-4.779899990558625,0.19603842973709107,0.18497081995010378,4.787492996330036
12.085120958276093,-4.70278077095747,-0.23010898590087892,-0.45140738725662233,4.729996379950995
12.095144958235323,-4.50351380109787,-0.23245313465595246,-0.7124580842256546,4.565442753804811
12.105168958194554,-4.023985691964627,-0.22804082572460177,-0.7243501514196397,4.095014848470619
12.115192958386615,-3.3172710353136066,-0.27485012590885166,-0.19191672742366792,3.3341658242666528
12.12521795835346,-2.7656482189893725,-0.43942878127098084,0.2779585057497025,2.814101749391268
12.13524195831269,-2.4303605411946774,-0.6407969480752945,0.5406867688894272,2.570917204211521
12.14526595827192,-1.9306227006018162,-0.6974523746967316,0.6380405706167221,2.149613825039761
12.155289958231151,-1.5138472022116185,-0.7807062005996704,0.557536690235138,1.7922284129700294
12.165313958190382,-1.1988980408012868,-0.9350609993934632,0.3069601106643677,1.5511028638884485
12.175338958390057,-0.8846704258024694,-1.2553013062477112,0.006429598331451417,1.5357292962926234
12.185362958349288,-0.5680412131547928,-1.740676338672638,-0.2753266739845276,1.8516019316431196
12.195386958308518,-0.39269797995686534,-2.176985630393028,-0.8358852052688599,2.3647795277334622
12.205410958267748,-0.33640025675296786,-2.6587260335683824,-1.1760294342041016,2.9266080168741673
12.215434958226979,-0.45108374387025835,-3.166438014507294,-1.4311551475524904,3.5039993293473803
12.225459958193824,-0.6231640845537186,-3.610142864584923,-1.5287872767448427,3.9697173093972347
12.235483958385885,-0.8076568946242333,-3.962953332066536,-1.525715149641037,4.322628308033839
12.245507958345115,-0.755987973511219,-4.236070927977562,-1.4707045447826386,4.5473933831366065
12.255531958304346,-0.5506852152943611,-4.39143495619297,-1.2073468288779259,4.587552892994144
12.265555958263576,-0.19531425207853317,-4.465561863183975,-0.6780665159225464,4.520969432655288
12.275580958230421,0.21848676770925524,-4.478441525101662,-0.20437509745359422,4.488423346998153
12.285604958189651,0.5928453943133355,-4.3803369408845905,0.26664209693670277,4.42830841124413
12.295628958381712,1.1545786312222481,-4.238032668828964,0.4755376768112183,4.418156719696983
12.305652958340943,1.9193786510825157,-4.081968728899956,0.8126758521795273,4.583331228556822
12.315673500066623,2.9551865914463997,-3.6800451582670215,0.865512462258339,4.798434325847716
12.325697500025854,3.618235118687153,-2.572990064620972,0.629055154323578,4.484151383920968
12.335722499992698,3.8238463175296786,-1.1869724982976915,1.2469000267982484,4.193502599096586
12.345746499951929,4.271102766394615,-1.70757758975029,2.34167596757412,5.161548837629587
12.35577049991116,3.882873082458973,-2.7743962383270264,1.3926336908340455,4.971258035806797
12.36579449987039,2.933191997408867,-3.598570640087128,-0.027273167967796327,4.642636079971323
12.37581850006245,2.532411265075207,-3.6179196614027025,-0.9582013553380967,4.518915724951707
12.385843500029296,2.795126956701279,-3.012794237136841,-1.056500944197178,4.243331010478989
12.395867499988526,3.337369084954262,-2.0182103365659714,-0.45687687277793887,3.9268233788533866
12.405891499947757,3.6564069119095803,-0.6292697471380234,0.13193131148815157,3.7125055947532646
12.415915499906987,3.433475675582886,1.2965908348560333,0.4438641867041588,3.696879552283326
12.425939499866217,2.614338650107384,2.90028503715992,0.9886390364170075,4.0278812071046195
12.435964500065893,1.9477788698673248,2.3507151782512667,2.627071839272976,4.027556433355542
12.445988500025123,1.4002113899588586,1.2863120144605638,3.794407340884209,4.244139206443644
12.456012499984354,0.4853805872797966,0.9567442291975022,4.4561858528852465,4.583508065888552
12.466036499943584,-1.0411473253369332,1.6081100195646287,4.442295792102814,4.837767821280261
12.476060499902815,-3.5807091504335404,2.4304811400175095,4.411895533204079,6.1800921342553945
12.486084499862045,-5.32202868282795,2.701572090983391,5.052018297314644,7.819550494755164
12.49610950006172,-6.870263214111328,2.3985372161865235,5.6942770493030554,9.240037257653382
12.506133500020951,-7.7084399431943895,2.2916471904516222,5.338613140583039,9.652589469574753
12.516157499980181,-7.713305411338807,2.4641985243558886,3.984330167770386,9.024535534964194
12.526181499939412,-6.37044322013855,2.2669011890888213,2.8430174070596697,7.335130250987082
12.536205499898642,-3.6716842246055603,2.2154433524608614,1.6174439299106598,4.583184390746808
12.546230499865487,-0.8113020488619804,1.764386798143387,1.272106204032898,2.3215352640632685
12.556254500057548,0.7449064765870571,1.0656375110149383,0.8684512728452682,1.5635461544354945
12.566278500016779,1.014938058257103,0.5546370559930802,0.3064052098989487,1.1964972539176963
12.57630249997601,1.3841123972833158,0.703926996588707,0.3753549921512604,1.5975517878843983
12.58632649993524,1.9504509012401106,1.299096366763115,0.6748441153764725,2.4387137323482104
12.596351499902084,2.497099637389183,1.5105942499637603,0.9129427367448807,3.0579185776681492
12.606375499861315,2.9988971596956255,1.2139802026748658,0.7890478384494782,3.330124411831905
12.616399500053376,3.3215248847007754,0.7222954398393632,0.4220549494028092,3.425254536879653
12.626423500012606,3.532246550023556,0.29053703606128695,-0.029938328862190246,3.544301590301205
12.636447499971837,3.7083480209112167,-0.12224539875984193,-0.3084815561771393,3.723163957203008
12.646471499931067,3.7593228775262832,-0.667022294998169,-0.5441705399751664,3.85662401798438
12.656496499897912,3.6499793601036075,-1.2225422805547714,-0.8491730028390885,3.9418338049285073
12.666520499857143,3.5013255965709686,-1.7049475121498108,-1.213295493721962,4.078996556443128
12.676544500049204,3.281665000319481,-2.228302549123764,-1.718397862315178,4.322909742056003
12.686568500008434,2.952342213392258,-2.834272311329842,-2.2871828413009645,4.68835039531928
12.696592499967664,2.6091714656353,-3.387265715003014,-2.786388877630234,5.103460369053709
12.70661749993451,2.336392131149769,-3.865357455611229,-3.210139519572258,5.541183283854404
12.71664149989374,2.1148193491995335,-4.277314263582229,-3.603235548734665,5.979229432699328
12.72666549985297,1.9825275568664076,-4.516328558921814,-3.934300805926323,6.309228320276577
12.736689500045031,2.004220434576273,-4.596735960245133,-4.152674430012703,6.510882118443336
12.746713500004262,2.106625061184168,-4.532850451469422,-4.238304564356804,6.553459234941761
12.756738499971107,2.2145807419717314,-4.380970194339753,-4.178539003729821,6.446507264565577
12.766762499930337,2.3126334321498874,-4.117359586358071,-3.9854551720619202,6.179383163665058
