"Time (s)","Linear Acceleration x (m/s^2)","Linear Acceleration y (m/s^2)","Linear Acceleration z (m/s^2)","Absolute acceleration (m/s^2)"
3.344416618E-3,4.562005838E0,5.109637930E0,-7.920376952E0,1.047151699E1
1.328841690E-2,2.010954819E0,5.220382440E0,-5.536671199E0,7.870899572E0
2.323241672E-2,-4.554510292E-1,5.147932515E0,-2.888347362E0,5.920404994E0
3.317641700E-2,-2.541036493E0,5.223600748E0,-6.683174533E-1,5.847180470E0
4.311941704E-2,-3.969425323E0,5.781258475E0,1.158882474E0,7.107903737E0
5.306341685E-2,-3.916858854E0,6.914588617E0,3.602709884E0,8.725413316E0
6.300741667E-2,-4.618963273E0,7.443638842E0,7.401016733E0,1.146811360E1
7.295041671E-2,-7.421566772E0,7.258710122E0,5.629479375E0,1.180929990E1
8.289441699E-2,-6.562836496E0,7.141031983E0,9.033328378E-1,9.740696632E0
9.283841681E-2,-5.381447504E0,6.123781936E0,-1.289791692E0,8.253741276E0
1.027824166E-1,-3.358642425E0,4.472542269E0,-3.069614555E0,6.380176080E0
1.127254167E-1,-7.682413986E-1,2.855207682E0,-2.542127291E0,3.899335446E0
1.226694169E-1,1.712106843E0,9.989295512E-1,-3.098242523E0,3.678080589E0
1.326134168E-1,5.445108479E0,-2.527578834E0,-1.751079705E0,6.253330412E0
1.425564168E-1,9.863031907E0,-7.507222635E0,8.268764001E-1,1.242262109E1
1.525004166E-1,8.950662782E0,-1.191548880E1,1.420633668E0,1.497035195E1
1.624444169E-1,2.186518054E0,-1.166328670E1,1.778552848E0,1.199901529E1
1.723884167E-1,6.485977185E-1,-9.660993649E0,1.160294285E0,9.752013132E0
1.823314168E-1,1.894219252E0,-7.120933349E0,7.166850364E-1,7.403336800E0
1.922754170E-1,2.684518687E0,-3.356922759E0,9.860545671E-1,4.409974444E0
2.022194169E-1,2.409655112E0,-1.265583635E0,2.027033200E0,3.393671064E0
2.121624169E-1,2.130447349E0,-1.712446566E0,3.483931592E0,4.428211658E0
2.221064167E-1,1.374940309E0,-3.431920316E0,5.281501046E0,6.446921065E0
2.320504170E-1,1.459798903E0,-5.835278562E0,6.803196820E0,9.081022833E0
2.419944168E-1,1.649402764E0,-8.491724181E0,6.437704911E0,1.078304009E1
2.519374168E-1,1.599757857E0,-9.706852777E0,5.290375950E0,1.117006239E1
2.618814167E-1,5.604138127E-1,-9.578468971E0,4.446611330E0,1.057513517E1
2.718254169E-1,-2.115838373E0,-6.762951604E0,3.794922481E0,8.038390576E0
2.817684170E-1,-3.834937901E0,-3.266966270E0,1.553549358E0,5.271938251E0
2.917124168E-1,-4.742974239E0,-1.861128981E0,-1.181368527E0,5.230223448E0
3.016564166E-1,-5.065579745E0,-1.477006674E0,-3.338413398E0,6.243929122E0
3.115994167E-1,-5.820821321E0,-1.447896311E0,-5.332242014E0,8.025656950E0
3.215434169E-1,-7.008938704E0,-1.311146894E0,-6.069211627E0,9.363741651E0
3.314874168E-1,-8.137157795E0,-1.113860083E0,-5.737525980E0,1.001864390E1
3.414314170E-1,-8.404426421E0,-7.546983701E-1,-5.428548580E0,1.003359820E1
3.513744166E-1,-7.671758605E0,-4.550946414E-2,-5.166919593E0,9.249595088E0
3.613184169E-1,-8.133191628E0,6.371477008E-2,-4.952788709E0,9.522761240E0
3.712624167E-1,-9.279983815E0,1.914992362E-1,-4.612697982E0,1.036492905E1
3.812054168E-1,-9.847174258E0,1.055161055E0,-3.313863278E0,1.044327035E1
3.911494170E-1,-9.470226485E0,2.365916770E0,-1.945804850E0,9.953336543E0
4.010934168E-1,-8.018533577E0,3.781828226E0,-1.415424968E0,8.977891361E0
4.110374167E-1,-5.961359149E0,5.109516892E0,-8.860926148E-1,7.901273689E0
4.209804167E-1,-3.976019228E0,5.892140395E0,-8.368616903E-1,7.157260986E0
4.309244170E-1,-2.146448547E0,5.757034045E0,-1.506408228E0,6.326132161E0
4.408684168E-1,-6.614656860E-1,5.390420056E0,-2.175340809E0,5.850322458E0
4.508114168E-1,3.016993707E-1,5.019571513E0,-2.552017856E0,5.639141408E0
4.607554167E-1,1.507676197E0,4.459014736E0,-2.634122997E0,5.393932136E0
4.706994169E-1,2.804571964E0,3.542963619E0,-1.934610940E0,4.915377361E0
4.806434168E-1,3.534179055E0,2.227670465E0,1.604168996E-2,4.177702075E0
4.905864168E-1,1.995449173E0,-3.240398276E-1,2.078226743E0,2.899283636E0
5.005304166E-1,1.219712521E0,-3.281918769E0,2.705619534E0,4.424823895E0
5.104744169E-1,1.798638326E0,-4.825776660E0,4.371109450E0,6.754984679E0
5.204174169E-1,1.832284082E0,-5.077979350E0,6.131455237E0,8.169325710E0
5.303608333E-1,1.574274814E0,-3.717608256E0,6.727756044E0,7.846123484E0
5.403048336E-1,1.617571107E0,-1.485104483E0,6.805707030E0,7.151204079E0
5.502478336E-1,1.932737785E0,4.815345812E-1,6.386355833E0,6.689760214E0
5.601918334E-1,2.272375937E0,1.933373085E0,4.758130222E0,5.616175486E0
5.701358337E-1,2.554550578E0,3.048733563E0,2.905836384E0,4.925889776E0
5.800798335E-1,2.475881846E0,4.073329468E0,1.567485027E0,5.017869386E0
5.900228336E-1,2.397332105E0,5.151643742E0,1.044444716E0,5.777326305E0
5.999668334E-1,2.553927849E0,6.150501958E0,1.385333734E0,6.802232821E0
6.099108336E-1,2.567916143E0,6.851317651E0,2.763099418E0,7.821091053E0
6.198538337E-1,2.753659673E0,7.101132923E0,4.213661474E0,8.704233073E0
6.297978335E-1,3.154204470E0,6.627945827E0,4.701516603E0,8.716818805E0
6.397418333E-1,3.721769135E0,5.291664677E0,3.621302860E0,7.413981046E0
6.496858336E-1,4.420304414E0,3.909467096E0,1.738133385E0,6.151758428E0
6.596288336E-1,4.901066578E0,2.860134546E0,1.045110714E0,5.770015566E0
6.695728335E-1,5.042736427E0,1.566336926E0,1.826282207E0,5.587298877E0
6.795168333E-1,5.088738227E0,-5.676804399E-1,3.471088475E0,6.185949646E0
6.894598333E-1,4.702378775E0,-3.422381169E0,4.826106443E0,7.557536795E0
6.994038336E-1,3.468454889E0,-6.207268481E0,5.057614667E0,8.725813855E0
7.093478334E-1,1.633913198E0,-8.350143210E0,3.469226137E0,9.188584981E0
7.192918337E-1,-6.800077915E-1,-9.432689699E0,1.272426485E0,9.542385169E0
7.292348333E-1,-1.462448861E0,-9.084786215E0,1.192963994E0,9.278753167E0
7.391788336E-1,8.365763462E-1,-6.030648655E0,4.398851565E0,7.511223487E0
7.491228334E-1,3.345487944E0,-2.824639024E0,5.660748530E0,7.156462053E0
7.590658334E-1,4.578840557E0,-1.145190049E0,4.286379202E0,6.375757818E0
7.690098337E-1,4.856132480E0,1.361535859E-1,2.679887692E0,5.548185154E0
7.789538335E-1,4.802955562E0,1.442181242E0,1.511837953E0,5.237740244E0
7.888968335E-1,4.767574937E0,2.641258062E0,6.131440035E-1,5.484702407E0
7.988408334E-1,4.725390492E0,3.582306610E0,-8.370289207E-2,5.930366104E0
8.087848336E-1,4.315252753E0,4.161162248E0,-3.583945584E-1,6.005424568E0
8.187288335E-1,3.644556945E0,4.416227151E0,-4.340068044E-1,5.742318301E0
8.286718335E-1,2.955298566E0,4.220740698E0,-2.751623672E-1,5.159860074E0
8.386158333E-1,2.133448140E0,3.581784453E0,-2.415981799E-2,4.169096369E0
8.485598336E-1,8.807658014E-1,1.705778986E0,8.847018546E-1,2.113794625E0
8.585028336E-1,-1.736106740E0,-1.907938866E0,3.890555154E0,4.668052778E0
8.684468335E-1,-6.717798820E0,-7.855250664E0,7.661152925E0,1.286573154E1
8.783908333E-1,-1.483328917E1,-1.553784825E1,1.030029488E1,2.382325063E1
8.883348336E-1,-2.126304655E1,-2.108351598E1,9.507935178E0,3.141707539E1
8.982778336E-1,-2.144434064E1,-2.064914972E1,6.383087239E0,3.044652578E1
9.082218334E-1,-1.537669665E1,-1.446538938E1,2.371332461E0,2.124414054E1
9.181658337E-1,-8.638806213E0,-7.307488180E0,-6.572416574E-1,1.133403383E1
9.281088333E-1,-4.652523368E0,-3.501624974E0,-1.936238513E0,6.136478691E0
9.380528335E-1,-2.120822539E0,-1.940776244E0,-3.142092255E0,4.258784382E0
9.479968334E-1,-1.290123814E0,-1.290693333E0,-4.561899419E0,4.913373082E0
9.579398334E-1,1.259679994E0,-1.956960753E0,-8.552986044E0,8.863975369E0
9.678838337E-1,6.127367449E0,-3.486607570E0,-1.762459439E1,1.898229153E1
9.778278335E-1,6.795316527E0,-2.059471214E0,-2.177915221E1,2.290740534E1
9.877718333E-1,7.929309744E0,9.562185645E-2,-2.126346989E1,2.269401349E1
9.977148334E-1,8.585127019E0,1.994302826E0,-1.811150958E1,2.014220516E1
1.007658834E0,7.474616806E0,3.997842498E0,-1.367420263E1,1.608839515E1
1.017602833E0,5.577475408E0,5.337671739E0,-1.005432006E1,1.267628981E1
1.027545833E0,3.488466692E0,5.849172716E0,-7.446922638E0,1.009152506E1
1.037489833E0,1.711385004E0,6.336910023E0,-4.811262701E0,8.138397634E0
1.047433834E0,5.653684509E-1,6.990488400E0,-1.745471056E0,7.227256655E0
1.057376834E0,-1.371598917E-1,7.969090691E0,1.478195413E0,8.106187819E0
1.067320833E0,-2.161758604E0,8.419911602E0,2.833613330E0,9.143165543E0
1.077264833E0,-4.125841265E0,7.815092572E0,2.415040982E0,9.161367856E0
1.087208834E0,-4.035671645E0,7.317723146E0,-1.757744361E0,8.539635994E0
1.097151834E0,-4.229666765E0,6.094092114E0,-3.239576157E0,8.094621258E0
1.107095833E0,-5.252815776E0,4.479889880E0,-3.157458445E0,7.591510439E0
1.117039834E0,-4.477474396E0,3.472461986E0,-1.878133854E0,5.969351387E0
1.126982833E0,-1.844527859E0,1.727183304E0,-1.430554639E0,2.903778876E0
1.136926834E0,3.576284562E0,-2.081968961E0,-3.119384301E-1,4.149905012E0
1.146870833E0,9.219737028E0,-8.178415164E0,2.574840708E0,1.259046584E1
1.156814834E0,5.593517829E0,-1.481161588E1,3.263151546E0,1.616538168E1
1.166757834E0,-3.468244097E0,-1.554097301E1,3.084779894E0,1.621932261E1
1.176701833E0,-2.593773700E0,-1.103189499E1,2.706833708E0,1.165149423E1
1.186645833E0,2.105557506E0,-6.374628072E0,1.529240728E0,6.885334609E0
1.196588833E0,5.259773962E0,-2.811486881E0,1.260697994E0,6.095821524E0
1.206532834E0,6.900477532E0,-1.260596545E0,1.307153538E0,7.135428802E0
1.216476833E0,4.782550241E0,-2.329828339E0,2.929764067E0,6.073253196E0
1.226419833E0,3.603636083E-1,-5.126804186E0,5.170889268E0,7.290547230E0
1.236363833E0,-2.018331374E0,-7.864724323E0,5.468388584E0,9.789321933E0
1.246307834E0,-1.897037902E0,-9.679006582E0,4.549808546E0,1.086198320E1
1.256251833E0,-1.179128166E0,-9.941524930E0,2.923428024E0,1.042931889E1
1.266194833E0,-8.964831170E-1,-9.188950853E0,2.494686199E0,9.563679156E0
1.276138833E0,-2.659706904E0,-6.556533782E0,2.749636204E0,7.590960104E0
1.286082834E0,-5.275063847E0,-3.791529926E0,8.321921039E-1,6.549392450E0
1.296025834E0,-6.504735053E0,-2.712673615E0,-1.407830897E0,7.186944001E0
1.305969833E0,-6.700001065E0,-2.075611283E0,-3.234644616E0,7.724059960E0
1.315913834E0,-6.734777965E0,-1.079417059E0,-4.836167162E0,8.361273123E0
1.325856833E0,-7.062181696E0,1.990099847E-1,-5.440678629E0,8.917118325E0
1.335800834E0,-6.953674330E0,1.160227919E0,-5.563730943E0,8.980802721E0
1.345744833E0,-5.998484876E0,1.721921394E0,-5.782316236E0,8.507762053E0
1.355688834E0,-5.485960636E0,2.321347538E0,-5.548096658E0,8.140380520E0
1.365631834E0,-6.086708250E0,2.705281565E0,-4.920331399E0,8.281076424E0
1.375575833E0,-6.976104834E0,2.538908399E0,-4.012981524E0,8.438964109E0
1.385519833E0,-7.744565796E0,2.014434789E0,-2.975117118E0,8.537421669E0
1.395462833E0,-7.977489631E0,1.985381144E0,-2.177732320E0,8.504386936E0
1.405406834E0,-7.382505033E0,2.434274814E0,-1.752595303E0,7.968604942E0
1.415350833E0,-5.958389933E0,3.428131320E0,-1.093629887E0,6.960640867E0
1.425293833E0,-4.264721700E0,4.556322929E0,-5.906813398E-1,6.268718710E0
1.435237833E0,-2.787540779E0,5.184714425E0,-1.992783719E-1,5.889937107E0
1.445181834E0,-1.198603780E0,5.448189962E0,1.498196983E-1,5.580490196E0
1.455125833E0,2.479348075E-1,5.477755823E0,6.144438395E-1,5.517682644E0
1.465068833E0,9.008047941E-1,5.094532233E0,9.085197566E-1,5.252724636E0
1.475012833E0,2.125166143E0,4.404626275E0,3.342243616E-1,4.901914899E0
1.484956834E0,2.727395734E0,3.142304217E0,-3.713625133E-2,4.161026602E0
1.494899834E0,2.705457273E0,1.201106388E0,1.485410731E0,3.311887778E0
1.504843833E0,2.184572977E0,-4.726234245E-1,3.778623952E0,4.390185755E0
1.514787834E0,1.179180791E0,-1.447944258E0,5.311935804E0,5.630601380E0
1.524730833E0,2.586255643E-1,-1.490086895E0,6.168205572E0,6.350905929E0
1.534675167E0,-4.118261227E-1,-8.543781942E-1,6.701179279E0,6.767966207E0
1.544619167E0,-1.138525978E-1,4.351380944E-2,6.444482419E0,6.445634919E0
1.554563167E0,9.321929401E-1,1.144033470E0,5.126248115E0,5.334436802E0
1.564506167E0,1.944886252E0,2.075194961E0,4.028722229E0,4.931492620E0
1.574450167E0,2.576897759E0,2.847016903E0,3.469625502E0,5.175346213E0
1.584394167E0,2.883863132E0,3.596048736E0,3.823385557E0,5.988865518E0
1.594337167E0,3.308354031E0,4.238049626E0,4.506552014E0,7.015360439E0
1.604281167E0,3.843869523E0,4.540421426E0,5.706339855E0,8.243365464E0
1.614225167E0,4.428036772E0,4.271126155E0,6.926032788E0,9.263906221E0
1.624168167E0,4.715780593E0,3.483607364E0,7.414404518E0,9.452380717E0
1.634112167E0,4.781391615E0,2.635697359E0,6.757537082E0,8.687514821E0
1.644056167E0,4.758602092E0,2.193239720E0,5.286026791E0,7.442894167E0
1.654000167E0,4.435068634E0,1.846390489E0,3.186048406E0,5.764537802E0
1.663943167E0,4.167491274E0,9.983746505E-1,1.277888954E0,4.471882785E0
1.673887167E0,4.533257418E0,-2.516904742E-1,2.516743943E-2,4.540308834E0
1.683831167E0,5.097307906E0,-2.027206278E0,-8.301433857E-1,5.548085366E0
1.693774167E0,5.079567454E0,-4.345775219E0,-2.246254086E0,7.052192935E0
1.703718167E0,3.967208936E0,-6.617937732E0,-2.333623913E0,8.061119472E0
1.713662167E0,2.782240863E0,-8.124965765E0,1.331925559E-1,8.589160213E0
1.723605167E0,3.218620906E0,-8.144087915E0,2.959950318E0,9.243754345E0
1.733549167E0,4.213729302E0,-6.583601128E0,4.094199350E0,8.823932613E0
1.743493167E0,4.603276656E0,-4.509394931E0,3.515065969E0,7.340332920E0
1.753437167E0,4.663011226E0,-2.166194594E0,2.635701452E0,5.777801906E0
1.763380167E0,4.439058774E0,-1.204766160E-1,2.044190539E0,4.888606383E0
1.773324167E0,3.969803638E0,1.317281207E0,1.515773567E0,4.448835826E0
1.783268167E0,3.230338141E0,2.165894047E0,1.071342639E0,4.034099228E0
1.793211167E0,2.315140134E0,2.509578180E0,8.420937788E-1,3.516671496E0
1.803155167E0,1.453078698E0,2.404715969E0,6.629233968E-1,2.886791302E0
1.813099167E0,5.740047884E-1,1.949271664E0,8.883885241E-1,2.217741123E0
1.823042167E0,-4.457665783E-1,4.449310112E-1,2.374966067E0,2.457058254E0
1.832986167E0,-3.105004828E0,-2.492830585E0,4.798319889E0,6.235313390E0
1.842930167E0,-7.934469327E0,-6.616201109E0,7.540199761E0,1.279001693E1
1.852874167E0,-1.412858976E1,-1.153863809E1,9.769590477E0,2.069304510E1
1.862817167E0,-1.932112191E1,-1.529256457E1,8.747014201E0,2.614724728E1
1.872761167E0,-2.013335279E1,-1.500367002E1,6.115992860E0,2.584313018E1
1.882705167E0,-1.522341189E1,-1.103399999E1,3.428919525E0,1.911174808E1
1.892648167E0,-8.693908035E0,-6.003663754E0,1.453874504E0,1.066497850E1
1.902592167E0,-4.645873622E0,-3.035513009E0,5.123956007E-1,5.573242341E0
1.912536167E0,-2.265352846E0,-1.609351968E0,-8.224857259E-1,2.897985515E0
1.922479167E0,-1.719076724E0,-8.187025774E-1,-3.050188058E0,3.595712153E0
1.932423167E0,1.650730374E-1,-4.927103645E-1,-5.957985891E0,5.980602686E0
1.942367167E0,4.027103135E0,-2.297503762E0,-1.626168443E1,1.690971507E1
1.952311167E0,6.118371508E0,-2.897938550E0,-2.279780032E1,2.378176228E1
1.962254167E0,7.018621109E0,-1.187791108E0,-2.219069796E1,2.330448381E1
1.972198167E0,8.363479539E0,1.059516061E0,-1.905750721E1,2.083888062E1
1.982142167E0,7.325921527E0,2.976750830E0,-1.455525875E1,1.656459263E1
1.992085167E0,5.336891720E0,4.564438280E0,-1.034468577E1,1.250316095E1
2.002029167E0,3.656516547E0,5.497679626E0,-6.864654565E0,9.524603762E0
2.011973167E0,2.174068747E0,6.273065445E0,-4.040504369E0,7.771975331E0
2.021916167E0,7.279967675E-1,6.957124187E0,-1.601724860E0,7.176146513E0
2.031860167E0,-1.999332601E-1,7.748927819E0,6.347503424E-1,7.777452259E0
2.041804167E0,-5.723313153E-1,9.038482114E0,2.648394588E0,9.435873884E0
2.051747167E0,-2.877984341E0,9.442603068E0,4.289799823E0,1.076326758E1
2.061691167E0,-3.613281942E0,8.562167927E0,-8.442180723E-1,9.331625269E0
2.071635167E0,-3.190242614E0,7.164671692E0,-2.864999430E0,8.349753896E0
2.081579167E0,-3.364965019E0,5.052548640E0,-3.163407403E0,6.845318381E0
2.091522167E0,-1.832282912E0,3.971011380E0,-2.752399013E0,5.167387384E0
2.101466167E0,2.407474101E-1,2.692324135E0,-1.738503513E0,3.213870412E0
2.111410167E0,2.724012243E0,4.526972830E-1,-7.791923565E-1,2.869201676E0
2.121353167E0,6.688097888E0,-3.599678103E0,1.499654109E0,7.741918254E0
2.131297167E0,8.232616514E0,-9.240023943E0,2.830885019E0,1.269519307E1
2.141241167E0,4.141722595E0,-1.431707943E1,2.459403223E0,1.510567091E1
2.151184167E0,-2.195634448E0,-1.483156074E1,1.614790463E0,1.507990559E1
2.161128167E0,-6.495949611E-1,-1.217660206E1,6.201030672E-1,1.220967400E1
2.171072167E0,4.414548415E0,-8.970000694E0,6.219051790E-1,1.001678173E1
2.181015167E0,7.103263063E0,-6.500024536E0,2.138091706E0,9.862966149E0
2.190959167E0,6.480368536E0,-4.963069283E0,5.699817871E0,9.955659538E0
2.200903167E0,3.065994252E0,-4.238719132E0,7.534862423E0,9.172851921E0
2.210847167E0,-4.736180359E-1,-5.303079611E0,6.859201452E0,8.683064664E0
2.220790167E0,-2.747302288E0,-8.172237580E0,5.732957550E0,1.035374035E1
2.230734167E0,-4.135884443E0,-1.009533711E1,4.498065950E0,1.180059188E1
2.240678167E0,-4.562281534E0,-1.074927801E1,3.290919973E0,1.213225226E1
2.250621167E0,-4.943172378E0,-8.653342391E0,2.687860663E0,1.032181586E1
2.260565167E0,-6.206370349E0,-3.889159132E0,1.760207501E0,7.532789796E0
2.270509167E0,-7.061043828E0,-8.004867464E-1,-2.865430954E-1,7.112047941E0
2.280452167E0,-6.744719401E0,9.303364491E-1,-1.909170874E0,7.071187958E0
2.290396167E0,-6.294790775E0,1.932856776E0,-3.413328509E0,7.416949354E0
2.300340167E0,-6.750729754E0,2.133596367E0,-4.932685981E0,8.628787670E0
2.310284167E0,-7.532048158E0,1.942887674E0,-5.844525349E0,9.729596010E0
2.320227167E0,-7.960090656E0,1.736076919E0,-6.084388075E0,1.016842095E1
2.330171167E0,-7.856583830E0,1.261341480E0,-5.823759547E0,9.860682890E0
2.340115167E0,-7.248412591E0,1.335767764E0,-4.971344848E0,8.890333526E0
2.350058167E0,-6.996451975E0,1.428208736E0,-4.225626339E0,8.297351288E0
2.360002167E0,-7.703629439E0,9.903101707E-1,-3.673265312E0,8.591827443E0
2.369946167E0,-8.361187431E0,6.469558203E-1,-3.099304670E0,8.940564664E0
2.379889167E0,-8.137316254E0,8.947953182E-1,-2.243260019E0,8.488155866E0
2.389833167E0,-7.111967229E0,1.743308755E0,-1.292743659E0,7.435750765E0
2.399777167E0,-5.332934325E0,2.862245391E0,-8.521001190E-1,6.112177337E0
2.409720167E0,-3.220058444E0,3.800375009E0,-7.714369020E-1,5.040510042E0
2.419664167E0,-1.460800531E0,4.466676927E0,-8.015950862E-1,4.767357302E0
2.429608167E0,3.498564541E-2,4.909493585E0,-5.781435938E-1,4.943541370E0
2.439552167E0,1.420581043E0,5.098370930E0,7.435670257E-2,5.293105474E0
2.449495167E0,2.678935765E0,4.966257770E0,1.853388437E0,5.939314924E0
2.459439167E0,3.965952369E0,4.620798422E0,3.001720780E0,6.789026726E0
2.469383167E0,4.502644028E0,3.973570122E0,3.563043543E0,6.982717382E0
2.479326167E0,5.533956336E0,2.775108429E0,4.170107319E0,7.464294647E0
2.489270167E0,5.601280008E0,1.691424072E0,4.952782862E0,7.665853585E0
2.499214167E0,5.129247152E0,9.070709628E-1,5.320317203E0,7.445651699E0
2.509157167E0,3.774729706E0,7.158857220E-1,5.621644106E0,6.809108545E0
2.519101167E0,1.815891120E0,1.192999808E0,6.180035659E0,6.550843446E0
2.529045167E0,1.957709196E-1,1.754520791E0,6.691619081E0,6.920580568E0
2.538988417E0,-4.510618168E-1,2.115524377E0,6.914192176E0,7.244649998E0
2.548932417E0,-4.060768479E-1,2.316371557E0,6.525564589E0,6.936387302E0
2.558876417E0,-3.699261448E-1,2.620971732E0,5.374342552E0,5.990817643E0
2.568820417E0,-8.187125176E-2,3.206507229E0,4.016491023E0,5.140096463E0
2.578763417E0,6.395751724E-1,4.051640391E0,3.336156957E0,5.287228906E0
2.588707417E0,1.626880167E0,4.498753583E0,2.809325166E0,5.547777101E0
2.598651417E0,2.725424638E0,4.190045155E0,2.170400496E0,5.449317037E0
2.608594417E0,3.485040516E0,3.202924055E0,1.554303941E0,4.981976580E0
2.618538417E0,3.697709012E0,2.256615937E0,1.329413595E0,4.531303116E0
2.628482417E0,3.891117949E0,1.193401512E0,1.379681523E0,4.297502434E0
2.638425417E0,4.416986704E0,-3.570917988E-1,1.730448389E0,4.757282599E0
2.648369417E0,4.987344584E0,-2.416546640E0,2.726723304E0,6.176432922E0
2.658313417E0,6.148256042E0,-4.751599467E0,3.144134395E0,8.382382176E0
2.668256417E0,7.003859813E0,-6.339331355E0,3.100377342E0,9.942510446E0
2.678200417E0,6.678845254E0,-7.093691756E0,4.126209932E0,1.058078660E1
2.688144417E0,5.920271934E0,-7.255991752E0,5.413711855E0,1.081699182E1
2.698088417E0,5.475106450E0,-6.647096043E0,6.085789068E0,1.054502276E1
2.708031417E0,5.439178818E0,-5.290799289E0,6.056422597E0,9.708629048E0
2.717975417E0,5.437480202E0,-3.362981059E0,5.208840621E0,8.246687405E0
2.727919417E0,5.546164738E0,-1.117105873E0,4.118115047E0,6.997623909E0
2.737862417E0,5.667666956E0,7.540621930E-1,2.986344942E0,6.450528244E0
2.747806417E0,5.092559967E0,1.915969432E0,1.729019914E0,5.709169445E0
2.757750417E0,3.713632734E0,2.366956404E0,7.068589367E-1,4.460179398E0
2.767693417E0,1.950116002E0,2.098542309E0,5.912499815E-2,2.865366994E0
2.777637417E0,-2.488750398E-2,1.268826501E0,-5.915043354E-3,1.269084341E0
2.787581417E0,-2.035716900E0,-5.960546386E-1,7.338659102E-1,2.244545300E0
2.797524417E0,-5.250199732E0,-4.066925012E0,3.019836331E0,7.295470358E0
2.807468417E0,-1.066673287E1,-9.489469671E0,6.914116747E0,1.586298317E1
2.817412417E0,-1.785359825E1,-1.498935838E1,1.038863344E1,2.552166805E1
2.827356417E0,-2.491350772E1,-1.788019139E1,9.691267608E0,3.216060912E1
2.837299417E0,-2.568121673E1,-1.652871508E1,7.617650226E0,3.147621181E1
2.847243417E0,-1.903777870E1,-1.123597335E1,4.171106023E0,2.249627170E1
2.857187417E0,-1.205118046E1,-5.872049947E0,8.282019639E-1,1.343122628E1
2.867130417E0,-7.977156340E0,-3.173020810E0,-7.852965572E-1,8.620891776E0
2.877074417E0,-6.354206672E0,-2.202597020E0,-2.819756598E0,7.292352387E0
2.887018417E0,-3.950283878E0,-1.779415897E0,-4.746931050E0,6.426851332E0
2.896961417E0,4.683749546E0,-3.485473210E0,-1.537893146E1,1.644985003E1
2.906905417E0,1.162679656E1,-5.384708496E0,-2.815396447E1,3.093255888E1
2.916849417E0,1.087912479E1,-2.916268401E0,-2.262809308E1,2.527628481E1
2.926792417E0,1.168475299E1,5.888672411E-2,-1.947663914E1,2.271291246E1
2.936736417E0,1.090830590E1,2.451806520E0,-1.522899715E1,1.889245477E1
2.946680417E0,1.015454835E1,4.339325740E0,-1.152796809E1,1.596366651E1
2.956623417E0,9.105536814E0,5.653157090E0,-8.503378267E0,1.368124365E1
2.966567417E0,7.694089707E0,6.733191615E0,-6.067125925E0,1.188885624E1
2.976511417E0,6.130744801E0,7.828310203E0,-3.538684042E0,1.055418198E1
2.986455417E0,4.577730755E0,9.087380624E0,-1.320161546E0,1.026055223E1
2.996398417E0,3.120396454E0,1.053655864E1,5.699783957E-1,1.100367291E1
3.006342417E0,1.749874886E0,1.190506906E1,2.512981260E0,1.229259152E1
3.016286417E0,-2.392894068E-1,1.248353995E1,4.693233145E0,1.333875806E1
3.026229417E0,-3.855306677E0,1.125471133E1,3.393314660E0,1.237119643E1
3.036173417E0,-5.216805114E0,9.652678324E0,-1.916226125E0,1.113827531E1
3.046117417E0,-6.644865915E0,7.081134861E0,-3.029485699E0,1.017224152E1
3.056060417E0,-7.699238765E0,4.427848492E0,-3.260792195E0,9.461336352E0
3.066004417E0,-7.466121971E0,2.421461225E0,-3.021086174E0,8.410315893E0
3.075948417E0,-5.728093836E0,5.745906794E-1,-4.003635335E0,7.012154401E0
3.085891417E0,4.425126028E-1,-2.462796947E0,-6.940218133E-1,2.596700307E0
3.095835417E0,8.214582531E0,-9.882620080E0,4.715252590E0,1.368865051E1
3.105779417E0,4.191345283E0,-1.696905018E1,3.748488572E0,1.787644276E1
3.115723417E0,-4.853562336E0,-1.816170909E1,1.775284839E0,1.888270057E1
3.125666417E0,-2.449382849E0,-1.404469859E1,1.295398880E0,1.431541452E1
3.135610417E0,2.918109105E0,-8.311632278E0,8.474322867E-1,8.849674195E0
3.145554417E0,5.262226285E0,-3.849366490E0,9.626823691E-1,6.590554240E0
3.155497417E0,6.061796772E0,-1.025361890E0,1.617826923E0,6.357209377E0
3.165441417E0,3.790086833E0,-1.048391733E0,3.126771088E0,5.024000484E0
3.175385417E0,2.844571012E-1,-3.933386886E0,4.911125543E0,6.298539699E0
3.185328417E0,-2.635714316E0,-8.995872869E0,5.476501595E0,1.085655509E1
3.195272417E0,-4.280235533E0,-1.316441781E1,5.687734600E0,1.496571540E1
3.205216417E0,-4.059694930E0,-1.383579511E1,5.635203799E0,1.548114567E1
3.215159417E0,-3.230390182E0,-9.828770732E0,5.360720294E0,1.165235928E1
3.225103417E0,-4.475400096E0,-3.654095215E0,4.687330673E0,7.439938622E0
3.235047417E0,-6.651327088E0,-2.004855881E0,7.198770314E-1,6.984112118E0
3.244990417E0,-7.002101555E0,-1.115878542E0,-1.750459900E0,7.303336290E0
3.254934417E0,-6.613490925E0,4.047138619E-1,-3.357474151E0,7.427966626E0
3.264878417E0,-6.688079177E0,1.685200295E0,-4.642551234E0,8.314059482E0
3.274822417E0,-6.928804368E0,2.173405380E0,-5.377397722E0,9.035951924E0
3.284765417E0,-6.887370998E0,2.071933969E0,-5.447725693E0,9.022555340E0
3.294709417E0,-6.146845694E0,2.312063913E0,-5.179245524E0,8.363846945E0
3.304653417E0,-6.028548335E0,2.135315448E0,-4.668898787E0,7.918433114E0
3.314596417E0,-7.002586874E0,1.329004875E0,-4.112302330E0,8.228821746E0
3.324540417E0,-8.450199594E0,6.993363476E-1,-3.184888319E0,9.057508383E0
3.334484417E0,-9.356756587E0,8.397999161E-1,-2.321145809E0,9.676873234E0
3.344427417E0,-8.438294663E0,1.944337783E0,-1.820111056E0,8.848619695E0
3.354371417E0,-6.304135210E0,3.287199975E0,-1.327966117E0,7.232655005E0
3.364315417E0,-4.287353640E0,4.420362301E0,-1.123642767E0,6.259678681E0
3.374258417E0,-2.697005123E0,5.054934304E0,-1.011419789E0,5.818003733E0
3.384202417E0,-1.077093084E0,5.291292794E0,-7.962761664E-1,5.458201597E0
3.394146417E0,6.165312955E-1,5.405718711E0,1.375636420E-1,5.442502125E0
3.404089417E0,2.208641286E0,5.215754369E0,1.306602437E0,5.812865034E0
3.414033417E0,3.501942770E0,4.341546512E0,1.970188031E0,5.915595504E0
3.423977417E0,4.478419306E0,3.371965891E0,1.499700595E0,5.803059135E0
3.433921417E0,5.216824409E0,2.353866827E0,1.669565133E0,5.961828050E0
3.443864417E0,4.751801780E0,1.147167578E0,2.069139000E0,5.308196475E0
3.453808417E0,3.180339770E0,1.092289120E-1,2.021843796E0,3.770191553E0
3.463752417E0,1.254786167E0,-3.007918829E-1,1.745066428E0,2.170304338E0
3.473695417E0,-4.531656450E-1,4.172233951E-1,1.750034515E0,1.855277679E0
3.483639417E0,-1.295662297E0,1.622991183E0,1.601253574E0,2.622375675E0
3.493583417E0,-1.551714794E0,2.402074782E0,1.556506587E0,3.255840109E0
3.503526417E0,-9.627963898E-1,3.067982597E0,2.848468766E0,4.295726762E0
3.513470417E0,-6.563850403E-1,4.177954867E0,4.883244265E0,6.460048199E0
3.523414417E0,-6.640220886E-1,5.394922997E0,6.349809566E0,8.358600421E0
3.533357667E0,-3.957664526E-1,6.333510452E0,7.155799711E0,9.564280174E0
3.543301667E0,1.159661323E0,6.783033282E0,7.227791800E0,9.979745948E0
3.553245667E0,3.300108288E0,6.463182984E0,6.315252521E0,9.620076060E0
3.563188667E0,4.684809646E0,5.592727870E0,4.730223216E0,8.694886895E0
3.573132667E0,5.433356161E0,4.536927130E0,3.194218136E0,7.765828768E0
3.583076667E0,5.950099751E0,3.340296201E0,2.293493156E0,7.198706593E0
3.593019667E0,6.224839949E0,2.144597903E0,2.672574579E0,7.105672905E0
3.602963667E0,6.620261416E0,6.395140690E-1,4.562884090E0,8.065776508E0
3.612907667E0,7.388527665E0,-2.251758655E0,6.522483106E0,1.010957684E1
3.622851667E0,8.813749643E0,-5.999989364E0,7.981665128E0,1.331874744E1
3.632794667E0,9.953598261E0,-9.211053329E0,8.337336638E0,1.591944735E1
3.642738667E0,9.920238726E0,-1.159226641E1,7.188808998E0,1.686626075E1
3.652682667E0,8.886017720E0,-1.249356559E1,5.608260999E0,1.632492216E1
3.662625667E0,7.061665971E0,-1.124842441E1,4.568285748E0,1.404504940E1
3.672569667E0,4.951426892E0,-7.701482341E0,3.684280881E0,9.869315282E0
3.682513667E0,3.744918262E0,-3.830769421E0,2.166916286E0,5.778817642E0
3.692456667E0,3.011525391E0,-9.224444622E-1,6.479871230E-1,3.215598899E0
3.702400667E0,2.361164445E0,6.619667923E-1,-4.324274714E-1,2.490038371E0
3.712344667E0,1.532292098E0,1.238247317E0,-1.054385129E0,2.234480587E0
3.722287667E0,4.620463961E-1,1.168908695E0,-1.448307370E0,1.917662287E0
3.732231667E0,-8.063032642E-1,3.474058861E-1,-1.493272751E0,1.732246897E0
3.742175667E0,-2.466191840E0,-1.037805349E0,-1.116429350E0,2.899233800E0
3.752118667E0,-5.261657935E0,-3.613500921E0,4.834577304E-1,6.401262728E0
3.762062667E0,-9.661876579E0,-7.519335142E0,3.714328845E0,1.279408061E1
3.772006667E0,-1.478176819E1,-1.173026070E1,7.666575633E0,2.036850679E1
3.781949667E0,-1.943955960E1,-1.471717283E1,9.667350157E0,2.622878786E1
3.791893667E0,-2.236019470E1,-1.513706840E1,8.208882081E0,2.822224109E1
3.801837667E0,-1.859561693E1,-1.091508400E1,4.622658421E0,2.205232411E1
3.811780667E0,-1.214104631E1,-5.395610629E0,2.669750374E0,1.355157506E1
3.821724667E0,-7.722705980E0,-3.009023952E0,1.074342261E0,8.357548929E0
3.831668667E0,-5.621992600E0,-1.363095896E0,-1.963191838E0,6.108924079E0
3.841612667E0,-4.750836698E0,-6.933277488E-2,-4.390794686E0,6.469492587E0
3.851555667E0,-2.247498373E0,1.599805804E0,-8.792276328E0,9.214919999E0
3.861499667E0,5.220694681E0,2.365777021E0,-2.464201214E1,2.529982838E1
3.871443667E0,6.619858543E0,1.468848054E0,-2.343312135E1,2.439449155E1
3.881386667E0,6.157439679E0,2.142726209E0,-1.792394493E1,1.907283778E1
3.891330667E0,7.093019911E0,2.964574004E0,-1.399439031E1,1.596692177E1
3.901274667E0,7.402398430E0,3.978030962E0,-1.074846057E1,1.364366657E1
3.911217667E0,7.644947952E0,5.026432636E0,-8.469801800E0,1.246787058E1
3.921161667E0,7.450820392E0,5.922090418E0,-6.303909507E0,1.141600431E1
3.931105667E0,6.753750426E0,6.638402402E0,-4.603570771E0,1.052969112E1
3.941048667E0,5.626998986E0,7.330689347E0,-3.191702664E0,9.776967310E0
3.950992667E0,4.552252975E0,8.049782851E0,-2.105863608E0,9.484549153E0
3.960936667E0,3.223771426E0,8.420736644E0,-1.368878208E0,9.120051282E0
3.970879667E0,1.913359527E0,8.301695520E0,5.176844072E-1,8.535050693E0
3.980823667E0,-1.257306316E-1,7.642759924E0,1.962055432E0,7.891593563E0
3.990767667E0,-3.179051628E0,5.451108307E0,4.397556406E-1,6.325688583E0
4.000710667E0,-4.203658935E0,3.545513590E0,-2.027246039E0,5.860984692E0
4.010654667E0,-4.621715850E0,1.693624379E0,-1.525052075E0,5.153096620E0
4.020598667E0,-4.504026602E0,-7.388658643E-2,-1.408982506E0,4.719846031E0
4.030541667E0,-2.803368607E0,-2.142709837E0,-9.424735147E-1,3.652168851E0
4.040485667E0,2.047353152E0,-4.610274603E0,8.330890667E-1,5.112760921E0
4.050429667E0,7.034558280E0,-9.634565989E0,3.445082399E0,1.241686211E1
4.060373667E0,4.236182317E0,-1.377601669E1,5.130039450E0,1.529840453E1
4.070316667E0,-3.931635645E0,-1.304668529E1,5.420758334E0,1.466486880E1
4.080260667E0,-4.070076954E0,-8.011684148E0,4.133376864E0,9.891279675E0
4.090204667E0,-3.440852523E-2,-2.579527836E0,2.066199020E0,3.305196847E0
4.100147667E0,1.682653833E0,1.126551465E0,8.577198780E-1,2.199119259E0
4.110091667E0,1.623140872E0,2.734629909E0,9.924888432E-1,3.331339241E0
4.120035667E0,-3.199187100E-2,1.605816157E0,1.999796285E0,2.564927717E0
4.129978667E0,-2.561939119E0,-1.984217548E0,3.460382223E0,4.740769606E0
4.139922667E0,-4.512567045E0,-6.050201159E0,5.260582048E0,9.200104287E0
4.149866667E0,-5.498479525E0,-9.979743501E0,6.568282592E0,1.315183993E1
4.159809667E0,-4.672181122E0,-1.238654400E1,6.624114146E0,1.480319685E1
4.169753667E0,-4.464937673E0,-1.114560463E1,6.551770055E0,1.367793339E1
4.179697667E0,-6.117633589E0,-6.508640993E0,5.300838958E0,1.038685429E1
4.189640667E0,-7.049652282E0,-3.202714140E0,3.164805472E-1,7.749524831E0
4.199584667E0,-6.252798995E0,-2.191611856E0,-1.952673282E0,6.907502497E0
4.209528667E0,-5.878970711E0,-1.003422552E0,-3.770973747E0,7.056160177E0
4.219471667E0,-6.458628003E0,-9.680942595E-2,-4.847880889E0,8.076211789E0
4.229415667E0,-7.688291023E0,-6.409331882E-1,-5.688417554E0,9.585338204E0
4.239359667E0,-7.572529601E0,-3.080032539E-1,-6.334431973E0,9.877403454E0
4.249302667E0,-6.292401018E0,7.974537957E-1,-6.483300914E0,9.069919176E0
4.259246667E0,-6.538789237E0,1.575286090E0,-6.152321026E0,9.115280849E0
4.269190667E0,-7.180433446E0,2.195052942E0,-5.783700857E0,9.477767538E0
4.279134667E0,-7.534550182E0,2.758581274E0,-5.063701619E0,9.487902359E0
4.289077667E0,-6.553821259E0,3.299468603E0,-4.096493797E0,8.403590160E0
4.299021667E0,-5.152136078E0,3.672736723E0,-3.476245134E0,7.219264605E0
4.308965667E0,-3.787859629E0,3.278779399E0,-3.256170555E0,5.975024820E0
4.318908667E0,-2.288538811E0,2.685368287E0,-3.036512590E0,4.654999617E0
4.328852667E0,-4.019759032E-1,2.546256010E0,-2.219433785E0,3.401601185E0
4.338796667E0,6.115316337E-1,2.647267830E0,-1.613794683E0,3.160115691E0
4.348739667E0,1.243573838E0,2.623797106E0,-9.318128711E-1,3.049436402E0
4.358683667E0,2.054868870E0,1.875423669E0,3.321589789E-1,2.801790428E0
4.368627667E0,3.657557936E0,7.507444829E-1,2.866808558E0,4.707434402E0
4.378570667E0,5.359461973E0,2.382547420E-1,3.341660649E0,6.320387160E0
4.388514667E0,6.677973434E0,-4.136191714E-1,2.952002490E0,7.313051942E0
4.398458667E0,6.533035576E0,-8.411734271E-1,3.040020627E0,7.254643478E0
4.408401667E0,5.337899780E0,-6.546829158E-1,4.035104465E0,6.723380982E0
4.418345667E0,3.578277586E0,6.147090107E-1,5.344631680E0,6.461193809E0
4.428289667E0,2.124632293E0,2.178297746E0,5.342520835E0,6.148298327E0
4.438232667E0,9.051425511E-1,3.466512444E0,5.114276526E0,6.244342715E0
4.448176667E0,-3.106964815E-1,4.269386609E0,4.366895362E0,6.115060868E0
4.458120667E0,-1.398511897E0,5.213447642E0,3.726627586E0,6.559239667E0
4.468063667E0,-1.777216759E0,6.373704797E0,3.663303410E0,7.563227097E0
4.478007667E0,-2.329706425E0,7.510345632E0,4.433888081E0,9.027302313E0
4.487951667E0,-2.064378197E0,8.459058711E0,4.858405877E0,9.971030001E0
4.497894667E0,-8.125653398E-1,8.936485038E0,4.485020227E0,1.003177122E1
4.507838667E0,1.575508284E0,8.921261228E0,2.920139843E0,9.518316287E0
4.517782667E0,4.310715314E0,8.020621617E0,5.621383759E-1,9.122973046E0
4.527725667E0,5.386705320E0,6.230380771E0,-6.177659351E-1,8.259290133E0
4.537673542E0,5.486095122E0,4.252944238E0,-1.223209009E-1,6.942603027E0
4.547617542E0,5.453962333E0,2.380947037E0,1.163695244E0,6.063728271E0
4.557561542E0,5.485782296E0,4.335470670E-1,2.451442239E0,6.024229371E0
4.567504542E0,5.584209647E0,-2.025643902E0,3.409240136E0,6.849054599E0
4.577448542E0,5.200609496E0,-5.164533345E0,4.430792565E0,8.564500367E0
4.587392542E0,5.132353778E0,-9.073559561E0,7.936051583E0,1.310158209E1
4.597335542E0,6.726219395E0,-1.323007737E1,1.130617852E1,1.865761633E1
4.607279542E0,8.122346798E0,-1.383820066E1,9.890841265E0,1.884932508E1
4.617223542E0,8.564271755E0,-1.017908561E1,5.899818959E0,1.455226437E1
4.627166542E0,7.928424475E0,-4.734204000E0,2.888888229E0,9.675653847E0
4.637110542E0,6.895902670E0,-8.273190343E-1,1.062018085E0,7.026080901E0
4.647054542E0,5.729304210E0,1.335068437E0,-1.463582928E-1,5.884620227E0
4.656997542E0,4.476495572E0,2.241155899E0,-9.818714690E-1,5.101555052E0
4.666941542E0,2.937794341E0,2.131225321E0,-1.353983595E0,3.873761548E0
4.676885542E0,1.513004765E0,7.685135865E-1,-1.534441242E0,2.287860677E0
4.686828542E0,-2.763411659E-1,-2.158407857E0,-1.031801428E0,2.408257275E0
4.696772542E0,-4.161468058E0,-7.029308649E0,1.342983229E0,8.278441909E0
4.706716542E0,-1.144130651E1,-1.351376322E1,7.002147163E0,1.904088643E1
4.716659542E0,-2.037434695E1,-1.923553388E1,1.100943701E1,3.010527330E1
4.726603542E0,-2.586145364E1,-2.135494139E1,8.805978109E0,3.467554696E1
4.736547542E0,-2.513553351E1,-1.912340533E1,4.327764040E0,3.187835030E1
4.746490542E0,-1.798617919E1,-1.204465029E1,2.220975403E0,2.176026135E1
4.756434542E0,-1.151633096E1,-5.252856706E0,3.188708889E-1,1.266175585E1
4.766378542E0,-8.731972239E0,-3.163971659E0,-1.972896169E0,9.494755138E0
4.776321542E0,-6.823096064E0,-2.102624835E0,-3.604008843E0,7.997784121E0
4.786265542E0,-5.228667945E0,-1.224332113E0,-5.495785713E0,7.683854384E0
4.796209542E0,-1.761630421E0,-5.892204130E-1,-8.976388192E0,9.166573373E0
4.806152542E0,5.117338713E0,-1.786497459E0,-2.193157275E1,2.259142784E1
4.816096542E0,8.452184724E0,-2.752514788E0,-2.513374193E1,2.665934634E1
4.826040542E0,8.181258665E0,-1.260214137E0,-2.040981148E1,2.202456669E1
4.835983542E0,8.639588571E0,4.487211764E-1,-1.672492893E1,1.882995191E1
4.845927542E0,8.379049505E0,2.267307571E0,-1.294358602E1,1.558478660E1
4.855871542E0,8.001577821E0,3.754000157E0,-9.313511165E0,1.283975292E1
4.865814542E0,6.655606665E0,4.675911938E0,-6.283268251E0,1.027816678E1
4.875758542E0,4.438448909E0,5.199155293E0,-4.106254554E0,7.974482488E0
4.885702542E0,2.516235235E0,5.574000993E0,-2.156253743E0,6.484624664E0
4.895645542E0,8.435459349E-1,6.126282206E0,-4.728491271E-1,6.202135899E0
4.905589542E0,-4.867514670E-2,7.107276008E0,5.810103375E-1,7.131150996E0
4.915533542E0,4.448968050E-1,8.987689106E0,1.919028695E0,9.201041233E0
4.925477542E0,-6.048897815E-1,1.068995450E1,2.139511995E0,1.091872385E1
4.935420542E0,-2.624354931E0,1.009716612E1,9.848523796E-1,1.047902365E1
4.945364542E0,-2.323956565E0,9.434388900E0,-8.474170840E-1,9.753285792E0
4.955308542E0,-2.585844876E0,8.098585467E0,-5.886649275E-1,8.521749039E0
4.965251542E0,-3.196656717E0,5.480891100E0,-9.882794327E-1,6.421485627E0
4.975195542E0,-2.125216137E0,3.428593251E0,-3.344250673E0,5.239828993E0
4.985139542E0,9.444171292E-1,2.287569342E0,-2.869482490E0,3.789304286E0
4.995082542E0,5.294356735E0,-3.421012920E-1,-2.249663597E-1,5.310165383E0
5.005026542E0,8.815177533E0,-4.721100975E0,1.987506022E0,1.019540728E1
5.014970542E0,4.271075869E0,-8.973935870E0,1.414107006E0,1.003859117E1
5.024913542E0,-2.248759618E0,-1.092270175E1,-6.295697093E-2,1.115196381E1
5.034857542E0,-3.288627865E0,-1.265206607E1,-4.672217667E-1,1.308083121E1
5.044801542E0,-1.398951315E0,-1.286544851E1,7.638714820E-1,1.296380846E1
5.054744542E0,2.710636152E0,-9.748513019E0,3.233105044E0,1.062233603E1
5.064688542E0,3.939792803E0,-7.450536218E0,6.744500130E0,1.079447726E1
5.074632542E0,2.414242253E-1,-8.431196144E0,8.516663725E0,1.198653057E1
5.084575542E0,-3.473297261E0,-1.015645805E1,7.950970169E0,1.335796993E1
5.094519542E0,-2.542650617E0,-9.565534346E0,6.229857445E0,1.169511194E1
5.104463542E0,-4.686286068E-1,-7.547769567E0,3.948386748E0,8.531013780E0
5.114406542E0,-4.420553505E-2,-5.848406730E0,2.400654201E0,6.322100601E0
5.124350542E0,-1.146162149E0,-4.297912835E0,1.495478028E0,4.692781365E0
5.134294542E0,-2.704063297E0,-2.702486011E0,3.815852004E-1,3.842004193E0
5.144237542E0,-4.196060770E0,-1.493667730E0,-1.497110571E0,4.698862558E0
5.154181542E0,-5.628432139E0,-1.226254678E0,-3.568152255E0,6.776035669E0
5.164125542E0,-6.804942214E0,-1.372550259E0,-4.769824069E0,8.422728441E0
5.174068542E0,-8.101209698E0,-1.308079444E0,-4.685882025E0,9.449770407E0
5.184012542E0,-9.325206766E0,-1.021337836E0,-4.017922129E0,1.020520997E1
5.193956542E0,-9.557778599E0,-7.303610891E-1,-3.894183352E0,1.034645944E1
5.203899542E0,-8.588287439E0,-2.680164850E-1,-4.264847415E0,9.592676240E0
5.213843542E0,-7.434042976E0,2.722989857E-1,-4.487942666E0,8.687967028E0
5.223787542E0,-7.065577759E0,1.135516416E0,-3.994894917E0,8.195789894E0
5.233730542E0,-7.150651238E0,1.963161725E0,-2.847666528E0,7.943237485E0
5.243674542E0,-7.223122798E0,2.630152445E0,-1.809553615E0,7.897195016E0
5.253618542E0,-6.823662075E0,3.390757672E0,-1.108959239E0,7.699960539E0
5.263561542E0,-5.753043905E0,4.326161903E0,-7.131088793E-1,7.233375095E0
5.273505542E0,-4.421471518E0,5.166075255E0,-8.028846896E-1,6.847070012E0
5.283449542E0,-3.089577827E0,5.649873294E0,-1.109139041E0,6.534274925E0
5.293392542E0,-1.706482406E0,5.783533042E0,-1.488970369E0,6.211148800E0
5.303336542E0,-1.338690788E-2,5.674073165E0,-1.835070572E0,5.963452817E0
5.313280542E0,1.596864654E0,5.467316204E0,-1.111227082E0,5.803132674E0
5.323223542E0,2.843397476E0,5.058330951E0,2.409997174E-1,5.807727790E0
5.333167542E0,3.651212538E0,4.124767424E0,2.476941946E0,6.039892441E0
5.343111542E0,2.758208807E0,2.702638038E0,5.055248299E0,6.361407356E0
5.353054542E0,2.421506833E0,3.764437437E-3,6.326959231E0,6.774520103E0
5.362998542E0,2.210915269E0,-2.593980984E0,6.711746367E0,7.527577497E0
5.372942542E0,1.890325298E0,-4.225780998E0,6.826898509E0,8.248460343E0
5.382885542E0,1.796326629E0,-4.679089315E0,6.128864336E0,7.917300312E0
5.392829542E0,1.763228465E0,-3.274480526E0,5.774804319E0,6.868738039E0
5.402773542E0,1.581329480E0,-5.625167638E-1,5.857940615E0,6.093643925E0
5.412716542E0,1.521582922E0,1.625964493E0,5.537492732E0,5.968483968E0
5.422660542E0,1.535178576E0,2.995640261E0,4.818826075E0,5.878070990E0
5.432604542E0,1.753632599E0,3.929355816E0,3.393757879E0,5.480205923E0
5.442547542E0,2.059468875E0,4.709111259E0,1.738543128E0,5.425833863E0
5.452491542E0,2.129244284E0,5.455190248E0,4.962023216E-1,5.876988907E0
5.462435542E0,1.949292129E0,6.122973266E0,-1.994818550E-1,6.428867275E0
5.472378542E0,1.872739797E0,6.596600658E0,-1.179383397E-3,6.857280509E0
5.482322542E0,2.176893244E0,6.813430032E0,9.669438198E-1,7.217802529E0
5.492266542E0,3.144098727E0,6.429198382E0,1.905317559E0,7.406090983E0
5.502210542E0,4.401020882E0,5.781395300E0,1.833875109E0,7.493771703E0
5.512153542E0,5.108609989E0,4.918744465E0,1.449369809E0,7.238274379E0
5.522097542E0,5.121587884E0,3.118574461E0,1.404562595E0,6.158649626E0
5.532041542E0,5.458589235E0,1.445667352E0,1.639651655E0,5.880017694E0
5.541980167E0,6.290685444E0,1.527859908E-1,2.522194133E0,6.779198342E0
5.551924167E0,6.683821819E0,-1.837901502E0,3.672568908E0,7.844687274E0
5.561868167E0,6.368545799E0,-4.146406800E0,4.660677602E0,8.914761951E0
5.571811167E0,5.401398203E0,-6.248465039E0,5.850679543E0,1.012170287E1
5.581755167E0,4.050194374E0,-7.807991129E0,7.389087828E0,1.148770729E1
5.591699167E0,3.487432027E0,-8.658824156E0,8.121045792E0,1.237290599E1
5.601642167E0,3.778292415E0,-8.260375586E0,6.985641643E0,1.145899156E1
5.611586167E0,3.695124543E0,-5.750474054E0,5.279494282E0,8.636837217E0
5.621530167E0,3.481436877E0,-2.258602821E0,3.744690220E0,5.589668530E0
5.631473167E0,3.217772183E0,2.666347879E-1,2.329062939E0,3.981166425E0
5.641417167E0,2.639182592E0,1.568936598E0,9.485632436E-1,3.213505723E0
5.651361167E0,1.686901250E0,1.896884705E0,-1.484646061E-1,2.542803404E0
5.661304167E0,6.188769060E-1,1.346801460E0,-9.097945958E-1,1.739140306E0
5.671248167E0,-9.446849316E-1,-2.492855144E-1,-6.535690212E-1,1.175468142E0
5.681192167E0,-3.740578166E0,-3.506186972E0,1.105578964E0,5.244766624E0
5.691135167E0,-9.037131407E0,-8.546241281E0,4.356929367E0,1.317918122E1
5.701079167E0,-1.597892946E1,-1.446864979E1,7.311985273E0,2.276253813E1
5.711023167E0,-2.190948197E1,-1.801877975E1,6.882709597E0,2.919029831E1
5.720966167E0,-2.472605534E1,-1.813184853E1,4.824653702E0,3.103899205E1
5.730910167E0,-2.020842870E1,-1.420770609E1,2.393229699E0,2.481868351E1
5.740854167E0,-1.126431246E1,-8.194533014E0,1.253284017E0,1.398591532E1
5.750797167E0,-5.998262681E0,-4.387507966E0,2.269175756E-1,7.435110822E0
5.760741167E0,-4.284237659E0,-2.771960288E0,-1.437179534E0,5.301315042E0
5.770685167E0,-4.123578685E0,-2.126394936E0,-4.545958155E0,6.495474743E0
5.780628167E0,-9.906212425E-1,-1.921091593E0,-9.015377426E0,9.270865844E0
5.790572167E0,5.622950959E0,-3.485416492E0,-2.031640806E1,2.136637878E1
5.800516167E0,8.528259339E0,-3.362098714E0,-2.316833838E1,2.491599523E1
5.810459167E0,9.029757484E0,-1.007945373E0,-2.075809504E1,2.265945683E1
5.820403167E0,9.252893080E0,1.190172679E0,-1.765245169E1,1.996601092E1
5.830347167E0,8.141453744E0,3.144601588E0,-1.374571876E1,1.628240069E1
5.840290167E0,7.201092829E0,4.456339635E0,-1.021488577E1,1.326870725E1
5.850234167E0,5.608476176E0,5.289172593E0,-7.105522428E0,1.048421674E1
5.860178167E0,3.612220965E0,5.872106665E0,-4.714367906E0,8.351948380E0
5.870121167E0,1.729925063E0,6.248252785E0,-2.848485723E0,7.081466974E0
5.880065167E0,2.451497787E-1,6.807012128E0,-1.086537214E0,6.897541275E0
5.890009167E0,-5.590356240E-1,7.800872728E0,9.836443448E-1,7.882492775E0
5.899952167E0,-1.702948934E-1,9.503625780E0,3.065748961E0,9.987327972E0
5.909896167E0,-1.123362393E0,1.077393806E1,3.241896917E0,1.130705886E1
5.919840167E0,-2.687624435E0,1.036637426E1,3.290769700E0,1.120331226E1
5.929783167E0,-3.322917691E0,8.067964184E0,-1.078510156E0,8.791871940E0
5.939727167E0,-3.613126991E0,6.461615345E0,-4.291609536E0,8.557164948E0
5.949671167E0,-3.633030328E0,4.466383982E0,-2.375111516E0,6.228053464E0
5.959614167E0,-1.586444331E0,2.816403220E0,-2.498890055E0,4.085753813E0
5.969558167E0,2.445749682E0,1.711318054E0,-2.323881721E0,3.782952186E0
5.979502167E0,7.586802070E0,-1.130646855E0,-1.212414318E-1,7.671546614E0
5.989445167E0,1.041018511E1,-5.201195387E0,1.485157692E0,1.173158476E1
5.999389167E0,5.304629123E0,-8.975385979E0,7.784520990E-1,1.045478987E1
6.009333167E0,-1.534074914E0,-1.043777344E1,-5.625079930E-2,1.055005519E1
6.019276167E0,-3.969527649E0,-1.139890367E1,1.377335036E-1,1.207108633E1
6.029220167E0,-4.135199149E0,-1.125040544E1,1.342432421E0,1.206124452E1
6.039164167E0,-1.029768059E0,-8.659031147E0,2.699317112E0,9.128283274E0
6.049107167E0,2.301221421E0,-6.703845609E0,4.474933780E0,8.382254967E0
6.059051167E0,4.697989270E-1,-9.339238329E0,6.910542929E0,1.162745403E1
6.068995167E0,-2.200375078E0,-1.339124651E1,8.466091157E0,1.599505652E1
6.078938167E0,-2.643598117E0,-1.513391909E1,9.013445506E0,1.781197119E1
6.088882167E0,-6.430922726E-1,-1.237351758E1,7.255591217E0,1.435831149E1
6.098826167E0,1.151021478E-1,-6.412153748E0,5.007581213E0,8.136635287E0
6.108769167E0,-8.735038519E-1,-8.025771260E-1,3.216540467E0,3.428304478E0
6.118713167E0,-1.510253357E0,2.229784234E0,8.341181767E-1,2.819318369E0
6.128657167E0,-2.482617254E0,3.289983834E0,-1.889020784E0,4.533848429E0
6.138600167E0,-3.778021104E0,3.797822115E0,-3.992216600E0,6.680919821E0
6.148544167E0,-5.651162605E0,3.103381641E0,-5.489073109E0,8.467380940E0
6.158488167E0,-7.533733910E0,1.484776454E0,-5.693378917E0,9.559093641E0
6.168431167E0,-9.219375086E0,-1.652130783E-1,-4.985275254E0,1.048222981E1
6.178375167E0,-1.022739530E1,-1.352591958E0,-4.571581239E0,1.128399197E1
6.188319167E0,-1.000828844E1,-1.871458088E0,-4.251588854E0,1.103377545E1
6.198262167E0,-9.481490561E0,-1.746894853E0,-3.647998616E0,1.030816176E1
6.208206167E0,-1.016695030E1,-1.596201580E0,-2.926559208E0,1.069950871E1
6.218150167E0,-1.116602544E1,-6.025023633E-1,-1.649483456E0,1.130327072E1
6.228093167E0,-1.103903678E1,1.350880478E0,-6.318480769E-1,1.113931969E1
6.238037167E0,-9.730065054E0,3.311229107E0,-2.279078016E-1,1.028058102E1
6.247981167E0,-7.250238676E0,4.691529851E0,-4.354187608E-1,8.646733643E0
6.257924167E0,-4.733786217E0,5.214737538E0,-9.707021177E-1,7.109464265E0
6.267868167E0,-2.322728650E0,5.381847453E0,-1.368557488E0,6.019327204E0
6.277812167E0,9.217316866E-2,5.429958344E0,-1.700373235E0,5.690712842E0
6.287755167E0,2.083380186E0,5.368621051E0,-1.843188554E0,6.046479061E0
6.297699167E0,3.874015135E0,4.913639846E0,-1.536822228E0,6.443110457E0
6.307643167E0,5.162534181E0,3.843795848E0,-1.498692827E0,6.608525243E0
6.317586167E0,5.299848440E0,2.627920563E0,1.739225060E-1,5.918159258E0
6.327530167E0,4.917183259E0,1.276838940E0,3.698728766E0,6.284075379E0
6.337474167E0,4.704369752E0,-1.261040348E0,4.108411592E0,6.371841440E0
6.347417167E0,4.300891114E0,-3.558351737E0,4.534119297E0,7.191506745E0
6.357361167E0,4.412291974E0,-3.956607934E0,5.171018491E0,7.865271708E0
6.367305167E0,4.459509995E0,-2.270723514E0,4.924881118E0,7.021244099E0
6.377248167E0,3.824485126E0,2.218363452E-1,4.868053198E0,6.194662201E0
6.387192167E0,2.866945968E0,1.807419382E0,4.454658560E0,5.597332123E0
6.397136167E0,2.189223560E0,2.777277161E0,3.452288800E0,4.942091276E0
6.407079167E0,1.723261869E0,3.409412629E0,2.506845192E0,4.569244878E0
6.417023167E0,1.258259120E0,3.637109638E0,2.244891392E0,4.455482005E0
6.426967167E0,4.091203237E-1,3.935604150E0,2.208412076E0,4.531384266E0
6.436910167E0,-8.782161230E-1,4.409098810E0,2.292578652E0,5.046516893E0
6.446854167E0,-1.630652205E0,5.136484836E0,2.784549928E0,6.065988904E0
6.456798167E0,-1.610140173E0,5.845273207E0,3.260451887E0,6.884062518E0
6.466741167E0,-1.081369152E0,5.931880996E0,2.801951827E0,6.648872494E0
6.476685167E0,4.155750650E-1,5.210433987E0,2.053976001E0,5.616061109E0
6.486629167E0,2.518379702E0,4.719267873E0,1.968259327E0,5.699804414E0
6.496572167E0,3.077049290E0,4.873375334E0,2.679429855E0,6.355892056E0
6.506516167E0,2.957262645E0,4.674809153E0,3.531144058E0,6.562638290E0
6.516460167E0,2.949844283E0,3.501002246E0,4.683344334E0,6.549222257E0
6.526403167E0,3.466838719E0,1.512971728E0,5.814443178E0,6.936555602E0
6.536347667E0,4.612443920E0,-1.077233124E0,6.213227379E0,7.812762929E0
6.546291667E0,5.720653839E0,-3.757886217E0,5.856248431E0,9.007953977E0
6.556234667E0,6.049791854E0,-5.923386746E0,5.566249339E0,1.013260202E1
6.566178667E0,5.787966401E0,-7.135356676E0,5.558360276E0,1.073821395E1
6.576121667E0,5.420273015E0,-7.230365160E0,5.692922834E0,1.068021115E1
6.586065667E0,5.006111223E0,-6.090320075E0,5.405980666E0,9.559172305E0
6.596009667E0,4.135572201E0,-3.665503718E0,4.229666473E0,6.959091421E0
6.605952667E0,3.234861255E0,-1.009148145E0,2.772668971E0,4.378401596E0
6.615896667E0,2.459125188E0,4.210427964E-1,1.617509273E0,2.973366774E0
6.625840667E0,1.519841037E0,4.387154210E-1,7.104296851E-1,1.734098710E0
6.635783667E0,5.167169854E-1,-1.866179806E-1,-3.286091343E-2,5.503658359E-1
6.645727667E0,-7.580897552E-1,-1.414743183E0,-7.711512655E-2,1.606905440E0
6.655671667E0,-2.794011308E0,-3.601595405E0,6.784711432E-1,4.608504285E0
6.665614667E0,-6.233157613E0,-6.781879041E0,1.811345495E0,9.387604043E0
6.675558667E0,-1.023808284E1,-1.067924240E1,2.949589637E0,1.508524569E1
6.685502667E0,-1.388882468E1,-1.364175292E1,3.586858959E0,1.979551543E1
6.695445667E0,-1.728849409E1,-1.486076524E1,3.151594858E0,2.301449373E1
6.705389667E0,-1.863546922E1,-1.439172850E1,2.883504113E0,2.372166010E1
6.715333667E0,-1.538088443E1,-1.169702747E1,1.220740169E0,1.936187656E1
6.725276667E0,-1.003298006E1,-7.756826237E0,1.407532981E-1,1.268262014E1
6.735220667E0,-5.986690457E0,-4.988425734E0,-1.156329580E0,7.877940849E0
6.745164667E0,-4.051809668E0,-3.427962336E0,-2.975226461E0,6.084411217E0
6.755107667E0,-2.647840272E0,-2.254233781E0,-4.580161443E0,5.750696209E0
6.765051667E0,-1.346006239E0,-1.826500601E0,-5.870011607E0,6.293240303E0
6.774995667E0,1.666940610E0,-2.040032145E0,-7.726287400E0,8.163083923E0
6.784938667E0,5.626711303E0,-3.693943990E0,-1.557451614E1,1.696675147E1
6.794882667E0,7.286143504E0,-4.462241229E0,-2.129050040E1,2.294089996E1
6.804826667E0,8.215148542E0,-2.463552407E0,-2.001437832E1,2.177459749E1
6.814769667E0,1.058946893E1,-1.468990141E-1,-1.712058896E1,2.013139334E1
6.824713667E0,1.145470482E1,2.314786377E0,-1.366584813E1,1.798120974E1
6.834657667E0,1.076638229E1,4.169708539E0,-1.081896981E1,1.582250184E1
6.844600667E0,8.945652888E0,5.221007507E0,-8.851033244E0,1.362440511E1
6.854544667E0,6.589446005E0,5.778265870E0,-7.204026377E0,1.134491741E1
6.864488667E0,4.608772746E0,6.072872568E0,-5.621277485E0,9.472028717E0
6.874431667E0,2.727416199E0,6.259156673E0,-3.369589582E0,7.613801635E0
6.884375667E0,5.719503692E-1,6.567079235E0,-1.033875436E0,6.672522411E0
6.894319667E0,-1.268609861E0,7.307384099E0,1.404666676E0,7.548531104E0
6.904262667E0,-2.395059877E0,8.726108651E0,3.788436164E0,9.809869142E0
6.914206667E0,-4.675637411E0,9.287327918E0,4.513989088E0,1.133543747E1
6.924150667E0,-6.364843926E0,8.384975658E0,4.293402585E0,1.136892083E1
6.934093667E0,-6.378606518E0,7.083115897E0,1.117485942E0,9.597183272E0
6.944037667E0,-6.165095438E0,5.795251447E0,1.194744033E-1,8.462128292E0
6.953981667E0,-5.532288710E0,3.790628285E0,5.979263324E-1,6.732948617E0
6.963924667E0,-2.327542663E0,2.027195753E0,-7.615910679E-1,3.179150582E0
6.973868667E0,2.573311661E0,-1.370195585E-1,-2.302504885E-1,2.587222942E0
6.983812667E0,7.402589049E0,-4.435500158E0,2.243694760E0,8.916622256E0
6.993755667E0,7.609513825E0,-1.001395556E1,2.661504046E0,1.285564508E1
7.003699667E0,6.316159424E-1,-1.319176290E1,6.499741530E-1,1.322285951E1
7.013643667E0,-1.909778108E0,-1.312270611E1,-5.665308774E-2,1.326106624E1
7.023586667E0,-3.028316841E-1,-1.121141153E1,1.792376250E-1,1.121693281E1
7.033530667E0,3.064327795E0,-7.498265870E0,4.114793828E-1,8.110697329E0
7.043474667E0,6.008640904E0,-4.764600166E0,1.608072597E0,7.835245863E0
7.053417667E0,5.058875327E0,-5.434746044E0,4.615752275E0,8.742645664E0
7.063361667E0,1.374482764E0,-9.142238032E0,6.865791264E0,1.151558981E1
7.073305667E0,-1.309031079E0,-1.316711455E1,6.638499466E0,1.480392323E1
7.083248667E0,-2.053521087E0,-1.431678356E1,5.053785326E0,1.532083505E1
7.093192667E0,-7.736939272E-1,-1.165670858E1,3.486210544E0,1.219143638E1
7.103136667E0,-1.139496908E0,-6.094737647E0,2.389824280E0,6.644963527E0
7.113079667E0,-2.508050595E0,-1.251559673E0,7.083530465E-1,2.891104191E0
7.123023667E0,-3.799097685E0,4.576305789E-1,-1.867553317E0,4.257971860E0
7.132966667E0,-5.132021656E0,7.906394506E-1,-3.897877330E0,6.492780968E0
7.142910667E0,-6.564527510E0,2.967257291E-1,-5.371140032E0,8.487061496E0
7.152854667E0,-7.935046447E0,-5.804566061E-1,-6.139557724E0,1.004967965E1
7.162797667E0,-8.690817196E0,-1.029845535E0,-5.919046943E0,1.056532073E1
7.172741667E0,-9.116817847E0,-1.018960943E0,-5.138554165E0,1.051472244E1
7.182685667E0,-9.286157305E0,-7.561759615E-1,-4.424246607E0,1.031399426E1
7.192628667E0,-9.293572159E0,-4.451227999E-1,-3.815162618E0,1.005604712E1
7.202572667E0,-9.372564535E0,-4.919613361E-2,-2.990640014E0,9.838257666E0
7.212516667E0,-9.697327078E0,6.659516698E-1,-2.320088047E0,9.993220333E0
7.222459667E0,-9.605325817E0,2.060306196E0,-1.727768610E0,9.974584204E0
7.232403667E0,-8.903980367E0,3.642452824E0,-1.167225282E0,9.690755585E0
7.242347667E0,-7.381365995E0,4.874169971E0,-7.120212972E-1,8.874067342E0
7.252290667E0,-5.439916152E0,5.401129816E0,-8.553263202E-1,7.713395760E0
7.262234667E0,-3.516836798E0,5.562590736E0,-1.088950945E0,6.670560016E0
7.272178667E0,-1.481157905E0,5.634905591E0,-1.274635125E0,5.964116402E0
7.282121667E0,4.955655599E-1,5.563529799E0,-1.384075706E0,5.754486477E0
7.292065667E0,2.305780788E0,5.341932020E0,-1.109299547E0,5.923124871E0
7.302009667E0,3.812130836E0,4.719064389E0,-5.081604624E-1,6.087703777E0
7.311952667E0,4.364578402E0,3.753227740E0,8.476888333E-1,5.818491167E0
7.321896667E0,3.614192061E0,2.577980663E0,2.979818864E0,5.346745648E0
7.331840667E0,3.181041728E0,7.846138948E-1,4.236686640E0,5.355759435E0
7.341783667E0,2.818545348E0,-1.487355076E0,5.153396738E0,6.059201345E0
7.351727667E0,2.687649871E0,-2.791661897E0,6.232599204E0,7.339082423E0
7.361671667E0,2.625485490E0,-2.643667699E0,5.688084263E0,6.799739373E0
7.371614667E0,2.860885913E0,-1.112001253E0,4.651562378E0,5.572992693E0
7.381558667E0,2.426440422E0,5.050292784E-1,5.038683722E0,5.615247220E0
7.391502667E0,1.689931278E0,1.613682416E0,5.299895802E0,5.792126913E0
7.401445667E0,1.357734877E0,2.393502179E0,5.060210831E0,5.760037355E0
7.411389667E0,1.424875823E0,2.941599709E0,4.393096735E0,5.475635021E0
7.421333667E0,1.438317110E0,3.454505187E0,3.611680682E0,5.200634533E0
7.431276667E0,1.369534850E0,4.036738762E0,3.011441191E0,5.219163112E0
7.441220667E0,1.645857890E0,4.665461209E0,2.308953048E0,5.459545830E0
7.451164667E0,2.246541184E0,5.114584674E0,2.181770992E0,5.997170028E0
7.461107667E0,2.923913636E0,5.328757659E0,2.727020343E0,6.661949346E0
7.471051667E0,3.523875384E0,5.065697274E0,2.858217829E0,6.800617306E0
7.480995667E0,4.019082509E0,4.504459881E0,2.253905168E0,6.443855332E0
7.490938667E0,4.408242193E0,3.789234309E0,1.588490272E0,6.026126221E0
7.500882667E0,4.756639182E0,2.449243686E0,1.461804498E0,5.546285543E0
7.510825667E0,5.182266780E0,1.676905435E-1,2.215568483E0,5.638506256E0
7.520769667E0,6.105578384E0,-2.068842546E0,3.345612490E0,7.263010383E0
7.530713667E0,6.879625776E0,-3.835426143E0,3.855360471E0,8.769466853E0
7.540656542E0,6.897143449E0,-5.613079104E0,4.116004786E0,9.798915256E0
7.550600542E0,6.036466634E0,-7.313792063E0,4.127110403E0,1.034231715E1
7.560544542E0,4.550217851E0,-8.232281469E0,4.627091196E0,1.048260052E1
7.570487542E0,3.788554863E0,-7.963851585E0,5.309608612E0,1.029407711E1
7.580431542E0,4.302615750E0,-6.616818575E0,4.481406063E0,9.076221166E0
7.590375542E0,4.896004643E0,-3.879524674E0,2.820272908E0,6.853868429E0
7.600318542E0,4.577695672E0,-1.354301684E0,1.732150075E0,5.078363378E0
7.610262542E0,3.609969202E0,2.322011197E-1,9.847019599E-1,3.749057608E0
7.620206542E0,2.662193140E0,1.194266900E0,2.581861460E-1,2.929198837E0
7.630149542E0,1.447711831E0,1.482233500E0,-7.572334304E-2,2.073311293E0
7.640093542E0,1.681974971E-1,1.146205711E0,7.784573615E-2,1.161093402E0
7.650037542E0,-1.357200149E0,5.052462101E-2,8.117122310E-1,1.582220505E0
7.659980542E0,-3.684567687E0,-1.983752110E0,2.660844480E0,4.958972154E0
7.669924542E0,-8.020474852E0,-4.768225440E0,5.173038704E0,1.066884812E1
7.679868542E0,-1.351834861E1,-8.253003416E0,7.309180949E0,1.744367910E1
7.689811542E0,-1.922071002E1,-1.122701073E1,7.795241275E0,2.358489453E1
7.699755542E0,-2.397551610E1,-1.315469155E1,5.714476840E0,2.793790485E1
7.709699542E0,-2.368397860E1,-1.405499670E1,3.170885991E0,2.772234284E1
7.719642542E0,-1.659698834E1,-1.052344919E1,6.933558154E-1,1.966427591E1
7.729586542E0,-7.975848902E0,-5.642766003E0,2.406506386E-1,9.773069457E0
7.739530542E0,-2.923102627E0,-3.133458549E0,1.429831338E-1,4.287602549E0
7.749473542E0,-1.178022750E0,-1.971648958E0,-1.547434047E0,2.769420399E0
7.759417542E0,4.804759428E-1,-1.542274464E0,-2.678140544E0,3.127603624E0
7.769361542E0,1.512451326E0,-2.379008685E0,-4.669420359E0,5.454418193E0
7.779304542E0,4.014267327E0,-5.031954746E0,-1.259990539E1,1.414894083E1
7.789248542E0,6.846589007E0,-6.939130551E0,-1.949014036E1,2.179203719E1
7.799191542E0,8.115508479E0,-5.031613269E0,-1.977855310E1,2.196291813E1
7.809135542E0,1.057264298E1,-2.528279915E0,-1.917317800E1,2.204050212E1
7.819079542E0,1.140370423E1,1.633688664E-1,-1.707911934E1,2.053697828E1
7.829022542E0,1.036629240E1,2.644234294E0,-1.365194579E1,1.734438287E1
7.838966542E0,8.218340537E0,4.098187151E0,-1.023403423E1,1.375033511E1
7.848910542E0,5.648383423E0,4.787707193E0,-7.323408394E0,1.041435000E1
7.858853542E0,3.143748479E0,5.195042362E0,-4.725667065E0,7.694384241E0
7.868797542E0,8.225462446E-1,5.506948047E0,-2.766649262E0,6.217508123E0
7.878741542E0,-7.921942252E-1,6.013512805E0,-1.207834779E0,6.184559224E0
7.888684542E0,-1.765560042E0,6.947896112E0,1.028020034E0,7.242049974E0
7.898628542E0,-2.185740082E0,8.426095033E0,3.681264303E0,9.451362022E0
7.908572542E0,-4.529149749E0,8.933107102E0,5.208109719E0,1.128884435E1
7.918515542E0,-5.568766565E0,8.247678357E0,2.453754812E0,1.024969619E1
7.928459542E0,-4.221003530E0,7.904462585E0,-1.729543240E0,9.126265358E0
7.938403542E0,-4.365574183E0,6.854061164E0,-1.845471892E0,8.333196199E0
7.948346542E0,-3.632936773E0,5.486675751E0,-1.097922912E0,6.671377302E0
7.958290542E0,-1.277099141E0,4.098011734E0,-1.658163940E0,4.601542138E0
7.968234542E0,1.659124637E0,2.567522918E0,-1.947825063E0,3.624760816E0
7.978177542E0,5.994253246E0,-1.101679748E0,-1.555587405E-1,6.096635856E0
7.988121542E0,9.363990178E0,-6.781341682E0,1.739308090E0,1.169171073E1
7.998065542E0,3.414112621E0,-1.175264385E1,1.039080042E0,1.228252782E1
8.008008542E0,-4.057421533E0,-1.336941184E1,1.715373098E0,1.407644654E1
8.017952542E0,-4.458113680E0,-1.296181764E1,2.567706228E0,1.394548706E1
8.027896542E0,-5.836275512E-1,-9.806181768E0,2.160737388E0,1.005836011E1
8.037839542E0,3.883168659E0,-5.608890159E0,2.179305806E0,7.161565572E0
8.047783542E0,5.325419483E0,-3.701730142E0,3.092084820E0,7.184976496E0
8.057726542E0,2.471180685E0,-5.250252357E0,5.296290409E0,7.856371674E0
8.067670542E0,-7.114979714E-2,-8.275298849E0,6.473776385E0,1.050692220E1
8.077614542E0,-8.781994584E-1,-1.089003102E1,5.611040765E0,1.228201076E1
8.087557542E0,-5.532547742E-1,-1.127975963E1,4.478633898E0,1.214896003E1
8.097501542E0,3.021870285E-2,-9.345380244E0,3.700902761E0,1.005155343E1
8.107445542E0,-9.455172828E-1,-5.346546058E0,3.404623175E0,6.408667306E0
8.117388542E0,-2.211073143E0,-1.465125132E0,2.114571281E0,3.392174494E0
8.127332542E0,-3.257251998E0,9.749238074E-2,-3.979460022E-1,3.282918878E0
8.137276542E0,-4.159915914E0,2.588258314E-1,-2.666306072E0,4.947835819E0
8.147219542E0,-5.435652947E0,-1.221939433E-1,-4.448580672E0,7.025035538E0
8.157163542E0,-6.754400636E0,-4.374331266E-1,-5.309412730E0,8.602507729E0
8.167107542E0,-7.798912157E0,-5.492242885E-1,-5.301569275E0,9.446232843E0
8.177050542E0,-8.247514050E0,-4.107709926E-1,-5.003033833E0,9.655079924E0
8.186994542E0,-8.006449136E0,-1.449688482E-1,-4.589956698E0,9.229948333E0
8.196938542E0,-7.704875481E0,-1.638226104E-1,-4.021913731E0,8.692970383E0
8.206881542E0,-8.064776282E0,-7.793987632E-2,-3.537215806E0,8.806735306E0
8.216825542E0,-8.802143505E0,-1.335971832E-2,-3.038590106E0,9.311870843E0
8.226769542E0,-9.104179090E0,5.020273179E-1,-2.243849418E0,9.390046248E0
8.236712542E0,-8.627211769E0,1.695193187E0,-1.529123492E0,8.924162790E0
8.246656542E0,-7.119375066E0,3.118501956E0,-1.496293715E0,7.915140596E0
8.256599542E0,-5.233179656E0,4.461823738E0,-1.614467697E0,7.064031875E0
8.266543542E0,-3.446604721E0,5.458541288E0,-1.581579448E0,6.646514172E0
8.276487542E0,-1.778941687E0,6.121781604E0,-1.736679474E0,6.607336765E0
8.286430542E0,-2.822374982E-1,6.402653777E0,-1.870220232E0,6.676178331E0
8.296374542E0,1.148632598E0,6.338504559E0,-1.335436812E0,6.578707196E0
8.306318542E0,2.591396807E0,5.898537834E0,3.955115139E-2,6.442798327E0
8.316261542E0,3.320077114E0,5.117214752E0,1.572386309E0,6.299301355E0
8.326205542E0,3.556382979E0,3.527506505E0,2.793146505E0,5.735227060E0
8.336149542E0,3.419054980E0,9.249973565E-1,3.959259061E0,5.312371352E0
8.346092542E0,3.016858637E0,-1.581713934E0,5.270454487E0,6.275423930E0
8.356036542E0,2.038738449E0,-3.045776626E0,5.775082061E0,6.839940244E0
8.365980542E0,1.550830110E0,-3.103650613E0,5.440742363E0,6.452859724E0
8.375923542E0,1.299367678E0,-1.526105159E0,5.084328842E0,5.465139805E0
8.385867542E0,8.316769642E-1,6.255807388E-1,5.409542205E0,5.508737124E0
8.395811542E0,7.791999578E-1,2.242550460E0,5.339973788E0,5.843928917E0
8.405754542E0,9.649200985E-1,3.357886380E0,4.765588346E0,5.909086564E0
8.415698542E0,9.629358459E-1,4.042326946E0,3.512157564E0,5.440855018E0
8.425642542E0,7.999795005E-1,4.677500626E0,2.304970510E0,5.275591755E0
8.435585542E0,1.119445344E0,5.484620454E0,1.926075029E0,5.919795978E0
8.445529542E0,2.081281913E0,5.985591180E0,2.114266056E0,6.680505755E0
8.455473542E0,3.218617398E0,6.210804293E0,3.003274970E0,7.612703098E0
8.465416542E0,3.952059969E0,5.819784610E0,3.490983042E0,7.853383570E0
8.475360542E0,4.133023692E0,4.854322767E0,2.830830640E0,6.975667458E0
8.485303542E0,4.128559928E0,3.808423702E0,1.839881369E0,5.910521265E0
8.495247542E0,4.308416188E0,2.721755510E0,1.550347130E0,5.326723133E0
8.505191542E0,4.517179914E0,1.133323710E0,2.021146224E0,5.076846370E0
8.515134542E0,5.078832459E0,-1.348876052E0,3.247987377E0,6.177655522E0
8.525078542E0,6.442736440E0,-3.901858115E0,4.282539335E0,8.664496105E0
8.535022542E0,7.796760966E0,-5.930152559E0,4.278507096E0,1.068933178E1
8.544965042E0,7.861827613E0,-7.929594503E0,4.090775805E0,1.189206664E1
8.554909042E0,6.058476139E0,-9.086861392E0,4.935799624E0,1.198491973E1
8.564853042E0,4.015466006E0,-8.800240821E0,6.343878150E0,1.156775673E1
8.574796042E0,3.593944323E0,-7.472887784E0,6.426977025E0,1.049125928E1
8.584740042E0,4.326661840E0,-5.096646586E0,4.972053530E0,8.331694030E0
8.594684042E0,4.790038185E0,-2.157454761E0,3.577949265E0,6.356162191E0
8.604627042E0,4.479624709E0,8.457412720E-2,2.410115726E0,5.087518858E0
8.614571042E0,3.722691533E0,1.460231597E0,1.301007091E0,4.205154934E0
8.624515042E0,2.854047010E0,1.976108045E0,2.796623844E-1,3.482642444E0
8.634458042E0,1.606313170E0,1.610351842E0,-2.895020789E-1,2.292877343E0
8.644402042E0,1.077571678E-1,4.367712218E-1,-2.979439965E-1,5.395844071E-1
8.654346042E0,-1.880437364E0,-1.692089485E0,7.981931761E-1,2.652606992E0
8.664289042E0,-5.385285031E0,-4.987720560E0,2.980022932E0,7.922069674E0
8.674233042E0,-1.138841377E1,-8.972740699E0,5.554505206E0,1.552606105E1
8.684176042E0,-1.849348947E1,-1.269985068E1,7.487732111E0,2.365082434E1
8.694120042E0,-2.455217084E1,-1.514886340E1,7.104526062E0,2.971146994E1
8.704064042E0,-2.540717878E1,-1.502164319E1,5.212168272E0,2.997234051E1
8.714007042E0,-1.817399643E1,-1.099352556E1,2.217515021E0,2.135577495E1
8.723951042E0,-1.050658582E1,-6.039663307E0,-1.068026099E-1,1.211929392E1
8.733895042E0,-6.036802264E0,-3.550812922E0,-7.814932358E-1,7.047126057E0
8.743838042E0,-3.084713528E0,-2.025343940E0,-1.715970975E0,4.069647652E0
8.753782042E0,-1.954397626E0,-1.449682635E0,-4.215600995E0,4.867498492E0
8.763726042E0,-1.140970114E-1,-1.549665345E0,-6.769865937E0,6.945902793E0
8.773669042E0,4.551900972E0,-3.219036058E0,-1.657717212E1,1.748955778E1
8.783613042E0,8.094774252E0,-4.871336995E0,-2.197703368E1,2.392164927E1
8.793557042E0,9.063248581E0,-3.394437325E0,-1.771952043E1,2.019024724E1
8.803500042E0,1.204372760E1,-1.209533395E0,-1.576604988E1,1.987668670E1
8.813444042E0,1.313814393E1,1.274441582E0,-1.298165139E1,1.851373275E1
8.823388042E0,1.242186352E1,3.494880795E0,-1.032552328E1,1.652674548E1
8.833331042E0,9.869646277E0,4.981412584E0,-8.259583873E0,1.380018531E1
8.843275042E0,7.100551125E0,5.784450470E0,-6.279033698E0,1.110423152E1
8.853218042E0,4.617897034E0,6.467231596E0,-4.405106916E0,9.085979555E0
8.863162042E0,2.218739428E0,7.069417625E0,-2.903013348E0,7.957823616E0
8.873106042E0,6.708712247E-1,7.930072805E0,-6.679654509E-1,7.986382206E0
8.883049042E0,-4.169500378E-1,9.180232070E0,2.269438296E0,9.465772994E0
8.892993042E0,-2.866244302E0,9.961032411E0,3.801618127E0,1.104037243E1
8.902937042E0,-4.668086609E0,9.866886392E0,2.992884468E0,1.131829656E1
8.912880042E0,-5.221815008E0,9.236523800E0,-1.476802021E-1,1.061143408E1
8.922824042E0,-5.849031798E0,8.079350467E0,-2.815282309E0,1.036401908E1
8.932768042E0,-6.768853784E0,6.232636042E0,-3.010215615E0,9.681143095E0
8.942711042E0,-7.015409818E0,4.435207213E0,-1.783996605E0,8.489386422E0
8.952655042E0,-5.019427087E0,3.052582201E0,-1.890563865E0,6.171477789E0
8.962599042E0,-5.335873720E-1,1.679882253E0,-2.303326419E0,2.900350403E0
8.972542042E0,5.731067730E0,-2.799965528E0,6.068714029E-1,6.407280014E0
8.982486042E0,9.210852769E0,-9.182211353E0,3.386790336E0,1.343961171E1
8.992429042E0,1.243452801E0,-1.452185360E1,2.396328138E0,1.477067349E1
9.002373042E0,-4.049639181E0,-1.547862064E1,1.530999863E0,1.607268599E1
9.012317042E0,-5.128212780E-2,-1.304906979E1,1.554430241E0,1.314142708E1
9.022260042E0,5.045860595E0,-8.930633730E0,1.810658739E0,1.041611314E1
9.032204042E0,7.925526010E0,-5.463482770E0,2.803421817E0,1.002610495E1
9.042148042E0,7.189362144E0,-3.736550896E0,4.396139918E0,9.218176979E0
9.052091042E0,2.528086664E0,-4.334835663E0,5.747932854E0,7.630252585E0
9.062035042E0,-3.336120120E-1,-6.029162292E0,5.568841410E0,8.214261353E0
9.071979042E0,-3.026670849E-1,-8.806914833E0,4.686532820E0,9.980828929E0
9.081922042E0,-1.308656564E-1,-1.136460039E1,4.059512497E0,1.206859187E1
9.091866042E0,-1.977800229E-1,-1.250402743E1,3.919490978E0,1.310542744E1
9.101810042E0,-1.872229335E0,-1.019171676E1,4.013869717E0,1.111249222E1
9.111753042E0,-3.478945086E0,-4.913843914E0,3.529867903E0,6.979175333E0
9.121697042E0,-5.135689030E0,-1.581002913E0,4.046773168E-1,5.388750852E0
9.131641042E0,-6.313642198E0,-7.683440173E-1,-2.339949285E0,6.777004721E0
9.141584042E0,-6.668946503E0,5.185749382E-1,-4.118507102E0,7.855308280E0
9.151528042E0,-7.244981444E0,1.730544868E0,-5.363847384E0,9.179074051E0
9.161471042E0,-7.570111778E0,2.330104328E0,-6.071708388E0,9.980061185E0
9.171415042E0,-7.469539669E0,2.637684828E0,-6.031211742E0,9.956250257E0
9.181359042E0,-7.060503545E0,2.704675208E0,-5.708686343E0,9.473915666E0
9.191302042E0,-6.783937261E0,2.572334007E0,-5.071029350E0,8.851782062E0
9.201246042E0,-7.354195154E0,2.012114614E0,-4.391180895E0,8.798594276E0
9.211190042E0,-8.456076046E0,1.068527790E0,-3.680299512E0,9.283941956E0
9.221133042E0,-9.405632878E0,6.052587408E-1,-2.923046201E0,9.867951513E0
9.231077042E0,-9.713560703E0,7.493943608E-1,-2.013528763E0,9.948324056E0
9.241021042E0,-8.555037832E0,1.407683254E0,-1.402234819E0,8.782739148E0
9.250964042E0,-6.255217988E0,2.656683016E0,-1.155376484E0,6.893519533E0
9.260908042E0,-4.032364167E0,3.547246705E0,-1.280322711E0,5.521063866E0
9.270852042E0,-1.867534898E0,4.026457018E0,-1.614104585E0,4.722856797E0
9.280795042E0,3.298247704E-1,4.313246573E0,-1.488016104E0,4.574611711E0
9.290739042E0,1.820330326E0,4.284620944E0,-1.020000578E0,4.765708794E0
9.300683042E0,2.789762136E0,3.485106590E0,6.673889154E-1,4.513773220E0
9.310626042E0,3.092504650E0,1.872258571E0,2.448723283E0,4.366369532E0
9.320570042E0,3.518645926E0,4.889763325E-1,2.062198209E0,4.107630517E0
9.330513042E0,4.529212314E0,-8.764660513E-1,2.864055981E0,5.429988360E0
9.340457042E0,4.326310422E0,-1.930136651E0,3.604879201E0,5.952944097E0
9.350401042E0,3.732990527E0,-1.896872426E0,4.898085667E0,6.443957361E0
9.360344042E0,3.208822142E0,-5.362668586E-1,4.531009748E0,5.578007800E0
9.370288042E0,2.360787300E0,1.301723521E0,4.460195289E0,5.211635330E0
9.380232042E0,1.480843032E0,2.608261639E0,4.559437156E0,5.457507860E0
9.390175042E0,7.251550207E-1,3.503977894E0,3.853534970E0,5.258654072E0
9.400119042E0,1.512475884E-1,3.947281625E0,2.242642699E0,4.542395220E0
9.410063042E0,-5.548724064E-1,4.720137938E0,1.697524764E0,5.046699503E0
9.420006042E0,-8.242892995E-1,5.914375602E0,2.770140635E0,6.582778346E0
9.429950042E0,-6.275530046E-1,7.040354624E0,4.400336173E0,8.326065964E0
9.439894042E0,3.387245250E-1,7.795782142E0,5.599864397E0,9.604552815E0
9.449837042E0,2.293931698E0,7.968186126E0,5.467044894E0,9.931902771E0
9.459781042E0,4.375863236E0,7.133511879E0,3.715835965E0,9.156560911E0
9.469724042E0,5.518570558E0,5.512442676E0,2.196019487E0,8.103341708E0
9.479668042E0,6.052489759E0,3.678719594E0,1.710367296E0,7.286354811E0
9.489612042E0,6.634223982E0,1.879061807E0,2.089435855E0,7.204827778E0
9.499555042E0,7.039185181E0,-1.677653879E-1,3.102308092E0,7.694321851E0
9.509499042E0,7.381062525E0,-2.399261686E0,4.932452677E0,9.195957267E0
9.519443042E0,8.050200343E0,-4.815875570E0,6.699118136E0,1.152720985E1
9.529386042E0,8.817312936E0,-7.338326980E0,6.806206382E0,1.333868418E1
9.539330834E0,8.688473632E0,-9.019440072E0,5.912724348E0,1.384919429E1
9.549274833E0,7.511912686E0,-9.512280829E0,4.868895198E0,1.306210011E1
9.559217833E0,5.443195270E0,-8.558868928E0,4.197573445E0,1.097735100E1
9.569161833E0,4.102105663E0,-6.366443725E0,4.165593853E0,8.643555328E0
9.579105834E0,3.679041776E0,-3.816222718E0,3.380781738E0,6.287176582E0
9.589048834E0,3.394179463E0,-1.462826006E0,2.348936455E0,4.379248408E0
9.598992833E0,2.935751616E0,-3.393139243E-3,1.440653365E0,3.270188249E0
9.608935833E0,2.068096149E0,3.854601502E-1,5.223504853E-1,2.167591114E0
9.618879833E0,5.683417600E-1,3.956401527E-2,1.624736577E-2,5.699488086E-1
9.628823834E0,-1.171941938E0,-8.550740129E-1,-7.819627672E-3,1.450744850E0
9.638766834E0,-3.249412051E0,-2.146222844E0,5.823192367E-1,3.937517856E0
9.648710833E0,-5.863099029E0,-4.057090580E0,1.890328222E0,7.376262942E0
9.658654834E0,-9.042057686E0,-6.535049357E0,3.303416935E0,1.163521554E1
9.668597833E0,-1.253397570E1,-9.039101334E0,4.541796984E0,1.610694942E1
9.678541834E0,-1.688071044E1,-1.083199974E1,4.979107611E0,2.066596516E1
9.688485833E0,-2.031912351E1,-1.223405213E1,4.070671616E0,2.406468739E1
9.698428833E0,-1.948438670E1,-1.227362140E1,2.511187334E0,2.316439443E1
9.708372834E0,-1.464461473E1,-9.619835683E0,4.180829358E-1,1.752657332E1
9.718315833E0,-8.407717819E0,-5.912486951E0,-3.145228994E-1,1.028329449E1
9.728259834E0,-4.064491986E0,-2.948679518E0,-1.193771056E0,5.161385021E0
9.738203833E0,-3.279096903E0,-1.227384945E0,-3.397693055E0,4.878859334E0
9.748146833E0,-1.436693923E0,-4.774754441E-1,-3.992817986E0,4.270206985E0
9.758090834E0,1.155678785E-1,-5.859225833E-1,-5.091570033E0,5.126475067E0
9.768034833E0,1.602414101E0,-1.803185998E0,-7.483573571E0,7.862765676E0
9.777977834E0,5.160730315E0,-3.963976595E0,-1.301036122E1,1.454701849E1
9.787921833E0,6.763709403E0,-3.831190420E0,-1.466885377E1,1.660123658E1
9.797865834E0,8.390727564E0,-2.199498580E0,-1.492458526E1,1.726225212E1
9.807808834E0,1.005241854E1,-1.613702881E-1,-1.484459301E1,1.792872278E1
9.817752833E0,9.745673611E0,2.183231626E0,-1.394323302E1,1.715104666E1
9.827696833E0,7.239435945E0,3.815155601E0,-1.182248650E1,1.437831812E1
9.837639833E0,4.501057093E0,4.508333076E0,-9.502362197E0,1.144025653E1
9.847583834E0,2.679596500E0,4.937696460E0,-7.637568766E0,9.481220406E0
9.857526834E0,3.814355117E-1,5.045695118E0,-5.183846698E0,7.244087166E0
9.867470833E0,-2.427227603E0,5.059558282E0,-2.738841074E0,6.244342581E0
9.877414833E0,-4.645996413E0,5.425943061E0,-1.101821251E0,7.227734834E0
9.887357833E0,-4.963528290E0,6.647607674E0,9.019581574E-1,8.345108111E0
9.897301834E0,-5.388069475E0,7.491285464E0,1.250259837E0,9.312024497E0
9.907245833E0,-5.977373503E0,7.069550357E0,1.785413386E0,9.428427080E0
9.917188833E0,-5.358148688E0,6.100754431E0,-7.449001908E-1,8.153762217E0
9.927132833E0,-4.112049437E0,5.171486853E0,-3.754922848E0,7.599517909E0
9.937076834E0,-1.773976232E0,4.373802677E0,-3.330619644E0,5.776691851E0
9.947019834E0,1.071886284E0,3.541904688E0,-2.196798336E0,4.303481376E0
9.956963833E0,5.147464153E0,1.748045000E0,-5.273662269E-2,5.436435383E0
9.966907834E0,1.026795159E1,-2.388615076E0,2.248622208E0,1.077926777E1
9.976850833E0,1.006108646E1,-6.858192807E0,1.569868060E0,1.227700106E1
9.986794834E0,2.974826219E0,-9.718900380E0,8.426638824E-1,1.019885768E1
9.996737834E0,-1.347135629E0,-9.192627583E0,5.996348888E-1,9.310141689E0
1.000668183E1,-1.109492798E0,-7.616527560E0,5.424380100E-1,7.716003197E0
1.001662583E1,8.126036391E-1,-5.039343288E0,7.295942268E-1,5.156317793E0
1.002656883E1,2.891494333E0,-2.242233540E0,9.639906836E-1,3.783864264E0
1.003651283E1,3.375081287E0,-1.309842380E0,2.102002399E0,4.186319964E0
1.004645683E1,7.696877074E-1,-3.518959630E0,4.158374881E0,5.501597740E0
1.005639983E1,-2.125421667E0,-7.655878152E0,5.286789268E0,9.543585716E0
1.006634383E1,-3.869351981E0,-1.169348873E1,6.247883826E0,1.381106860E1
1.007628783E1,-3.054393376E0,-1.433854924E1,6.178996024E0,1.590922076E1
1.008623083E1,-3.419802547E-2,-1.381195134E1,5.590946224E0,1.490066606E1
1.009617483E1,-8.092803741E-1,-9.309314033E0,5.138044873E0,1.066385332E1
1.010611783E1,-3.163513822E0,-3.097949578E0,3.491428307E0,5.638721744E0
1.011606183E1,-3.301117225E0,6.642436981E-2,5.909371555E-1,3.354250118E0
1.012600583E1,-2.827829264E0,1.979987673E0,-1.661622275E0,3.831182339E0
1.013594883E1,-2.667570532E0,3.728103424E0,-3.071368428E0,5.517969889E0
1.014589283E1,-3.266789684E0,4.972166966E0,-4.238792807E0,7.304910926E0
1.015583683E1,-3.766025541E0,5.273071700E0,-5.012547253E0,8.192305139E0
1.016577983E1,-3.715557345E0,5.145086675E0,-5.027058288E0,8.096208885E0
1.017572383E1,-3.973313429E0,4.257289304E0,-4.853936266E0,7.581057254E0
1.018566783E1,-4.833503755E0,2.403267029E0,-4.329796825E0,6.919941583E0
1.019561083E1,-6.555450293E0,1.178026843E-1,-3.153402232E0,7.275421063E0
1.020555483E1,-9.495126852E0,-2.152937202E0,-1.400582103E0,9.836371423E0
1.021549883E1,-1.241307633E1,-3.948893702E0,-3.162089440E-1,1.302989691E1
1.022544183E1,-1.367990484E1,-4.169089903E0,-1.514548722E-1,1.430188958E1
1.023538583E1,-1.224272472E1,-2.158065795E0,-1.483698812E-1,1.243235980E1
1.024532883E1,-9.460944614E0,6.381043053E-1,-4.078093779E-1,9.491204275E0
1.025527283E1,-6.702414796E0,2.637434567E0,-1.050746115E0,7.278907376E0
1.026521683E1,-3.992380030E0,3.742008687E0,-1.583153518E0,5.696323584E0
1.027515983E1,-1.447398713E0,4.612664945E0,-1.978635796E0,5.223661603E0
1.028510383E1,4.401456499E-1,4.875344676E0,-2.552378629E0,5.520629545E0
1.029504783E1,2.018719629E0,4.538536869E0,-2.752907721E0,5.679088551E0
1.030499083E1,2.939825956E0,3.394160752E0,-2.197670740E0,4.999266000E0
1.031493483E1,3.257373328E0,1.632009344E0,-1.446290958E0,3.919909824E0
1.032487783E1,3.111018689E0,-1.645412332E-1,1.521753953E-1,3.119081348E0
1.033482183E1,2.516311541E0,-1.655407562E0,1.823184352E0,3.520823647E0
1.034476583E1,2.226858579E0,-2.397929690E0,3.092913955E0,4.502786101E0
1.035470883E1,2.109180148E0,-9.928168720E-1,4.285584565E0,4.878581895E0
1.036465283E1,2.218117869E0,9.022891098E-1,4.518582661E0,5.113879328E0
1.037459683E1,2.560866448E0,1.856764619E0,4.500536399E0,5.500948981E0
1.038453983E1,2.795936504E0,2.393167133E0,4.326094075E0,5.679753499E0
1.039448383E1,2.607344795E0,2.884840202E0,4.322624922E0,5.814261440E0
1.040442783E1,2.467826722E0,3.459394044E0,3.925763871E0,5.785256939E0
1.041437083E1,2.392029265E0,4.140650216E0,3.598357801E0,5.984560726E0
1.042431483E1,2.355130411E0,4.747442681E0,3.595057633E0,6.403849674E0
1.043425783E1,1.535146708E0,5.477145959E0,4.336814945E0,7.152885232E0
1.044420183E1,7.054899573E-1,6.071468067E0,5.333010923E0,8.111809051E0
1.045414583E1,8.001338670E-1,6.375846047E0,5.651116996E0,8.557263016E0
1.046408883E1,1.198077823E0,6.365522203E0,5.405194800E0,8.436314019E0
1.047403283E1,2.050501000E0,5.852488087E0,4.213113590E0,7.497099258E0
1.048397683E1,3.068639240E0,5.029007750E0,3.033225578E0,6.626305391E0
1.049391983E1,3.778794690E0,4.025257169E0,2.716335726E0,6.153085760E0
1.050386383E1,4.451823245E0,2.676724348E0,3.012169170E0,6.004727017E0
1.051380783E1,4.737283729E0,9.365882921E-1,3.631806799E0,6.042274024E0
1.052375083E1,4.848665001E0,-1.070027016E0,4.355688003E0,6.605038084E0
1.053369483E1,5.529320664E0,-3.636658818E0,5.036940082E0,8.316816684E0
1.054363783E1,6.509847273E0,-6.583659015E0,5.774092128E0,1.091159097E1
1.055358183E1,7.213045707E0,-8.852254143E0,6.226197088E0,1.300599715E1
1.056352583E1,7.268160392E0,-9.632623544E0,6.516622442E0,1.371422473E1
1.057346883E1,7.251342630E0,-8.398449982E0,5.436386772E0,1.235597965E1
1.058341283E1,6.826924821E0,-5.082420310E0,3.573568531E0,9.230833698E0
1.059335683E1,6.190735479E0,-1.580060341E0,1.990512661E0,6.692080178E0
1.060329983E1,5.365145466E0,4.150920850E-1,8.654341096E-1,5.450326918E0
1.061324383E1,4.287061572E0,1.179689791E0,-1.522030234E-1,4.449014575E0
1.062318783E1,2.910479365E0,1.197172966E0,-7.954658885E-1,3.246055949E0
1.063313083E1,1.403462150E0,2.755862904E-1,-6.548881531E-1,1.573064621E0
1.064307483E1,-7.854213953E-2,-1.855240835E0,9.963947833E-2,1.859573997E0
1.065301883E1,-2.784374804E0,-5.510335339E0,1.960290742E0,6.477598196E0
1.066296183E1,-7.938351293E0,-1.028906940E1,5.272249582E0,1.402422853E1
1.067290583E1,-1.531353737E1,-1.510248329E1,8.396820363E0,2.308887222E1
1.068284883E1,-2.184188114E1,-1.814654843E1,9.168382103E0,2.983997691E1
1.069279283E1,-2.453403746E1,-1.819307590E1,6.864561009E0,3.130541810E1
1.070273683E1,-2.102363347E1,-1.430860916E1,3.219497404E0,2.563385699E1
1.071267983E1,-1.270780640E1,-7.986345239E0,2.182391381E0,1.516683507E1
1.072262383E1,-6.414020764E0,-2.527642568E0,8.966640884E-1,6.952168425E0
1.073256783E1,-4.068779457E0,-7.584487742E-1,-1.495528022E0,4.400774350E0
1.074251083E1,-3.346862332E0,-3.613479871E-1,-3.294569513E0,4.710228032E0
1.075245483E1,-2.913825142E0,-1.350326747E-1,-4.953064113E0,5.748169699E0
1.076239783E1,-1.887477412E0,-3.564638078E-1,-7.492850763E0,7.735143825E0
1.077234183E1,2.309974118E0,-1.614467112E0,-1.780080257E1,1.802251527E1
1.078228583E1,6.347948982E0,-3.471177937E0,-2.295499453E1,2.406818037E1
1.079222883E1,7.829770837E0,-2.465034676E0,-1.862901155E1,2.035735196E1
1.080217283E1,1.025971637E1,-4.976085770E-1,-1.696487877E1,1.983220881E1
1.081211683E1,1.049039839E1,1.441139853E0,-1.407890948E1,1.761649893E1
1.082205983E1,9.113853893E0,3.197080933E0,-1.099690058E1,1.463610199E1
1.083200383E1,6.820759517E0,4.437508677E0,-8.325783709E0,1.164186059E1
1.084194783E1,4.458193787E0,5.303850274E0,-5.973825998E0,9.148383279E0
1.085189083E1,2.525282340E0,6.023089959E0,-3.146758041E0,7.249603418E0
1.086183483E1,9.158014405E-1,6.746378256E0,-6.108252901E-1,6.835599417E0
1.087177783E1,4.836688149E-1,7.988882931E0,1.454317138E0,8.134569709E0
1.088172183E1,-3.956515548E-1,9.659348243E0,3.320970569E0,1.022195647E1
1.089166583E1,-2.091194405E0,1.031363238E1,4.803090925E0,1.156779103E1
1.090160883E1,-2.149777951E0,9.861947833E0,9.417122072E-1,1.013737551E1
1.091155283E1,-2.166527008E0,8.925848368E0,-2.147984025E0,9.432838584E0
1.092149683E1,-2.987181678E0,6.751575846E0,-1.998218122E0,7.648523155E0
1.093143983E1,-2.348585622E0,4.665508572E0,-6.359712410E-1,5.261870777E0
1.094138383E1,4.657394975E-2,2.755413837E0,4.042110014E-1,2.785293716E0
1.095132783E1,2.897435104E0,2.503660798E-1,1.276222059E0,3.175933894E0
1.096127083E1,3.869482082E0,-3.000545490E0,1.820366871E0,5.223973618E0
1.097121483E1,1.205005019E0,-7.080186442E0,7.197109705E-1,7.217967930E0
1.098115783E1,-1.569923316E0,-1.007494670E1,-6.106796944E-1,1.021480004E1
1.099110183E1,-7.998827291E-1,-1.058521800E1,-7.995184475E-1,1.064546299E1
1.100104583E1,3.008399470E0,-8.606427841E0,2.234893531E-1,9.119814420E0
1.101098883E1,6.299470301E0,-5.919743931E0,1.572073922E0,8.786245540E0
1.102093283E1,7.741807664E0,-4.529239796E0,3.570097916E0,9.653766009E0
1.103087683E1,6.236261315E0,-4.997448573E0,5.082516205E0,9.470872103E0
1.104081983E1,2.633742343E0,-8.081213390E0,5.319517304E0,1.002695731E1
1.105076383E1,2.163513646E-1,-1.251690183E1,5.463153571E0,1.365890502E1
1.106070783E1,-1.043739104E0,-1.599088467E1,6.075030776E0,1.713778816E1
1.107065083E1,-1.596474937E0,-1.687721849E1,5.816648163E0,1.792268484E1
1.108059483E1,-1.700221208E0,-1.262801179E1,4.341308531E0,1.346121813E1
1.109053783E1,-2.473238612E0,-5.188481201E0,2.670378950E0,6.337836393E0
1.110048183E1,-3.342265251E0,-3.413738984E-1,1.567679447E-1,3.363309283E0
1.111042583E1,-4.597501068E0,1.423768945E0,-1.966334424E0,5.199096570E0
1.112036883E1,-6.564941493E0,2.120543042E0,-3.198156236E0,7.604167470E0
1.113031283E1,-8.877132876E0,1.794126322E0,-4.409957474E0,1.007323693E1
1.114025683E1,-1.082638407E1,6.709516239E-1,-5.375209694E0,1.210593439E1
1.115019983E1,-1.218379648E1,-1.456424475E-2,-5.544276087E0,1.338596676E1
1.116014383E1,-1.181927170E1,5.934947276E-1,-5.330735772E0,1.297937454E1
1.117008683E1,-1.114875277E1,1.300672191E0,-4.649543042E0,1.214926693E1
1.118003083E1,-1.154811175E1,1.593376206E0,-3.453047476E0,1.215817707E1
1.118997483E1,-1.220235788E1,1.816682541E0,-2.397495827E0,1.256765131E1
1.119991783E1,-1.183713611E1,2.406428034E0,-1.691760287E0,1.219716115E1
1.120986183E1,-9.971425252E0,3.434079693E0,-1.399978086E0,1.063871061E1
1.121980583E1,-7.721978586E0,4.455606394E0,-1.384214870E0,9.022052562E0
1.122974883E1,-5.867076890E0,4.948026152E0,-1.422110674E0,7.805635964E0
1.123969283E1,-4.057382357E0,5.059576408E0,-1.464067078E0,6.648695919E0
1.124963583E1,-1.993377796E0,5.072146168E0,-1.404211178E0,5.627790936E0
1.125957983E1,9.155862629E-3,4.901268307E0,-1.509819494E0,5.128554353E0
1.126952383E1,1.649887498E0,4.328864486E0,-1.124541192E0,4.767157370E0
1.127946683E1,2.480283338E0,3.102739617E0,6.317302555E-2,3.972755894E0
1.128941083E1,3.496184725E0,1.749598020E0,1.019677519E0,4.040314728E0
1.129935483E1,2.963612137E0,4.176332849E-1,3.198451520E0,4.380354619E0
1.130929783E1,3.508143742E0,-1.349011123E0,4.804067702E0,6.099669664E0
1.131924183E1,3.630527135E0,-2.990688254E0,5.759484029E0,7.436168354E0
1.132918583E1,3.666245729E0,-3.610620582E0,6.741953083E0,8.481265832E0
1.133912883E1,3.633963252E0,-2.870352556E0,6.848035609E0,8.266813437E0
1.134907283E1,3.417280935E0,-8.143341225E-1,6.438485515E0,7.334510534E0
1.135901583E1,3.117071435E0,1.125925228E0,5.800926170E0,6.680912091E0
1.136895983E1,3.028423552E0,2.388061345E0,4.436309413E0,5.878352439E0
1.137890383E1,2.732352711E0,3.346950333E0,3.221333429E0,5.389324348E0
1.138884683E1,2.495520304E0,4.213718777E0,2.277980493E0,5.401133459E0
1.139879083E1,2.076058595E0,5.205246338E0,1.705195434E0,5.857670202E0
1.140873483E1,1.513325777E0,6.069027439E0,1.751944069E0,6.495579804E0
1.141867783E1,1.482907684E0,6.765791012E0,2.259384593E0,7.285585904E0
1.142862183E1,1.904558591E0,7.295593774E0,2.893441456E0,8.076201793E0
1.143856583E1,2.736179422E0,7.309999559E0,2.856745500E0,8.311664468E0
1.144850883E1,3.718165496E0,6.583218720E0,1.958594465E0,7.810225070E0
1.145845283E1,4.104792166E0,5.558155623E0,9.417074563E-1,6.973465823E0
1.146839583E1,3.941497559E0,4.334728659E0,6.795697620E-1,5.898058207E0
1.147833983E1,3.614145284E0,2.732483981E0,1.313103372E0,4.717282619E0
1.148828383E1,3.679857463E0,6.933388585E-1,2.166871117E0,4.326361075E0
1.149822683E1,3.865690455E0,-1.610184612E0,3.364984900E0,5.372092753E0
1.150817083E1,4.099834604E0,-4.163201172E0,4.603289520E0,7.438491929E0
1.151811483E1,4.392443893E0,-6.259585274E0,5.277564701E0,9.291321775E0
1.152805783E1,4.846128479E0,-7.575416957E0,5.797457601E0,1.069964569E1
1.153800183E1,5.505587400E0,-8.083917142E0,6.224783231E0,1.159349539E1
1.154794392E1,6.122241780E0,-7.806632820E0,6.623634090E0,1.192886788E1
1.155788792E1,6.226260238E0,-6.321735914E0,6.052881523E0,1.074095137E1
1.156783192E1,5.787903836E0,-3.716512488E0,4.473494196E0,8.205147543E0
1.157777492E1,5.145217652E0,-1.328304963E0,3.039712479E0,6.121887840E0
1.158771892E1,4.204651207E0,-1.674432063E-1,1.884255304E0,4.610590748E0
1.159766292E1,2.788984749E0,-1.804363042E-1,8.054859696E-1,2.908573677E0
1.160760592E1,9.345952687E-1,-1.120680860E0,-5.214283794E-2,1.460175600E0
1.161754992E1,-1.164613623E0,-2.760486297E0,-2.675985552E-1,3.008025677E0
1.162749292E1,-3.403288255E0,-4.921335951E0,3.907928109E-1,5.996218601E0
1.163743692E1,-6.736981781E0,-7.593829254E0,2.500662931E0,1.045497400E1
1.164738092E1,-1.145342311E1,-1.085833092E1,4.494544757E0,1.640991115E1
1.165732392E1,-1.551858168E1,-1.381428204E1,6.234741624E0,2.169176730E1
1.166726792E1,-1.823950279E1,-1.493497459E1,6.377726512E0,2.442147259E1
1.167721192E1,-1.801043461E1,-1.373583462E1,4.845174213E0,2.316300112E1
1.168715492E1,-1.297508146E1,-1.043736648E1,2.211277650E0,1.679824713E1
1.169709892E1,-7.376467198E0,-5.781694093E0,6.697742870E-1,9.396214797E0
1.170704192E1,-4.491492218E0,-2.527233263E0,-4.701193544E-1,5.175077054E0
1.171698592E1,-3.563856013E0,-1.431464465E0,-2.080041426E0,4.367691900E0
1.172692992E1,-3.321515237E0,-8.253216255E-1,-3.974764415E0,5.245223676E0
1.173687292E1,-2.596973881E0,-2.889541948E-1,-5.055245960E0,5.690630860E0
1.174681692E1,-1.160071652E0,-2.313877720E-1,-7.704074412E0,7.794361365E0
1.175676092E1,2.361289137E0,-1.175063474E0,-1.701407608E1,1.721729495E1
1.176670392E1,5.552742856E0,-1.906702765E0,-2.137528736E1,2.216689826E1
1.177664792E1,6.615200651E0,-4.007430178E-1,-1.880438124E1,1.993805980E1
1.178659192E1,9.108020711E0,1.120444048E0,-1.582634753E1,1.829439019E1
1.179653492E1,1.062953522E1,2.911423983E0,-1.267551925E1,1.679679127E1
1.180647892E1,1.002465596E1,4.595829057E0,-1.004577611E1,1.491753966E1
1.181642192E1,8.291760516E0,5.694125022E0,-8.033794225E0,1.287315819E1
1.182636592E1,6.046605706E0,6.276836899E0,-6.460143601E0,1.084866708E1
1.183630992E1,3.944456835E0,6.717288358E0,-4.674964689E0,9.084932441E0
1.184625292E1,1.957792811E0,7.133641103E0,-2.761722983E0,7.896132086E0
1.185619692E1,-4.804364741E-3,7.587144717E0,-9.810645533E-1,7.650312131E0
1.186614092E1,-1.369240443E0,8.356455279E0,1.352912385E0,8.575286359E0
1.187608392E1,-2.137462546E0,9.478212612E0,4.079270239E0,1.053782265E1
1.188602792E1,-4.615389748E0,9.256535311E0,4.981245353E0,1.148033422E1
1.189597092E1,-5.289810525E0,8.122090690E0,2.673168656E0,1.005466475E1
1.190591492E1,-5.129245398E0,7.242686997E0,-1.223939765E0,8.959001163E0
1.191585892E1,-5.268028477E0,5.712060186E0,-2.465899479E0,8.152325794E0
1.192580192E1,-4.659285673E0,3.856077340E0,-1.827948371E0,6.318201538E0
1.193574592E1,-2.889861498E0,1.689505016E0,-1.868045068E0,3.833447411E0
1.194568992E1,8.655539775E-1,-8.556452858E-1,-1.629044221E0,2.033493943E0
1.195563292E1,5.665953721E0,-5.720370834E0,9.391838712E-1,8.106031112E0
1.196557692E1,6.852292382E0,-1.238655687E1,1.828015614E0,1.427313361E1
1.197551992E1,1.503146067E0,-1.629782257E1,1.554057773E0,1.644060717E1
1.198546392E1,-2.588661772E0,-1.515663084E1,2.153129283E0,1.552612617E1
1.199540792E1,-2.639962319E-1,-1.027644292E1,2.111576630E0,1.049446182E1
1.200535092E1,3.166480114E0,-4.969650325E0,1.563294328E0,6.096549009E0
1.201529492E1,4.778987825E0,-2.782025685E0,1.497344167E0,5.728911860E0
1.202523892E1,3.437131355E0,-4.293994031E0,3.734251479E0,6.648074217E0
1.203518192E1,5.860939068E-1,-8.266577727E0,6.363347039E0,1.044854052E1
1.204512592E1,-2.215103045E0,-1.201265783E1,7.226177384E0,1.419254273E1
1.205506892E1,-2.639411511E0,-1.252564926E1,6.507980842E0,1.436009043E1
1.206501292E1,-7.830766618E-1,-1.032821533E1,4.989964721E0,1.149717309E1
1.207495692E1,-2.522640860E-1,-6.327388417E0,3.898279034E0,7.436132111E0
1.208489992E1,-1.371604472E0,-1.737725249E0,2.179805743E0,3.106853866E0
1.209484392E1,-2.745131509E0,4.545040727E-1,-3.004311097E-1,2.798674651E0
1.210478792E1,-3.539721923E0,1.532237134E0,-2.127408843E0,4.404912066E0
1.211473092E1,-4.424998266E0,2.092381682E0,-3.603444294E0,6.078114966E0
1.212467492E1,-5.804937360E0,1.804046123E0,-4.912577991E0,7.815708713E0
1.213461792E1,-7.469097619E0,7.954464465E-1,-5.294297093E0,9.189653748E0
1.214456192E1,-9.036790515E0,-4.764147592E-1,-4.752532682E0,1.022140503E1
1.215450592E1,-9.634084178E0,-1.151215605E0,-4.059612192E0,1.051766735E1
1.216444892E1,-9.460782647E0,-1.211001046E0,-3.558455525E0,1.018015410E1
1.217439292E1,-9.716017703E0,-1.260946208E0,-2.678076224E0,1.015692264E1
1.218433692E1,-1.042614918E1,-1.333886130E0,-1.949282481E0,1.069034804E1
1.219427992E1,-9.999559715E0,-3.979123807E-1,-1.694121685E0,1.014985601E1
1.220422392E1,-8.238497643E0,1.746888421E0,-1.461112772E0,8.547474078E0
1.221416692E1,-6.548313181E0,3.864817173E0,-1.332024377E0,7.719553500E0
1.222411092E1,-5.208242451E0,4.794303437E0,-1.584003411E0,7.253978335E0
1.223405492E1,-3.869947520E0,4.966511539E0,-1.977919512E0,6.599613343E0
1.224399792E1,-2.338030521E0,5.256112436E0,-2.083240730E0,6.118251106E0
1.225394192E1,-8.158769104E-1,5.446182613E0,-1.973927326E0,5.850038399E0
1.226388592E1,6.534868678E-1,5.301898474E0,-1.148580265E0,5.464101860E0
1.227382892E1,2.181378644E0,5.015715274E0,5.776253843E-1,5.499951235E0
1.228377292E1,3.250568338E0,4.551728772E0,2.194611770E0,6.008389980E0
1.229371592E1,4.796535319E0,2.964123183E0,2.583222400E0,6.202081528E0
1.230365992E1,5.116045893E0,5.259400910E-1,3.886382581E0,6.446278627E0
1.231360392E1,3.788078315E0,-2.003861854E0,6.234756827E0,7.565526574E0
1.232354692E1,2.317616137E0,-3.951375260E0,7.215200406E0,8.546568194E0
1.233349092E1,2.166180268E0,-3.953059258E0,6.294657458E0,7.742204271E0
1.234343492E1,2.708028879E0,-1.846556550E0,4.787310167E0,5.801855749E0
1.235337792E1,2.395652492E0,5.699076444E-1,4.169974002E0,4.842791423E0
1.236332192E1,2.178881882E0,2.497445208E0,3.363125485E0,4.721797523E0
1.237326492E1,2.259086093E0,3.895706844E0,2.554760200E0,5.177528510E0
1.238320892E1,2.278349453E0,4.942069008E0,1.995778956E0,5.796383006E0
1.239315292E1,2.175631708E0,5.562652132E0,1.197410655E0,6.091819461E0
1.240309592E1,1.976391050E0,5.844486757E0,1.097234403E0,6.266424050E0
1.241303992E1,1.911513854E0,5.851595802E0,1.631678392E0,6.368471796E0
1.242298392E1,2.011701216E0,5.630055910E0,2.392016255E0,6.439426457E0
1.243292692E1,2.466469583E0,5.280549704E0,3.117419636E0,6.609537243E0
1.244287092E1,3.014998637E0,4.553229752E0,2.729556865E0,6.105128880E0
1.245281392E1,3.705933121E0,3.713249742E0,1.206071844E0,5.383007824E0
1.246275792E1,4.251622767E0,2.841261488E0,2.088736528E-1,5.117879561E0
1.247270192E1,4.925854095E0,1.313526710E0,8.814092875E-3,5.097986727E0
1.248264492E1,5.841470763E0,-4.865941769E-1,7.027055132E-1,5.903672553E0
1.249258892E1,7.003670948E0,-1.990115635E0,2.053859641E0,7.565071474E0
1.250253292E1,7.479532560E0,-3.233914883E0,3.775243676E0,8.980761527E0
1.251247592E1,6.635067735E0,-4.376664305E0,5.598875048E0,9.722485078E0
1.252241992E1,5.037338862E0,-5.180702065E0,7.164945926E0,1.017599660E1
1.253236392E1,3.639149147E0,-5.586706408E0,8.584081537E0,1.086927554E1
1.254230746E1,3.271556334E0,-5.638664766E0,9.351130396E0,1.139917808E1
1.255225146E1,4.190558540E0,-5.265804781E0,8.482189711E0,1.082760468E1
1.256219446E1,4.833279222E0,-4.016831916E0,6.272535687E0,8.879202139E0
1.257213846E1,4.684906417E0,-1.832146672E0,4.169877523E0,6.533987154E0
1.258208246E1,4.119856932E0,-8.132307529E-2,2.559638532E0,4.850936405E0
1.259202546E1,3.174126518E0,9.507303679E-1,1.450961129E0,3.617216552E0
1.260196946E1,1.896633275E0,1.303679999E0,5.192038062E-1,2.359315984E0
1.261191246E1,2.723878634E-1,7.998254263E-1,-2.709561726E-1,8.873179296E-1
1.262185646E1,-1.491099925E0,-5.002743226E-1,-5.534237587E-1,1.667312581E0
1.263180046E1,-3.622858512E0,-2.779556991E0,6.315092307E-1,4.609755392E0
1.264174346E1,-7.074009444E0,-5.787160070E0,3.068238413E0,9.640898207E0
1.265168746E1,-1.227964170E1,-9.324297523E0,5.737721862E0,1.645155241E1
1.266163146E1,-1.795693960E1,-1.258606854E1,7.587420706E0,2.320408917E1
1.267157446E1,-2.393019783E1,-1.494282156E1,7.883239532E0,2.929313486E1
1.268151846E1,-2.596452602E1,-1.605993211E1,5.699354771E0,3.105737715E1
1.269146146E1,-1.853638464E1,-1.360417638E1,2.796492574E0,2.316228704E1
1.270140546E1,-9.841344584E0,-8.755233048E0,5.390846318E-1,1.318320072E1
1.271134946E1,-5.768858870E0,-5.494944883E0,-1.187885249E0,8.055136454E0
1.272129246E1,-4.110504018E0,-3.528407561E0,-3.126969894E0,6.254905588E0
1.273123646E1,-3.075545971E0,-2.449647728E0,-4.872975969E0,6.261441672E0
1.274118046E1,-2.685380566E-1,-2.590323551E0,-5.925988172E0,6.472961038E0
1.275112346E1,6.634575400E0,-5.119598662E0,-1.452312713E1,1.676750139E1
1.276106746E1,1.015393439E1,-6.171133858E0,-2.124373436E1,2.434094342E1
1.277101046E1,1.115740431E1,-4.142587983E0,-1.940217484E1,2.276165844E1
1.278095446E1,1.320016184E1,-1.468230588E0,-1.749685495E1,2.196679100E1
1.279089846E1,1.320977116E1,1.009054005E0,-1.499280589E1,2.000751040E1
1.280084146E1,1.238450449E1,3.292576489E0,-1.185845506E1,1.745966689E1
1.281078546E1,1.082127712E1,4.786503251E0,-9.263613365E0,1.502748097E1
1.282072946E1,8.566195489E0,5.917759386E0,-7.555899535E0,1.286433827E1
1.283067246E1,6.412028618E0,6.605389608E0,-6.355438095E0,1.118645950E1
1.284061646E1,4.550625987E0,6.979138370E0,-5.398675155E0,9.927852874E0
1.285055946E1,2.757294302E0,7.460978760E0,-3.530892043E0,8.702647559E0
1.286050346E1,4.162650365E-1,8.190073342E0,-1.012427849E0,8.262904337E0
1.287044746E1,-1.432968954E0,9.242320145E0,1.052385381E0,9.411769051E0
1.288039046E1,-3.453028180E0,9.776094920E0,2.400318278E0,1.064222549E1
1.289033446E1,-5.029134049E0,9.115113968E0,2.588227909E0,1.072736760E1
1.290027846E1,-5.470861956E0,8.061763211E0,-6.212643242E-1,9.762598321E0
1.291022146E1,-5.852341322E0,6.985907691E0,-2.155232234E0,9.364712019E0
1.292016546E1,-6.238996643E0,5.268436612E0,-1.488080131E0,8.300354566E0
1.293010846E1,-5.642246770E0,3.452849255E0,-8.535402882E-1,6.669756189E0
1.294005246E1,-1.220883718E0,2.127512923E0,-9.720779675E-1,2.638523047E0
1.294999646E1,4.928219293E0,-1.219509915E0,1.591222091E0,5.320388856E0
1.295993946E1,7.411645802E0,-6.998632402E0,3.380743731E0,1.073977547E1
1.296988346E1,1.204600976E0,-1.274941402E1,2.594667447E0,1.306640427E1
1.297982646E1,-5.180060626E0,-1.527086906E1,1.833200925E0,1.622938987E1
1.298977046E1,-4.114297984E0,-1.419536496E1,1.726438076E0,1.488006797E1
1.299971446E1,7.334031031E-1,-1.008077052E1,1.274803525E0,1.018748931E1
1.300965746E1,5.483939838E0,-6.257372103E0,1.296529731E0,8.420765472E0
1.301960146E1,7.616591880E0,-4.711074754E0,2.325144427E0,9.252728992E0
1.302954546E1,4.735535119E0,-8.151692219E0,5.115539525E0,1.072586237E1
1.303948846E1,1.660033295E-1,-1.310250048E1,6.544798420E0,1.464709740E1
1.304943246E1,-2.543775621E0,-1.551447342E1,7.363688693E0,1.736069098E1
1.305937546E1,-2.304082172E0,-1.287055663E1,6.789382188E0,1.473281145E1
1.306931946E1,-1.469291565E0,-6.595070441E0,4.776361548E0,8.274503095E0
1.307926346E1,-1.647381674E0,-8.357097888E-1,3.014355151E0,3.535337920E0
1.308920646E1,-2.303612055E0,1.716771752E0,8.117712879E-1,2.985449107E0
1.309915046E1,-3.520763496E0,2.210355105E0,-1.669520402E0,4.479815136E0
1.310909346E1,-5.313578871E0,1.761004769E0,-3.877752383E0,6.809715248E0
1.311903746E1,-7.260371901E0,5.731896865E-1,-5.688888255E0,9.241482356E0
1.312898146E1,-8.782059488E0,-6.226080143E-1,-6.465754005E0,1.092328634E1
1.313892446E1,-9.540879561E0,-1.176198419E0,-5.881597865E0,1.126965035E1
1.314886846E1,-9.257488407E0,-1.039464204E0,-4.733109694E0,1.044911024E1
1.315881246E1,-8.383013332E0,-6.759141558E-1,-3.592082862E0,9.145208131E0
1.316875546E1,-8.362669115E0,-7.607531619E-1,-2.632265044E0,8.800102236E0
1.317869946E1,-9.208118026E0,-8.639968640E-1,-1.867286392E0,9.435183445E0
1.318864246E1,-9.855742768E0,-5.980193031E-1,-9.941459441E-1,9.923790544E0
1.319858646E1,-9.231310422E0,5.231351817E-1,-3.026170912E-1,9.251072351E0
1.320853046E1,-7.424378114E0,2.487908399E0,-3.279942995E-1,7.837005732E0
1.321847346E1,-5.522250795E0,4.159100520E0,-7.563689196E-1,6.954528375E0
1.322841746E1,-4.029431496E0,5.079441739E0,-1.205364623E0,6.594691079E0
1.323836146E1,-2.177414524E0,5.635054110E0,-1.413182561E0,6.204196466E0
1.324830446E1,-4.644852698E-2,6.038544735E0,-1.520285425E0,6.227154065E0
1.325824846E1,1.732753946E0,6.220602472E0,-1.556869115E0,6.642452318E0
1.326819146E1,2.892780136E0,5.981795753E0,-9.073744333E-1,6.706219927E0
1.327813546E1,3.263234577E0,5.278652868E0,9.393252276E-1,6.276560195E0
1.328807946E1,3.912691543E0,4.195198306E0,1.756663796E0,5.999559286E0
1.329802246E1,4.957309191E0,2.335582584E0,1.479088283E0,5.676051671E0
1.330796646E1,4.955909953E0,4.145781147E-1,2.475427810E0,5.555237287E0
1.331791046E1,4.473927475E0,-1.057356684E0,3.359623003E0,5.693952663E0
1.332785346E1,3.872365636E0,-1.833195662E0,3.429284391E0,5.487787659E0
1.333779746E1,3.269285275E0,-1.465644364E0,3.431842548E0,4.961238040E0
1.334774046E1,2.475266719E0,-1.279265535E-1,3.571560597E0,4.347338914E0
1.335768446E1,1.867161554E0,1.363087125E0,3.685399454E0,4.350456058E0
1.336762846E1,1.721875201E0,2.713032049E0,3.761050145E0,4.946806576E0
1.337757146E1,1.532390331E0,3.779396954E0,4.011936627E0,5.720812613E0
1.338751546E1,1.469538610E0,4.596968679E0,3.873387437E0,6.188278840E0
1.339745846E1,1.098711702E0,5.233815249E0,3.725740564E0,6.517755151E0
1.340740246E1,9.192974907E-1,5.696179733E0,3.868885081E0,6.946930488E0
1.341734646E1,1.377406957E0,5.887741535E0,4.025403349E0,7.264063768E0
1.342728946E1,2.088383941E0,5.582262524E0,3.747957644E0,7.040609979E0
1.343723346E1,2.463347754E0,4.720931990E0,2.748085522E0,5.992266270E0
1.344717746E1,2.598508776E0,3.996416363E0,1.561029847E0,5.016014930E0
1.345712046E1,2.865648763E0,3.697709012E0,8.553546792E-1,4.755694103E0
1.346706446E1,3.550739831E0,3.084391639E0,8.551688109E-1,4.780432912E0
1.347700746E1,4.176434591E0,1.885223603E0,1.845932068E0,4.940054567E0
1.348695146E1,4.657609568E0,-1.545302153E-1,3.174132366E0,5.638468121E0
1.349689546E1,5.038943338E0,-2.745143203E0,4.340288776E0,7.194780597E0
1.350683846E1,5.146187705E0,-5.038862062E0,5.333810238E0,8.962304973E0
1.351678246E1,5.123151430E0,-6.835857028E0,6.362844179E0,1.065182651E1
1.352672546E1,5.243447367E0,-8.072317436E0,7.125581886E0,1.197622504E1
1.353666946E1,5.231868711E0,-8.387906867E0,7.081085159E0,1.216023021E1
1.354661292E1,5.002639146E0,-7.569571495E0,5.926255975E0,1.083721924E1
1.355655592E1,4.445774301E0,-5.420267168E0,4.356811253E0,8.253848170E0
1.356649992E1,4.064394922E0,-2.583448979E0,3.007186173E0,5.677735763E0
1.357644392E1,3.481898515E0,-5.909728235E-1,2.112055370E0,4.115050915E0
1.358638692E1,2.422301762E0,4.691004771E-1,1.367255313E0,2.820813389E0
1.359633092E1,1.329850382E0,9.571161121E-1,7.309906881E-1,1.794135078E0
1.360627392E1,5.891312429E-1,7.711220294E-1,4.773454897E-1,1.081463602E0
1.361621792E1,-4.067638958E-1,-2.749056745E-1,1.118631411E0,1.221624423E0
1.362616192E1,-2.376121915E0,-2.565824887E0,2.793768356E0,4.475997579E0
1.363610492E1,-6.034266912E0,-5.514669296E0,4.716015067E0,9.437412395E0
1.364604892E1,-1.179971393E1,-8.407381604E0,6.675856158E0,1.595256624E1
1.365599292E1,-1.853739972E1,-1.121410593E1,7.786825962E0,2.302229395E1
1.366593592E1,-2.402148924E1,-1.347219069E1,7.070252023E0,2.843449192E1
1.367587992E1,-2.469928913E1,-1.314933316E1,4.440701549E0,2.833160208E1
1.368582292E1,-1.744745182E1,-9.365674760E0,1.900789768E0,1.989327626E1
1.369576692E1,-1.090558344E1,-5.090577761E0,4.363075376E-2,1.203526634E1
1.370571092E1,-7.588062145E0,-3.050078423E0,-1.448541843E0,8.305416243E0
1.371565392E1,-5.255512512E0,-1.808898143E0,-2.613202536E0,6.141771059E0
1.372559792E1,-3.295445133E0,-1.428563077E0,-4.506242697E0,5.762549291E0
1.373554092E1,6.423828591E-1,-2.883031658E0,-1.050554267E1,1.091288020E1
1.374548492E1,6.884274897E0,-6.368335299E0,-2.393678180E1,2.570833441E1
1.375542892E1,7.923359032E0,-6.094651108E0,-2.272531122E1,2.482668243E1
1.376537192E1,9.587003567E0,-3.203037491E0,-1.975945375E1,2.219473134E1
1.377531592E1,1.098729477E1,-6.700628471E-1,-1.691801802E1,2.018387882E1
1.378525992E1,1.057843406E1,1.616491418E0,-1.305507137E1,1.688049763E1
1.379520292E1,9.420626893E0,3.500777128E0,-9.925336329E0,1.412501160E1
1.380514692E1,7.132761097E0,4.552777178E0,-7.662753893E0,1.141585994E1
1.381508992E1,4.556762348E0,5.201594167E0,-5.815412062E0,9.035468024E0
1.382503392E1,2.183452066E0,5.636952116E0,-3.688957484E0,7.081744094E0
1.383497792E1,-1.384503722E-2,6.012662619E0,-1.534588884E0,6.205422347E0
1.384492092E1,-1.454063369E0,6.730404248E0,8.488432199E-1,6.937807754E0
1.385486492E1,-1.904440769E0,8.010796541E0,3.078480104E0,8.790722133E0
1.386480792E1,-3.349427213E0,8.951087290E0,3.350652789E0,1.012756143E1
1.387475192E1,-4.625037361E0,8.573171802E0,2.715373859E0,1.011254174E1
1.388469592E1,-4.307506069E0,7.800013188E0,-1.730592815E0,9.076880838E0
1.389463892E1,-4.056341844E0,7.070589407E0,-2.779835903E0,8.612469528E0
1.390458292E1,-3.412766592E0,5.719677354E0,-2.127493043E0,6.991989094E0
1.391452692E1,-1.648646427E0,4.132723145E0,-2.686624269E0,5.197632692E0
1.392446992E1,2.905934617E-1,2.379124460E0,-2.772663124E0,3.665015492E0
1.393441392E1,4.372379757E0,-9.054729187E-1,-8.810046601E-1,4.551236663E0
1.394435692E1,9.069315652E0,-6.166321015E0,2.686889148E0,1.129138497E1
1.395430092E1,3.403676510E0,-1.165345753E1,3.463159066E0,1.262464086E1
1.396424492E1,-3.692138077E0,-1.392997154E1,3.011379211E0,1.472224152E1
1.397418792E1,7.067301518E-1,-1.258786598E1,2.039505311E0,1.277158640E1
1.398413192E1,7.373276957E0,-9.568650327E0,1.571998785E0,1.218176762E1
1.399407492E1,9.475170890E0,-5.859052171E0,2.590107496E0,1.143748279E1
1.400401892E1,8.011626846E0,-3.690814560E0,5.314552433E0,1.029819132E1
1.401396292E1,2.796094671E0,-4.230399714E0,7.666579726E0,9.191891636E0
1.402390592E1,-1.462544463E0,-6.477460715E0,7.827102168E0,1.026450496E1
1.403384992E1,-2.161705102E0,-9.521021832E0,7.336370502E0,1.221250006E1
1.404379392E1,-1.413333127E0,-1.052364331E1,5.859687763E0,1.212767578E1
1.405373692E1,-6.442526525E-1,-9.516331195E0,4.140749911E0,1.039814554E1
1.406368092E1,-1.937674881E0,-6.724164684E0,2.819720930E0,7.544521242E0
1.407362392E1,-3.617555672E0,-2.767559674E0,8.034851986E-1,4.625114491E0
1.408356792E1,-4.880047300E0,-3.121980464E-1,-1.673754956E0,5.168537986E0
1.409351192E1,-6.675181389E0,1.052025193E-1,-3.854174071E0,7.708681594E0
1.410345492E1,-9.324907973E0,-7.768698424E-1,-5.219118272E0,1.071431897E1
1.411339892E1,-1.186468351E1,-2.359442732E0,-5.621277485E0,1.333928204E1
1.412334192E1,-1.299345458E1,-2.869935064E0,-4.884962177E0,1.417495131E1
1.413328592E1,-1.204765809E1,-1.582418523E0,-4.329424649E0,1.289938106E1
1.414322992E1,-9.825568796E0,9.142940283E-2,-4.410274685E0,1.077036138E1
1.415317292E1,-8.695120162E0,9.565758294E-1,-4.243116238E0,9.722355032E0
1.416311692E1,-8.521613978E0,1.071526242E0,-3.861167341E0,9.416723768E0
1.417305992E1,-8.783986731E0,1.311996494E0,-3.458796458E0,9.531161032E0
1.418300392E1,-8.266742034E0,2.130434192E0,-2.660342789E0,8.941767021E0
1.419294792E1,-7.172271903E0,3.064109402E0,-1.969382578E0,8.044172947E0
1.420289092E1,-5.855567231E0,3.408509234E0,-1.715093601E0,6.989073533E0
1.421283492E1,-4.441045657E0,3.516176355E0,-1.821319090E0,5.950091253E0
1.422277892E1,-2.732302718E0,3.546989427E0,-2.267378614E0,5.018726723E0
1.423272192E1,-7.615498450E-1,3.588084244E0,-2.651678092E0,4.526113499E0
1.424266592E1,1.407511346E0,3.686213971E0,-2.248496785E0,4.541475468E0
1.425260892E1,3.193664405E0,3.629597721E0,-1.741715097E0,5.138778398E0
1.426255292E1,4.287883691E0,3.071281012E0,-1.133984153E0,5.394871051E0
1.427249692E1,4.929417388E0,2.008080035E0,-2.545693508E-1,5.328822268E0
1.428243992E1,4.648322143E0,8.678770763E-1,2.984372091E0,5.591653257E0
1.429238392E1,4.812025763E0,-1.040358244E0,3.877126147E0,6.266581554E0
1.430232692E1,4.727530865E0,-2.956544607E0,3.916620580E0,6.814001825E0
1.431227092E1,4.642761441E0,-3.396775042E0,5.265272099E0,7.798487338E0
1.432221492E1,4.484134082E0,-2.326977237E0,5.877130008E0,7.750028300E0
1.433215792E1,4.042162639E0,-1.800427866E-1,5.755890330E0,7.035749263E0
1.434210192E1,3.138925695E0,1.713555783E0,5.795443236E0,6.810013968E0
1.435204592E1,2.695604715E0,2.994414099E0,5.662590988E0,6.949657349E0
1.436198892E1,2.210659745E0,3.826944172E0,4.774693630E0,6.506167648E0
1.437193292E1,1.449629425E0,4.550369294E0,3.439276114E0,5.885227810E0
1.438187592E1,4.325942633E-1,5.500380455E0,2.601910978E0,6.100103579E0
1.439181992E1,-7.465081751E-1,6.259603985E0,2.532240819E0,6.793538111E0
1.440176392E1,-1.360125511E0,6.554016556E0,2.613384385E0,7.185739514E0
1.441170692E1,-1.203196183E0,6.682568176E0,2.874536238E0,7.373422345E0
1.442165092E1,-8.644172788E-1,6.611708694E0,3.007603664E0,7.314888166E0
1.443159392E1,-4.397848767E-1,6.284202636E0,2.943258564E0,6.953228350E0
1.444153792E1,6.794724789E-1,5.663798438E0,2.224234641E0,6.122704903E0
1.445148192E1,1.761056224E0,4.815404284E0,1.228584208E0,5.272462100E0
1.446142492E1,2.535641267E0,3.734401460E0,7.613308668E-1,4.577647385E0
1.447136892E1,3.252508737E0,2.411828522E0,1.364314456E0,4.272830893E0
1.448131192E1,3.723822092E0,7.448463964E-1,2.799446880E0,4.717896773E0
1.449125592E1,3.989551439E0,-1.227425875E0,4.435626458E0,6.090802660E0
1.450119992E1,4.202972471E0,-3.425494811E0,5.605253776E0,7.798580780E0
1.451114292E1,4.714689210E0,-5.590125859E0,6.103913682E0,9.525521703E0
1.452108692E1,5.177935163E0,-7.194418232E0,6.202416462E0,1.081853207E1
1.453103092E1,5.592198697E0,-7.951605177E0,6.059277792E0,1.145493599E1
1.454097392E1,5.967243787E0,-7.575012329E0,6.027051448E0,1.137163838E1
1.455091829E1,6.194762456E0,-5.789992461E0,5.717787534E0,1.022703226E1
1.456086129E1,6.213219777E0,-2.769162980E0,4.499728898E0,8.155974729E0
1.457080529E1,6.199688151E0,-1.441438061E-1,2.747753400E0,6.782850386E0
1.458074929E1,5.422869179E0,9.855949759E-1,1.358808133E0,5.676730321E0
1.459069229E1,3.980174552E0,1.005865518E0,3.506304793E-1,4.120254438E0
1.460063629E1,2.355624501E0,3.832042944E-1,-4.266023290E-1,2.424417841E0
1.461057929E1,6.154986772E-1,-9.017131591E-1,-6.113997790E-1,1.251293304E0
1.462052329E1,-1.341495989E0,-2.934124628E0,9.175977051E-2,3.227556147E0
1.463046729E1,-4.343692440E0,-5.699579304E0,2.307375908E0,7.528403008E0
1.464041029E1,-9.073886420E0,-8.919896488E0,5.206296498E0,1.374792680E1
1.465035429E1,-1.490339495E1,-1.233761567E1,7.472300724E0,2.074037655E1
1.466029729E1,-2.055892484E1,-1.556583771E1,8.166511402E0,2.704915160E1
1.467024129E1,-2.317587193E1,-1.725456270E1,6.479712478E0,2.961127568E1
1.468018529E1,-1.969148104E1,-1.497670383E1,3.092169605E0,2.493226015E1
1.469012829E1,-1.292617301E1,-9.144972775E0,1.350912345E0,1.589155247E1
1.470007229E1,-5.864667252E0,-3.495531591E0,3.232595167E-1,6.835024491E0
1.471001529E1,-2.196515915E0,-1.448575757E0,-1.115080397E0,2.857701556E0
1.471995929E1,-1.460304979E0,-1.059849937E0,-3.393748523E0,3.843605281E0
1.472990329E1,-8.789446861E-1,-1.089723362E0,-4.883838342E0,5.080543053E0
1.473984629E1,2.119487181E0,-1.956573667E0,-8.729571372E0,9.193792622E0
1.474979029E1,6.766038349E0,-4.598561461E0,-1.972855005E1,2.135747479E1
1.475973429E1,8.292945746E0,-5.533817757E0,-2.140215649E1,2.361034499E1
1.476967729E1,9.237075777E0,-3.705007507E0,-1.918976655E1,2.161707172E1
1.477962129E1,1.105695499E1,-1.473896540E0,-1.706741438E1,2.038934178E1
1.478956429E1,1.118398575E1,9.367572767E-1,-1.422911977E1,1.812255227E1
1.479950829E1,1.013626411E1,3.059661425E0,-1.123381338E1,1.543709627E1
1.480945229E1,7.979140885E0,4.318427206E0,-8.988436380E0,1.277135433E1
1.481939529E1,5.423260358E0,5.004762855E0,-7.636447270E0,1.061954477E1
1.482933929E1,3.611867501E0,5.588570500E0,-6.319773588E0,9.176995439E0
1.483928229E1,1.950842811E0,6.080382147E0,-4.370296687E0,7.737979572E0
1.484922629E1,1.409664291E-1,6.804159272E0,-6.732940185E-1,6.838843452E0
1.485917029E1,-1.454276792E0,8.142997994E0,3.078220487E0,8.826028477E0
1.486911329E1,-3.969936369E0,9.050333835E0,3.212815790E0,1.039187772E1
1.487905729E1,-5.389803175E0,9.057298454E0,2.311783247E0,1.079022592E1
1.488900129E1,-5.590242219E0,8.585275539E0,-2.307925254E-1,1.024748893E1
1.489894429E1,-5.602080492E0,7.622992827E0,-1.616479724E0,9.597204393E0
1.490888829E1,-5.032772187E0,6.314379532E0,-1.622199470E0,8.236001207E0
1.491883129E1,-2.404122769E0,4.338328205E0,-1.646991080E0,5.226229761E0
1.492877529E1,1.845407280E0,1.918201314E0,-3.601153940E-1,2.686020739E0
1.493871929E1,5.447885322E0,-1.843802512E0,2.344598406E0,6.210974470E0
1.494866229E1,3.504129629E0,-5.679093584E0,2.933240529E0,7.289370919E0
1.495860629E1,-1.040886832E0,-9.367333615E0,1.289172472E0,9.512746718E0
1.496854929E1,-6.401803592E-1,-1.198658159E1,-6.052768672E-1,1.201891547E1
1.497849329E1,4.206347484E0,-1.272390846E1,-1.246874299E0,1.345904533E1
1.498843729E1,8.260641049E0,-1.162390921E1,2.274300256E0,1.444042581E1
1.499838029E1,8.924108237E0,-9.067832798E0,6.365245045E0,1.422609026E1
1.500832429E1,4.984821510E0,-5.625459414E0,6.467413445E0,9.915728706E0
1.501826729E1,1.412296708E0,-3.337533976E0,6.222371255E0,7.200806834E0
1.502821129E1,-5.036668772E-1,-5.810507417E0,5.345532736E0,7.911409293E0
1.503815529E1,-1.747785968E0,-1.027738666E1,4.178879604E0,1.123131635E1
1.504809829E1,-1.068150937E0,-1.340548214E1,3.457794245E0,1.388539661E1
1.505804229E1,2.916214022E-1,-1.339326497E1,3.006301489E0,1.372961901E1
1.506798529E1,-1.224249083E0,-8.710446884E0,2.451745124E0,9.131359422E0
1.507792929E1,-1.664954019E0,-2.177718287E0,1.350729620E0,3.055977638E0
1.508787329E1,-2.481073881E0,1.084674291E0,-1.350896850E0,3.026081331E0
1.509781629E1,-4.356918550E0,2.006796572E0,-3.555187224E0,5.970705815E0
1.510776029E1,-6.284475117E0,2.566073393E0,-4.428189384E0,8.104827042E0
1.511770429E1,-8.269556299E0,2.280665535E0,-4.692350800E0,9.777788742E0
1.512764729E1,-9.605946792E0,1.379623636E0,-4.566785937E0,1.072534890E1
1.513759129E1,-1.021148503E1,5.416112137E-1,-4.679785134E0,1.124580625E1
1.514753429E1,-1.050176186E1,-4.569183880E-1,-4.466708502E0,1.142135112E1
1.515747829E1,-1.064327969E1,-1.178077714E0,-3.771917195E0,1.135317704E1
1.516742229E1,-1.081344419E1,-1.410879343E0,-2.871634558E0,1.127685420E1
1.517736529E1,-1.137736370E1,-1.347902491E0,-2.069629289E0,1.164236279E1
1.518730929E1,-1.192312176E1,-7.992757881E-1,-1.559344826E0,1.205119208E1
1.519725229E1,-1.142316962E1,8.698066574E-1,-1.174245741E0,1.151625897E1
1.520719629E1,-9.713022759E0,2.678183813E0,-6.441380471E-1,1.009605831E1
1.521714029E1,-7.603394714E0,3.320657158E0,-7.558613813E-1,8.331248500E0
1.522708329E1,-5.094587781E0,3.375323946E0,-1.507559253E0,6.294471487E0
1.523702729E1,-2.111473719E0,3.513208893E0,-1.955217990E0,4.541347309E0
1.524697029E1,6.445605084E-1,3.656638754E0,-1.944330474E0,4.191286941E0
1.525691429E1,2.771762068E0,3.603747765E0,-1.605826389E0,4.821653379E0
1.526685829E1,4.124866242E0,2.908326713E0,-6.282029226E-1,5.086012652E0
1.527680129E1,4.673069606E0,1.481292683E0,1.753459814E0,5.206383474E0
1.528674529E1,4.298713026E0,2.132309979E-1,3.665377710E0,5.653264092E0
1.529668829E1,5.038205420E0,-1.397671067E0,2.920583646E0,5.988890306E0
1.530663229E1,5.431219003E0,-2.859011296E0,2.669705350E0,6.693236296E0
1.531657629E1,4.822982568E0,-3.183611872E0,4.993505210E0,7.637515282E0
1.532651929E1,4.221307001E0,-1.681799555E0,6.064703423E0,7.578160077E0
1.533646329E1,4.221146787E0,5.960172164E-1,5.861895087E0,7.248112219E0
1.534640729E1,3.550743047E0,2.365546641E0,5.754989859E0,7.164041832E0
1.535635029E1,3.214112118E0,3.534589237E0,5.291279930E0,7.128918647E0
1.536629429E1,3.002217793E0,4.335523880E0,4.800590363E0,7.131321535E0
1.537623729E1,1.986968956E0,4.987725822E0,3.686695197E0,6.512846995E0
1.538618129E1,9.808973229E-1,5.541143149E0,2.324206241E0,6.088379227E0
1.539612529E1,-1.693455979E-1,6.223791543E0,1.561539286E0,6.418930133E0
1.540606829E1,-8.038105962E-1,6.649121518E0,1.591418996E0,6.884006309E0
1.541601229E1,-8.955379146E-1,6.910324827E0,1.694856972E0,7.171270287E0
1.542595529E1,-5.117947993E-1,6.969295167E0,1.887198938E0,7.238406515E0
1.543589929E1,1.388713717E-1,6.604020190E0,1.887967701E0,6.869991991E0
1.544584329E1,1.369918427E0,5.910664374E0,1.627285963E0,6.281774387E0
1.545578629E1,2.417320227E0,4.812042135E0,1.135770770E0,5.503559015E0
1.546573029E1,2.520109016E0,3.393621638E0,1.346961089E0,4.436431162E0
1.547567329E1,2.219995410E0,2.051820717E0,2.241658759E0,3.763426878E0
1.548561729E1,2.243241308E0,6.178741086E-1,3.392883720E0,4.114068536E0
1.549556129E1,2.869636856E0,-8.643476969E-1,4.478650855E0,5.388898414E0
1.550550429E1,3.903403534E0,-2.477829553E0,5.235460655E0,6.984715221E0
1.551544829E1,5.249787503E0,-4.090431404E0,6.164240575E0,9.071370336E0
1.552539129E1,5.940152467E0,-5.218817725E0,7.387564044E0,1.082116317E1
1.553533529E1,6.073038629E0,-5.585597191E0,8.939729658E0,1.216550289E1
1.554527904E1,6.577242281E0,-5.372617038E0,9.193017007E0,1.251545810E1
1.555522204E1,7.037930954E0,-4.121046841E0,7.235836984E0,1.090288201E1
1.556516604E1,6.697722405E0,-1.974613497E0,4.926678552E0,8.545802796E0
1.557511004E1,5.694181155E0,2.192267329E-1,3.167313927E0,6.519481337E0
1.558505304E1,4.680000896E0,1.799490557E0,1.833638735E0,5.338801894E0
1.559499704E1,3.632968640E0,2.390568631E0,8.136002970E-1,4.424389784E0
1.560494004E1,2.025965499E0,1.465549639E0,2.841337502E-1,2.516565901E0
1.561488404E1,8.418821096E-2,-9.044081408E-1,3.849903265E-1,9.865390471E-1
1.562482804E1,-2.392264908E0,-4.357422872E0,1.852279220E0,5.304809496E0
1.563477104E1,-6.612754176E0,-8.963070574E0,4.126011419E0,1.187809421E1
1.564471504E1,-1.191807678E1,-1.453907365E1,6.307426608E0,1.982949438E1
1.565465804E1,-1.802222026E1,-1.953395705E1,7.920887999E0,2.773294733E1
1.566460204E1,-2.177146663E1,-2.195034465E1,7.141510870E0,3.173035718E1
1.567454604E1,-1.863966986E1,-1.960192509E1,3.765090571E0,2.731023007E1
1.568448904E1,-1.292453228E1,-1.427115657E1,1.676271597E0,1.932664821E1
1.569443304E1,-8.101312609E0,-8.267465335E0,6.032151389E-1,1.159077726E1
1.570437604E1,-5.926105701E0,-3.434161554E0,-1.813620354E0,7.085295558E0
1.571432004E1,-5.250296211E0,-2.099055110E0,-3.875849115E0,6.855205979E0
1.572426404E1,-4.518571258E0,-1.696725157E0,-5.136377247E0,7.048314245E0
1.573420704E1,-2.415232625E0,-2.006917024E0,-7.575260251E0,8.200343435E0
1.574415104E1,4.282024781E0,-3.702735863E0,-2.283028512E1,2.352164764E1
1.575409404E1,7.339105829E0,-4.677025248E0,-2.309044645E1,2.467601582E1
1.576403804E1,8.404716443E0,-2.820606199E0,-1.883245022E1,2.081480865E1
1.577398204E1,1.094384645E1,-5.591926217E-1,-1.813619184E1,2.118966555E1
1.578392504E1,1.146469420E1,1.697411621E0,-1.528103971E1,1.917891014E1
1.579386904E1,1.001617867E1,3.639270185E0,-1.193989508E1,1.600403753E1
1.580381204E1,7.489557611E0,4.697354847E0,-8.851100487E0,1.251001981E1
1.581375604E1,4.594057058E0,5.224935667E0,-6.783369496E0,9.716965303E0
1.582370004E1,2.222010507E0,5.731181166E0,-4.487049211E0,7.610346830E0
1.583364304E1,2.473261124E-1,6.205785043E0,-2.090065600E0,6.552962110E0
1.584358704E1,-1.416150023E0,6.948713552E0,2.420337975E-2,7.091592679E0
1.585353004E1,-2.408134544E0,8.230458891E0,1.822586474E0,8.767062621E0
1.586347404E1,-2.973041357E0,9.479188512E0,3.218589916E0,1.044285932E1
1.587341804E1,-4.738705772E0,9.354972017E0,3.321018516E0,1.099999990E1
1.588336104E1,-5.434479411E0,8.404541026E0,1.059167567E0,1.006437838E1
1.589330504E1,-5.099611709E0,7.439581459E0,-1.703711995E0,9.179109240E0
1.590324904E1,-4.884221919E0,5.817971973E0,-3.185669507E0,8.237287893E0
1.591319204E1,-3.918593431E0,4.051469067E0,-3.906467475E0,6.857861489E0
1.592313604E1,-1.389670614E0,2.263733752E0,-3.176229762E0,4.140544701E0
1.593307904E1,2.281307851E0,-3.957629442E-1,-1.343383178E0,2.676877320E0
1.594302304E1,5.769829507E0,-5.183975337E0,1.020788198E0,7.823460959E0
1.595296704E1,5.207685796E0,-1.129889757E1,1.711335011E0,1.255841332E1
1.596291004E1,-9.513478339E-1,-1.450857458E1,2.320572782E0,1.472375146E1
1.597285404E1,-1.588701649E0,-1.281751771E1,2.924346330E0,1.324252750E1
1.598279704E1,2.479522907E0,-7.827084042E0,2.361498029E0,8.543298624E0
1.599274104E1,5.200390810E0,-2.781722800E0,1.857380916E0,6.183195790E0
1.600268504E1,6.662415748E0,4.696705806E-1,1.923887731E0,6.950519265E0
1.601262804E1,5.188187086E0,1.071357842E0,2.722661536E0,5.956339371E0
1.602257204E1,1.647369687E0,-9.610331619E-1,4.454505948E0,4.845620173E0
1.603251504E1,-9.673195034E-1,-4.783563271E0,5.558856704E0,7.397234108E0
1.604245904E1,-2.786450858E0,-8.534545680E0,6.170173745E0,1.089375153E1
1.605240304E1,-2.964055648E0,-1.046497352E1,6.739271550E0,1.279527560E1
1.606234604E1,-1.604913054E0,-1.055897921E1,5.691342916E0,1.210203173E1
1.607229004E1,-2.018332543E0,-8.624967023E0,3.860930821E0,9.662841674E0
1.608223304E1,-2.773834321E0,-5.236143610E0,3.110145408E0,6.692111864E0
1.609217704E1,-3.191424921E0,-2.047348766E0,1.340182412E0,4.021556775E0
1.610212104E1,-5.018810205E0,-1.908249353E0,-1.369628698E0,5.541277311E0
1.611206404E1,-6.844653579E0,-2.649054154E0,-2.947698355E0,7.909215898E0
1.612200804E1,-8.062776534E0,-2.898182963E0,-3.848328317E0,9.392415065E0
1.613195104E1,-8.573117423E0,-2.520010198E0,-4.114752313E0,9.837681655E0
1.614189504E1,-7.879672145E0,-1.527011477E0,-4.088588069E0,9.007638401E0
1.615183904E1,-6.788372959E0,-3.953360975E-1,-4.471925973E0,8.138576040E0
1.616178204E1,-6.464482235E0,1.359635514E-1,-4.581974372E0,7.924803203E0
1.617172604E1,-6.593285286E0,5.288958585E-1,-4.212275099E0,7.841836724E0
1.618166904E1,-7.005362547E0,9.607776386E-1,-3.969372698E0,8.108891274E0
1.619161304E1,-7.435593658E0,1.617669632E0,-3.486494134E0,8.370218004E0
1.620155704E1,-7.080271811E0,2.709713169E0,-3.046003498E0,8.170124338E0
1.621150004E1,-5.909315422E0,3.973802256E0,-2.750627014E0,7.633941452E0
1.622144404E1,-4.476754603E0,5.023885589E0,-2.561816036E0,7.200254133E0
1.623138704E1,-3.144482889E0,5.610070127E0,-2.544323505E0,6.916230301E0
1.624133104E1,-1.966322145E0,5.914729943E0,-2.847635538E0,6.852698829E0
1.625127504E1,-7.102536839E-1,6.089095668E0,-3.164747292E0,6.899070356E0
1.626121804E1,4.111542776E-1,6.031426919E0,-3.345521565E0,6.909390209E0
1.627116204E1,1.208338809E0,5.713043103E0,-3.189481891E0,6.653701144E0
1.628110504E1,2.569017466E0,5.220581830E0,-2.674344824E0,6.403627536E0
1.629104904E1,3.349259983E0,4.406441250E0,-8.603886934E-1,5.601297674E0
1.630099304E1,3.188778471E0,2.556604412E0,8.697914547E-1,4.178644689E0
1.631093604E1,2.563852913E0,-2.023475754E-1,4.035592707E0,4.785425248E0
1.632088004E1,1.937085774E0,-2.701477366E0,6.439095379E0,7.246532313E0
1.633082304E1,1.548569284E0,-3.937190500E0,8.202044932E0,9.228926098E0
1.634076704E1,1.166566008E0,-3.753648155E0,8.380174509E0,9.256245218E0
1.635071104E1,1.148117458E0,-2.443192987E0,7.691837359E0,8.151792909E0
1.636065404E1,1.335815127E0,-7.172878844E-1,6.372777429E0,6.550663792E0
1.637059804E1,1.504432746E0,8.807614160E-1,4.973835762E0,5.270493406E0
1.638054104E1,1.362562045E0,2.194175860E0,3.473633768E0,4.328638884E0
1.639048504E1,9.860560289E-1,3.306102269E0,2.462781744E0,4.238857467E0
1.640042904E1,5.199811935E-1,4.181702932E0,1.800850035E0,4.582584500E0
1.641037204E1,1.595471263E-1,4.997409396E0,1.995625028E0,5.383500275E0
1.642031604E1,1.690570378E-1,5.462517394E0,2.525175628E0,6.020314653E0
1.643025904E1,5.524601376E-1,5.677665110E0,3.172023860E0,6.527084239E0
1.644020304E1,1.713474799E0,5.582829704E0,2.954747758E0,6.544808454E0
1.645014704E1,3.227413949E0,5.027616112E0,1.521038547E0,6.164956028E0
1.646009004E1,4.346511675E0,4.651355386E0,2.097085621E-1,6.369556370E0
1.647003404E1,4.781640707E0,4.306893573E0,-1.899340097E-1,6.438128224E0
1.647997704E1,4.899109807E0,3.235976611E0,2.080146968E-1,5.875039715E0
1.648992104E1,5.086292337E0,1.623565965E0,1.547272080E0,5.558811659E0
1.649986504E1,5.692867870E0,-4.403596580E-2,3.276172126E0,6.568408297E0
1.650980804E1,5.985304667E0,-1.972302677E0,4.636280680E0,7.823614788E0
1.651975204E1,5.568993437E0,-4.034443730E0,5.563820406E0,8.845706394E0
1.652969604E1,4.723634281E0,-5.713885102E0,6.209631926E0,9.670611792E0
1.653963904E1,3.849176456E0,-6.824584181E0,6.693250455E0,1.030488769E1
1.654958333E1,3.547300207E0,-7.220045409E0,7.114378620E0,1.073903057E1
1.655952633E1,4.024174557E0,-6.738664024E0,6.422095769E0,1.014134546E1
1.656947033E1,4.128212603E0,-5.170537266E0,4.686907042E0,8.108248426E0
1.657941433E1,3.518250070E0,-2.636272725E0,3.047529037E0,5.349341143E0
1.658935733E1,3.221779572E0,-2.555315101E-1,1.563782132E0,3.590344624E0
