"Time (s)","Linear Acceleration x (m/s^2)","Linear Acceleration y (m/s^2)","Linear Acceleration z (m/s^2)","Absolute acceleration (m/s^2)"
5.857458338E-3,1.383659969E0,1.756880143E0,-3.505385903E0,4.157989066E0
1.580245839E-2,1.369399487E0,1.374251799E0,-3.688629748E0,4.167710688E0
2.574645821E-2,1.006933220E0,8.559744841E-1,-3.778001808E0,4.002487288E0
3.569045849E-2,5.020343345E-1,4.205872983E-1,-3.697131892E0,3.754692581E0
4.563445831E-2,6.374342144E-3,1.684565288E-1,-3.437477218E0,3.441608324E0
5.557845812E-2,-3.591801319E-1,3.225967348E-2,-3.129876544E0,3.150583793E0
6.552245840E-2,-7.185017663E-1,-5.117483139E-3,-2.746782178E0,2.839204696E0
7.546645822E-2,-1.152127186E0,-3.587734580E-2,-2.265670789E0,2.542036262E0
8.541045804E-2,-1.498764456E0,-4.662277400E-2,-1.850905417E0,2.382083004E0
9.535445832E-2,-1.615062359E0,3.562182248E-2,-1.390716535E0,2.131616246E0
1.052984581E-1,-1.414737628E0,1.488169008E-1,-8.811730599E-1,1.673348436E0
1.152424584E-1,-1.376110044E0,2.511221248E-1,-6.154428363E-1,1.528237894E0
1.251864582E-1,-1.530746386E0,3.659076458E-1,-3.782169119E-1,1.618678763E0
1.351304580E-1,-1.667185609E0,4.799985176E-1,-7.792511210E-2,1.736657351E0
1.450744583E-1,-1.625676225E0,6.131577444E-1,2.437525865E-1,1.754480245E0
1.550194584E-1,-1.619921103E0,6.556523842E-1,4.227417049E-1,1.797980806E0
1.649634582E-1,-1.684943018E0,6.707785463E-1,3.597980364E-1,1.848900067E0
1.749074585E-1,-1.703648553E0,7.525109267E-1,2.795966032E-1,1.883312334E0
1.848514583E-1,-1.667189994E0,7.685983711E-1,3.058563025E-1,1.861132454E0
1.947954581E-1,-1.685627435E0,7.514981890E-1,2.344476199E-1,1.860391105E0
2.047394584E-1,-1.582162123E0,7.552240348E-1,1.143197903E-1,1.756891955E0
2.146834582E-1,-1.438142278E0,6.503097832E-1,-3.614997223E-2,1.578753574E0
2.246274585E-1,-1.427351826E0,4.970601082E-1,-2.070547302E-1,1.525540445E0
2.345714583E-1,-1.337749678E0,4.249247628E-1,-4.603394477E-1,1.477175569E0
2.445154581E-1,-1.246136965E0,4.260766643E-1,-6.235773365E-1,1.457136697E0
2.544594584E-1,-1.168096224E0,2.839893240E-1,-7.393627314E-1,1.411295849E0
2.644034582E-1,-1.054098031E0,2.072212297E-1,-9.050400786E-1,1.404692436E0
2.743474580E-1,-1.018562455E0,2.012009364E-1,-1.050401860E0,1.476920905E0
2.842924581E-1,-1.108613084E0,3.118191469E-1,-1.021433730E0,1.539344346E0
2.942364584E-1,-1.159137705E0,3.783633846E-1,-8.617171808E-1,1.493089271E0
3.041804582E-1,-1.120417736E0,4.618943685E-1,-7.559702857E-1,1.428346381E0
3.141244585E-1,-1.178888138E0,6.258701760E-1,-5.072389412E-1,1.427859259E0
3.240684583E-1,-1.230388075E0,7.689000875E-1,-1.553662209E-1,1.459178132E0
3.340124581E-1,-1.233889680E0,8.619637871E-1,1.406933641E-1,1.511707622E0
3.439564584E-1,-1.208460723E0,9.920713520E-1,3.648029606E-1,1.605510538E0
3.539004582E-1,-1.154462856E0,1.134900704E0,5.759529345E-1,1.718285738E0
3.638444585E-1,-1.188339577E0,1.225264744E0,7.311732674E-1,1.856889601E0
3.737884583E-1,-1.177929195E0,1.310137079E0,8.341345489E-1,1.949296488E0
3.837324581E-1,-1.063609697E0,1.297621114E0,9.413363774E-1,1.923850389E0
3.936764584E-1,-9.703600556E-1,1.144412954E0,1.007228504E0,1.807149387E0
4.036214584E-1,-8.037968552E-1,8.789721680E-1,1.188784697E0,1.682822187E0
4.135654583E-1,-7.646857068E-1,6.479282123E-1,1.310048786E0,1.649479621E0
4.235094581E-1,-5.712174207E-1,4.447667044E-1,1.402990279E0,1.578761694E0
4.334534584E-1,-2.856975880E-1,3.364137053E-1,1.502010537E0,1.565513637E0
4.433974582E-1,-1.688670033E-1,3.030606025E-1,1.645418033E0,1.681595164E0
4.533414585E-1,-1.017740044E-1,1.990526694E-1,1.797076388E0,1.810928894E0
4.632857083E-1,-4.070860773E-2,-4.869970500E-2,1.911833843E0,1.912887214E0
4.732297082E-1,-6.592969537E-2,-3.576572245E-1,1.884649991E0,1.919419444E0
4.831737084E-1,-1.535104609E-1,-6.789050066E-1,1.996816982E0,2.114652579E0
4.931177082E-1,-5.563625693E-2,-9.227134341E-1,2.193551377E0,2.380370374E0
5.030617081E-1,1.685316655E-1,-1.027904844E0,2.260140492E0,2.488619363E0
5.130057083E-1,4.693647712E-1,-9.351767743E-1,2.269486828E0,2.499085703E0
5.229497082E-1,6.229319501E-1,-6.640443081E-1,2.193484573E0,2.374947079E0
5.328947082E-1,6.394491649E-1,-3.201999611E-1,2.127200682E0,2.244193840E0
5.428387080E-1,5.619659561E-1,7.689088583E-3,2.063513686E0,2.138680339E0
5.527827083E-1,3.764326340E-1,2.869567859E-1,2.083293940E0,2.136389329E0
5.627267081E-1,3.217453802E-1,4.431663215E-1,2.158997841E0,2.227372478E0
5.726707084E-1,3.519690531E-1,4.494900852E-1,2.293078004E0,2.363076445E0
5.826147082E-1,4.492041564E-1,3.310751975E-1,2.459996130E0,2.522494028E0
5.925587080E-1,6.445754188E-1,-2.761289120E-2,2.572291907E0,2.651966364E0
6.025027083E-1,7.619126648E-1,-4.270397007E-1,2.550471268E0,2.695881582E0
6.124467081E-1,7.899149805E-1,-7.744122577E-1,2.530757965E0,2.761958707E0
6.223907084E-1,8.185447025E-1,-9.388172507E-1,2.490600457E0,2.784687397E0
6.323347082E-1,8.403904849E-1,-1.027475658E0,2.315169954E0,2.668702740E0
6.422787081E-1,1.031863409E0,-1.176350446E0,1.941516502E0,2.493597561E0
6.522227083E-1,1.409342694E0,-1.451254951E0,1.442432088E0,2.484551889E0
6.621677084E-1,1.935709632E0,-1.762733790E0,8.527462363E-1,2.753430286E0
6.721117082E-1,2.437503646E0,-2.129930747E0,1.914869571E-1,3.242637239E0
6.820557085E-1,2.808706530E0,-2.599654537E0,-4.512916124E-1,3.853660624E0
6.919997083E-1,2.964132539E0,-3.007580275E0,-1.083496077E0,4.359539490E0
7.019437081E-1,2.920167909E0,-3.462701814E0,-1.602083294E0,4.804618127E0
7.118877084E-1,2.865303485E0,-3.882319643E0,-2.199184585E0,5.302714655E0
7.218317082E-1,2.486612071E0,-4.101406628E0,-2.670677158E0,5.489744293E0
7.317757085E-1,1.793186089E0,-4.006405746E0,-2.957221130E0,5.292632631E0
7.417197083E-1,7.419292206E-1,-3.366229187E0,-3.243427134E0,4.733051603E0
7.516637081E-1,-5.239537919E-1,-2.474638143E0,-3.454570091E0,4.281637073E0
7.616077084E-1,-1.697293507E0,-1.618281836E0,-3.297565334E0,4.046427867E0
7.715517082E-1,-2.329842373E0,-7.156442320E-1,-3.263034017E0,4.072800406E0
7.814957080E-1,-2.686833014E0,1.831804025E-1,-3.285908325E0,4.248508000E0
7.914407081E-1,-2.440342469E0,1.059919519E0,-3.245085404E0,4.196341267E0
8.013847084E-1,-1.738762545E0,1.701238623E0,-3.106131002E0,3.945321006E0
8.113287082E-1,-1.089086015E0,1.947784717E0,-2.855145117E0,3.623786320E0
8.212727085E-1,-3.970165873E-1,1.919513429E0,-2.559054980E0,3.223494434E0
8.312167083E-1,2.657828486E-1,1.781247244E0,-2.091178325E0,2.759802358E0
8.411607081E-1,8.479871875E-1,1.526643687E0,-1.537383853E0,2.326644006E0
8.511047084E-1,1.235993800E0,1.153427022E0,-9.627370405E-1,1.945491501E0
8.610487082E-1,1.402084545E0,7.936431652E-1,-3.633915889E-1,1.651594379E0
8.709927085E-1,1.266009312E0,4.970729721E-1,1.082296228E-1,1.364395386E0
8.809367083E-1,1.050913053E0,2.731304598E-1,5.080505347E-1,1.198805171E0
8.908807081E-1,6.351982391E-1,2.019984967E-1,6.986066151E-1,9.655730931E-1
9.008247084E-1,2.133134437E-1,3.033161259E-1,6.537958932E-1,7.516331335E-1
9.107697085E-1,-2.639819062E-1,4.696144474E-1,4.444655728E-1,6.984080622E-1
9.207137083E-1,-6.871536738E-1,5.782095212E-1,2.012857211E-1,9.203381787E-1
9.306577081E-1,-9.304136324E-1,6.509389436E-1,-1.782700935E-2,1.135653485E0
9.406017084E-1,-1.037424111E0,7.528442180E-1,-1.396081392E-1,1.289384983E0
9.505457082E-1,-1.068959314E0,8.313232076E-1,-1.588922564E-1,1.363458485E0
9.604897085E-1,-1.037783715E0,8.962039125E-1,-1.024736238E-1,1.375019031E0
9.704337083E-1,-9.746144897E-1,9.516764474E-1,-1.111203035E-2,1.362235274E0
9.803777081E-1,-7.786023724E-1,9.998604280E-1,7.508409619E-2,1.269480268E0
9.903217084E-1,-6.694547367E-1,1.030328515E0,1.041716552E-1,1.233125389E0
1.000265708E0,-3.368218410E-1,1.128003328E0,7.356615901E-2,1.179513646E0
1.010209708E0,5.114968836E-2,1.253781030E0,7.825213591E-2,1.257261532E0
1.020153708E0,2.848570508E-1,1.401220912E0,-2.535703540E-2,1.430107186E0
1.030098708E0,3.910804939E-1,1.586660678E0,-3.442840576E-2,1.634509522E0
1.040042708E0,5.598118418E-1,1.864315714E0,9.688021380E-2,1.948960788E0
1.049986708E0,5.886672664E-1,2.105649599E0,2.504620107E-1,2.200686394E0
1.059930708E0,4.712996149E-1,2.265137669E0,3.571128853E-1,2.341047116E0
1.069874708E0,4.976506770E-1,2.355950775E0,5.206945539E-1,2.463591498E0
1.079818708E0,5.680973464E-1,2.366715499E0,6.660434711E-1,2.523428373E0
1.089762708E0,6.033981568E-1,2.243553257E0,7.924672902E-1,2.454714843E0
1.099706708E0,5.909564513E-1,2.068587608E0,9.901908875E-1,2.368282545E0
1.109650708E0,5.142035598E-1,1.709146398E0,1.276936004E0,2.194573368E0
1.119594708E0,5.418228829E-1,1.357651554E0,1.544955997E0,2.126894170E0
1.129538708E0,5.640130663E-1,1.031689746E0,1.869455416E0,2.208474140E0
1.139482708E0,4.394773132E-1,7.150378758E-1,2.098282692E0,2.259913655E0
1.149426708E0,2.375741261E-1,5.863523537E-1,2.261098412E0,2.347938794E0
1.159371708E0,-1.693996847E-2,5.514216721E-1,2.364985893E0,2.428479173E0
1.169315708E0,-2.794700110E-1,6.285084397E-1,2.379002838E0,2.476445204E0
1.179259708E0,-5.616811967E-1,7.587721252E-1,2.264659367E0,2.453549052E0
1.189203708E0,-8.792037177E-1,7.726902527E-1,2.176091591E0,2.470915623E0
1.199147708E0,-1.044812652E0,6.317401958E-1,2.118674272E0,2.445303627E0
1.209091708E0,-1.015655512E0,3.625875968E-1,2.050346049E0,2.316666744E0
1.219035708E0,-7.884239405E-1,6.613551736E-2,1.949690909E0,2.104110467E0
1.228979708E0,-4.928062588E-1,-2.257516408E-1,1.820154033E0,1.899153105E0
1.238923708E0,-1.967517900E-1,-4.429868120E-1,1.656862350E0,1.726308613E0
1.248867708E0,7.183889151E-3,-5.875007468E-1,1.424356005E0,1.540778623E0
1.258811708E0,2.147395796E-1,-6.225752699E-1,1.132065389E0,1.309688932E0
1.268755708E0,2.594976765E-1,-5.234474230E-1,8.915226316E-1,1.065902834E0
1.278700708E0,1.736482716E-1,-3.135481685E-1,7.332127762E-1,8.161293717E-1
1.288644708E0,-7.249377966E-3,-1.546606082E-1,8.143779767E-1,8.289655880E-1
1.298588708E0,-1.943058997E-1,-1.356577420E-1,1.155877590E0,1.179919832E0
1.308532708E0,-2.922467619E-1,-1.146913809E-1,1.511383624E0,1.543645925E0
1.318476708E0,-1.198831236E-1,-6.387381434E-2,1.739944267E0,1.745238631E0
1.328420708E0,8.309244275E-2,-8.810526073E-2,1.846819675E0,1.850786266E0
1.338364708E0,3.137025350E-1,-2.717709821E-1,1.836450223E0,1.882768750E0
1.348308708E0,7.483173037E-1,-7.425618893E-1,1.733312355E0,2.028730802E0
1.358252708E0,1.148375612E0,-1.390974836E0,1.547235242E0,2.376449965E0
1.368196708E0,1.517740132E0,-2.273532516E0,1.237074366E0,3.000472996E0
1.378140708E0,1.853498949E0,-3.334393437E0,7.213663173E-1,3.882525893E0
1.388084708E0,2.166599221E0,-4.376739149E0,-1.250599743E-2,4.883661963E0
1.398029708E0,2.573467197E0,-5.172760377E0,-8.616889679E-1,5.841463105E0
1.407973708E0,3.069330965E0,-5.661413358E0,-1.801791437E0,6.687215128E0
1.417917708E0,3.329557790E0,-5.516014155E0,-2.893471277E0,7.062899069E0
1.427861708E0,3.245963071E0,-4.292096025E0,-3.917325754E0,6.656110396E0
1.437805708E0,2.666989319E0,-2.300846030E0,-4.482712916E0,5.701003383E0
1.447749708E0,1.883616203E0,-4.066697556E-1,-4.121780666E0,4.549996280E0
1.457693708E0,1.116595995E0,1.316662572E0,-3.697459921E0,4.080636814E0
1.467640583E0,4.443696785E-1,2.565192218E0,-2.909621286E0,3.904301673E0
1.477584583E0,-1.340181828E-1,3.468650186E0,-2.053918698E0,4.033370427E0
1.487528583E0,-7.256131500E-1,4.114069943E0,-1.372148556E0,4.397144255E0
1.497472583E0,-1.288750888E0,4.525437936E0,-9.913241509E-1,4.808657914E0
1.507416583E0,-1.702989864E0,4.323770977E0,-1.039351938E0,4.761871731E0
1.517361583E0,-1.807946216E0,3.314021153E0,-1.400763659E0,4.026604593E0
1.527305583E0,-1.682951456E0,1.738934453E0,-1.888997980E0,3.069940066E0
1.537249583E0,-1.404242753E0,5.008081734E-2,-2.362747579E0,2.748996529E0
1.547193583E0,-9.783800966E-1,-1.382633198E0,-2.571989021E0,3.079615187E0
1.557137583E0,-5.809910417E-1,-2.664814739E0,-2.652187092E0,3.804324455E0
1.567081583E0,-3.185890532E-1,-3.465845277E0,-2.571563344E0,4.327414990E0
1.577025583E0,-8.971850753E-2,-3.678757017E0,-2.295840229E0,4.337301575E0
1.586969583E0,-6.558470964E-2,-3.366469508E0,-1.826947328E0,3.830816472E0
1.596913583E0,-2.569202238E-1,-2.279672093E0,-1.303455466E0,2.638542970E0
1.606857583E0,-5.178042752E-1,-1.029565453E0,-8.196685374E-1,1.414207481E0
1.616801583E0,-6.846896571E-1,5.833533168E-2,-5.500569320E-1,8.802076834E-1
1.626745583E0,-7.687913293E-1,8.528204960E-1,-4.354690834E-1,1.227996836E0
1.636689583E0,-7.336940020E-1,1.337760496E0,-4.139266984E-1,1.580900169E0
1.646634583E0,-6.691565287E-1,1.543594766E0,-4.038274240E-1,1.730182606E0
1.656578583E0,-6.574100572E-1,1.480825490E0,-4.043852484E-1,1.669898064E0
1.666522583E0,-6.436696851E-1,1.230158864E0,-3.613859940E-1,1.434643276E0
1.676466583E0,-5.808600640E-1,9.432617193E-1,-3.400132513E-1,1.158770942E0
1.686410583E0,-6.091956711E-1,5.817523491E-1,-3.639459050E-1,9.176120003E-1
1.696354583E0,-7.252260643E-1,2.472343111E-1,-4.429546523E-1,8.850347298E-1
1.706298583E0,-9.312521231E-1,2.213171124E-2,-4.962824285E-1,1.055469838E0
1.716242583E0,-1.180942850E0,-1.138201457E-1,-5.235830784E-1,1.296811582E0
1.726186583E0,-1.414843170E0,-1.192662424E-1,-4.933868508E-1,1.503142115E0
1.736130583E0,-1.656292831E0,-8.489513934E-2,-4.492146814E-1,1.718227853E0
1.746074583E0,-1.791651195E0,4.470781088E-2,-3.511872804E-1,1.826292775E0
1.756018583E0,-1.967791550E0,1.786932492E-1,-2.519635391E-1,1.991888673E0
1.765963583E0,-2.010571534E0,3.004164916E-1,-1.183347444E-1,2.036332751E0
1.775907583E0,-1.945722989E0,4.336493933E-1,2.153299291E-2,1.993578043E0
1.785851583E0,-1.967771670E0,5.480215162E-1,1.610849440E-1,2.049000070E0
1.795795583E0,-2.048303032E0,5.809419250E-1,3.082465712E-1,2.151291421E0
1.805739583E0,-1.999338448E0,5.865640229E-1,3.855817723E-1,2.118982040E0
1.815683583E0,-1.847051809E0,5.716618091E-1,4.805803156E-1,1.992324032E0
1.825627583E0,-1.736990839E0,5.544259715E-1,5.253349042E-1,1.897498905E0
1.835571583E0,-1.731438907E0,5.047240537E-1,5.759600973E-1,1.893239841E0
1.845515583E0,-1.687455567E0,4.533878392E-1,6.423236561E-1,1.861624694E0
1.855459583E0,-1.574889064E0,4.294446605E-1,7.182193458E-1,1.783406097E0
1.865403583E0,-1.522153026E0,4.211498004E-1,7.674634997E-1,1.755937702E0
1.875347583E0,-1.438738402E0,4.090039641E-1,8.229277754E-1,1.707179708E0
1.885292583E0,-1.323852308E0,3.806180710E-1,9.084538293E-1,1.650073759E0
1.895236583E0,-1.207454125E0,3.902829337E-1,9.872064686E-1,1.607744645E0
1.905180583E0,-1.093653275E0,3.698703039E-1,1.079269710E0,1.580412805E0
1.915124583E0,-9.599274534E-1,3.021484369E-1,1.147799077E0,1.526498318E0
1.925068583E0,-7.913545650E-1,2.465215355E-1,1.202231977E0,1.460265949E0
1.935012583E0,-6.323009437E-1,1.426878494E-1,1.227268585E0,1.387931009E0
1.944956583E0,-4.804727268E-1,5.505972147E-2,1.250202534E0,1.340481999E0
1.954900583E0,-3.275668681E-1,-5.106373429E-2,1.222131221E0,1.266298654E0
1.964844583E0,-2.490919715E-1,-2.111809641E-1,1.180242938E0,1.224588748E0
1.974788583E0,-1.698370564E-1,-3.450015110E-1,1.125320041E0,1.189208082E0
1.984732583E0,-1.103352052E-1,-4.683216280E-1,1.074321796E0,1.177143290E0
1.994676583E0,-1.165876329E-1,-5.833386987E-1,1.037202501E0,1.195686306E0
2.004621583E0,-6.390831292E-2,-6.488772154E-1,1.036055278E0,1.224147234E0
2.014565583E0,-1.149363792E-1,-6.371629035E-1,1.091590962E0,1.269156321E0
2.024509583E0,-2.346645516E-1,-5.140661502E-1,1.195384887E0,1.322224069E0
2.034453583E0,-4.712616080E-1,-2.970291996E-1,1.345064253E0,1.455854283E0
2.044397583E0,-7.718242800E-1,2.913199782E-2,1.506481318E0,1.692940447E0
2.054341583E0,-9.832888341E-1,2.720522332E-1,1.593221254E0,1.891883536E0
2.064285583E0,-9.949060822E-1,2.722533774E-1,1.601124351E0,1.904615237E0
2.074229583E0,-7.820808810E-1,8.306496084E-2,1.531362391E0,1.721517082E0
2.084173583E0,-4.721737736E-1,-1.647862315E-1,1.513198600E0,1.593697768E0
2.094117583E0,-1.090868247E-1,-3.453026426E-1,1.657023733E0,1.696131334E0
2.104061583E0,3.245643228E-1,-5.050678700E-1,1.878140870E0,1.971762836E0
2.114005583E0,7.480015540E-1,-7.446224481E-1,1.923977194E0,2.194460562E0
2.123949583E0,1.289691705E0,-1.056689517E0,1.637575893E0,2.336996413E0
2.133894583E0,1.981868137E0,-1.462251225E0,1.032658045E0,2.670648348E0
2.143838583E0,2.533019083E0,-1.985163043E0,3.198462045E-1,3.234093316E0
2.153782583E0,2.995733231E0,-2.485792876E0,-2.679644448E-1,3.901972419E0
2.163726583E0,3.218370060E0,-2.932942906E0,-7.178533101E-1,4.413091129E0
2.173670583E0,3.236803992E0,-3.171281263E0,-9.642941540E-1,4.632902778E0
2.183614583E0,3.014234406E0,-3.068941541E0,-1.409133949E0,4.526551637E0
2.193558583E0,2.400654493E0,-2.590559778E0,-1.718984923E0,3.927983086E0
2.203502583E0,1.426447554E0,-1.742805895E0,-1.748045000E0,2.850927276E0
2.213446583E0,3.336532348E-1,-1.092831157E0,-1.651950688E0,2.008617807E0
2.223390583E0,-1.056653849E0,-5.913230717E-1,-1.545103347E0,1.963039655E0
2.233334583E0,-2.092013308E0,-1.408752126E-1,-1.643417262E0,2.664054392E0
2.243278583E0,-2.543244109E0,2.214130068E-1,-1.972794428E0,3.226303174E0
2.253223583E0,-2.666623868E0,5.650035846E-1,-2.398989206E0,3.631151486E0
2.263167583E0,-2.531702875E0,8.983504254E-1,-2.726701085E0,3.827721482E0
2.273111583E0,-2.050316228E0,1.105352384E0,-2.815192847E0,3.653889885E0
2.283055583E0,-1.406319684E0,1.072623764E0,-2.704847116E0,3.231788161E0
2.292999583E0,-4.223788851E-1,1.010285429E0,-2.601498165E0,2.822565016E0
2.302943583E0,6.836903679E-1,8.371259844E-1,-2.457371900E0,2.684564972E0
2.312887583E0,1.614634928E0,5.122546828E-1,-2.197171973E0,2.774349561E0
2.322831583E0,2.229966082E0,1.824799061E-1,-1.824262871E0,2.886863811E0
2.332775583E0,2.581675519E0,-4.737531066E-2,-1.407341192E0,2.940731565E0
2.342719583E0,2.508599941E0,-6.569580674E-2,-1.002616221E0,2.702337671E0
2.352663583E0,2.212319770E0,5.030242682E-2,-6.971319473E-1,2.320103888E0
2.362607583E0,1.808518658E0,1.662047660E-1,-4.897721386E-1,1.881021135E0
2.372552583E0,1.310864473E0,1.573544204E-1,-4.495351088E-1,1.394707100E0
2.382496583E0,7.123119038E-1,2.594175696E-2,-4.867368490E-1,8.631187538E-1
2.392440583E0,2.179292357E-1,-1.360822499E-1,-5.747047001E-1,6.295212648E-1
2.402384583E0,-1.680320209E-1,-2.246541184E-1,-6.028081727E-1,6.648924169E-1
2.412328583E0,-4.209118187E-1,-2.378588855E-1,-5.491476899E-1,7.316466319E-1
2.422272583E0,-6.608447117E-1,-2.537861162E-1,-4.142916012E-1,8.202198830E-1
2.432216583E0,-8.361541772E-1,-2.100881195E-1,-2.282916713E-1,8.918564420E-1
2.442160583E0,-7.916901952E-1,-5.242087305E-2,-1.171080351E-1,8.020197036E-1
2.452104583E0,-6.710650599E-1,1.461236733E-1,-5.971059680E-2,6.893807351E-1
2.462048583E0,-4.019177234E-1,3.989064074E-1,-6.097827315E-2,5.695458963E-1
2.471990083E0,-1.389532328E-1,6.415898305E-1,-7.588867764E-2,6.608362906E-1
2.481934083E0,2.159376740E-1,8.665123361E-1,-4.265193899E-2,8.940312610E-1
2.491879083E0,5.672875071E-1,1.062251388E0,-2.776257992E-2,1.204559624E0
2.501823083E0,8.543512970E-1,1.256902859E0,-7.937010527E-3,1.519797332E0
2.511767083E0,1.013491457E0,1.380603629E0,6.781249881E-2,1.714009875E0
2.521711083E0,1.166483270E0,1.537149380E0,1.269114769E-1,1.933809183E0
2.531655083E0,1.263884434E0,1.735229073E0,1.597634733E-1,2.152660717E0
2.541599083E0,1.210212842E0,1.867152198E0,2.051951877E-1,2.234497151E0
2.551543083E0,1.119417862E0,2.005547022E0,2.374413943E-1,2.309046041E0
2.561487083E0,9.855873746E-1,2.050764125E0,2.052980987E-1,2.284548813E0
2.571431083E0,9.041613883E-1,2.056295591E0,2.003431682E-1,2.255215457E0
2.581375083E0,7.884543461E-1,1.949559347E0,2.459807046E-1,2.117297431E0
2.591319083E0,5.577530372E-1,1.747313513E0,3.294648743E-1,1.863528928E0
2.601263083E0,3.664432508E-1,1.601320233E0,4.828186663E-1,1.712197713E0
2.611207083E0,2.127415860E-1,1.450363251E0,6.324266589E-1,1.596488654E0
2.621152083E0,6.283417940E-2,1.342283317E0,7.625810015E-1,1.545057417E0
2.631096083E0,-4.624562860E-2,1.249569865E0,8.214414132E-1,1.496104776E0
2.641040083E0,-1.171682614E-1,1.177731559E0,8.428001225E-1,1.452959763E0
2.650984083E0,-1.780506402E-1,1.117549676E0,8.726150751E-1,1.429012379E0
2.660928083E0,-1.988585418E-1,1.055252856E0,9.342716253E-1,1.423364598E0
2.670872083E0,-1.720917428E-1,1.035075869E0,1.018603678E0,1.462378568E0
2.680816083E0,-1.993847913E-1,9.973326766E-1,1.114143746E0,1.508556612E0
2.690760083E0,-1.647979259E-1,1.026799720E0,1.199538823E0,1.587567135E0
2.700704083E0,-8.384673357E-2,1.052131028E0,1.288431630E0,1.665552773E0
2.710648083E0,-3.022250354E-2,1.059855199E0,1.321588851E0,1.694344574E0
2.720592083E0,6.064498186E-2,1.044310377E0,1.375646214E0,1.728196888E0
2.730537083E0,1.556370932E-1,9.772819895E-1,1.385435768E0,1.702567256E0
2.740481083E0,2.835303175E-1,8.304683447E-1,1.375117772E0,1.631262088E0
2.750425083E0,4.022744036E-1,6.843627977E-1,1.344564900E0,1.561419837E0
2.760369083E0,4.751599467E-1,5.209313661E-1,1.342242386E0,1.516166576E0
2.770313083E0,5.203951764E-1,3.579174256E-1,1.352545180E0,1.492747295E0
2.780257083E0,4.784069055E-1,1.939696848E-1,1.360194508E0,1.454863054E0
2.790201083E0,3.431087673E-1,1.282434726E-1,1.414144428E0,1.460812951E0
2.800145083E0,2.226233804E-1,1.662608993E-1,1.441502380E0,1.468037114E0
2.810089083E0,-1.520802319E-2,2.445574558E-1,1.457476974E0,1.477930567E0
2.820033083E0,-2.082497549E-1,3.123834032E-1,1.482111293E0,1.528922901E0
2.829977083E0,-2.970490801E-1,1.324312484E-1,1.495275714E0,1.530237123E0
2.839921083E0,-3.491518646E-1,-2.106734258E-1,1.514377398E0,1.568320510E0
2.849865083E0,-1.814940655E-1,-6.102943629E-1,1.578323718E0,1.701912179E0
2.859810083E0,7.336326063E-2,-9.743361622E-1,1.615910790E0,1.888353994E0
2.869754083E0,3.210606712E-1,-1.414311658E0,1.638582784E0,2.188220958E0
2.879698083E0,5.477940595E-1,-1.885619459E0,1.526872898E0,2.487364051E0
2.889642083E0,8.006498837E-1,-2.415914556E0,1.221633039E0,2.823131357E0
2.899586083E0,1.063341894E0,-2.998643975E0,6.960198069E-1,3.256839764E0
2.909530083E0,1.308431447E0,-3.563868585E0,3.266367953E-2,3.796606255E0
2.919474083E0,1.492694169E0,-4.045728271E0,-6.535947490E-1,4.361563850E0
2.929418083E0,1.574570975E0,-4.142341231E0,-1.211258909E0,4.594062774E0
2.939362083E0,1.481271048E0,-3.795588478E0,-1.671793799E0,4.404037957E0
2.949306083E0,1.163951426E0,-2.987498013E0,-1.965114695E0,3.760532284E0
2.959250083E0,7.747841406E-1,-1.991152931E0,-2.049513406E0,2.960656288E0
2.969194083E0,5.276872391E-1,-9.801219821E-1,-1.951039277E0,2.246251808E0
2.979139083E0,4.073842853E-1,9.337301731E-2,-1.696658499E0,1.747378190E0
2.989083083E0,4.611412472E-1,1.075625140E0,-1.308261877E0,1.755326132E0
2.999027083E0,5.522350198E-1,1.835397139E0,-9.432997262E-1,2.136225772E0
3.008971083E0,5.007578874E-1,2.399416637E0,-7.241495919E-1,2.555846492E0
3.018915083E0,2.887752700E-1,2.714565189E0,-6.638998818E-1,2.809451615E0
3.028859083E0,1.357238156E-1,2.811471094E0,-7.456837177E-1,2.911843896E0
3.038803083E0,4.649881303E-2,2.635595618E0,-9.292699170E-1,2.795007867E0
3.048747083E0,-1.101206124E-1,2.105413957E0,-1.196005862E0,2.423906867E0
3.058691083E0,-4.687829733E-1,1.265342730E0,-1.475218595E0,1.999279771E0
3.068635083E0,-6.997988623E-1,3.437578082E-1,-1.723556861E0,1.891701914E0
3.078579083E0,-7.340430808E-1,-5.628430384E-1,-1.942062632E0,2.151097115E0
3.088523083E0,-7.673125684E-1,-1.332789193E0,-2.092930151E0,2.597200845E0
3.098468083E0,-7.555976719E-1,-1.790507480E0,-2.175046109E0,2.916791123E0
3.108412083E0,-7.571226257E-1,-1.916806753E0,-2.119948965E0,2.956614012E0
3.118356083E0,-7.409948355E-1,-1.560438840E0,-2.001490223E0,2.643861916E0
3.128300083E0,-7.501585919E-1,-8.279873711E-1,-1.788165085E0,2.108514968E0
3.138244083E0,-6.698991251E-1,-1.499465829E-1,-1.504799659E0,1.653986345E0
3.148188083E0,-3.903478378E-1,3.806116390E-1,-1.237502382E0,1.352275415E0
3.158132083E0,-7.080802739E-2,6.204843056E-1,-1.007599218E0,1.185441156E0
3.168076083E0,1.828500348E-1,6.064726228E-1,-8.037676191E-1,1.023369710E0
3.178020083E0,3.160355741E-1,4.892499822E-1,-6.748588065E-1,8.914473837E-1
3.187964083E0,3.326071680E-1,3.468837297E-1,-6.024221834E-1,7.706285338E-1
3.197908083E0,2.441721243E-1,2.100524515E-1,-5.349313545E-1,6.244146160E-1
3.207852083E0,6.851650357E-2,9.014418483E-2,-5.171323570E-1,5.293829993E-1
3.217797083E0,-2.357269907E-1,3.176675320E-2,-4.955316460E-1,5.496616714E-1
3.227741083E0,-5.550007528E-1,3.135569394E-2,-4.854055110E-1,7.379888382E-1
3.237685083E0,-8.458348274E-1,6.260730743E-2,-4.926349354E-1,9.808391355E-1
3.247629083E0,-1.100463527E0,1.352741647E-1,-4.994316658E-1,1.216039088E0
3.257573083E0,-1.314744685E0,1.928557903E-1,-4.508226657E-1,1.403206335E0
3.267517083E0,-1.447401052E0,2.575365204E-1,-4.180431747E-1,1.528415833E0
3.277461083E0,-1.509946378E0,3.341274440E-1,-3.467843270E-1,1.584878098E0
3.287405083E0,-1.512453080E0,3.539506745E-1,-2.736016723E-1,1.577229620E0
3.297349083E0,-1.492973666E0,3.214734846E-1,-1.403016007E-1,1.533623196E0
3.307293083E0,-1.438723199E0,3.175453252E-1,-7.047524773E-2,1.475034317E0
3.317237083E0,-1.453725400E0,2.831315374E-1,1.043143272E-3,1.481040882E0
3.327181083E0,-1.470889317E0,2.029533470E-1,2.705747880E-2,1.485071564E0
3.337126083E0,-1.391610428E0,1.677291352E-1,8.297272101E-3,1.401706635E0
3.347070083E0,-1.389547530E0,1.443928975E-1,1.307093896E-2,1.397090726E0
3.357014083E0,-1.450987734E0,1.197895682E-1,5.425989546E-2,1.456934824E0
3.366958083E0,-1.434193361E0,1.385877818E-1,8.982850827E-2,1.443671130E0
3.376902083E0,-1.385733976E0,1.310179764E-1,1.684981171E-1,1.402075597E0
3.386846083E0,-1.323775710E0,1.365471035E-1,1.941508754E-1,1.344887283E0
3.396790083E0,-1.328759876E0,1.461131483E-1,2.576517105E-1,1.361372934E0
3.406734083E0,-1.272519602E0,1.207795018E-1,3.067660562E-1,1.314533849E0
3.416678083E0,-1.113720335E0,1.158748573E-1,2.984617674E-1,1.158826731E0
3.426622083E0,-9.760043728E-1,9.281811655E-2,2.711856759E-1,1.017222399E0
3.436566083E0,-9.244933265E-1,2.724100828E-2,3.018963488E-1,9.729190042E-1
3.446510083E0,-8.751486737E-1,-3.726489007E-2,3.109876728E-1,9.295091208E-1
3.456455083E0,-9.068774199E-1,-9.401738048E-2,3.920675770E-1,9.924630510E-1
3.466398625E0,-9.172433639E-1,-1.027402568E-1,4.488218216E-1,1.026319627E0
3.476342625E0,-9.560472411E-1,-1.195673740E-1,5.204127181E-1,1.095058026E0
3.486286625E0,-1.037807688E0,-1.431509489E-1,5.376842967E-1,1.177557385E0
3.496230625E0,-1.097651601E0,-2.076872528E-1,5.627197353E-1,1.250850324E0
3.506174625E0,-1.044446617E0,-2.598391539E-1,6.317730132E-1,1.248007316E0
3.516118625E0,-1.007232597E0,-2.864246893E-1,6.921583787E-1,1.255244928E0
3.526062625E0,-9.744373190E-1,-3.027659029E-1,8.291352526E-1,1.314785362E0
3.536006625E0,-8.915448511E-1,-2.780631709E-1,9.628645829E-1,1.341372265E0
3.545950625E0,-7.799349529E-1,-2.434236807E-1,1.122065554E0,1.388014671E0
3.555894625E0,-7.250980103E-1,-2.509964097E-1,1.280832589E0,1.493083535E0
3.565838625E0,-6.813807178E-1,-2.215977788E-1,1.386157461E0,1.560390260E0
3.575783625E0,-6.434270257E-1,-2.396504724E-1,1.450457976E0,1.604761361E0
3.585727625E0,-5.759513265E-1,-2.857060665E-1,1.473311234E0,1.607480599E0
3.595671625E0,-5.396056187E-1,-3.454008758E-1,1.473912327E0,1.607138307E0
3.605615625E0,-5.301173419E-1,-3.826429617E-1,1.488832083E0,1.626056888E0
3.615559625E0,-5.962166065E-1,-3.927966517E-1,1.489773484E0,1.652025571E0
3.625503625E0,-6.639565998E-1,-3.796012402E-1,1.481450558E0,1.667222607E0
3.635447625E0,-6.748996639E-1,-3.837346369E-1,1.445201329E0,1.640533056E0
3.645391625E0,-6.134126830E-1,-5.877504230E-1,1.380190816E0,1.620695026E0
3.655335625E0,-2.834361774E-1,-8.527152461E-1,1.207883969E0,1.505471036E0
3.665279625E0,1.042102468E-1,-1.045418424E0,1.103410451E0,1.523572801E0
3.675223625E0,5.107104331E-1,-1.101074561E0,1.174826004E0,1.689202912E0
3.685167625E0,8.396853107E-1,-1.087140062E0,1.315763855E0,1.902151271E0
3.695112625E0,1.101230097E0,-1.038304117E0,1.379597908E0,2.047943738E0
3.705056625E0,1.388827153E0,-1.042188422E0,1.305069444E0,2.172142680E0
3.715000625E0,1.721638974E0,-1.090600444E0,1.050918827E0,2.293006861E0
3.724944625E0,2.014838247E0,-1.189193271E0,6.795517087E-1,2.436297257E0
3.734888625E0,2.243632194E0,-1.332239555E0,2.190694427E-1,2.618537583E0
3.744832625E0,2.402415674E0,-1.456705141E0,-3.374602839E-1,2.829747406E0
3.754776625E0,2.427764524E0,-1.540485801E0,-8.910794858E-1,3.010176031E0
3.764720625E0,2.270749826E0,-1.560560462E0,-1.383522559E0,3.083145861E0
3.774664625E0,2.060499154E0,-1.476374005E0,-1.924519669E0,3.182626734E0
3.784608625E0,1.678280700E0,-1.377031565E0,-2.347066516E0,3.197117963E0
3.794552625E0,9.644777566E-1,-1.093256249E0,-2.594415432E0,2.975973455E0
3.804496625E0,1.162859166E-1,-6.812620193E-1,-2.531436242E0,2.624082659E0
3.814441625E0,-7.560479075E-1,-2.527447271E-1,-2.276814559E0,2.412337636E0
3.824385625E0,-1.475649535E0,2.492428297E-1,-1.981750023E0,2.483343853E0
3.834329625E0,-1.859671855E0,7.246208775E-1,-1.727085071E0,2.639370695E0
3.844273625E0,-1.989946650E0,1.200626916E0,-1.613583598E0,2.829318768E0
3.854217625E0,-1.822775924E0,1.591250743E0,-1.605478188E0,2.903816662E0
3.864161625E0,-1.308107511E0,1.809878721E0,-1.730609772E0,2.825210864E0
3.874105625E0,-6.228986210E-1,1.787939968E0,-1.775722210E0,2.595750641E0
3.884049625E0,5.576080263E-2,1.565493173E0,-1.702120968E0,2.313243163E0
3.893993625E0,7.045462167E-1,1.277089786E0,-1.556023607E0,2.132733729E0
3.903937625E0,1.156945292E0,1.057927372E0,-1.388539470E0,2.094224103E0
3.913881625E0,1.451083043E0,9.241079950E-1,-1.160362405E0,2.075104454E0
3.923825625E0,1.543770182E0,8.787938279E-1,-9.387634563E-1,2.009174406E0
3.933770625E0,1.384047639E0,9.705319637E-1,-7.279526210E-1,1.840498622E0
3.943714625E0,1.067084112E0,1.084384854E0,-5.786521554E-1,1.627696941E0
3.953658625E0,7.953031898E-1,1.053586400E0,-5.429374353E-1,1.427351577E0
3.963602625E0,5.743602991E-1,8.870460033E-1,-5.684183586E-1,1.199933246E0
3.973546625E0,3.906460458E-1,6.936844289E-1,-6.470751766E-1,1.025918469E0
3.983490625E0,1.701282477E-1,4.765884215E-1,-7.276135556E-1,8.862852985E-1
3.993434625E0,-1.990918458E-2,3.503710091E-1,-7.361702248E-1,8.155383618E-1
4.003378625E0,-1.399718177E-1,3.309272629E-1,-7.006426156E-1,7.874039864E-1
4.013322625E0,-2.379986340E-1,3.428725398E-1,-5.518450836E-1,6.919088991E-1
4.023266625E0,-2.767475474E-1,4.432201159E-1,-4.086887991E-1,6.633700405E-1
4.033210625E0,-2.010173339E-1,5.686955166E-1,-2.730754229E-1,6.621123361E-1
4.043154625E0,-1.128337204E-1,7.292337459E-1,-1.174623764E-1,7.472019235E-1
4.053099625E0,4.164854765E-2,8.781594050E-1,-2.714745283E-2,8.795655327E-1
4.063043625E0,2.232081020E-1,9.496807927E-1,1.007240637E-1,9.807450239E-1
4.072987625E0,4.187992197E-1,1.057837910E0,2.125486279E-1,1.157406908E0
4.082931625E0,5.736030847E-1,1.094590584E0,2.483031821E-1,1.260477495E0
4.092875625E0,7.016044825E-1,1.107764946E0,2.669148695E-1,1.338146319E0
4.102819625E0,7.324584854E-1,1.057045028E0,3.464335672E-1,1.331861795E0
4.112763625E0,8.669847912E-1,1.013296160E0,3.613240866E-1,1.381660896E0
4.122707625E0,9.105804616E-1,9.797500992E-1,3.839199205E-1,1.391568015E0
4.132651625E0,8.786306906E-1,9.991575927E-1,3.895672345E-1,1.386387542E0
4.142595625E0,8.307531041E-1,1.054170536E0,3.911669596E-1,1.398012099E0
4.152539625E0,6.931505781E-1,1.071096472E0,3.909063200E-1,1.334358695E0
4.162483625E0,6.944147462E-1,1.058757677E0,4.100839448E-1,1.330920171E0
4.172428625E0,6.474002087E-1,9.717785901E-1,4.457390964E-1,1.249865593E0
4.182372625E0,6.369424635E-1,9.083596891E-1,5.056730568E-1,1.219228554E0
4.192316625E0,6.716796023E-1,8.647090548E-1,5.532738508E-1,1.226779194E0
4.202260625E0,6.707516491E-1,8.210496497E-1,5.601093920E-1,1.199063315E0
4.212204625E0,6.238277435E-1,8.090809840E-1,5.863155162E-1,1.177938444E0
4.222148625E0,5.402283472E-1,7.928268939E-1,6.506606162E-1,1.159215419E0
4.232092625E0,4.418887049E-1,8.333293873E-1,7.248653642E-1,1.189593751E0
4.242036625E0,2.588369411E-1,8.830704814E-1,8.367821681E-1,1.243790350E0
4.251980625E0,1.373323846E-1,9.516518891E-1,9.529535524E-1,1.353743689E0
4.261924625E0,6.008423388E-2,1.021130260E0,1.073679845E0,1.482938141E0
4.271868625E0,-1.322406292E-2,1.045583900E0,1.138315990E0,1.545698502E0
4.281812625E0,-1.562960744E-3,1.019079641E0,1.187953003E0,1.565170309E0
4.291757625E0,5.135083258E-2,9.596596509E-1,1.251243339E0,1.577717797E0
4.301701625E0,8.308776498E-2,9.042906117E-1,1.280098178E0,1.569489227E0
4.311645625E0,8.897474170E-2,8.687781322E-1,1.314235393E0,1.577943793E0
4.321589625E0,9.443545640E-2,8.509435397E-1,1.329205434E0,1.581078761E0
4.331533625E0,5.795994043E-2,8.389965087E-1,1.361107843E0,1.599965330E0
4.341477625E0,-1.205695868E-3,8.472831827E-1,1.378228490E0,1.617839305E0
4.351421625E0,-6.272834480E-2,8.713532460E-1,1.382314525E0,1.635232329E0
4.361365625E0,-5.840900660E-2,8.593161678E-1,1.370759257E0,1.618893705E0
4.371309625E0,-5.194374025E-2,8.323002774E-1,1.351696165E0,1.588239411E0
4.381253625E0,-6.328383029E-2,7.993857157E-1,1.332536008E0,1.555208854E0
4.391197625E0,-8.578567028E-2,7.169604403E-1,1.368815643E0,1.547594171E0
4.401141625E0,-1.221015573E-2,6.755013424E-1,1.432137480E0,1.583498946E0
4.411086625E0,9.398112774E-2,6.494788939E-1,1.525068448E0,1.660267766E0
4.421030625E0,6.769204617E-2,6.133629817E-1,1.639639961E0,1.751917681E0
4.430974625E0,7.999049485E-2,6.031514043E-1,1.730263617E0,1.834121664E0
4.440918625E0,8.006066144E-2,5.898729622E-1,1.813869445E0,1.909052693E0
4.450862625E0,7.873860598E-2,5.429765385E-1,1.902234907E0,1.979778001E0
4.460806625E0,9.611126840E-2,4.944680375E-1,2.009205040E0,2.071386229E0
4.470750958E0,1.216641855E-1,4.502513927E-1,2.121338264E0,2.172004724E0
4.480694958E0,1.843475068E-1,4.497497016E-1,2.208929554E0,2.261775535E0
4.490638958E0,3.039493793E-1,3.605901879E-1,2.222262375E0,2.271752754E0
4.500582958E0,4.527119011E-1,4.995334804E-2,2.210172672E0,2.256613978E0
4.510526958E0,6.659376365E-1,-5.553287816E-1,2.265201988E0,2.425490268E0
4.520470958E0,7.575488877E-1,-1.133583326E0,2.389834367E0,2.751399603E0
4.530415958E0,9.222409791E-1,-1.603275542E0,2.453014555E0,3.072181846E0
4.540359958E0,1.176173276E0,-2.069726645E0,2.348227773E0,3.343848925E0
4.550303958E0,1.452247809E0,-2.647826239E0,2.095611684E0,3.675812267E0
4.560247958E0,1.797076827E0,-3.386624860E0,1.569858119E0,4.142845348E0
4.570191958E0,2.106070599E0,-4.245346366E0,7.120166194E-1,4.792229836E0
4.580135958E0,2.238635749E0,-4.959627028E0,-3.079494596E-1,5.450158084E0
4.590079958E0,2.280080228E0,-5.355565388E0,-1.279939134E0,5.959789481E0
4.600023958E0,2.155466707E0,-5.338507891E0,-2.260194433E0,6.184996532E0
4.609967958E0,1.770152153E0,-4.625986072E0,-3.253318284E0,5.925982251E0
4.619911958E0,1.120796635E0,-3.277700588E0,-3.839485281E0,5.171184919E0
4.629855958E0,4.056008846E-1,-1.728284919E0,-3.860834634E0,4.249414655E0
4.639799958E0,6.377090335E-2,-1.623204607E-1,-3.491271894E0,3.495624994E0
4.649744958E0,1.114830136E-2,1.213815311E0,-2.909919494E0,3.152951531E0
4.659688958E0,-1.423878872E-1,2.149192645E0,-2.374609240E0,3.205943290E0
4.669632958E0,-3.191196880E-1,2.668587363E0,-1.847513155E0,3.261364859E0
4.679576958E0,-4.299460593E-1,2.924827555E0,-1.674090586E0,3.397359141E0
4.689520958E0,-4.945297256E-1,2.717787005E0,-1.820566846E0,3.308381703E0
4.699464958E0,-3.625264934E-1,1.904971989E0,-2.078184497E0,2.842392397E0
4.709408958E0,-1.533289048E-1,8.138873953E-1,-2.372059854E0,2.512486895E0
4.719352958E0,-2.780991313E-1,-2.587416315E-1,-2.575095062E0,2.602960034E0
4.729296958E0,-4.941098955E-1,-9.995639741E-1,-2.617709570E0,2.845290164E0
4.739240958E0,-6.872004515E-1,-1.364371174E0,-2.365147276E0,2.815612686E0
4.749184958E0,-8.742537573E-1,-1.336610348E0,-1.925187567E0,2.501438391E0
4.759128958E0,-1.126424873E0,-9.954066038E-1,-1.501931015E0,2.124962135E0
4.769073958E0,-1.393917447E0,-4.402590859E-1,-1.074562628E0,1.814254324E0
4.779017958E0,-1.537128330E0,1.563750118E-1,-7.867078558E-1,1.733818300E0
4.788961958E0,-1.447601611E0,6.106346709E-1,-5.506638730E-1,1.664829068E0
4.798905958E0,-1.201705728E0,8.659849173E-1,-3.944016393E-1,1.532833711E0
4.808849958E0,-9.100647372E-1,9.781584871E-1,-3.254992195E-1,1.375122392E0
4.818793958E0,-6.537958932E-1,9.755962372E-1,-3.159834608E-1,1.216175413E0
4.828737958E0,-5.446102506E-1,9.561320257E-1,-3.722746059E-1,1.161626944E0
4.838681958E0,-4.784244472E-1,9.379957169E-1,-4.586509180E-1,1.148514946E0
4.848625958E0,-5.426186889E-1,9.504263127E-1,-5.209248611E-1,1.212067625E0
4.858569958E0,-7.103630269E-1,9.599099118E-1,-5.721769488E-1,1.324171110E0
4.868513958E0,-9.743630594E-1,9.567763889E-1,-5.913417097E-1,1.488116073E0
4.878457958E0,-1.165388671E0,9.097092265E-1,-6.636601460E-1,1.620538929E0
4.888402958E0,-1.174271176E0,7.546457452E-1,-7.182368875E-1,1.569798466E0
4.898346958E0,-1.114788621E0,4.831221002E-1,-7.633691331E-1,1.434884339E0
4.908290958E0,-1.024118772E0,1.959752798E-1,-7.708511572E-1,1.296702385E0
4.918234958E0,-8.985240877E-1,-9.336600065E-2,-7.696421722E-1,1.186765276E0
4.928178958E0,-7.978069675E-1,-2.937594366E-1,-7.014436841E-1,1.102185922E0
4.938122958E0,-8.541600931E-1,-3.780534822E-1,-5.797970402E-1,1.099399158E0
4.948066958E0,-9.345821124E-1,-3.520345420E-1,-5.048941346E-1,1.119057698E0
4.958010958E0,-1.109860588E0,-2.565033174E-1,-3.810338080E-1,1.201154128E0
4.967954958E0,-1.280244359E0,-1.076162499E-1,-3.090778991E-1,1.321414402E0
4.977898958E0,-1.392106857E0,5.353418291E-2,-1.506709798E-1,1.401259845E0
4.987842958E0,-1.516633839E0,2.004998553E-1,-4.058698565E-4,1.529829585E0
4.997786958E0,-1.504197396E0,3.097375381E-1,1.406475366E-1,1.542183153E0
5.007731958E0,-1.455467870E0,3.898631036E-1,3.173050046E-1,1.539825453E0
5.017675958E0,-1.304375233E0,4.161586171E-1,4.139150405E-1,1.430352545E0
5.027619958E0,-1.144652690E0,3.926569033E-1,5.542960902E-1,1.331034703E0
5.037563958E0,-1.004074516E0,3.886655939E-1,6.361478269E-1,1.250564127E0
5.047507958E0,-8.092318422E-1,3.457721740E-1,7.344603527E-1,1.146231469E0
5.057451958E0,-7.305487847E-1,3.076775640E-1,8.562452102E-1,1.166843122E0
5.067395958E0,-6.536731017E-1,2.786011147E-1,9.648839919E-1,1.198293880E0
5.077339958E0,-6.267952055E-1,3.029693860E-1,1.089912665E0,1.293279667E0
5.087283958E0,-7.458766758E-1,3.074547851E-1,1.162479097E0,1.414997566E0
5.097227958E0,-8.012310970E-1,3.273271322E-1,1.158754566E0,1.446314789E0
5.107171958E0,-8.662837100E-1,3.929638821E-1,1.132707413E0,1.479153191E0
5.117115958E0,-1.013331243E0,4.271449506E-1,1.095659528E0,1.552341077E0
5.127059958E0,-1.106246424E0,4.376301777E-1,1.050610021E0,1.587161850E0
5.137004958E0,-1.105958156E0,4.017551708E-1,9.875760126E-1,1.536182620E0
5.146948958E0,-1.095633727E0,2.836817604E-1,9.811288726E-1,1.497832591E0
5.156892958E0,-1.040823682E0,1.476457036E-1,1.000059672E0,1.450941949E0
5.166836958E0,-8.636360908E-1,-5.438729167E-2,1.068000809E0,1.374573026E0
5.176780958E0,-6.788108665E-1,-2.094940424E-1,1.135360880E0,1.339296933E0
5.186724958E0,-4.534018725E-1,-3.650902051E-1,1.187592815E0,1.322588677E0
5.196668958E0,-2.387441540E-1,-5.182375538E-1,1.231607219E0,1.357359671E0
5.206612958E0,-3.753152311E-2,-6.274126714E-1,1.290169423E0,1.435128013E0
5.216556958E0,1.526439035E-1,-6.495513994E-1,1.337411417E0,1.494619175E0
5.226500958E0,2.989260364E-1,-5.869242114E-1,1.388818967E0,1.537093013E0
5.236444958E0,3.250800472E-1,-4.572961181E-1,1.458483864E0,1.562681016E0
5.246389958E0,2.703846073E-1,-3.078412861E-1,1.545166643E0,1.598566248E0
5.256333958E0,1.401337856E-1,-1.824869227E-1,1.599866030E0,1.616326164E0
5.266277958E0,-2.608325958E-2,-2.407766461E-2,1.689495660E0,1.689868532E0
5.276221958E0,-2.208955282E-1,1.104661828E-1,1.736322502E0,1.753799716E0
5.286165958E0,-3.990332919E-1,2.078638387E-1,1.762123926E0,1.818657657E0
5.296109958E0,-4.265181291E-1,9.080550492E-2,1.758677577E0,1.811935477E0
5.306053958E0,-1.247146779E-1,-2.375799733E-1,1.720181848E0,1.740983511E0
5.315997958E0,2.585001415E-1,-4.938184118E-1,1.708167135E0,1.796806586E0
5.325941958E0,5.882287252E-1,-6.960490429E-1,1.838444123E0,2.051919613E0
5.335885958E0,9.575043672E-1,-9.786110616E-1,1.945344089E0,2.378835398E0
5.345829958E0,1.404987103E0,-1.362048075E0,1.844625800E0,2.689202123E0
5.355773958E0,1.863145101E0,-1.796295639E0,1.527533634E0,3.005219907E0
5.365718958E0,2.323271272E0,-2.237182131E0,1.014290771E0,3.381029290E0
5.375662958E0,2.681204485E0,-2.660222336E0,4.362619293E-1,3.802100056E0
5.385606958E0,2.814100587E0,-2.978087504E0,-1.155082369E-1,4.098964436E0
5.395550958E0,2.828947252E0,-2.964319065E0,-7.821539712E-1,4.171557852E0
5.405494958E0,2.725771378E0,-2.549301240E0,-1.580550338E0,4.053011940E0
5.415438958E0,2.125959318E0,-1.706283016E0,-2.217961164E0,3.514321624E0
5.425382958E0,1.140153843E0,-7.007829487E-1,-2.492421280E0,2.828994762E0
5.435326958E0,1.216320258E-1,1.216343647E-1,-2.441494371E0,2.447546533E0
5.445270958E0,-6.378674930E-1,7.406059957E-1,-2.438102986E0,2.626731495E0
5.455214958E0,-1.131504641E0,1.116507702E0,-2.536049695E0,2.993065362E0
5.465158958E0,-1.437764255E0,1.314879171E0,-2.729702461E0,3.353706727E0
5.475102500E0,-1.449496109E0,1.309302682E0,-2.837298245E0,3.444644222E0
5.485046500E0,-1.068845878E0,1.053656566E0,-2.803683772E0,3.180136218E0
5.494991500E0,-3.147164422E-1,7.953563994E-1,-2.727861757E0,2.858822836E0
5.504935500E0,4.589345080E-1,6.622971600E-1,-2.544093125E0,2.668645394E0
5.514879500E0,9.676832002E-1,6.861339194E-1,-2.183482472E0,2.484911716E0
5.524823500E0,1.210130981E0,8.548465562E-1,-1.733329897E0,2.280265808E0
5.534767500E0,1.351997296E0,1.025975263E0,-1.366914128E0,2.179214575E0
5.544711500E0,1.254692611E0,1.127622675E0,-1.074796590E0,2.000243524E0
5.554655500E0,1.034570085E0,1.067895706E0,-9.179730233E-1,1.747401205E0
5.564599500E0,8.515569127E-1,8.989901108E-1,-8.514130712E-1,1.502743029E0
5.574543500E0,7.467882568E-1,6.080829459E-1,-8.200942147E-1,1.264915843E0
5.584487500E0,6.516944039E-1,2.789958018E-1,-7.968690741E-1,1.066557347E0
5.594431500E0,5.581956714E-1,-8.412506104E-2,-8.171530652E-1,9.931759992E-1
5.604375500E0,4.613412219E-1,-3.044855690E-1,-8.552172697E-1,1.018304357E0
5.614320500E0,3.145579827E-1,-3.386789167E-1,-8.562007713E-1,9.730004594E-1
5.624264500E0,1.044774646E-1,-1.740330184E-1,-8.416528988E-1,8.657844039E-1
5.634208500E0,-1.122788197E-1,1.533742207E-1,-8.242317045E-1,8.458652893E-1
5.644152500E0,-2.580130684E-1,5.370421994E-1,-7.848342618E-1,9.853678936E-1
5.654096500E0,-2.847576481E-1,8.799661946E-1,-6.981996489E-1,1.158840011E0
5.664040500E0,-1.792276847E-1,1.090310422E0,-6.208211052E-1,1.267406101E0
5.673984500E0,2.965707779E-3,1.150035637E0,-5.735954833E-1,1.285146894E0
5.683928500E0,3.012462115E-1,1.095268276E0,-5.379800928E-1,1.256894768E0
5.693872500E0,5.576688373E-1,1.033262647E0,-5.176715068E-1,1.283203031E0
5.703816500E0,7.228088254E-1,9.741133833E-1,-5.038160177E-1,1.313461100E0
5.713760500E0,7.968421769E-1,9.658992147E-1,-4.884038901E-1,1.344045054E0
5.723704500E0,8.406518555E-1,9.698764908E-1,-4.930875099E-1,1.374951360E0
5.733649500E0,7.890671343E-1,1.003450618E0,-4.448409641E-1,1.351822314E0
5.743593500E0,6.875208789E-1,1.098412909E0,-3.967183793E-1,1.355205280E0
5.753537500E0,5.712384707E-1,1.225142537E0,-3.354442370E-1,1.392770786E0
5.763481500E0,4.469073701E-1,1.317327985E0,-2.469442892E-1,1.412820123E0
5.773425500E0,4.037239283E-1,1.380687829E0,-1.775436866E-1,1.449418384E0
5.783369500E0,3.689066827E-1,1.385756781E0,-1.090599275E-1,1.438161348E0
5.793313500E0,3.659684569E-1,1.332917247E0,-3.798354942E-2,1.382766809E0
5.803257500E0,3.375737929E-1,1.253548311E0,4.482939642E-2,1.298980026E0
5.813201500E0,3.511077583E-1,1.168629198E0,1.023203902E-1,1.224516363E0
5.823145500E0,4.183419675E-1,1.113830262E0,1.500442680E-1,1.199225224E0
5.833089500E0,4.439656359E-1,1.067529670E0,2.216761680E-1,1.177227848E0
5.843033500E0,4.701003510E-1,1.007051919E0,2.815165365E-1,1.146472619E0
5.852977500E0,4.400982875E-1,9.454129100E-1,3.493430686E-1,1.099787549E0
5.862922500E0,3.956822526E-1,8.739266056E-1,4.566488314E-1,1.062468970E0
5.872866500E0,3.944794804E-1,8.422604245E-1,5.721817362E-1,1.091974644E0
5.882810500E0,3.445676476E-1,8.277815491E-1,6.821736733E-1,1.126636622E0
5.892754500E0,2.699507439E-1,8.235984510E-1,7.791007014E-1,1.165412251E0
5.902698500E0,2.420314586E-1,8.346508580E-1,8.746990959E-1,1.233012486E0
5.912642500E0,1.600154883E-1,8.397046065E-1,9.493072287E-1,1.277455673E0
5.922586500E0,4.031304359E-2,8.605721498E-1,1.041972733E0,1.352004712E0
5.932530500E0,-9.759002924E-3,8.874728501E-1,1.105376504E0,1.417589685E0
5.942474500E0,-5.335467339E-2,8.530210555E-1,1.193174640E0,1.467704794E0
5.952418500E0,-7.712886751E-2,7.970696336E-1,1.252355479E0,1.486493562E0
5.962362500E0,-8.040389299E-2,7.099566454E-1,1.320800647E0,1.501671593E0
5.972307500E0,-3.558206141E-2,5.959107971E-1,1.408064493E0,1.529385948E0
5.982251500E0,2.985295951E-2,4.197938311E-1,1.471068242E0,1.530084910E0
5.992195500E0,9.702460349E-2,2.732269388E-1,1.480578153E0,1.508700899E0
6.002139500E0,9.640538335E-2,9.995288908E-2,1.563427352E0,1.569582639E0
6.012083500E0,1.384158736E-1,-4.376874804E-2,1.664592369E0,1.670910653E0
6.022027500E0,2.388312775E-1,-1.313039052E-1,1.731276355E0,1.752597761E0
6.031971500E0,3.491729146E-1,-1.951847363E-1,1.749351268E0,1.794505131E0
6.041915500E0,4.059499633E-1,-2.666377115E-1,1.765318844E0,1.830912795E0
6.051859500E0,4.558249587E-1,-3.417001730E-1,1.813785245E0,1.901145002E0
6.061803500E0,5.695316684E-1,-3.452482635E-1,1.814489250E0,1.932856416E0
6.071747500E0,6.236406326E-1,-3.040902972E-1,1.808265474E0,1.936807314E0
6.081691500E0,6.515072930E-1,-3.408809781E-1,1.791310887E0,1.936351282E0
6.091636500E0,6.485708213E-1,-5.784024793E-1,1.815494971E0,2.012763158E0
6.101580500E0,5.085165578E-1,-9.211867261E-1,1.890291384E0,2.163417572E0
6.111524500E0,4.251416945E-1,-1.163894123E0,2.018724307E0,2.368679551E0
6.121468500E0,3.715314978E-1,-1.333287960E0,2.115439593E0,2.527998637E0
6.131412500E0,3.018882358E-1,-1.396341995E0,1.988873101E0,2.448780041E0
6.141356500E0,2.735327482E-1,-1.522361187E0,1.716789293E0,2.310794068E0
6.151300500E0,2.931583428E-1,-1.676967416E0,1.257969975E0,2.116754588E0
6.161244500E0,2.688994145E-1,-1.811987227E0,7.532453370E-1,1.980652201E0
6.171188500E0,2.572839206E-1,-1.806996043E0,2.793133422E-1,1.846468429E0
6.181132500E0,2.785964370E-1,-1.656067128E0,-1.317763603E-1,1.684499723E0
6.191076500E0,2.431687421E-1,-1.453769254E0,-4.804855907E-1,1.550303997E0
6.201020500E0,2.363304234E-1,-1.115328904E0,-7.784772420E-1,1.380520717E0
6.210964500E0,3.215044749E-1,-7.406966275E-1,-1.013266339E0,1.295648600E0
6.220909500E0,4.537164527E-1,-3.186253059E-1,-1.179586807E0,1.303382423E0
6.230853500E0,5.497049296E-1,9.090783119E-2,-1.298346169E0,1.412849078E0
6.240797500E0,5.869949627E-1,4.558617961E-1,-1.399729872E0,1.584808120E0
6.250741500E0,5.129733056E-1,7.935998958E-1,-1.495251156E0,1.768818370E0
6.260685500E0,2.377267385E-1,1.065507703E0,-1.624613786E0,1.957342745E0
6.270629500E0,-5.374936044E-2,1.230381643E0,-1.719108299E0,2.114724881E0
6.280573500E0,-3.878925920E-1,1.218160377E0,-1.806471548E0,2.213078133E0
6.290517500E0,-7.154085892E-1,1.125048730E0,-1.890175610E0,2.313073265E0
6.300461500E0,-9.468361223E-1,9.367876822E-1,-2.019199101E0,2.418932577E0
6.310405500E0,-1.040407360E0,5.670039171E-1,-2.215234022E0,2.512210718E0
6.320349500E0,-9.875105238E-1,1.091183996E-1,-2.395384398E0,2.593250908E0
6.330293500E0,-7.751835054E-1,-4.796465153E-1,-2.469414825E0,2.632295543E0
6.340238500E0,-3.018174845E-1,-1.098041611E0,-2.409596640E0,2.665135107E0
6.350182500E0,1.954051763E-1,-1.613415198E0,-2.199046590E0,2.734428220E0
6.360126500E0,5.411194628E-1,-1.865527257E0,-1.924047360E0,2.734037393E0
6.370070500E0,7.241583627E-1,-1.739256050E0,-1.607997168E0,2.476907716E0
6.380014500E0,7.130930918E-1,-1.282700189E0,-1.271567091E0,1.941830168E0
6.389958500E0,4.654366118E-1,-6.409618396E-1,-9.660231757E-1,1.249265422E0
6.399902500E0,2.063985264E-1,-5.277755320E-2,-7.557537925E-1,7.852067350E-1
6.409846500E0,5.005099654E-2,4.136203408E-1,-6.281500053E-1,7.537634362E-1
6.419790500E0,-4.384885490E-2,6.598232031E-1,-6.189207602E-1,9.057330119E-1
6.429734500E0,-1.185376793E-1,7.620144063E-1,-6.309449744E-1,9.963978611E-1
6.439678500E0,-1.598944509E-1,7.758535963E-1,-5.901594758E-1,9.878275382E-1
6.449622500E0,-2.167089218E-1,6.969144309E-1,-5.084224176E-1,8.894637910E-1
6.459566500E0,-2.822632259E-1,5.850560260E-1,-4.207434189E-1,7.739432194E-1
6.469511125E0,-3.300174361E-1,4.304340094E-1,-3.732850778E-1,6.584274402E-1
6.479455125E0,-4.400538486E-1,2.216989356E-1,-3.444711685E-1,6.012139334E-1
6.489399125E0,-5.804373103E-1,1.044663548E-2,-3.404786897E-1,6.730099119E-1
6.499343125E0,-7.432448441E-1,-1.409483027E-1,-3.549365151E-1,8.356190831E-1
6.509287125E0,-9.694777107E-1,-2.555817962E-1,-3.875113535E-1,1.074883312E0
6.519231125E0,-1.198198568E0,-3.067139429E-1,-4.271250701E-1,1.308506429E0
6.529175125E0,-1.350817328E0,-3.472772473E-1,-4.836851506E-1,1.476231779E0
6.539119125E0,-1.490145367E0,-3.188159251E-1,-5.319013274E-1,1.614030927E0
6.549063125E0,-1.658697791E0,-2.642152101E-1,-5.149829936E-1,1.756785565E0
6.559007125E0,-1.753448412E0,-1.774162173E-1,-4.781069434E-1,1.826100790E0
6.568951125E0,-1.794881782E0,-1.292731673E-1,-4.394954395E-1,1.852422307E0
6.578895125E0,-1.786738365E0,-9.787478864E-2,-3.567585075E-1,1.824634235E0
6.588840125E0,-1.724545040E0,-8.811403155E-2,-2.581732639E-1,1.745987718E0
6.598784125E0,-1.625306096E0,-1.134810072E-1,-1.688137754E-1,1.637985328E0
6.608728125E0,-1.490093912E0,-1.625935256E-1,6.775753498E-3,1.498953779E0
6.618672125E0,-1.338466254E0,-2.308925128E-1,2.093677425E-1,1.374277308E0
6.628616125E0,-1.158204782E0,-2.244553131E-1,3.883650470E-1,1.242032976E0
6.638560125E0,-1.055383834E0,-1.964313626E-1,6.238207269E-1,1.241600828E0
6.648504125E0,-9.169229364E-1,-1.130418813E-1,8.529181445E-1,1.257376435E0
6.658448125E0,-9.337547314E-1,1.531385779E-2,1.052480106E0,1.407070285E0
6.668392125E0,-1.038064966E0,1.560662788E-1,1.207352968E0,1.599886479E0
6.678336125E0,-1.066167269E0,2.840466267E-1,1.273334119E0,1.684866437E0
6.688280125E0,-1.142640079E0,3.484075141E-1,1.325397727E0,1.784290694E0
6.698224125E0,-1.202827224E0,3.196392131E-1,1.298238580E0,1.798439870E0
6.708168125E0,-1.177429258E0,2.033310771E-1,1.243446661E0,1.724483338E0
6.718113125E0,-1.140446203E0,2.348475695E-2,1.232573179E0,1.679406359E0
6.728057125E0,-1.069389085E0,-1.656334931E-1,1.244134294E0,1.648908005E0
6.738001125E0,-9.668043637E-1,-3.030980247E-1,1.318199805E0,1.662597310E0
6.747945125E0,-9.206581378E-1,-3.724161816E-1,1.347948099E0,1.674296658E0
6.757889125E0,-8.604663152E-1,-3.386531889E-1,1.425282204E0,1.698975463E0
6.767833125E0,-7.408235121E-1,-2.217346036E-1,1.443097501E0,1.637228178E0
6.777777125E0,-5.274475032E-1,-6.444801092E-2,1.466466483E0,1.559768688E0
6.787721125E0,-3.818769765E-1,6.830951214E-2,1.495027792E0,1.544540163E0
6.797665125E0,-2.767674279E-1,1.900947350E-1,1.491997765E0,1.529311462E0
6.807609125E0,-2.356223255E-1,2.437142873E-1,1.442016935E0,1.481326222E0
6.817553125E0,-2.060529560E-1,2.850693047E-1,1.341730170E0,1.387069637E0
6.827497125E0,-2.404363382E-1,2.802810198E-1,1.245152879E0,1.298758166E0
6.837442125E0,-3.565994632E-1,1.776050824E-1,1.156137207E0,1.222849125E0
6.847386125E0,-4.918139863E-1,4.601057053E-2,1.095609169E0,1.201814221E0
6.857330125E0,-6.307999635E-1,-1.554710323E-1,1.088122394E0,1.267316133E0
6.867274125E0,-5.642849618E-1,-5.159091926E-1,1.074068027E0,1.318408866E0
6.877218125E0,-1.811636978E-1,-9.568313527E-1,1.027310182E0,1.415525603E0
6.887162125E0,2.653671116E-1,-1.337251203E0,1.051291952E0,1.721590907E0
6.897106125E0,7.810266280E-1,-1.472813635E0,1.219621596E0,2.065589368E0
6.907050125E0,1.187042665E0,-1.386837931E0,1.539822142E0,2.388188008E0
6.916994125E0,1.406126141E0,-1.123576401E0,1.675005090E0,2.458710375E0
6.926938125E0,1.559489252E0,-8.659586048E-1,1.498158392E0,2.329456932E0
6.936882125E0,1.819423715E0,-7.174404967E-1,1.044490471E0,2.217201810E0
6.946826125E0,2.108604198E0,-7.439745766E-1,5.068998027E-1,2.292740117E0
6.956770125E0,2.336933876E0,-1.024204726E0,2.888533669E-3,2.551521821E0
6.966715125E0,2.447367899E0,-1.287769141E0,-4.449660945E-1,2.801062980E0
6.976659125E0,2.352381635E0,-1.370086827E0,-7.707109702E-1,2.829281299E0
6.986603125E0,2.036844243E0,-1.236572675E0,-8.781652522E-1,2.539492205E0
6.996547125E0,1.400464282E0,-7.706448966E-1,-1.059275740E0,1.917618016E0
7.006491125E0,3.748199719E-1,-2.944306970E-1,-1.088392535E0,1.188182544E0
7.016435125E0,-7.951312816E-1,9.460502565E-2,-9.343113863E-1,1.230496498E0
7.026379125E0,-1.698327295E0,4.441428065E-1,-8.721157229E-1,1.960143940E0
7.036323125E0,-2.294446253E0,8.860999238E-1,-9.808692563E-1,2.647973032E0
7.046267125E0,-2.638999282E0,1.330183089E0,-1.248010998E0,3.207995591E0
7.056211125E0,-2.656595308E0,1.727047648E0,-1.565121290E0,3.534090670E0
7.066155125E0,-2.130441209E0,2.004966978E0,-1.882362560E0,3.478787308E0
7.076099125E0,-1.195956160E0,1.860760022E0,-2.153175184E0,3.086892024E0
7.086044125E0,-1.429731935E-1,1.126346812E0,-2.339818892E0,2.600740457E0
7.095988125E0,1.305054095E0,2.495655960E-1,-2.509263015E0,2.839339722E0
7.105932125E0,2.587594655E0,-6.319495261E-1,-2.275098985E0,3.503010376E0
7.115876125E0,3.364498996E0,-1.233034524E0,-1.946228188E0,4.077748373E0
7.125820125E0,3.649787571E0,-1.439989706E0,-1.688724997E0,4.271570178E0
7.135764125E0,3.530457594E0,-1.146970527E0,-1.402766916E0,3.968302815E0
7.145708125E0,2.803186759E0,-3.678202701E-1,-1.156698539E0,3.054684806E0
7.155652125E0,1.694186881E0,3.220985520E-1,-9.239805257E-1,1.956465353E0
7.165596125E0,5.119026804E-1,7.183427221E-1,-8.569398594E-1,1.229799391E0
7.175540125E0,-2.172193837E-1,8.809526199E-1,-1.194000267E0,1.499632760E0
7.185484125E0,-6.260888618E-1,7.552918625E-1,-1.602545224E0,1.878990223E0
7.195428125E0,-7.572962880E-1,2.468226671E-1,-1.831641473E0,1.997330614E0
7.205373125E0,-5.643679923E-1,-3.840135491E-1,-1.758905033E0,1.886723232E0
7.215317125E0,-3.578221160E-1,-8.612311310E-1,-1.443320280E0,1.718408903E0
7.225261125E0,-2.065248263E-1,-1.042768466E0,-1.094270157E0,1.525596851E0
7.235205125E0,-1.436976635E-1,-8.403501391E-1,-7.140888727E-1,1.112097250E0
7.245149125E0,-1.933919799E-1,-4.051787156E-1,-4.756090128E-1,6.540444806E-1
7.255093125E0,-1.733752066E-1,1.001856083E-1,-4.215152514E-1,4.666596463E-1
7.265037125E0,-7.981157005E-2,5.944606876E-1,-4.153540403E-1,7.295699930E-1
7.274981125E0,-3.751865923E-2,9.447170913E-1,-3.963289547E-1,1.025170558E0
7.284925125E0,2.054185331E-2,1.151292204E0,-4.822567123E-1,1.248385855E0
7.294869125E0,2.254440773E-1,1.246824598E0,-5.808963168E-1,1.393856930E0
7.304813125E0,3.592862588E-1,1.245897229E0,-6.338510406E-1,1.443299575E0
7.314757125E0,4.651576996E-1,1.166391469E0,-6.586280322E-1,1.417967429E0
7.324701125E0,5.185030174E-1,1.132096964E0,-6.506816661E-1,1.404946812E0
7.334646125E0,4.489182276E-1,1.092548736E0,-5.626062262E-1,1.308325679E0
7.344590125E0,3.928790975E-1,1.080670702E0,-5.168576109E-1,1.260692247E0
7.354534125E0,3.255951869E-1,1.077649446E0,-4.715545535E-1,1.220534412E0
7.364478125E0,3.328129900E-1,1.044835457E0,-4.413560236E-1,1.182049389E0
7.374422125E0,3.538138497E-1,1.017980949E0,-3.730734086E-1,1.140461846E0
7.384366125E0,3.723331511E-1,1.012040763E0,-2.338699150E-1,1.103428121E0
7.394310125E0,4.224584073E-1,1.008223116E0,-8.406890949E-2,1.096381566E0
7.404254125E0,4.894370931E-1,1.008857539E0,3.710060159E-2,1.121926315E0
7.414198125E0,5.102537656E-1,1.033333399E0,1.911501757E-1,1.168193138E0
7.424142125E0,4.932734513E-1,1.052325740E0,3.384204698E-1,1.210469568E0
7.434086125E0,4.617166132E-1,1.065568514E0,4.683339071E-1,1.252180154E0
7.444030125E0,3.850859284E-1,1.046173300E0,5.776990592E-1,1.255589881E0
7.453974125E0,2.290202343E-1,1.005990649E0,6.299298978E-1,1.208833789E0
7.463919125E0,1.611013162E-1,9.472278857E-1,6.844493365E-1,1.179688601E0
7.473863125E0,1.414002925E-1,8.996327198E-1,7.018167365E-1,1.149730318E0
7.483807125E0,8.802106082E-2,8.354349697E-1,6.851322913E-1,1.084022856E0
7.493751125E0,1.183160698E-1,7.667284316E-1,6.761930680E-1,1.029129849E0
7.503695125E0,1.476351786E-1,7.233806831E-1,7.148699876E-1,1.027674490E0
7.513639125E0,1.531093419E-1,7.388418907E-1,7.900395262E-1,1.092470715E0
7.523583125E0,1.706509888E-1,7.855459410E-1,8.708796215E-1,1.185173194E0
7.533527125E0,1.504763407E-1,8.848217225E-1,9.678954542E-1,1.319990235E0
7.543471125E0,1.605084085E-1,9.910562754E-1,1.087696717E0,1.480216078E0
7.553415125E0,2.008237910E-1,1.119451191E0,1.196582543E0,1.650851582E0
7.563359125E0,1.618275404E-1,1.217521276E0,1.318383408E0,1.801854883E0
7.573303125E0,1.528748685E-1,1.241812949E0,1.426797949E0,1.897688729E0
7.583248125E0,2.183350325E-1,1.162593702E0,1.510801241E0,1.918805538E0
7.593192125E0,3.973218119E-1,1.002989858E0,1.576136860E0,1.909989706E0
7.603136125E0,5.849379122E-1,7.608069563E-1,1.672433485E0,1.928215068E0
7.613080125E0,6.918103963E-1,5.018437153E-1,1.671129556E0,1.876998330E0
7.623024125E0,8.077150744E-1,1.979545623E-1,1.647523177E0,1.845514093E0
7.632968125E0,9.877075750E-1,-8.547459841E-2,1.549319190E0,1.839364595E0
7.642912125E0,1.092516577E0,-3.154958761E-1,1.413670803E0,1.814275409E0
7.652856125E0,1.052602898E0,-4.489264137E-1,1.298307577E0,1.730638712E0
7.662800125E0,9.081088436E-1,-4.850604522E-1,1.296321863E0,1.655414053E0
7.672744125E0,6.806492311E-1,-3.644166058E-1,1.375316577E0,1.577205924E0
7.682688125E0,4.199522907E-1,-1.505213642E-1,1.490088065E0,1.555435324E0
7.692632125E0,2.287606180E-1,-1.691114169E-1,1.621111304E0,1.645883334E0
7.702576125E0,1.677542782E-1,-5.290952486E-1,1.736649946E0,1.823193987E0
7.712521125E0,8.360407412E-2,-8.751872653E-1,1.920742514E0,2.112390635E0
7.722465125E0,5.675015152E-2,-1.035754731E0,2.145096670E0,2.382739635E0
7.732409125E0,-3.462838054E-2,-1.063533683E0,2.249952450E0,2.488893137E0
7.742353125E0,-8.142247796E-2,-1.114914921E0,2.163696663E0,2.435415396E0
7.752297125E0,-9.754120499E-2,-1.256095358E0,1.793849748E0,2.192073620E0
7.762241125E0,-5.108390719E-2,-1.496006616E0,1.249532443E0,1.949865813E0
7.772185125E0,7.844127506E-2,-1.746718267E0,6.553009665E-1,1.867243180E0
7.782129125E0,2.492463380E-1,-1.882133349E0,2.503239799E-1,1.914996547E0
7.792073125E0,4.127625543E-1,-1.902451254E0,3.337124744E-2,1.946999574E0
7.802017125E0,4.837644169E-1,-1.703828940E0,-7.523961386E-2,1.772772424E0
7.811961125E0,5.643007493E-1,-1.382261900E0,-1.783751059E-1,1.503629267E0
7.821905125E0,6.781811213E-1,-1.036598484E0,-4.128917778E-1,1.305735682E0
7.831849125E0,7.294290429E-1,-6.653564233E-1,-6.992194033E-1,1.209823819E0
7.841794125E0,7.106030551E-1,-2.693443877E-1,-9.999615848E-1,1.255956318E0
7.851738125E0,8.266887045E-1,1.242492396E-1,-1.229842529E0,1.487065814E0
7.861682125E0,9.488013715E-1,5.688165540E-1,-1.275456659E0,1.688361929E0
7.871626125E0,8.504889187E-1,9.784157646E-1,-1.319948123E0,1.850105904E0
7.881570125E0,5.860152617E-1,1.369789204E0,-1.315319467E0,1.987410790E0
7.891514125E0,2.508809271E-1,1.646709244E0,-1.209376105E0,2.058441920E0
7.901458125E0,-1.586291134E-1,1.929603385E0,-1.136368940E0,2.244964763E0
7.911402125E0,-7.151442951E-1,2.095443869E0,-1.100382836E0,2.472480285E0
7.921346125E0,-1.269971386E0,2.058639155E0,-1.157576791E0,2.681567922E0
7.931290125E0,-1.632118687E0,1.741106694E0,-1.400428029E0,2.767031368E0
7.941234125E0,-1.650125188E0,1.074643977E0,-1.796324290E0,2.665436881E0
7.951178125E0,-1.408050460E0,-1.283346891E-2,-2.173173831E0,2.589489388E0
7.961123125E0,-1.065766150E0,-1.255579634E0,-2.386215963E0,2.899373092E0
7.971067125E0,-5.336157310E-1,-2.330985503E0,-2.444283493E0,3.419467935E0
7.981011125E0,-1.728536350E-1,-3.029469911E0,-2.455717138E0,3.903602565E0
7.990955125E0,6.956052393E-2,-3.169155800E0,-2.312269735E0,3.923643521E0
8.000899125E0,2.009828353E-1,-2.647284202E0,-1.959103757E0,3.299484093E0
8.010843125E0,1.529921052E-1,-1.731943522E0,-1.647496279E0,2.395261768E0
8.020787125E0,4.839798868E-2,-8.272131997E-1,-1.351002685E0,1.584876114E0
8.030731125E0,8.054071784E-2,-2.813095450E-3,-1.044097538E0,1.047203127E0
8.040675125E0,1.640114754E-1,5.859939194E-1,-7.731820035E-1,9.839202448E-1
8.050619125E0,1.685863370E-1,9.247751623E-1,-5.861915553E-1,1.107813609E0
8.060563125E0,6.526603639E-2,1.111331747E0,-5.073360050E-1,1.223400069E0
8.070507125E0,-5.271849632E-3,1.096885031E0,-4.356269217E-1,1.180235307E0
8.080451125E0,-1.408173251E-1,8.807754493E-1,-3.344127882E-1,9.525895359E-1
8.090396125E0,-3.201373959E-1,5.882836890E-1,-2.779275338E-1,7.251271371E-1
8.100340125E0,-6.240937918E-1,2.709500331E-1,-2.418665489E-1,7.220847657E-1
8.110284125E0,-1.006790548E0,3.045171440E-2,-2.308340224E-1,1.033362889E0
8.120228125E0,-1.399552701E0,-9.062365651E-2,-1.927277362E-1,1.415663940E0
8.130172125E0,-1.749268822E0,-1.437134510E-1,-1.709316734E-1,1.763466077E0
8.140116125E0,-2.065975072E0,-8.091669381E-2,-2.148372463E-1,2.078690826E0
8.150060125E0,-2.253765127E0,-2.524418414E-2,-3.109292006E-1,2.275251960E0
8.160004125E0,-2.329928034E0,5.998190761E-2,-3.339836025E-1,2.354507915E0
8.169948125E0,-2.316282095E0,1.099393487E-1,-3.200929570E-1,2.340877806E0
8.179892125E0,-2.244061965E0,1.385550374E-1,-2.742683097E-1,2.265002143E0
8.189836125E0,-2.096788144E0,1.300952858E-1,-1.804649738E-1,2.108557069E0
8.199780125E0,-1.923844170E0,1.004920024E-1,-5.969422460E-2,1.927391614E0
8.209724125E0,-1.719481351E0,1.285522056E-1,5.391364893E-2,1.725122740E0
8.219669125E0,-1.521542577E0,2.091671830E-1,1.624988008E-1,1.544425001E0
8.229613125E0,-1.385538679E0,3.842784280E-1,2.937711310E-1,1.467545168E0
8.239557125E0,-1.263538864E0,6.014282298E-1,3.876516501E-1,1.452074439E0
8.249501125E0,-1.182757825E0,8.328890920E-1,4.710353208E-1,1.521346307E0
8.259445125E0,-1.129672124E0,9.704793388E-1,5.512462191E-1,1.588037042E0
8.269389125E0,-1.051341069E0,9.635258299E-1,5.891490769E-1,1.542983053E0
8.279333125E0,-9.442241710E-1,7.944793171E-1,6.317893124E-1,1.386331276E0
8.289277125E0,-8.741409060E-1,4.922051650E-1,6.734799600E-1,1.208289495E0
8.299221125E0,-8.439309740E-1,8.885019600E-2,7.182673661E-1,1.111765198E0
8.309165125E0,-8.263978055E-1,-2.480850810E-1,7.718839216E-1,1.157706495E0
8.319109125E0,-9.063347983E-1,-5.056081527E-1,8.457892191E-1,1.338821039E0
8.329053125E0,-1.003960788E0,-6.467652011E-1,8.740897429E-1,1.479957894E0
8.338997125E0,-1.080978558E0,-6.499051559E-1,8.557528746E-1,1.524206134E0
8.348942125E0,-1.138606669E0,-5.561620098E-1,8.785008824E-1,1.541916058E0
8.358886125E0,-1.130926059E0,-4.222274423E-1,9.188373148E-1,1.517080016E0
8.368830125E0,-1.000749205E0,-2.854031807E-1,1.025327976E0,1.460907733E0
8.378774125E0,-7.435600090E-1,-2.165586483E-1,1.123996232E0,1.364971305E0
8.388718125E0,-4.217321831E-1,-2.240606260E-1,1.274805279E0,1.361319102E0
8.398662125E0,-4.851844132E-2,-2.799231702E-1,1.455557917E0,1.483023894E0
8.408606125E0,3.745317042E-1,-3.975071687E-1,1.622881840E0,1.712317557E0
8.418550125E0,7.057881653E-1,-5.191924042E-1,1.676222481E0,1.891406749E0
8.428494125E0,9.075615442E-1,-6.393889385E-1,1.691045172E0,2.022898897E0
8.438438125E0,9.938623542E-1,-7.469490552E-1,1.734109915E0,2.133736738E0
8.448382125E0,8.990789884E-1,-7.769709992E-1,1.815189747E0,2.169548519E0
8.458326125E0,6.737407458E-1,-5.925509870E-1,1.881291350E0,2.084298541E0
8.468271125E0,2.859925801E-1,-3.776435924E-1,1.831095343E0,1.891379547E0
8.478215250E0,-8.794212341E-3,-4.361753905E-1,1.645981851E0,1.702816068E0
8.488159250E0,1.262179971E-1,-7.491283125E-1,1.400376574E0,1.593166269E0
8.498103250E0,3.724495107E-1,-1.164896920E0,1.262937770E0,1.758043027E0
8.508047250E0,5.628184801E-1,-1.414773588E0,1.319859245E0,2.015037809E0
8.517991250E0,7.849822694E-1,-1.457486914E0,1.482586087E0,2.222279634E0
8.527935250E0,9.899990988E-1,-1.362896506E0,1.564935933E0,2.299262834E0
8.537879250E0,1.168309940E0,-1.284491192E0,1.434029639E0,2.251956203E0
8.547823250E0,1.364959989E0,-1.263209081E0,1.180537637E0,2.202835006E0
8.557767250E0,1.505351052E0,-1.366238190E0,8.675689280E-1,2.210286051E0
8.567711250E0,1.678606390E0,-1.429922554E0,4.421652782E-1,2.248979337E0
8.577655250E0,1.714468533E0,-1.395770722E0,-2.560844740E-2,2.210935108E0
8.587599250E0,1.537052316E0,-1.286954623E0,-5.098082078E-1,2.068498594E0
8.597544250E0,1.132340208E0,-1.054691523E0,-9.499292994E-1,1.815746191E0
8.607488250E0,5.166213834E-1,-7.183877456E-1,-1.272596201E0,1.549993451E0
8.617432250E0,-3.016157556E-1,-4.307199383E-1,-1.545674036E0,1.632666516E0
8.627376250E0,-1.056166191E0,-2.051255876E-1,-1.753917943E0,2.057617963E0
8.637320250E0,-1.622220520E0,-5.372480214E-2,-1.936893693E0,2.527062118E0
8.647264250E0,-1.892505140E0,7.488061309E-2,-2.208683971E0,2.909547679E0
8.657208250E0,-1.837872266E0,1.349034512E-1,-2.358386725E0,2.992985358E0
8.667152250E0,-1.469573693E0,4.894119501E-2,-2.473493843E0,2.877536077E0
8.677096250E0,-8.010837471E-1,-1.362372011E-1,-2.501788520E0,2.630445122E0
8.687040250E0,-2.880864680E-2,-3.082646245E-1,-2.576637558E0,2.595172079E0
8.696984250E0,8.522270036E-1,-4.451941359E-1,-2.546276475E0,2.721766443E0
8.706928250E0,1.593642254E0,-4.467535883E-1,-2.355923878E0,2.879177265E0
8.716872250E0,1.979567842E0,-2.590164506E-1,-2.091605172E0,2.891468582E0
8.726817250E0,2.046563485E0,9.193050921E-2,-1.830895368E0,2.747553669E0
8.736761250E0,1.899925257E0,4.920888054E-1,-1.540694547E0,2.495116643E0
8.746705250E0,1.445134086E0,8.911454862E-1,-1.219991140E0,2.090677208E0
8.756649250E0,8.655370206E-1,1.193588623E0,-9.241477561E-1,1.740073909E0
8.766593250E0,3.184130520E-1,1.299286401E0,-7.400481713E-1,1.528791457E0
8.776537250E0,-1.824834144E-1,1.283928105E0,-7.077504909E-1,1.477390379E0
8.786481250E0,-5.443781161E-1,1.073197961E0,-7.798442479E-1,1.433965985E0
8.796425250E0,-6.093237251E-1,7.296547455E-1,-8.772121561E-1,1.293511738E0
8.806369250E0,-4.717206144E-1,3.943327153E-1,-9.396370304E-1,1.122914234E0
8.816313250E0,-2.892126417E-1,1.376762009E-1,-9.319912112E-1,9.854979990E-1
8.826257250E0,-7.932040393E-2,7.302938461E-2,-8.436234105E-1,8.504854356E-1
8.836201250E0,1.135944432E-1,1.949765754E-1,-7.696818602E-1,8.020783805E-1
8.846145250E0,2.752161616E-1,3.983555996E-1,-7.253213739E-1,8.720792480E-1
8.856090250E0,4.075556087E-1,6.565452540E-1,-6.674982584E-1,1.021130339E0
8.866034250E0,5.205407721E-1,8.921769351E-1,-6.022397868E-1,1.195673509E0
8.875978250E0,5.769383365E-1,1.117230418E0,-5.679423952E-1,1.379717441E0
8.885922250E0,6.267273778E-1,1.303611587E0,-6.302643585E-1,1.577790714E0
8.895866250E0,6.277214044E-1,1.449580894E0,-7.171376109E-1,1.734821398E0
8.905810250E0,6.123601842E-1,1.506829813E0,-7.908628142E-1,1.808586484E0
8.915754250E0,6.077449769E-1,1.478295985E0,-8.194194460E-1,1.796151777E0
8.925698250E0,6.527603513E-1,1.383060629E0,-7.561163199E-1,1.706067018E0
8.935642250E0,6.796154433E-1,1.221145965E0,-6.140804350E-1,1.526489240E0
8.945586250E0,6.710545349E-1,1.073956929E0,-4.949282134E-1,1.359651283E0
8.955530250E0,5.781001782E-1,9.148091680E-1,-3.576964009E-1,1.139746614E0
8.965474250E0,4.512243694E-1,8.030489963E-1,-1.650879296E-1,9.358125595E-1
8.975419250E0,3.561784637E-1,7.715535539E-1,-1.359355213E-2,8.499075063E-1
8.985363250E0,2.388020414E-1,8.100060135E-1,1.267875524E-1,8.539386631E-1
8.995307250E0,8.478521168E-2,8.466160154E-1,2.544731275E-1,8.880899630E-1
9.005251250E0,-1.593015432E-2,9.000104499E-1,3.167962968E-1,9.542706500E-1
9.015195250E0,-5.247583687E-2,9.675721031E-1,3.232129947E-1,1.021477424E0
9.025139250E0,-6.132501304E-2,9.907171369E-1,3.356301785E-1,1.047820986E0
9.035083250E0,-2.594994307E-3,9.807803786E-1,3.936672656E-1,1.056840007E0
9.045027250E0,8.844615340E-2,9.203979367E-1,4.082654973E-1,1.010760011E0
9.054971250E0,2.021891159E-1,8.426913643E-1,4.511372459E-1,9.770025530E-1
9.064915250E0,2.858183330E-1,7.208932775E-1,5.159863393E-1,9.314618293E-1
9.074859250E0,3.478052509E-1,6.086086106E-1,6.150335312E-1,9.325444643E-1
9.084803250E0,3.551435065E-1,5.456539786E-1,7.021769980E-1,9.575582025E-1
9.094747250E0,3.710982192E-1,4.843734044E-1,7.300669742E-1,9.514879242E-1
9.104692250E0,3.059953201E-1,4.477639872E-1,7.337483811E-1,9.124211807E-1
9.114636250E0,1.653686142E-1,4.391340816E-1,7.418443628E-1,8.777918767E-1
9.124580250E0,2.748425245E-2,4.233547854E-1,7.694643438E-1,8.786694685E-1
9.134524250E0,-7.180497766E-2,4.033023441E-1,8.466803348E-1,9.405723390E-1
9.144468250E0,-9.350224078E-2,3.509469599E-1,9.576265740E-1,1.024185087E0
9.154412250E0,-1.153070927E-1,2.929080820E-1,1.083568583E0,1.128366848E0
9.164356250E0,-1.225833678E-1,2.530990684E-1,1.236506016E0,1.268082390E0
9.174300250E0,-5.936736524E-2,1.654960835E-1,1.378859990E0,1.390024571E0
9.184244250E0,4.331383467E-2,1.174805027E-1,1.477598412E0,1.482894070E0
9.194188250E0,1.439537716E-1,1.354934353E-1,1.513985635E0,1.526837798E0
9.204132250E0,1.811631131E-1,1.589781922E-1,1.561631087E0,1.580122081E0
9.214076250E0,2.540714604E-1,1.739628518E-1,1.569452323E0,1.599373619E0
9.224020250E0,2.452117592E-1,1.729664862E-1,1.584031770E0,1.612204348E0
9.233965250E0,2.508706945E-1,1.516674185E-1,1.606557584E0,1.633084928E0
9.243909250E0,2.971005356E-1,7.859417975E-2,1.645376079E0,1.673830402E0
9.253853250E0,2.940477043E-1,-3.700468898E-2,1.681804233E0,1.707717446E0
9.263797250E0,3.522953278E-1,-1.150100541E-1,1.657775685E0,1.698693478E0
9.273741250E0,4.216970998E-1,-1.695388484E-1,1.599229853E0,1.662560672E0
9.283685250E0,4.015154350E-1,-2.334477460E-1,1.509555784E0,1.579389490E0
9.293629250E0,3.597540361E-1,-2.542468768E-1,1.435392040E0,1.501470862E0
9.303573250E0,3.786785495E-1,-2.816387433E-1,1.424914999E0,1.501033171E0
9.313517250E0,3.616666603E-1,-3.946566510E-1,1.414394689E0,1.512305849E0
9.323461250E0,3.065911514E-1,-5.607386255E-1,1.477317746E0,1.609625317E0
9.333405250E0,2.123831517E-1,-7.578599596E-1,1.579452231E0,1.764689115E0
9.343349250E0,1.868752581E-1,-8.473691368E-1,1.738899955E0,1.943381040E0
9.353293250E0,1.468060434E-1,-8.870056576E-1,1.796260994E0,2.008702220E0
9.363238250E0,1.203421301E-1,-9.507338762E-1,1.680747056E0,1.934757814E0
9.373182250E0,9.065757036E-2,-1.056731617E0,1.428631489E0,1.779294365E0
9.383126250E0,7.642018497E-2,-1.259661575E0,1.071404108E0,1.655443775E0
9.393070250E0,1.464943868E-1,-1.440552208E0,6.198587266E-1,1.575079715E0
9.403014250E0,2.374390554E-1,-1.546452300E0,1.440601178E-1,1.571192330E0
9.412958250E0,3.463779455E-1,-1.559600934E0,-2.676867020E-1,1.619873120E0
9.422902250E0,3.872178233E-1,-1.390707618E0,-6.854924798E-1,1.598094259E0
9.432846250E0,4.208779049E-1,-1.111497223E0,-9.435441399E-1,1.517511065E0
9.442790250E0,5.017995688E-1,-7.217978418E-1,-1.152338928E0,1.449372256E0
9.452734250E0,5.678722286E-1,-2.807113749E-1,-1.275076590E0,1.423761937E0
9.462678250E0,6.057721263E-1,1.287720609E-1,-1.353263218E0,1.488241731E0
9.472622333E0,5.848937657E-1,5.432121813E-1,-1.458611333E0,1.662746888E0
9.482566333E0,4.753216222E-1,8.546261162E-1,-1.514783195E0,1.803020957E0
9.492511333E0,3.491571271E-1,1.044278802E0,-1.556231768E0,1.906380400E0
9.502455333E0,1.468042892E-1,1.165930708E0,-1.598965559E0,1.984347947E0
9.512399333E0,-7.074955523E-2,1.124400859E0,-1.690539973E0,2.031553147E0
9.522343333E0,-2.598958719E-1,9.162458289E-1,-1.826535684E0,2.059923515E0
9.532287333E0,-4.170821849E-1,5.445587951E-1,-1.970036735E0,2.086036089E0
9.542231333E0,-4.406762847E-1,2.437762678E-2,-2.074596791E0,2.121023739E0
9.552175333E0,-4.597300217E-1,-5.102046490E-1,-2.104719307E0,2.213934019E0
9.562119333E0,-4.784639159E-1,-1.001601729E0,-2.079606686E0,2.357307300E0
9.572063333E0,-3.311032641E-1,-1.346344208E0,-1.937611731E0,2.382564022E0
9.582007333E0,-2.472974610E-1,-1.510928126E0,-1.706977665E0,2.292996421E0
9.591951333E0,-2.186250544E-1,-1.381437442E0,-1.422925776E0,1.995215298E0
9.601895333E0,-2.505289248E-1,-8.630864525E-1,-1.168132258E0,1.473843933E0
9.611839333E0,-3.150593814E-1,-2.298318279E-1,-1.008222531E0,1.081017000E0
9.621784333E0,-3.217559052E-1,3.246982241E-1,-8.680109775E-1,9.810192946E-1
9.631728333E0,-2.776950887E-1,6.920694280E-1,-7.331822976E-1,1.045768109E0
9.641672333E0,-2.547462291E-1,8.844866771E-1,-6.303742862E-1,1.115609279E0
9.651616333E0,-3.393592402E-1,9.334857595E-1,-5.392256228E-1,1.130187873E0
9.661560333E0,-4.016592765E-1,9.804915261E-1,-4.134671438E-1,1.137386867E0
9.671504333E0,-5.395120633E-1,9.736894602E-1,-3.014976418E-1,1.153275882E0
9.681448333E0,-7.117850697E-1,9.610758466E-1,-2.523376878E-1,1.222284368E0
9.691392333E0,-9.026791191E-1,9.147699916E-1,-2.677813538E-1,1.312760672E0
9.701336333E0,-1.030840731E0,8.051405454E-1,-3.563304182E-1,1.355675211E0
9.711280333E0,-1.126332194E0,6.768251520E-1,-4.664230371E-1,1.394369731E0
9.721224333E0,-1.168128092E0,4.962450063E-1,-5.637277222E-1,1.388730100E0
9.731168333E0,-1.179200379E0,2.578499311E-1,-5.755214830E-1,1.337245340E0
9.741112333E0,-1.176428214E0,2.124878168E-2,-5.281568436E-1,1.289722647E0
9.751057333E0,-1.193722524E0,-1.870430732E-1,-4.743869448E-1,1.298076095E0
9.761001333E0,-1.192729667E0,-3.609971541E-1,-4.025153089E-1,1.309557779E0
9.770945333E0,-1.235731260E0,-5.168997109E-1,-3.347892758E-1,1.380688567E0
9.780889333E0,-1.245758066E0,-5.418351620E-1,-2.361654588E-1,1.378866427E0
9.790833333E0,-1.326732647E0,-5.163793087E-1,-1.180739220E-1,1.428568709E0
9.800777333E0,-1.381169640E0,-4.093267304E-1,-6.335677430E-2,1.441940369E0
9.810721333E0,-1.430361680E0,-2.662003398E-1,7.139925398E-2,1.456672582E0
9.820665333E0,-1.388158817E0,-1.201135039E-1,1.965483800E-1,1.407140156E0
9.830609333E0,-1.281458825E0,1.187394083E-2,3.140984646E-1,1.319445170E0
9.840553333E0,-1.194369811E0,7.552556098E-2,4.053151019E-1,1.263528269E0
9.850497333E0,-1.023860325E0,1.266688174E-1,4.497619808E-1,1.125442488E0
9.860441333E0,-8.195182639E-1,1.538092536E-1,5.544447557E-1,1.001337335E0
9.870385333E0,-6.640828997E-1,1.800767004E-1,6.584620444E-1,9.523686154E-1
9.880330333E0,-5.682037657E-1,2.141156816E-1,7.802969686E-1,9.887185665E-1
9.890274333E0,-5.314294571E-1,2.968970525E-1,8.807332762E-1,1.070633565E0
9.900218333E0,-5.451025862E-1,3.374732208E-1,9.805172539E-1,1.171511455E0
9.910162333E0,-6.183623511E-1,3.504557937E-1,1.020468940E0,1.243602878E0
9.920106333E0,-7.108179402E-1,3.668057781E-1,1.006097580E0,1.285317456E0
9.930050333E0,-8.460090744E-1,3.445343184E-1,9.951856522E-1,1.350862588E0
9.939994333E0,-9.810645533E-1,3.285679114E-1,9.413303109E-1,1.398766344E0
9.949938333E0,-1.068593279E0,2.734935719E-1,9.021691688E-1,1.424991066E0
9.959882333E0,-1.082910186E0,1.967915511E-1,8.638957071E-1,1.399191616E0
9.969826333E0,-1.038312303E0,8.147627234E-2,8.516048598E-1,1.345348155E0
9.979770333E0,-9.266252214E-1,-2.557338238E-2,8.573702145E-1,1.262684435E0
9.989714333E0,-7.920369351E-1,-1.339649731E-1,9.429640961E-1,1.238729352E0
9.999658333E0,-6.905865741E-1,-2.357036018E-1,1.065092551E0,1.291080224E0
1.000960333E1,-5.331117010E-1,-2.250224930E-1,1.136385239E0,1.275231202E0
1.001954733E1,-3.719747168E-1,-2.000852877E-1,1.237256799E0,1.307365174E0
1.002949133E1,-2.132526326E-1,-1.506482488E-1,1.333776788E0,1.359092381E0
1.003943533E1,-9.779292762E-2,-1.224395263E-1,1.396354859E0,1.405119848E0
1.004937933E1,-4.918210030E-2,-1.282499045E-1,1.452018013E0,1.458500335E0
1.005932333E1,3.166325748E-2,-1.418049198E-1,1.482105446E0,1.489210445E0
1.006926733E1,7.450522184E-2,-2.022358936E-1,1.486231241E0,1.501776843E0
1.007921133E1,8.200252175E-2,-2.275601846E-1,1.472873862E0,1.492603586E0
1.008915533E1,-2.101489305E-3,-2.703226268E-1,1.468579667E0,1.493253152E0
1.009909933E1,-1.207759935E-1,-2.807078665E-1,1.526132641E0,1.556426864E0
1.010904333E1,-2.419004810E-1,-2.321707141E-1,1.550059593E0,1.585907887E0
1.011898733E1,-3.922633857E-1,-2.423904777E-1,1.594726328E0,1.660052941E0
1.012893133E1,-3.074425060E-1,-4.338025904E-1,1.580839190E0,1.667860344E0
1.013887633E1,4.871724665E-2,-8.533350509E-1,1.484595190E0,1.713060699E0
1.014882033E1,4.319712424E-1,-1.238913900E0,1.470661275E0,1.970875793E0
1.015876433E1,7.456398636E-1,-1.444171634E0,1.585243313E0,2.270375933E0
1.016870833E1,9.158575737E-1,-1.486728839E0,1.653363376E0,2.404738695E0
1.017865233E1,9.368274432E-1,-1.460072553E0,1.543676627E0,2.322153105E0
1.018859633E1,1.249616643E0,-1.466058347E0,1.299363585E0,2.323621001E0
1.019854033E1,1.585276642E0,-1.586691084E0,1.030401093E0,2.468282205E0
1.020848433E1,1.906922620E0,-1.766333921E0,7.097747239E-1,2.694451625E0
1.021842833E1,2.093530660E0,-1.977346485E0,3.541062470E-1,2.901406725E0
1.022837233E1,2.128191200E0,-2.125092176E0,-1.360378110E-1,3.010601407E0
1.023831633E1,1.928756123E0,-2.084660434E0,-6.237751186E-1,2.907749079E0
1.024826033E1,1.582543069E0,-1.798392450E0,-1.070833347E0,2.623993527E0
1.025820433E1,1.086890386E0,-1.186248028E0,-1.511955482E0,2.207832529E0
1.026814933E1,5.176282740E-1,-4.098003548E-1,-1.790463041E0,1.908306386E0
1.027809333E1,-1.768595624E-1,2.803745753E-1,-1.874626694E0,1.903710705E0
1.028803733E1,-8.479363167E-1,7.654993469E-1,-1.776626190E0,2.112199296E0
1.029798133E1,-1.231088571E0,1.084088985E0,-1.707853578E0,2.368035439E0
1.030792533E1,-1.417872612E0,1.284225143E0,-1.708495603E0,2.564869234E0
1.031786933E1,-1.327658846E0,1.324320670E0,-1.734126288E0,2.554152938E0
1.032781333E1,-1.010957274E0,1.179926019E0,-1.697750759E0,2.301438172E0
1.033775733E1,-4.677608800E-1,8.888323277E-1,-1.734368362E0,2.004209761E0
1.034770133E1,1.381913406E-1,6.352988112E-1,-1.807408272E0,1.920787882E0
1.035764533E1,6.664656401E-1,4.630527020E-1,-1.802879019E0,1.977110773E0
1.036758933E1,1.107011824E0,3.645961154E-1,-1.808601104E0,2.151614152E0
1.037753333E1,1.381816342E0,2.993727636E-1,-1.738535088E0,2.240880342E0
1.038747733E1,1.491481456E0,2.980360901E-1,-1.644102556E0,2.239735622E0
1.039742133E1,1.403924664E0,3.983702177E-1,-1.526134980E0,2.111585014E0
1.040736633E1,1.121654422E0,5.891175020E-1,-1.395668396E0,1.884955794E0
1.041731033E1,8.235820788E-1,7.868089396E-1,-1.270377767E0,1.706228419E0
1.042725433E1,6.219601429E-1,8.727039528E-1,-1.137084639E0,1.562500587E0
1.043719833E1,5.360446644E-1,6.977745563E-1,-1.055958030E0,1.374511031E0
1.044714233E1,5.521502352E-1,3.912196577E-1,-1.017794423E0,1.222222644E0
1.045708633E1,5.659806544E-1,1.614837241E-1,-9.632526188E-1,1.128834222E0
1.046703033E1,4.980985737E-1,2.993715942E-2,-8.402250087E-1,9.772289844E-1
1.047697425E1,3.882831860E-1,4.159533799E-2,-7.435705340E-1,8.398756715E-1
1.048691825E1,3.005123860E-1,1.631992972E-1,-6.651756712E-1,7.479307309E-1
1.049686225E1,9.497515440E-2,3.710964650E-1,-5.645825851E-1,6.822656093E-1
1.050680625E1,-2.664400756E-2,6.474311990E-1,-4.481457738E-1,7.878525846E-1
1.051675025E1,-9.081895351E-2,9.355404711E-1,-3.749679796E-1,1.011970870E0
1.052669425E1,-1.268600214E-1,1.112859040E0,-3.297525573E-1,1.167598157E0
1.053663925E1,-2.436827123E-2,1.254120753E0,-2.819538717E-1,1.285655733E0
1.054658325E1,9.643052638E-2,1.324731730E0,-2.488866977E-1,1.351353984E0
1.055652725E1,2.408368725E-1,1.388841771E0,-2.618324697E-1,1.433680616E0
1.056647125E1,3.649574733E-1,1.391975294E0,-2.444978142E-1,1.459646655E0
1.057641525E1,4.932985944E-1,1.410717959E0,-2.254733864E-1,1.511392375E0
1.058635925E1,5.849735802E-1,1.445739858E0,-1.985702741E-1,1.572192094E0
1.059630325E1,5.667431313E-1,1.481585628E0,-1.601471237E-1,1.594346528E0
1.060624725E1,5.475221640E-1,1.499243635E0,-1.384257774E-1,1.602084172E0
1.061619125E1,5.574483973E-1,1.485686281E0,-1.182446607E-1,1.591224133E0
1.062613525E1,5.603889620E-1,1.459906492E0,-8.741115969E-2,1.566206712E0
1.063607925E1,5.797900236E-1,1.438302199E0,-4.253615499E-2,1.551347483E0
1.064602325E1,5.945887417E-1,1.415431985E0,3.732164461E-2,1.535700615E0
1.065596725E1,5.989291298E-1,1.357099577E0,1.250098892E-1,1.488644630E0
1.066591125E1,6.191464627E-1,1.315885477E0,2.105618536E-1,1.469432960E0
1.067585625E1,6.005903238E-1,1.259900141E0,3.324059507E-1,1.434765075E0
1.068580025E1,6.005265892E-1,1.240118426E0,3.981556249E-1,1.434243284E0
1.069574425E1,5.901355022E-1,1.126260273E0,4.983195984E-1,1.365666334E0
1.070568825E1,5.993957376E-1,1.031879196E0,5.927554934E-1,1.332444746E0
1.071563225E1,5.705923533E-1,9.209464055E-1,7.303066369E-1,1.306547243E0
1.072557625E1,5.504662371E-1,7.813131416E-1,8.706153274E-1,1.292839647E0
1.073552025E1,4.821421069E-1,6.658183533E-1,9.638970550E-1,1.266835673E0
1.074546425E1,4.197973394E-1,5.895291460E-1,1.029591912E0,1.258504638E0
1.075540825E1,3.627975118E-1,6.053827018E-1,1.073742994E0,1.284925783E0
1.076535225E1,2.901236379E-1,7.062676370E-1,1.040254748E0,1.290393599E0
1.077529625E1,2.554093033E-1,8.533648717E-1,1.008292771E0,1.345406938E0
1.078524025E1,2.617587948E-1,9.786344504E-1,9.842338172E-1,1.412430268E0
1.079518425E1,2.634223276E-1,1.020257855E0,1.003523782E0,1.455121093E0
1.080512925E1,3.533975279E-1,9.950423223E-1,1.088597261E0,1.516589276E0
1.081507325E1,4.739706230E-1,8.669584787E-1,1.214827976E0,1.565909374E0
1.082501725E1,6.879442173E-1,6.802370024E-1,1.313160675E0,1.631067314E0
1.083496125E1,8.418961430E-1,4.225478697E-1,1.417152236E0,1.701662797E0
1.084490525E1,9.071990168E-1,1.687354410E-1,1.480345434E0,1.744392246E0
1.085484925E1,1.030760039E0,-5.449020267E-2,1.507711573E0,1.827191732E0
1.086479325E1,1.021388414E0,-2.313456720E-1,1.505759772E0,1.834139472E0
1.087473725E1,9.307346445E-1,-2.960223091E-1,1.453754636E0,1.751370528E0
1.088468125E1,8.930937785E-1,-3.343221563E-1,1.363245585E0,1.663678553E0
1.089462525E1,8.786154878E-1,-4.884413123E-1,1.295185164E0,1.639525755E0
1.090456925E1,9.083839551E-1,-7.472273827E-1,1.296683221E0,1.750684879E0
1.091451325E1,9.485996425E-1,-1.086353611E0,1.383661723E0,1.998630835E0
1.092445725E1,9.164893654E-1,-1.436071486E0,1.610235482E0,2.344165604E0
1.093440225E1,8.726457730E-1,-1.635029431E0,1.887153769E0,2.645029533E0
1.094434625E1,8.444069374E-1,-1.660809805E0,1.975611616E0,2.715576098E0
1.095429025E1,6.833117607E-1,-1.632481214E0,1.856720181E0,2.565018461E0
1.096423425E1,5.219110671E-1,-1.710423430E0,1.517683414E0,2.345485540E0
1.097417825E1,4.126324537E-1,-1.851506803E0,1.056267933E0,2.171185144E0
1.098412225E1,3.962394923E-1,-1.980348446E0,5.238929808E-1,2.086444238E0
1.099406625E1,3.745121160E-1,-2.134938303E0,-6.305059947E-2,2.168454809E0
1.100401025E1,3.459601620E-1,-2.188729178E0,-6.698418224E-1,2.314932378E0
1.101395425E1,2.169653222E-1,-2.101207470E0,-1.259326530E0,2.459278368E0
1.102389825E1,-5.449458808E-2,-1.834967369E0,-1.707140218E0,2.506871083E0
1.103384225E1,-3.079465359E-1,-1.461205743E0,-1.859768919E0,2.385098263E0
1.104378625E1,-4.654512298E-1,-9.424559730E-1,-1.876579664E0,2.150911282E0
1.105373025E1,-6.330239519E-1,-4.127339029E-1,-1.763183441E0,1.918302491E0
1.106367425E1,-7.082381487E-1,1.375791371E-1,-1.580413513E0,1.737307160E0
1.107361925E1,-5.973489198E-1,6.647816420E-1,-1.409492383E0,1.668960497E0
1.108356325E1,-4.700363240E-1,1.066332160E0,-1.318742427E0,1.759852269E0
1.109350725E1,-3.258013013E-1,1.208682625E0,-1.339208851E0,1.833177712E0
1.110345125E1,-1.387658295E-1,1.137676377E0,-1.461532456E0,1.857320816E0
1.111339525E1,7.028616339E-2,9.284109610E-1,-1.585900540E0,1.839012665E0
1.112333925E1,1.872342771E-1,6.740465552E-1,-1.666670469E0,1.807535860E0
1.113328325E1,1.401621446E-1,4.114106780E-1,-1.681677933E0,1.736935474E0
1.114322725E1,-6.297743618E-2,2.221497560E-1,-1.560311955E0,1.577304685E0
1.115317125E1,-3.556475365E-1,9.495936692E-2,-1.392024411E0,1.439873054E0
1.116311525E1,-6.477487028E-1,6.420359731E-2,-1.243509811E0,1.403572989E0
1.117305925E1,-8.410570675E-1,9.000385165E-2,-1.102846853E0,1.389873686E0
1.118300325E1,-9.502362782E-1,1.134523559E-1,-1.021514422E0,1.399754312E0
1.119294725E1,-9.747808430E-1,1.531204516E-1,-1.016814430E0,1.416882193E0
1.120289225E1,-8.113947272E-1,1.448244220E-1,-1.010875851E0,1.304302689E0
1.121283625E1,-5.536921459E-1,9.388932645E-2,-9.960848808E-1,1.143492583E0
1.122278025E1,-3.253408331E-1,7.128106713E-2,-9.258715153E-1,9.839541204E-1
1.123272425E1,-1.322932541E-1,1.254677993E-1,-7.643200365E-1,7.857663724E-1
1.124266825E1,-6.705733091E-2,2.869942081E-1,-5.854642347E-1,6.554622272E-1
1.125261225E1,-3.303150594E-2,3.871535039E-1,-4.157650995E-1,5.690690063E-1
1.126255625E1,-8.383006901E-2,3.508130586E-1,-2.781016894E-1,4.554534359E-1
1.127250025E1,-1.887294102E-1,2.138408625E-1,-1.751464013E-1,3.346983218E-1
1.128244425E1,-3.892930001E-1,4.334657907E-2,-1.742481959E-1,4.287078255E-1
1.129238825E1,-6.288382226E-1,-9.340108395E-2,-2.149202585E-1,6.710827000E-1
1.130233225E1,-9.134175307E-1,-1.686910021E-1,-2.584913707E-1,9.641607896E-1
1.131227625E1,-1.165683078E0,-2.031164843E-1,-3.050842508E-1,1.221945067E0
1.132222025E1,-1.308143764E0,-2.053495359E-1,-2.964748836E-1,1.356947270E0
1.133216425E1,-1.414829429E0,-1.879230791E-1,-2.580248360E-1,1.450391055E0
1.134210925E1,-1.478312065E0,-1.298736763E-1,-1.722613120E-1,1.493970446E0
1.135205325E1,-1.455890332E0,-1.146253073E-1,-8.668738402E-2,1.462966275E0
1.136199725E1,-1.388901998E0,-9.444948971E-2,2.587970339E-2,1.392350252E0
1.137194125E1,-1.276050443E0,-1.032852173E-1,1.086775927E-1,1.284828156E0
1.138188525E1,-1.172011520E0,-1.041646385E-1,1.363372616E-1,1.184503746E0
1.139182925E1,-1.090834917E0,-5.795350850E-2,1.808871245E-1,1.107248652E0
1.140177325E1,-1.044537833E0,-5.274188519E-4,2.058711076E-1,1.064632555E0
1.141171725E1,-1.088834585E0,1.165221441E-1,2.131837086E-1,1.115609904E0
1.142166125E1,-1.131063176E0,2.742121947E-1,1.831347942E-1,1.178148798E0
1.143160525E1,-1.196983516E0,3.848017538E-1,1.657171813E-1,1.268189304E0
1.144154925E1,-1.185973209E0,4.796617180E-1,1.457021622E-1,1.287570168E0
1.145149325E1,-1.226854602E0,4.967911363E-1,1.662212844E-1,1.334017677E0
1.146143725E1,-1.242019064E0,4.729350811E-1,2.194962895E-1,1.347018027E0
1.147138125E1,-1.203488544E0,4.355994397E-1,2.632790709E-1,1.306693314E0
1.148132700E1,-1.200172588E0,4.210556602E-1,3.070934272E-1,1.308437420E0
1.149127100E1,-1.218549802E0,4.361204267E-1,3.864143427E-1,1.350696372E0
1.150121500E1,-1.161739424E0,4.616733438E-1,4.534232879E-1,1.329802032E0
1.151115900E1,-1.107512931E0,5.150046283E-1,5.696391841E-1,1.347703031E0
1.152110300E1,-1.045701722E0,5.391091901E-1,6.887563225E-1,1.363274030E0
1.153104700E1,-1.026115011E0,4.980471182E-1,7.631692314E-1,1.372366651E0
1.154099100E1,-9.442762113E-1,3.791492504E-1,7.913351961E-1,1.289039608E0
1.155093500E1,-8.434094024E-1,2.029463303E-1,8.212530597E-1,1.194564030E0
1.156087900E1,-8.200220016E-1,3.702515423E-2,8.044657767E-1,1.149335517E0
1.157082300E1,-8.357246992E-1,-9.194220364E-2,8.458675718E-1,1.192636194E0
1.158076700E1,-9.007752657E-1,-1.672853315E-1,9.344131279E-1,1.308628425E0
1.159071100E1,-9.480330473E-1,-2.189022124E-1,1.003934183E0,1.398058898E0
1.160065500E1,-9.839951777E-1,-2.314000511E-1,1.062881134E0,1.466802235E0
1.161059900E1,-9.778801596E-1,-2.652109909E-1,1.106932960E0,1.500628886E0
1.162054400E1,-8.714830542E-1,-2.729287308E-1,1.182781799E0,1.494304383E0
1.163048800E1,-7.181792924E-1,-3.300876027E-1,1.233865414E0,1.465320163E0
1.164043200E1,-4.901948923E-1,-4.253820151E-1,1.268975605E0,1.425321008E0
1.165037600E1,-2.350975379E-1,-5.083312011E-1,1.355004519E0,1.466188497E0
1.166032000E1,3.882551193E-3,-5.991139019E-1,1.491271541E0,1.607122693E0
1.167026400E1,2.001586702E-1,-6.462126392E-1,1.561870823E0,1.702085408E0
1.168020800E1,2.904382181E-1,-6.296965939E-1,1.697647848E0,1.833815796E0
1.169015200E1,2.025247461E-1,-5.004444766E-1,1.782295650E0,1.862267095E0
1.170009600E1,8.163648605E-2,-2.971736258E-1,1.844050434E0,1.869625278E0
1.171004000E1,-1.014298958E-1,-5.203671098E-2,1.931009202E0,1.934371314E0
1.171998400E1,-2.958088857E-1,1.057410479E-1,2.001591965E0,2.026093399E0
1.172992800E1,-2.510823637E-1,3.856414139E-2,2.003161358E0,2.019204044E0
1.173987200E1,7.489113808E-3,-2.382307684E-1,1.939886298E0,1.954474056E0
1.174981600E1,2.943482512E-1,-5.512690598E-1,1.904496610E0,2.004406597E0
1.175976100E1,5.838953537E-1,-8.351695061E-1,1.930483975E0,2.182936157E0
1.176970500E1,7.541867387E-1,-1.154219320E0,1.987337623E0,2.418787031E0
1.177964900E1,9.512957937E-1,-1.524159790E0,1.732577945E0,2.495967365E0
1.178959300E1,1.321141539E0,-1.910696413E0,1.221958144E0,2.624758552E0
1.179953700E1,1.799140894E0,-2.275231133E0,6.264964128E-1,2.967504409E0
1.180948100E1,2.134443628E0,-2.516773179E0,1.133318301E-2,3.300018982E0
1.181942500E1,2.218112606E0,-2.575064657E0,-5.763892099E-1,3.447202640E0
1.182936900E1,2.139869844E0,-2.224009523E0,-1.117376087E0,3.282345294E0
1.183931300E1,1.838992007E0,-1.490054151E0,-1.469531593E0,2.785978478E0
1.184925700E1,1.303660119E0,-6.081975514E-1,-1.516889362E0,2.090547130E0
1.185920100E1,5.857161766E-1,1.822635591E-1,-1.337335403E0,1.471308745E0
1.186914500E1,-2.820971650E-1,7.432670635E-1,-1.201584032E0,1.440773724E0
1.187908900E1,-9.493708903E-1,9.976607054E-1,-1.232485471E0,1.848148372E0
1.188903300E1,-1.300099164E0,1.109738381E0,-1.395303530E0,2.206501541E0
1.189897800E1,-1.384608387E0,1.025034446E0,-1.667541704E0,2.397609504E0
1.190892200E1,-1.067892782E0,6.041629726E-1,-2.005111989E0,2.350719460E0
1.191886600E1,-3.598271263E-1,-8.232704222E-2,-2.279151106E0,2.308848862E0
1.192881000E1,4.837997925E-1,-7.132345945E-1,-2.512141600E0,2.655865441E0
1.193875400E1,1.237930398E0,-1.090331472E0,-2.544778419E0,3.032687189E0
1.194869800E1,1.752829776E0,-1.165115606E0,-2.344932282E0,3.150970328E0
1.195864200E1,1.805488631E0,-8.020970696E-1,-1.998287119E0,2.810035643E0
1.196858600E1,1.402342992E0,-4.454233468E-2,-1.621825833E0,2.144497359E0
1.197853000E1,8.609446174E-1,7.590972304E-1,-1.246618191E0,1.694553379E0
1.198847400E1,2.887366784E-1,1.275689963E0,-9.552011490E-1,1.619618160E0
1.199841800E1,-8.880575716E-2,1.476855816E0,-8.591395819E-1,1.710880003E0
1.200836200E1,-2.874678326E-1,1.318654718E0,-8.511967242E-1,1.595626486E0
1.201830600E1,-2.250178152E-1,7.376437962E-1,-8.938287735E-1,1.180542783E0
1.202825100E1,-2.908229649E-2,2.241062343E-2,-9.398136163E-1,9.405305148E-1
1.203819500E1,1.655054390E-1,-5.011970133E-1,-9.679960263E-1,1.102545601E0
1.204813900E1,3.733856499E-1,-7.556087816E-1,-9.017482424E-1,1.234306026E0
1.205808300E1,3.671063250E-1,-6.326155239E-1,-7.957171726E-1,1.080803069E0
1.206802700E1,1.964570904E-1,-1.847755229E-1,-7.130047989E-1,7.623078286E-1
1.207797100E1,9.928455234E-2,3.925604242E-1,-6.425341558E-1,7.594809085E-1
1.208791500E1,2.410631597E-2,9.010243571E-1,-5.684265447E-1,1.065614726E0
1.209785900E1,4.572756529E-2,1.246281976E0,-5.013917621E-1,1.344136702E0
1.210780300E1,1.799749589E-1,1.405778816E0,-4.633111854E-1,1.491060804E0
1.211774700E1,3.121512687E-1,1.450628130E0,-5.214009340E-1,1.572774402E0
1.212769100E1,4.997603524E-1,1.317174788E0,-5.587283528E-1,1.515548483E0
1.213763500E1,7.225024313E-1,1.177148007E0,-5.794637855E-1,1.497820240E0
1.214757900E1,8.931721312E-1,1.040029630E0,-5.581190729E-1,1.480173972E0
1.215752300E1,9.168638796E-1,9.321350527E-1,-5.730119312E-1,1.427535570E0
1.216746700E1,8.916635495E-1,8.520363843E-1,-5.626530405E-1,1.355584129E0
1.217741200E1,7.871393073E-1,8.117958462E-1,-4.906503538E-1,1.232614520E0
1.218735600E1,6.851270288E-1,8.452237934E-1,-4.309233848E-1,1.170255216E0
1.219730000E1,5.140942168E-1,8.771297103E-1,-3.706502493E-1,1.082141858E0
1.220724400E1,3.527163273E-1,9.334670484E-1,-2.764107478E-1,1.035457599E0
1.221718800E1,2.907603997E-1,1.015158498E0,-1.394174286E-1,1.065141120E0
1.222713200E1,2.737590355E-1,1.109392810E0,-1.601782601E-2,1.142783001E0
1.223707600E1,2.582253224E-1,1.187387066E0,1.155222702E-1,1.220620234E0
1.224702000E1,2.930115777E-1,1.218233467E0,2.578785825E-1,1.279238027E0
1.225696400E1,3.345671546E-1,1.213988973E0,3.744276237E-1,1.313735306E0
1.226690800E1,3.626700425E-1,1.180815965E0,5.187099358E-1,1.339744715E0
1.227685200E1,4.157639301E-1,1.121735698E0,5.294348987E-1,1.308224726E0
1.228679600E1,4.750552815E-1,1.045179273E0,4.969104195E-1,1.250998480E0
1.229674000E1,4.222870839E-1,9.517805278E-1,5.072939050E-1,1.158257165E0
1.230668400E1,4.186583018E-1,8.653908402E-1,5.004691080E-1,1.083810596E0
1.231662900E1,3.595154697E-1,8.129167575E-1,4.840453756E-1,1.012119041E0
1.232657300E1,3.075325531E-1,7.511964726E-1,3.912125679E-1,9.010658605E-1
1.233651700E1,2.853090405E-1,6.740968412E-1,3.575185724E-1,8.146332485E-1
1.234646100E1,2.526622814E-1,5.806168199E-1,3.766120704E-1,7.367433553E-1
1.235640500E1,2.349984276E-1,5.027167046E-1,4.467798277E-1,7.124328463E-1
1.236634900E1,2.105968273E-1,4.327641249E-1,4.995815007E-1,6.936984123E-1
1.237629300E1,2.607945889E-1,4.378266442E-1,5.847635921E-1,7.756638748E-1
1.238623700E1,2.594731182E-1,4.433189338E-1,6.695834485E-1,8.439194101E-1
1.239618100E1,1.431994808E-1,4.726193315E-1,7.673991803E-1,9.125659569E-1
1.240612500E1,9.742396832E-2,5.324807864E-1,9.080304909E-1,1.057140762E0
1.241606900E1,-1.105299175E-2,5.526039791E-1,1.033427539E0,1.171949574E0
1.242601300E1,-1.292719978E-1,5.798163360E-1,1.148086687E0,1.292672145E0
1.243595700E1,-1.101603734E-1,5.726774704E-1,1.254917729E0,1.383803924E0
1.244590200E1,-1.034957170E-1,5.018513167E-1,1.376629862E0,1.468902952E0
1.245584600E1,-5.237117171E-2,3.696030861E-1,1.440115421E0,1.487710189E0
1.246579000E1,4.081824303E-2,2.720879012E-1,1.534704659E0,1.559171686E0
1.247573321E1,1.407424808E-1,1.892936665E-1,1.533594857E0,1.551629377E0
1.248567721E1,2.081749105E-1,1.194656324E-1,1.622865468E0,1.640518564E0
1.249562121E1,2.484411764E-1,8.034717500E-2,1.697854840E0,1.717815398E0
1.250556521E1,3.622864652E-1,7.350944102E-2,1.752101798E0,1.790674686E0
1.251550921E1,4.523441112E-1,1.745797330E-1,1.798332224E0,1.862549883E0
1.252545321E1,3.625495899E-1,2.084988463E-1,1.841725581E0,1.888615125E0
1.253539721E1,3.672232693E-1,2.864831614E-1,1.939748304E0,1.994880702E0
1.254534121E1,3.325288153E-1,3.982860178E-1,2.073279998E0,2.137217143E0
1.255528521E1,2.086356711E-1,3.677325618E-1,2.209748164E0,2.249831778E0
1.256522921E1,1.918161553E-1,1.037260973E-1,2.403171719E0,2.413045141E0
1.257517321E1,1.121835101E-1,-2.261246932E-1,2.605605834E0,2.617804285E0
1.258511821E1,5.140784293E-2,-5.169909275E-1,2.785773751E0,2.833806234E0
1.259506221E1,8.366254628E-2,-6.773566639E-1,2.861392282E0,2.941662330E0
1.260500621E1,1.637869424E-1,-7.615331805E-1,2.677969805E0,2.788957014E0
1.261495021E1,2.222009191E-1,-9.537603951E-1,2.330841662E0,2.528211817E0
1.262489421E1,2.821682087E-1,-1.242393578E0,1.780684304E0,2.189519877E0
1.263483821E1,3.755508739E-1,-1.721274692E0,1.271837232E0,2.172877118E0
1.264478221E1,5.813120538E-1,-2.237975013E0,7.736310697E-1,2.438229049E0
1.265472621E1,9.068458450E-1,-2.730745019E0,1.988802131E-1,2.884248791E0
1.266467021E1,1.111958276E0,-3.080943536E0,-4.246224253E-1,3.302872762E0
1.267461421E1,1.086840392E0,-3.131740052E0,-9.609513009E-1,3.451441032E0
1.268455821E1,8.155260774E-1,-2.751166420E0,-1.538177905E0,3.255762694E0
1.269450221E1,3.571461779E-1,-1.954642916E0,-2.131946282E0,2.914339938E0
1.270444621E1,5.505182773E-2,-9.940746081E-1,-2.513922662E0,2.703890193E0
1.271439021E1,1.024189523E-1,-2.864375532E-2,-2.638333869E0,2.640476417E0
1.272433421E1,1.440496659E-1,8.053843743E-1,-2.635579830E0,2.759651308E0
1.273427921E1,2.830201480E-1,1.354868864E0,-2.568222245E0,2.917453606E0
1.274422321E1,4.872622213E-1,1.547394871E0,-2.417105634E0,2.911057369E0
1.275416721E1,6.874147519E-1,1.600670022E0,-2.347030263E0,2.922881218E0
1.276411121E1,9.050390553E-1,1.481542359E0,-2.330800731E0,2.906319924E0
1.277405521E1,9.996133831E-1,1.107364411E0,-2.262032797E0,2.709663306E0
1.278399921E1,9.629516333E-1,7.226725852E-1,-2.192836847E0,2.501612470E0
1.279394321E1,7.507877523E-1,3.656263947E-1,-2.057099583E0,2.220140447E0
1.280388721E1,3.735484949E-1,1.291591465E-1,-1.849543308E0,1.891304050E0
1.281383121E1,-7.869562894E-2,-2.114353180E-2,-1.562088339E0,1.564212272E0
1.282377521E1,-4.688537246E-1,-3.417931437E-2,-1.298184786E0,1.380679463E0
1.283371921E1,-8.376320609E-1,-2.054243803E-2,-1.093643335E0,1.377717390E0
1.284366321E1,-1.049943877E0,-3.579665422E-2,-9.611922061E-1,1.423922049E0
1.285360721E1,-1.114622268E0,-1.085097045E-1,-9.157523239E-1,1.446637299E0
1.286355121E1,-1.073727719E0,-2.768446112E-1,-9.131386185E-1,1.436438752E0
1.287349621E1,-9.707079649E-1,-4.401836568E-1,-8.570427704E-1,1.367683412E0
1.288344021E1,-8.396557823E-1,-5.220774204E-1,-7.827620085E-1,1.261072174E0
1.289338421E1,-6.891034278E-1,-4.595893961E-1,-7.184508955E-1,1.096475096E0
1.290332821E1,-5.906950808E-1,-2.695016778E-1,-6.656119466E-1,9.298339078E-1
1.291327221E1,-4.874075246E-1,-1.419645488E-2,-6.244510567E-1,7.922794687E-1
1.292321621E1,-4.177519834E-1,2.344844574E-1,-5.553592237E-1,7.334327152E-1
1.293316021E1,-3.655878031E-1,4.411911321E-1,-4.919648079E-1,7.552042300E-1
1.294310421E1,-4.106160414E-1,5.933842152E-1,-4.915730445E-1,8.731290961E-1
1.295304821E1,-4.630851540E-1,6.245182997E-1,-4.973992467E-1,9.229718182E-1
1.296299221E1,-5.942115963E-1,6.062323022E-1,-4.982856846E-1,9.843239552E-1
1.297293621E1,-6.616244379E-1,5.280275470E-1,-5.227597173E-1,9.949058796E-1
1.298288021E1,-7.533084869E-1,3.466989577E-1,-5.227235011E-1,9.802620580E-1
1.299282421E1,-8.959638843E-1,1.928902888E-1,-5.191100315E-1,1.053296335E0
1.300276821E1,-1.034326256E0,4.505455077E-2,-5.073324966E-1,1.152929737E0
1.301271321E1,-1.123153063E0,-1.045961630E-1,-4.436142182E-1,1.212108384E0
1.302265721E1,-1.177574269E0,-2.009793270E-1,-3.799368703E-1,1.253565265E0
1.303260121E1,-1.244089563E0,-3.152988249E-1,-2.892172829E-1,1.315605878E0
1.304254521E1,-1.238906006E0,-3.633898348E-1,-2.507157068E-1,1.315218092E0
1.305248921E1,-1.294623832E0,-3.793515640E-1,-1.821290001E-1,1.361296972E0
1.306243321E1,-1.420037252E0,-4.036777353E-1,-1.019649160E-1,1.479817000E0
1.307237721E1,-1.442335609E0,-3.406254548E-1,-4.220048826E-2,1.482612083E0
1.308232121E1,-1.535894567E0,-2.817211890E-1,-1.424385387E-2,1.561583119E0
1.309226521E1,-1.626029981E0,-1.860338438E-1,1.901985962E-2,1.636747948E0
1.310220921E1,-1.678642058E0,-5.451826930E-2,9.585687798E-2,1.682260367E0
1.311215321E1,-1.671759886E0,8.652768195E-2,1.525280921E-1,1.680932174E0
1.312209721E1,-1.664794098E0,1.968394983E-1,2.293617117E-1,1.692008265E0
1.313204121E1,-1.631995018E0,2.385102654E-1,2.776819324E-1,1.672543615E0
1.314198521E1,-1.499054478E0,1.821799439E-1,3.512866831E-1,1.550405170E0
1.315193021E1,-1.313802114E0,6.853521466E-2,4.544678565E-1,1.391874313E0
1.316187421E1,-1.179071448E0,-9.420156777E-2,5.073874605E-1,1.287060780E0
1.317181821E1,-1.025067190E0,-1.985381144E-1,5.642644600E-1,1.186833816E0
1.318176221E1,-8.472691494E-1,-3.027916306E-1,6.181138444E-1,1.091610053E0
1.319170621E1,-7.653145748E-1,-3.265687484E-1,6.504220498E-1,1.056126123E0
1.320165021E1,-7.338276109E-1,-2.875327367E-1,6.502127194E-1,1.021740974E0
1.321159421E1,-7.705946106E-1,-2.160680670E-1,6.746342003E-1,1.046724781E0
1.322153821E1,-8.391146225E-1,-9.453310490E-2,7.544358301E-1,1.132352984E0
1.323148221E1,-9.272280693E-1,4.549367666E-2,8.683419299E-1,1.271156668E0
1.324142621E1,-9.860417032E-1,1.615188074E-1,1.005759684E0,1.417716159E0
1.325137021E1,-1.001958117E0,2.245950615E-1,1.134605420E0,1.530258954E0
1.326131421E1,-9.662839615E-1,2.747325969E-1,1.301169205E0,1.643844273E0
1.327125821E1,-8.894354680E-1,2.867065251E-1,1.449391444E0,1.724538095E0
1.328120221E1,-7.253374538E-1,2.469308406E-1,1.547188611E0,1.726523055E0
1.329114721E1,-5.900492558E-1,1.573912579E-1,1.593576765E0,1.706580510E0
1.330109121E1,-4.232197148E-1,7.301184297E-2,1.586647815E0,1.643744793E0
1.331103521E1,-1.979162630E-1,-6.528650165E-2,1.596886289E0,1.610428202E0
1.332097921E1,-3.524701595E-2,-1.880967414E-1,1.576879456E0,1.588449419E0
1.333092321E1,5.371018410E-2,-2.767674279E-1,1.543190138E0,1.568732226E0
1.334086721E1,1.387526733E-1,-3.491460174E-1,1.582979271E0,1.626953785E0
1.335081121E1,1.590705782E-1,-4.076228517E-1,1.674985210E0,1.731194758E0
1.336075521E1,1.492338073E-1,-3.786165690E-1,1.763088862E0,1.809448417E0
1.337069921E1,3.586389720E-2,-2.790706462E-1,1.847469885E0,1.868772758E0
1.338064321E1,-1.421154070E-1,-1.483707583E-1,1.915432073E0,1.926419138E0
1.339058721E1,-2.536767733E-1,-5.016443253E-2,1.886295397E0,1.903937683E0
1.340053121E1,-1.888440156E-1,-1.090722066E-1,1.787744086E0,1.800996314E0
1.341047521E1,1.323277527E-1,-3.078266680E-1,1.684974593E0,1.717966027E0
1.342041921E1,4.520032185E-1,-5.346372396E-1,1.698410325E0,1.837046956E0
1.343036321E1,7.326438421E-1,-7.131960028E-1,1.758414452E0,2.034069056E0
1.344030821E1,8.676431876E-1,-7.950599456E-1,1.934358341E0,2.264214479E0
1.345025221E1,1.045428364E0,-7.828351718E-1,1.914774846E0,2.317782147E0
1.346019621E1,1.310155206E0,-7.761073655E-1,1.617553858E0,2.221560215E0
1.347014021E1,1.718065740E0,-9.401200104E-1,1.041709535E0,2.218272814E0
1.348008475E1,2.159406561E0,-1.310961537E0,2.840285003E-1,2.542111138E0
1.349002875E1,2.537124998E0,-1.747232237E0,-5.141105890E-1,3.123160810E0
1.349997275E1,2.762660292E0,-2.101330261E0,-1.274607643E0,3.697635109E0
1.350991675E1,2.800868922E0,-2.147039700E0,-1.847584491E0,3.983492770E0
1.351986075E1,2.381837568E0,-1.754523130E0,-2.197694714E0,3.685290175E0
1.352980475E1,1.646020442E0,-1.131406993E0,-2.016614631E0,2.838344526E0
1.353974875E1,6.314033961E-1,-5.239467752E-1,-1.600299894E0,1.798374327E0
1.354969275E1,-5.066284919E-1,-7.553199291E-2,-1.114245415E0,1.226344305E0
1.355963675E1,-1.326203474E0,2.374431485E-1,-7.825971901E-1,1.558092829E0
1.356958075E1,-1.777479299E0,5.244098747E-1,-9.456620014E-1,2.080556415E0
1.357952475E1,-1.961917437E0,7.248489189E-1,-1.389014264E0,2.510754192E0
1.358946975E1,-1.839175025E0,7.904611105E-1,-1.767073009E0,2.670194854E0
1.359941375E1,-1.457983927E0,6.613089806E-1,-2.011963756E0,2.571195219E0
1.360935775E1,-9.085158098E-1,4.428084719E-1,-2.157606204E0,2.382592044E0
1.361930175E1,-1.738464922E-1,2.426208580E-1,-2.307512441E0,2.326736158E0
1.362924575E1,8.294953680E-1,4.239757597E-2,-2.152665306E0,2.307342203E0
1.363918975E1,1.693340789E0,-2.690479338E-2,-1.780929741E0,2.457608113E0
1.364913375E1,2.074652925E0,5.208056509E-2,-1.406531353E0,2.507035618E0
1.365907775E1,2.176654678E0,3.516959882E-1,-1.139041117E0,2.481719227E0
1.366902175E1,2.030404705E0,7.934162933E-1,-9.551695740E-1,2.380000335E0
1.367896575E1,1.568088752E0,1.237899408E0,-7.599064851E-1,2.137464653E0
1.368890975E1,9.687111408E-1,1.509182147E0,-6.355595970E-1,1.902621357E0
1.369885375E1,4.842044199E-1,1.542141148E0,-7.115897727E-1,1.766072831E0
1.370879775E1,3.050843239E-2,1.275510453E0,-8.416692710E-1,1.528484492E0
1.371874175E1,-2.124755377E-1,7.184163970E-1,-9.326227105E-1,1.196266314E0
1.372868675E1,-1.775875407E-1,3.693627656E-2,-9.292512059E-1,9.467890086E-1
1.373863075E1,-4.360678017E-2,-5.315282750E-1,-8.675315058E-1,1.018349042E0
1.374857475E1,1.234054863E-2,-9.202371383E-1,-6.546261978E-1,1.129391048E0
1.375851875E1,7.378952265E-2,-1.070328732E0,-4.775304079E-1,1.174343978E0
1.376846275E1,9.611828506E-2,-9.130468172E-1,-3.738043106E-1,9.912733617E-1
1.377840675E1,-1.650084257E-3,-4.996451622E-1,-3.628361034E-1,6.174933594E-1
1.378835075E1,-7.115359783E-2,1.233937919E-2,-3.993250680E-1,4.058024208E-1
1.379829475E1,-8.014720023E-2,5.112700117E-1,-4.352468526E-1,6.762103380E-1
1.380823875E1,3.241696358E-3,9.026013511E-1,-4.168515122E-1,9.942157165E-1
1.381818275E1,1.489057785E-1,1.207678074E0,-4.578393245E-1,1.300106191E0
1.382812675E1,2.893541443E-1,1.393607837E0,-4.877349687E-1,1.504577689E0
1.383807075E1,4.743781739E-1,1.463394940E0,-5.092503834E-1,1.620461464E0
1.384801475E1,7.326379949E-1,1.479019870E0,-5.006888902E-1,1.724803633E0
1.385795875E1,9.361766481E-1,1.451223376E0,-4.637882817E-1,1.788176606E0
1.386790375E1,1.026006837E0,1.363401121E0,-4.058131385E-1,1.753920452E0
1.387784775E1,1.074183217E0,1.249890878E0,-3.375854874E-1,1.682278440E0
1.388779175E1,1.029238594E0,1.181242227E0,-2.120492756E-1,1.581021877E0
1.389773575E1,9.207259655E-1,1.120169814E0,-8.362101277E-2,1.452414951E0
1.390767975E1,6.881459463E-1,1.057768913E0,8.327723304E-2,1.264656085E0
1.391762375E1,4.337528890E-1,1.006151447E0,2.232572186E-1,1.118179811E0
1.392756775E1,2.449843025E-1,9.631440067E-1,3.182896757E-1,1.043538214E0
1.393751175E1,1.020900464E-1,9.386044121E-1,3.847549395E-1,1.019527824E0
1.394745575E1,1.337375164E-2,8.800439626E-1,4.257802105E-1,9.777244095E-1
1.395739975E1,-4.257474661E-2,8.092160547E-1,4.601079711E-1,9.318490099E-1
1.396734375E1,-1.043377161E-2,7.213183701E-1,5.242777276E-1,8.917825914E-1
1.397728775E1,-3.189656138E-3,5.945384556E-1,6.061831490E-1,8.490843063E-1
1.398723175E1,3.762449384E-2,4.354953593E-1,7.056571877E-1,8.300746214E-1
1.399717575E1,1.104001093E-1,2.983506703E-1,7.980712616E-1,8.591385484E-1
1.400711975E1,1.798112369E-1,2.377817023E-1,8.704188609E-1,9.200550050E-1
1.401706475E1,2.296505642E-1,1.911454797E-1,9.355357933E-1,9.820912364E-1
1.402700875E1,2.337751901E-1,2.286910361E-1,9.488194978E-1,1.003597962E0
1.403695275E1,2.149190891E-1,3.041856068E-1,9.325747633E-1,1.004198580E0
1.404689675E1,2.129883385E-1,4.019428664E-1,9.117867422E-1,1.018958863E0
1.405684075E1,1.377060217E-1,5.048217022E-1,8.935317349E-1,1.035474220E0
1.406678475E1,1.036272794E-1,5.772020459E-1,9.029047485E-1,1.076632621E0
1.407672875E1,1.156859922E-1,6.447490811E-1,9.531394207E-1,1.156529023E0
1.408667275E1,8.726209223E-2,6.470768577E-1,1.002920203E0,1.196733916E0
1.409661675E1,6.972570777E-2,5.774610776E-1,1.069137654E0,1.217118850E0
1.410656075E1,9.411415190E-2,5.548212433E-1,1.151032514E0,1.281233755E0
1.411650475E1,1.519732279E-1,5.113641518E-1,1.202328968E0,1.315364628E0
1.412644875E1,6.280611277E-2,4.059669203E-1,1.242367265E0,1.308522132E0
1.413639275E1,6.239242226E-2,3.695118695E-1,1.278808283E0,1.332584879E0
1.414633675E1,9.018306881E-2,3.893122959E-1,1.326065480E0,1.384971735E0
1.415628175E1,3.240234554E-2,3.832306069E-1,1.394483750E0,1.446547800E0
1.416622575E1,-4.364069402E-2,3.699568427E-1,1.451673027E0,1.498708495E0
1.417616975E1,1.883768231E-2,3.666315311E-1,1.500931141E0,1.545175663E0
1.418611375E1,4.969782472E-2,3.343636715E-1,1.496939832E0,1.534632790E0
1.419605775E1,4.342960954E-2,2.677890283E-1,1.511626868E0,1.535777615E0
1.420600175E1,4.878127366E-2,2.102202666E-1,1.593297268E0,1.607845875E0
1.421594575E1,9.397060275E-2,2.039655000E-1,1.674915043E0,1.689903193E0
1.422588975E1,1.128717273E-1,2.650589633E-1,1.732052865E0,1.755848344E0
1.423583375E1,7.803810954E-2,1.817408180E-1,1.787631673E0,1.798540150E0
1.424577775E1,1.249105597E-1,-9.139490426E-2,1.869700999E0,1.876096347E0
1.425572175E1,1.528713602E-1,-4.458209574E-1,2.022749530E0,2.076930822E0
1.426566575E1,1.501559132E-1,-7.059817082E-1,2.232722021E0,2.346487714E0
1.427560975E1,1.941167423E-1,-8.210484803E-1,2.407227494E0,2.550793235E0
1.428555375E1,2.493001324E-1,-8.526520962E-1,2.381471533E0,2.541765688E0
1.429549775E1,3.811805731E-1,-9.217398727E-1,2.137167846E0,2.358471841E0
1.430544275E1,5.034449753E-1,-1.135362049E0,1.680500304E0,2.089637551E0
1.431538675E1,5.749403429E-1,-1.479478292E0,1.045517169E0,1.900662665E0
1.432533075E1,6.305157888E-1,-1.864958907E0,4.346913671E-1,2.016079976E0
1.433527475E1,9.033138344E-1,-2.192205933E0,-4.140526693E-2,2.371382957E0
1.434521875E1,1.137575805E0,-2.473303224E0,-4.812960148E-1,2.764589193E0
1.435516275E1,1.258575162E0,-2.497460995E0,-9.223959303E-1,2.944849252E0
1.436510675E1,1.233363138E0,-2.180045478E0,-1.399974285E0,2.869444357E0
1.437505075E1,9.962208286E-1,-1.433069526E0,-1.850912726E0,2.544016927E0
1.438499475E1,7.607613480E-1,-5.018378681E-1,-2.043318865E0,2.237353584E0
1.439493875E1,6.767801285E-1,4.015411627E-1,-2.049086559E0,2.194999402E0
1.440488275E1,5.809106424E-1,1.172272598E0,-1.989019282E0,2.380730544E0
1.441482675E1,3.252423075E-1,1.742663807E0,-1.963221366E0,2.645164992E0
1.442477075E1,7.998347819E-2,2.069273486E0,-1.861102084E0,2.784239768E0
1.443471475E1,-1.787052360E-1,2.115886905E0,-1.815802535E0,2.793931245E0
1.444465875E1,-4.358388832E-1,1.925112723E0,-1.914399455E0,2.749716313E0
1.445460375E1,-5.248033923E-1,1.399805301E0,-2.063689395E0,2.548271453E0
1.446454775E1,-3.666329929E-1,6.557009161E-1,-2.241613151E0,2.364147407E0
1.447449175E1,-1.383936542E-1,-2.195535922E-1,-2.360896350E0,2.375118557E0
1.448443525E1,9.790110111E-2,-1.029221052E0,-2.353689072E0,2.570745582E0
1.449437925E1,2.907071900E-1,-1.560458720E0,-2.178221147E0,2.695216031E0
1.450432325E1,4.269458529E-1,-1.666599133E0,-1.941985449E0,2.594444625E0
1.451426725E1,4.201654217E-1,-1.362935098E0,-1.622943821E0,2.160573467E0
1.452421125E1,2.215331671E-1,-7.493113303E-1,-1.364858247E0,1.572699097E0
1.453415525E1,-5.294829190E-2,-8.869699895E-2,-1.141353106E0,1.146018147E0
1.454409925E1,-2.293549874E-1,5.618823409E-1,-9.628083766E-1,1.138119258E0
1.455404325E1,-3.139870021E-1,1.029803435E0,-8.174360704E-1,1.351770942E0
1.456398725E1,-4.153324056E-1,1.271399860E0,-6.883470905E-1,1.504254077E0
1.457393125E1,-4.515661392E-1,1.312890533E0,-5.778604789E-1,1.503833855E0
1.458387525E1,-4.548519820E-1,1.213149313E0,-4.558758295E-1,1.373478924E0
1.459382025E1,-4.609205148E-1,1.004349920E0,-3.480636978E-1,1.158583109E0
1.460376425E1,-4.481607208E-1,7.968439311E-1,-2.367327118E-1,9.443784511E-1
1.461370825E1,-4.584228766E-1,5.544470215E-1,-1.743721569E-1,7.402490679E-1
1.462365225E1,-5.330772024E-1,3.381216770E-1,-1.593319488E-1,6.510639309E-1
1.463359625E1,-6.486143830E-1,1.127705705E-1,-1.828763473E-1,6.832726966E-1
1.464354025E1,-7.427650800E-1,-9.939038694E-2,-2.347925874E-1,7.853062920E-1
1.465348425E1,-8.167080921E-1,-2.926946586E-1,-3.202800679E-1,9.248035428E-1
1.466342825E1,-9.137142769E-1,-4.970864207E-1,-3.581723642E-1,1.100116417E0
1.467337225E1,-1.021985707E0,-6.745418143E-1,-4.081777525E-1,1.290763543E0
1.468331625E1,-1.077638044E0,-7.788058555E-1,-4.599992859E-1,1.406926316E0
1.469326025E1,-1.143507805E0,-8.080647379E-1,-4.601162302E-1,1.473867588E0
1.470320425E1,-1.176953587E0,-7.050128245E-1,-4.125269115E-1,1.432634385E0
1.471314825E1,-1.209998541E0,-4.923104149E-1,-3.336152279E-1,1.348245206E0
1.472309225E1,-1.264855364E0,-2.414163315E-1,-1.954080999E-1,1.302430521E0
1.473303625E1,-1.259342902E0,2.761581481E-2,-6.736343265E-2,1.261445603E0
1.474298125E1,-1.220807412E0,3.030038846E-1,8.413205942E-2,1.260658675E0
1.475292525E1,-1.171989885E0,5.382958424E-1,2.020657396E-1,1.305432215E0
1.476286925E1,-1.182555804E0,6.593039703E-1,3.096533382E-1,1.388886297E0
1.477281325E1,-1.130100432E0,7.373736548E-1,3.995940399E-1,1.407310304E0
1.478275725E1,-1.129416308E0,7.491604722E-1,4.761469567E-1,1.436502187E0
1.479270125E1,-1.105585396E0,6.953409451E-1,5.418790162E-1,1.414019436E0
1.480264525E1,-1.055894880E0,5.577512830E-1,5.769588017E-1,1.326228469E0
1.481258925E1,-9.890495110E-1,4.132876343E-1,5.829638922E-1,1.220193634E0
1.482253325E1,-9.257250425E-1,2.737952882E-1,5.626752234E-1,1.117378235E0
1.483247725E1,-9.124427998E-1,1.556669140E-1,5.281953621E-1,1.065727166E0
1.484242125E1,-9.463584048E-1,1.180137688E-1,4.721310890E-1,1.064156589E0
1.485236525E1,-9.711166853E-1,1.184920710E-1,4.935447621E-1,1.095762027E0
1.486230925E1,-1.004203447E0,1.485678095E-1,5.421093965E-1,1.150816908E0
1.487225325E1,-9.631083387E-1,1.618287098E-1,6.305005860E-1,1.162453093E0
1.488219725E1,-8.708816680E-1,1.703428406E-1,7.333449233E-1,1.151193441E0
1.489214225E1,-7.211599106E-1,2.005887330E-1,9.164995980E-1,1.183333837E0
1.490208625E1,-5.264792043E-1,2.207522714E-1,1.132396342E0,1.268161422E0
1.491203025E1,-3.871783546E-1,2.335623515E-1,1.350555958E0,1.424240094E0
1.492197425E1,-3.061064172E-1,2.035421616E-1,1.570583174E0,1.613028846E0
1.493191825E1,-2.092671704E-1,1.722016704E-1,1.698756480E0,1.720238281E0
1.494186225E1,-1.929607478E-1,1.031782132E-1,1.794853131E0,1.808141962E0
1.495180625E1,-1.491297269E-1,-3.545985460E-2,1.795179405E0,1.801712012E0
1.496175025E1,-1.471978068E-2,-1.637448424E-1,1.774422959E0,1.782022975E0
1.497169425E1,1.171156365E-1,-3.215892595E-1,1.772439584E0,1.805180822E0
1.498163825E1,3.049100769E-1,-4.254679692E-1,1.772280539E0,1.847964139E0
1.499158225E1,4.669364226E-1,-4.387733084E-1,1.824084531E0,1.933348395E0
1.500152625E1,6.124066696E-1,-3.858981067E-1,1.874324977E0,2.009241996E0
1.501147025E1,7.470195141E-1,-2.513168371E-1,1.864753085E0,2.024475828E0
1.502141425E1,8.048774207E-1,-1.541214949E-1,1.852319566E0,2.025504597E0
1.503135825E1,7.488315663E-1,6.848083556E-2,1.873413981E0,2.018692221E0
1.504130325E1,5.835442284E-1,3.541448021E-1,1.883363603E0,2.003247581E0
1.505124725E1,2.586632788E-1,5.658771586E-1,1.933194745E0,2.030853410E0
1.506119125E1,3.580834866E-2,7.682019299E-1,1.880726509E0,2.031883029E0
1.507113525E1,-1.667859793E-1,7.461971033E-1,1.785378302E0,1.942216096E0
1.508107925E1,-1.708649969E-1,5.328035527E-1,1.611831772E0,1.706187603E0
1.509102325E1,-2.533920139E-2,1.325698274E-1,1.419681741E0,1.426083125E0
1.510096725E1,1.339059162E-1,-3.140001583E-1,1.303036805E0,1.347008467E0
1.511091125E1,2.905996013E-1,-7.121873581E-1,1.351706690E0,1.555239511E0
1.512085525E1,6.434112382E-1,-1.117328652E0,1.399727533E0,1.903060299E0
1.513079925E1,1.016847759E0,-1.519447519E0,1.279953167E0,2.231810977E0
1.514074325E1,1.419451945E0,-1.939779294E0,1.009144052E0,2.606906069E0
1.515068725E1,1.907604990E0,-2.452225766E0,6.389743710E-1,3.171853756E0
1.516063125E1,2.299981812E0,-2.906208267E0,1.931101624E-1,3.711233536E0
1.517057525E1,2.514189879E0,-3.258688366E0,-3.082593620E-1,4.127375008E0
1.518051925E1,2.475551478E0,-3.398459040E0,-8.608212411E-1,4.291723684E0
1.519046425E1,2.191856854E0,-2.986455454E0,-1.548985898E0,4.015284543E0
1.520040825E1,1.392754728E0,-2.181793796E0,-1.929412766E0,3.228408822E0
1.521035225E1,4.665727258E-1,-1.510363870E0,-1.931531796E0,2.495937541E0
1.522029625E1,-4.590730870E-1,-8.522609174E-1,-1.924364280E0,2.154129674E0
1.523024025E1,-1.124920092E0,-3.623262262E-1,-2.032838316E0,2.351415983E0
1.524018425E1,-1.366023597E0,2.143004537E-3,-2.302644049E0,2.677348441E0
1.525012825E1,-1.332453563E0,3.206618911E-1,-2.653565866E0,2.986581382E0
1.526007225E1,-1.000974323E0,5.293414164E-1,-2.868214813E0,3.083635540E0
1.527001625E1,-6.517318261E-1,6.207246262E-1,-2.899289256E0,3.035775293E0
1.527996025E1,-9.040614009E-2,6.887347609E-1,-2.801064219E0,2.885912265E0
1.528990425E1,5.806975114E-1,7.713600111E-1,-2.481974645E0,2.663156774E0
1.529984825E1,1.041600777E0,8.967219758E-1,-2.068079485E0,2.483142210E0
1.530979225E1,1.220101653E0,1.065225867E0,-1.648103220E0,2.310757109E0
1.531973625E1,1.283378466E0,1.237009462E0,-1.295224925E0,2.203374753E0
1.532968025E1,1.198054726E0,1.393738815E0,-1.051617057E0,2.117484698E0
1.533962525E1,9.030480784E-1,1.488330976E0,-9.166364229E-1,1.967446888E0
1.534956925E1,6.137898284E-1,1.390019401E0,-8.314003909E-1,1.732085015E0
1.535951325E1,3.441881633E-1,1.112191288E0,-7.668646717E-1,1.394100562E0
1.536945725E1,1.138686776E-1,7.830836785E-1,-7.444265664E-1,1.086442376E0
1.537940125E1,-7.331122041E-2,4.652313745E-1,-7.599953628E-1,8.940960341E-1
1.538934525E1,-2.056962758E-1,2.497918832E-1,-7.547971880E-1,8.212342771E-1
1.539928925E1,-2.843951207E-1,2.217071217E-1,-7.530699205E-1,8.349544525E-1
1.540923325E1,-4.438732499E-1,3.299250501E-1,-7.490376806E-1,9.310915356E-1
1.541917725E1,-5.519069910E-1,5.273948783E-1,-7.759231782E-1,1.088486777E0
1.542912125E1,-5.216301084E-1,8.186429358E-1,-8.724092531E-1,1.305132994E0
1.543906525E1,-4.317765301E-1,1.035893894E0,-8.199082732E-1,1.389876509E0
1.544900925E1,-1.970476592E-1,1.212525415E0,-8.157052946E-1,1.474591737E0
1.545895325E1,2.713108063E-4,1.303908625E0,-8.613474905E-1,1.562721113E0
1.546889725E1,3.801567256E-1,1.269832807E0,-8.806643522E-1,1.591403215E0
1.547884158E1,8.147247165E-1,1.194393200E0,-8.749761808E-1,1.689951122E0
1.548878558E1,1.114213255E0,1.053765324E0,-8.899356973E-1,1.773098441E0
1.549873058E1,1.355030247E0,9.345394278E-1,-8.091786325E-1,1.834186733E0
1.550867458E1,1.480912614E0,8.335363787E-1,-6.609996629E-1,1.823404952E0
1.551861858E1,1.529938009E0,8.985696959E-1,-4.707815516E-1,1.835694168E0
1.552856258E1,1.388182790E0,1.005876043E0,-2.282951796E-1,1.729438280E0
1.553850658E1,1.120951586E0,1.144247478E0,-7.540587578E-3,1.601840070E0
1.554845058E1,7.544212121E-1,1.246042825E0,2.409228448E-1,1.476420639E0
1.555839458E1,5.620074713E-1,1.343750383E0,4.131759524E-1,1.514011842E0
1.556833858E1,2.751419020E-1,1.374479256E0,5.151326823E-1,1.493404825E0
1.557828258E1,2.525295496E-2,1.323179879E0,5.907792807E-1,1.449297368E0
1.558822658E1,-8.828944802E-2,1.226861619E0,6.555266690E-1,1.393807617E0
1.559817058E1,-1.501120591E-1,1.046284981E0,6.437199712E-1,1.237586883E0
1.560811458E1,-1.513966924E-1,8.185610747E-1,6.648073697E-1,1.065331887E0
1.561805858E1,-1.105486286E-1,6.301895142E-1,7.064863229E-1,9.531436132E-1
1.562800258E1,-8.325674951E-2,5.377754402E-1,7.648543990E-1,9.386886396E-1
1.563794658E1,-1.378077632E-1,5.428040457E-1,8.351917255E-1,1.005570699E0
1.564789158E1,-3.348677015E-1,7.260990536E-1,9.520366359E-1,1.243273891E0
1.565783558E1,-5.517643189E-1,1.047504126E0,1.028188434E0,1.568081698E0
1.566777958E1,-6.852550828E-1,1.319407840E0,1.037410662E0,1.812907184E0
1.567772358E1,-7.342804778E-1,1.416914839E0,9.383822179E-1,1.851317549E0
1.568766758E1,-6.036460787E-1,1.243129742E0,7.930718923E-1,1.593337118E0
1.569761158E1,-2.916959542E-1,8.672748131E-1,6.467090678E-1,1.120484159E0
1.570755558E1,1.133395046E-1,4.283553243E-1,5.881024253E-1,7.363413541E-1
1.571749958E1,4.725883412E-1,3.622233152E-2,6.182775664E-1,7.790500284E-1
1.572744358E1,7.273053342E-1,-2.271573114E-1,7.280508542E-1,1.053865048E0
1.573738758E1,7.362878269E-1,-3.776564562E-1,9.231584803E-1,1.239744225E0
1.574733158E1,6.305005860E-1,-2.638222772E-1,1.088046526E0,1.284904053E0
1.575727558E1,4.041683167E-1,2.723574579E-2,1.254685010E0,1.318456783E0
1.576721958E1,8.776495278E-2,3.448740417E-1,1.416114939E0,1.460144621E0
1.577716358E1,-2.210633433E-1,6.027309895E-1,1.569047695E0,1.695306556E0
1.578710758E1,-3.901958102E-1,6.979879797E-1,1.712801492E0,1.890272187E0
1.579705258E1,-4.159440243E-1,6.627357012E-1,1.876600714E0,2.033189189E0
1.580699658E1,-3.545412433E-1,4.809826040E-1,2.014759748E0,2.101499608E0
1.581694058E1,-2.416829646E-1,2.094577897E-1,2.164558543E0,2.188057793E0
1.582688458E1,-2.182239354E-2,-2.539504230E-2,2.206346254E0,2.206600308E0
1.583682858E1,1.802679044E-1,-1.708106178E-1,2.163593752E0,2.177799511E0
1.584677258E1,3.109882575E-1,-3.653925061E-1,2.095541518E0,2.149771995E0
1.585671658E1,4.698278707E-1,-5.347074062E-1,2.054035642E0,2.173870433E0
1.586666058E1,5.479349774E-1,-6.241581112E-1,2.062624032E0,2.223561105E0
1.587660458E1,5.395266813E-1,-6.316495639E-1,2.165090640E0,2.318984193E0
1.588654858E1,3.760408705E-1,-4.639800704E-1,2.314757141E0,2.390561621E0
1.589649258E1,2.052711833E-1,-1.916793305E-1,2.421694529E0,2.437925679E0
1.590643658E1,9.792741358E-2,2.851394713E-2,2.449861736E0,2.451983962E0
1.591638058E1,6.308268607E-2,-1.524328190E-1,2.451286118E0,2.456831053E0
1.592632458E1,1.291562229E-1,-4.992855585E-1,2.474660947E0,2.527827962E0
1.593626858E1,2.699729633E-1,-7.944945198E-1,2.576372094E0,2.709575633E0
1.594621258E1,3.571567029E-1,-8.749147850E-1,2.650822352E0,2.814230967E0
1.595615758E1,4.279612219E-1,-9.659226036E-1,2.476661865E0,2.692584497E0
1.596610158E1,7.075709814E-1,-1.180938756E0,1.966967093E0,2.400881626E0
1.597604558E1,1.034386482E0,-1.575079098E0,1.144576092E0,2.204741253E0
1.598598958E1,1.269704753E0,-2.096014557E0,2.852435152E-1,2.467142283E0
1.599593358E1,1.399394826E0,-2.635423125E0,-4.505993021E-1,3.017747614E0
1.600587758E1,1.475321506E0,-3.019724942E0,-1.078649905E0,3.529702238E0
1.601582158E1,1.470920307E0,-3.164201455E0,-1.585888846E0,3.832860658E0
1.602576558E1,1.334293681E0,-2.893799890E0,-2.032545955E0,3.779637614E0
1.603570958E1,9.829227984E-1,-2.257939746E0,-2.431715487E0,3.460876961E0
1.604565358E1,7.234678066E-1,-1.326720368E0,-2.596479499E0,3.004213440E0
1.605559758E1,7.921199656E-1,-2.947610646E-1,-2.481999203E0,2.621956935E0
1.606554158E1,7.938852400E-1,6.558693159E-1,-2.311710742E0,2.530696522E0
1.607548558E1,6.137237549E-1,1.262709728E0,-2.166023855E0,2.581230723E0
1.608542958E1,4.262275225E-1,1.451849613E0,-1.945616570E0,2.464743604E0
1.609537358E1,2.705927682E-1,1.450469670E0,-1.886220553E0,2.394767355E0
1.610531858E1,1.710100079E-1,1.200642704E0,-1.910009365E0,2.262503724E0
1.611526258E1,5.736703277E-2,7.810049933E-1,-1.947603307E0,2.099147069E0
1.612520658E1,-1.538016522E-1,3.936690563E-1,-1.997811155E0,2.042028327E0
1.613515058E1,-4.034590495E-1,7.625646293E-2,-1.965920441E0,2.008341961E0
1.614509458E1,-6.606190091E-1,-1.302590078E-1,-1.781903887E0,1.904879615E0
1.615503858E1,-8.748130435E-1,-9.845249355E-2,-1.525445008E0,1.761241956E0
1.616498258E1,-1.052706978E0,9.884776533E-2,-1.218045187E0,1.612946664E0
1.617492658E1,-1.169771159E0,4.865573394E-1,-9.380033914E-1,1.576373361E0
1.618487058E1,-1.199617102E0,8.497507077E-1,-7.379653931E-1,1.644916526E0
1.619481458E1,-9.992154801E-1,1.025641971E0,-6.325984939E-1,1.565424506E0
1.620475858E1,-6.457115328E-1,9.175222760E-1,-6.241130146E-1,1.283864310E0
1.621470258E1,-2.813364422E-1,6.101224548E-1,-6.611493516E-1,9.426123639E-1
1.622464658E1,3.632875085E-2,2.596397638E-1,-6.703376663E-1,7.197813362E-1
1.623459058E1,2.251119554E-1,-6.013451993E-2,-6.771601975E-1,7.161267248E-1
