"Time (s)","Linear Acceleration x (m/s^2)","Linear Acceleration y (m/s^2)","Linear Acceleration z (m/s^2)","Absolute acceleration (m/s^2)"
-1.006041653E-3,7.675011411E-2,1.844702983E-1,-8.352118984E-2,2.165540582E-1
8.938958403E-3,9.535917029E-2,1.987094378E-1,-2.475857288E-2,2.217922428E-1
1.888495823E-2,7.783638060E-2,1.694236583E-1,3.344592735E-2,1.894241489E-1
2.882995829E-2,5.203802660E-2,1.375089705E-1,7.579263255E-2,1.654122013E-1
3.877595812E-2,1.165510878E-2,9.546632051E-2,7.031510711E-2,1.191380468E-1
4.872195842E-2,4.714317620E-4,8.523135424E-2,5.808565557E-2,1.031433438E-1
5.866695801E-2,-8.090938479E-3,1.019175535E-1,4.668884754E-2,1.123943926E-1
6.861295830E-2,-1.831479505E-2,1.474755496E-1,4.635906458E-2,1.556715527E-1
7.855795836E-2,6.706463993E-3,1.984118146E-1,5.380081594E-2,2.056860535E-1
8.850395819E-2,3.558293849E-2,2.515945798E-1,5.208977446E-2,2.593825798E-1
9.844995802E-2,8.170533702E-2,2.558390737E-1,6.919858128E-2,2.773406522E-1
1.083949581E-1,1.701647928E-1,1.952473015E-1,9.641298473E-2,2.763567062E-1
1.183409584E-1,1.895866120E-1,1.098025239E-1,1.195759986E-1,2.495958676E-1
1.282859584E-1,1.837560609E-1,6.793002784E-2,8.681010246E-2,2.142819929E-1
1.382319583E-1,1.988262360E-1,1.782406747E-2,5.384160027E-2,2.067570734E-1
1.481769583E-1,2.125927743E-1,-7.562788725E-2,2.795056790E-2,2.273686418E-1
1.581229581E-1,2.578927620E-1,-2.348674500E-1,7.150560021E-3,3.488875553E-1
1.680689580E-1,2.948313774E-1,-3.832551652E-1,-3.800412431E-2,4.850302838E-1
1.780139580E-1,3.405586503E-1,-4.985032010E-1,-1.335635617E-1,6.183242360E-1
1.879599583E-1,3.980290326E-1,-5.037645257E-1,-2.597561234E-1,6.925886599E-1
1.979049584E-1,4.273286994E-1,-4.338435209E-1,-3.198546830E-1,6.878495738E-1
2.078509582E-1,4.486214814E-1,-3.982760775E-1,-3.717840976E-1,7.057680091E-1
2.177969581E-1,4.109662896E-1,-3.295022964E-1,-4.237440638E-1,6.760355658E-1
2.277419581E-1,3.841392642E-1,-1.917997831E-1,-5.125017276E-1,6.685866825E-1
2.376879584E-1,3.674431247E-1,1.772115648E-2,-6.351146239E-1,7.339612215E-1
2.476329580E-1,3.528679164E-1,2.190507317E-1,-7.391023842E-1,8.478038238E-1
2.575789583E-1,4.226854254E-1,3.418849450E-1,-7.834177007E-1,9.535678152E-1
2.675239583E-1,5.016022253E-1,3.488752913E-1,-7.507487221E-1,9.679578529E-1
2.774699582E-1,5.943237166E-1,2.548842233E-1,-6.274097478E-1,9.010158928E-1
2.874159580E-1,6.684801520E-1,6.857263684E-2,-4.888588035E-1,8.309938929E-1
2.973609581E-1,7.509655076E-1,-4.500952721E-2,-3.745786281E-1,8.404071631E-1
3.073069584E-1,8.811075711E-1,-1.863665503E-1,-3.751083858E-1,9.755969168E-1
3.172519584E-1,9.921767481E-1,-2.522728568E-1,-4.448943199E-1,1.116237990E0
3.271979582E-1,1.078442036E0,-2.839425462E-1,-5.455121836E-1,1.241468541E0
3.371439581E-1,1.068132226E0,-2.808025914E-1,-6.911786047E-1,1.302875439E0
3.470889581E-1,1.007131002E0,-3.202327055E-1,-8.680299810E-1,1.367602972E0
3.570349584E-1,9.529236585E-1,-5.482238299E-1,-9.961041766E-1,1.483521620E0
3.669799580E-1,8.794631879E-1,-9.297482193E-1,-1.054368318E0,1.658185696E0
3.769259583E-1,6.713103506E-1,-1.292781374E0,-1.077306945E0,1.811775792E0
3.868709584E-1,3.383345157E-1,-1.547228810E0,-1.112454413E0,1.935443633E0
3.968169582E-1,-7.728951976E-2,-1.658543424E0,-1.195203039E0,2.045788421E0
4.067629580E-1,-4.554897670E-1,-1.718114272E0,-1.291763374E0,2.197280181E0
4.167079581E-1,-7.494634310E-1,-1.797711250E0,-1.353400043E0,2.371740468E0
4.266539584E-1,-9.319510116E-1,-1.783866797E0,-1.406152161E0,2.455193951E0
4.365989580E-1,-9.201641943E-1,-1.565864471E0,-1.423514298E0,2.307601925E0
4.465449583E-1,-7.235194083E-1,-1.192072440E0,-1.411750285E0,1.984327570E0
4.564909581E-1,-5.393191051E-1,-8.811134183E-1,-1.396338779E0,1.736947880E0
4.664359582E-1,-2.875991026E-1,-6.212497061E-1,-1.387633444E0,1.547317361E0
4.763819580E-1,5.224019408E-2,-3.013204712E-1,-1.312933803E0,1.348079461E0
4.863269581E-1,3.131555280E-1,-1.000639862E-1,-1.199257645E0,1.243502346E0
4.962729583E-1,5.360711961E-1,1.681483805E-2,-1.062902768E0,1.190553384E0
5.062179584E-1,7.665875137E-1,2.802219629E-2,-8.781819168E-1,1.166038223E0
5.161639582E-1,9.759048240E-1,-7.861113667E-2,-6.463858630E-1,1.173194195E0
5.261099581E-1,1.126501106E0,-2.834893870E-1,-4.772574891E-1,1.255844610E0
5.360549581E-1,1.218246624E0,-4.644963795E-1,-2.953576268E-1,1.336831272E0
5.460009584E-1,1.259320682E0,-5.172294939E-1,-1.309454709E-1,1.367684776E0
5.559459580E-1,1.230352699E0,-5.310476339E-1,-5.030798167E-2,1.341010905E0
5.658919583E-1,1.215045054E0,-5.919919932E-1,6.018539071E-3,1.351600986E0
5.758379581E-1,1.195939788E0,-8.022982138E-1,-3.797021046E-2,1.440623524E0
5.857829582E-1,1.088385957E0,-1.055831146E0,-9.491288155E-2,1.519332701E0
5.957289580E-1,8.946446794E-1,-1.255041105E0,-1.255293413E-1,1.546374758E0
6.056739581E-1,5.729594524E-1,-1.325267919E0,-1.544163407E-1,1.452054406E0
6.156199584E-1,2.376436349E-1,-1.251421094E0,-1.907236031E-1,1.287984761E0
6.255649584E-1,4.763478085E-2,-9.717762512E-1,-2.735602301E-1,1.010669755E0
6.355109583E-1,-6.290829286E-2,-5.657450116E-1,-3.823641957E-1,6.857311788E-1
6.454569581E-1,-2.219621334E-2,-1.780810457E-1,-5.667476629E-1,5.944816600E-1
6.554019582E-1,1.664919740E-1,1.560475677E-1,-8.206885841E-1,8.518216791E-1
6.653479580E-1,4.839130458E-1,4.069317108E-1,-1.050110815E0,1.225764242E0
6.752929580E-1,8.808597954E-1,5.342033762E-1,-1.313380676E0,1.669208203E0
6.852389583E-1,1.429258896E0,5.612555194E-1,-1.499782748E0,2.146424245E0
6.951849582E-1,1.995574595E0,6.079531378E-1,-1.624037689E0,2.643751766E0
7.051299582E-1,2.491777502E0,7.366450918E-1,-1.653846940E0,3.080066689E0
7.150759581E-1,2.708876433E0,9.559589481E-1,-1.595565842E0,3.285985300E0
7.250209581E-1,2.672937399E0,1.172127587E0,-1.506712283E0,3.284609463E0
7.349669584E-1,2.375664517E0,1.389499583E0,-1.338858164E0,3.060560761E0
7.449129582E-1,1.871004636E0,1.476099771E0,-1.051085545E0,2.604670748E0
7.548579583E-1,1.342746563E0,1.562614589E0,-6.983212709E-1,2.175404625E0
7.648039581E-1,9.091349568E-1,1.726150686E0,-3.922775652E-1,1.989975941E0
7.747489582E-1,5.692912017E-1,1.914370219E0,-1.351858717E-1,2.001794451E0
7.846949580E-1,2.379702750E-1,2.070681496E0,1.464973104E-1,2.089452840E0
7.946399581E-1,-1.868476665E-1,2.146837386E0,4.363121422E-1,2.198679399E0
8.045859584E-1,-5.852002329E-1,2.180396311E0,6.141330600E-1,2.339603984E0
8.145319582E-1,-8.529641182E-1,2.241275766E0,7.147016609E-1,2.502331575E0
8.244769583E-1,-1.084152719E0,2.263270653E0,7.640924337E-1,2.623283899E0
8.344229581E-1,-1.219630879E0,2.293782009E0,7.689467921E-1,2.709283033E0
8.443679581E-1,-1.161954236E0,2.329883303E0,7.430267429E-1,2.707504865E0
8.543139584E-1,-1.060787319E0,2.361232565E0,7.414351308E-1,2.692659469E0
8.642599583E-1,-9.446764532E-1,2.417857001E0,7.926485538E-1,2.714173504E0
8.742049583E-1,-8.024110651E-1,2.510544725E0,8.207339001E-1,2.760489534E0
8.841509582E-1,-6.571967069E-1,2.609994169E0,8.382737929E-1,2.818985638E0
8.940959582E-1,-5.914444014E-1,2.719464571E0,7.869901302E-1,2.892170033E0
9.040419580E-1,-4.863643813E-1,2.850964358E0,6.020866263E-1,2.954159167E0
9.139869581E-1,-2.033416386E-1,2.970131782E0,3.594680341E-1,2.998707704E0
9.239329584E-1,1.650966821E-1,2.937749317E0,1.889399099E-1,2.948444718E0
9.338789582E-1,5.631015219E-1,2.708534371E0,2.676387548E-2,2.766578766E0
9.438239583E-1,9.981998918E-1,2.271771920E0,-1.784042506E-1,2.487806013E0
9.537699581E-1,1.403919986E0,1.751669104E0,-4.027110444E-1,2.280682390E0
9.637149582E-1,1.725510562E0,1.217812468E0,-6.975231260E-1,2.224183539E0
9.736609580E-1,1.935451039E0,6.913016886E-1,-9.434207636E-1,2.261395915E0
9.836069583E-1,1.885542568E0,8.127045035E-2,-1.155950242E0,2.213164392E0
9.935519584E-1,1.542159859E0,-8.561370367E-1,-1.358545008E0,2.226403422E0
1.003497958E0,1.114582507E0,-2.076498306E0,-1.512027987E0,2.800065716E0
1.013442958E0,6.370948566E-1,-3.668922000E0,-1.552021188E0,4.034308896E0
1.023388958E0,7.921968564E-2,-5.640312511E0,-1.496784881E0,5.836074534E0
1.033333958E0,-4.619023354E-1,-7.773881981E0,-1.433237341E0,7.918381406E0
1.043279958E0,-1.058782893E0,-9.470499550E0,-1.716335111E0,9.682829604E0
1.053225958E0,-1.924527563E0,-9.772440995E0,-2.702552669E0,1.032028102E1
1.063170958E0,-2.424701167E0,-8.343455749E0,-4.003725090E0,9.566725886E0
1.073116958E0,-2.129287700E0,-6.530395558E0,-5.119301623E0,8.566631857E0
1.083061875E0,-1.193413645E0,-5.892829782E0,-5.420892820E0,8.095415859E0
1.093007875E0,6.562182485E-1,-6.628763852E0,-4.662380311E0,8.130739374E0
1.102953875E0,1.757686766E0,-7.513355779E0,-3.581479813E0,8.506878128E0
1.112898875E0,1.553245741E0,-7.296497169E0,-2.255682721E0,7.793558096E0
1.122844875E0,1.280748681E0,-5.303831563E0,-1.337455856E0,5.617805141E0
1.132789875E0,6.967303167E-1,-2.657316855E0,-9.630833419E-1,2.911064328E0
1.142735875E0,2.068170774E-1,-4.219678259E-1,-9.029879983E-1,1.017947678E0
1.152681875E0,-1.957316336E-1,1.523438244E0,-1.028939216E0,1.848753868E0
1.162626875E0,-7.277918956E-1,3.183500190E0,-9.246248889E-1,3.394007320E0
1.172572875E0,-1.262356557E0,4.458683783E0,-2.535785401E-1,4.640873542E0
1.182517875E0,-2.006032341E0,5.230803933E0,9.052856617E-1,5.674946490E0
1.192463875E0,-2.707730086E0,5.342887455E0,2.015877882E0,6.319969321E0
1.202408875E0,-3.276944251E0,4.525648436E0,2.950261189E0,6.318536102E0
1.212354875E0,-3.667647015E0,2.812006114E0,3.870311801E0,6.028127939E0
1.222300875E0,-3.966064051E0,9.605039889E-1,4.778163952E0,6.283556534E0
1.232245875E0,-4.311651160E0,-5.282795620E-1,5.682556890E0,7.152682562E0
1.242191875E0,-4.545148900E0,-1.538012429E0,6.749344549E0,8.281154062E0
1.252136875E0,-4.702478178E0,-1.679125038E0,8.140526376E0,9.549917883E0
1.262082875E0,-5.814295828E0,-8.441432279E-1,9.189002309E0,1.090671248E1
1.272028875E0,-6.621690475E0,4.251674223E-1,8.246980784E0,1.058490643E1
1.281973875E0,-6.336173859E0,1.725357218E0,6.860667933E0,9.496984847E0
1.291919875E0,-5.542416088E0,2.693066731E0,5.547000890E0,8.290971197E0
1.301864875E0,-4.660168310E0,3.256833045E0,4.253916045E0,7.100699394E0
1.311810875E0,-3.860890475E0,3.404319119E0,3.162984649E0,6.041550779E0
1.321755875E0,-3.326535364E0,3.042085864E0,2.366806716E0,5.091355218E0
1.331701875E0,-3.090953969E0,2.168498397E0,1.866999586E0,4.212133567E0
1.341647875E0,-2.523518235E0,1.288393039E0,1.560970936E0,3.234923673E0
1.351592875E0,-1.634037158E0,5.005520654E-1,1.074968498E0,2.018956928E0
1.361538875E0,-8.145412602E-1,-1.714403629E-3,9.229783130E-1,1.231003400E0
1.371483875E0,-2.099910557E-2,-2.847629106E-1,7.994055963E-1,8.488699459E-1
1.381429875E0,7.754748429E-1,-4.975506896E-1,6.076637006E-1,1.103708790E0
1.391375875E0,1.445543830E0,-7.741859704E-1,5.437588960E-1,1.727609509E0
1.401320875E0,2.091563657E0,-1.108768913E0,6.466213596E-1,2.454002081E0
1.411266875E0,2.896358924E0,-1.386173102E0,7.579774886E-1,3.299227297E0
1.421211875E0,3.812725498E0,-1.807578426E0,5.763588774E-1,4.258685835E0
1.431157875E0,4.401906150E0,-2.563407648E0,5.597198944E-1,5.124560750E0
1.441102875E0,4.585091230E0,-3.846789038E0,1.675061077E0,6.215036372E0
1.451048875E0,5.480164291E0,-4.429817249E0,-6.125895412E-1,7.073241652E0
1.460994875E0,6.139468262E0,-3.995974898E0,-3.403630610E0,8.077474064E0
1.470939875E0,5.879061928E0,-2.921565979E0,-4.989520918E0,8.245861744E0
1.480885875E0,4.813424417E0,-1.487942721E0,-5.954229054E0,7.799735367E0
1.490830875E0,3.297778757E0,-1.933697605E-1,-6.451152338E0,7.247765385E0
1.500776875E0,1.728834411E0,1.034027463E0,-6.272209412E0,6.587768373E0
1.510722875E0,4.245316838E-1,1.929019248E0,-5.562147517E0,5.902442495E0
1.520667875E0,-5.427840190E-1,2.294028761E0,-4.515557311E0,5.093863002E0
1.530613875E0,-1.401365923E0,2.305310379E0,-3.401998067E0,4.341874393E0
1.540558875E0,-2.211385092E0,2.048235204E0,-2.353942549E0,3.824465584E0
1.550504875E0,-2.988175705E0,1.602403722E0,-1.460318428E0,3.691804659E0
1.560450875E0,-3.553651452E0,1.086272335E0,-7.144214331E-1,3.784022227E0
1.570395875E0,-3.849768194E0,6.343761206E-1,-3.339929581E-3,3.901686733E0
1.580341875E0,-4.064211320E0,2.388342011E-1,8.094439499E-1,4.150910133E0
1.590286875E0,-4.067236669E0,-8.393853486E-2,1.662659279E0,4.394757750E0
1.600232875E0,-3.837955649E0,-3.577455175E-1,2.409699551E0,4.545826365E0
1.610177875E0,-3.574963092E0,-6.187927061E-1,3.223733711E0,4.853424004E0
1.620123875E0,-3.240134566E0,-8.596108675E-1,4.210925562E0,5.382313345E0
1.630069875E0,-2.783739504E0,-1.080083642E0,5.226539558E0,6.019343989E0
1.640014875E0,-2.220731574E0,-1.027138858E0,6.092160779E0,6.565141728E0
1.649960875E0,-1.598779910E0,-6.635525572E-1,6.642298987E0,6.864148529E0
1.659905875E0,-9.248165314E-1,-7.474495769E-2,6.652325792E0,6.716718758E0
1.669851875E0,-6.238036238E-1,7.096508360E-1,6.113490837E0,6.186073511E0
1.679797875E0,-4.691241583E-1,1.437414007E0,5.053249136E0,5.274614994E0
1.689742875E0,-3.726584025E-1,1.944617865E0,3.975020231E0,4.440855634E0
1.699688875E0,-3.762794369E-1,2.114847854E0,3.083302887E0,3.757781840E0
1.709633875E0,-5.131922838E-1,1.841550749E0,2.443464882E0,3.102450018E0
1.719579875E0,-8.685828352E-1,1.218118277E0,2.098870922E0,2.577500228E0
1.729524875E0,-1.256677302E0,5.349085504E-1,1.909172044E0,2.347403436E0
1.739470875E0,-1.476381606E0,7.342991889E-2,1.791279897E0,2.322450919E0
1.749416875E0,-1.538143699E0,1.399823427E-2,1.723781978E0,2.310304374E0
1.759361875E0,-1.509299823E0,2.421179974E-1,1.636911650E0,2.239662213E0
1.769307875E0,-1.512898053E0,5.431478620E-1,1.532838228E0,2.221140057E0
1.779252875E0,-1.659497690E0,6.986393595E-1,1.410692232E0,2.287374501E0
1.789198875E0,-1.894704132E0,7.157874888E-1,1.247163736E0,2.378586316E0
1.799144875E0,-2.113416017E0,6.810316390E-1,1.051338145E0,2.456754618E0
1.809089875E0,-2.200831599E0,7.323000258E-1,8.111210775E-1,2.457201754E0
1.819035875E0,-2.192610268E0,9.207926238E-1,5.830755010E-1,2.448545667E0
1.828980875E0,-2.232883989E0,1.001952562E0,4.305854523E-1,2.484971564E0
1.838926875E0,-2.251966523E0,9.989587873E-1,3.701766980E-1,2.491245204E0
1.848872875E0,-2.346603855E0,9.633246857E-1,4.453052330E-1,2.575430227E0
1.858817875E0,-2.428920518E0,9.351060230E-1,5.937414801E-1,2.669570584E0
1.868763875E0,-2.466677744E0,9.140887910E-1,7.152331728E-1,2.726099026E0
1.878708875E0,-2.299614460E0,7.949950415E-1,8.118269096E-1,2.565015928E0
1.888654875E0,-1.900782459E0,6.113415992E-1,8.567001966E-1,2.172705165E0
1.898599875E0,-1.442647704E0,4.242248511E-1,8.920172330E-1,1.748397514E0
1.908545875E0,-9.227868167E-1,3.139106959E-1,9.605325671E-1,1.368465654E0
1.918491875E0,-3.941771793E-1,3.186410934E-1,1.007311535E0,1.127645478E0
1.928436875E0,6.178577363E-2,4.090121502E-1,1.052099964E0,1.130496685E0
1.938382875E0,3.924507889E-1,4.501057971E-1,1.057661909E0,1.214603459E0
1.948327875E0,6.361400793E-1,3.146766812E-1,1.056617596E0,1.272845772E0
1.958273875E0,8.271693456E-1,5.569355965E-2,1.105406325E0,1.381750355E0
1.968219875E0,9.532263981E-1,-2.379150188E-1,1.209930567E0,1.558581438E0
1.978164875E0,1.147468271E0,-4.568523145E-1,1.105692692E0,1.657695328E0
1.988110875E0,1.244955828E0,-4.789039189E-1,8.796529301E-1,1.597827667E0
1.998055875E0,1.249326914E0,-3.254875982E-1,6.340879990E-1,1.438341929E0
2.008001875E0,1.289400514E0,-7.007127821E-2,3.529983093E-1,1.338682739E0
2.017946875E0,1.358928586E0,8.686565101E-2,1.185968824E-1,1.366856892E0
2.027892875E0,1.431958555E0,7.908008337E-2,-1.972909033E-2,1.434276194E0
2.037838875E0,1.510251457E0,-5.398558795E-2,-8.208145916E-2,1.513443515E0
2.047783875E0,1.676439851E0,-1.841311598E-1,-5.356283426E-2,1.687371872E0
2.057729875E0,1.888564263E0,-1.645143360E-1,4.229831949E-2,1.896188042E0
2.067674875E0,1.939195450E0,2.220714033E-2,1.469416988E-1,1.944881490E0
2.077621375E0,1.750129094E0,4.131168956E-1,1.904214482E-1,1.808280327E0
2.087567375E0,1.093980281E0,8.436959159E-1,2.425791965E-1,1.402661870E0
2.097512375E0,1.837759414E-1,1.156476345E0,3.474783915E-1,1.221455020E0
2.107458375E0,-4.363475910E-1,1.371812925E0,4.756895582E-1,1.516097120E0
2.117403375E0,-8.020969234E-1,1.433078297E0,5.916889612E-1,1.745614134E0
2.127349375E0,-1.241858704E0,1.348290746E0,6.720682959E-1,1.952377210E0
2.137294375E0,-1.806600772E0,1.316684207E0,7.747665989E-1,2.365951591E0
2.147240375E0,-2.365157947E0,1.470923231E0,9.142587988E-1,2.931459776E0
2.157186375E0,-2.639264161E0,1.900227558E0,1.055152138E0,3.419053395E0
2.167131375E0,-2.757316229E0,2.520172750E0,1.187971641E0,3.919864806E0
2.177077375E0,-2.836842747E0,3.223084086E0,1.352012499E0,4.501542579E0
2.187022375E0,-2.854445790E0,3.879808849E0,1.449919593E0,5.030213147E0
2.196968375E0,-2.888607563E0,4.357221728E0,1.411004473E0,5.414828572E0
2.206914375E0,-3.182169363E0,4.667113633E0,1.111556865E0,5.757057424E0
2.216859375E0,-3.534863179E0,4.727092032E0,9.155938643E-1,5.973187499E0
2.226805375E0,-3.846682034E0,4.445497727E0,1.038449128E0,5.969739467E0
2.236750375E0,-4.263496708E0,3.631092269E0,1.195098959E0,5.726298697E0
2.246696375E0,-4.855585765E0,2.322120540E0,1.443760429E0,5.572557860E0
2.256642375E0,-5.273438321E0,5.414954388E-1,1.397489657E0,5.482275657E0
2.266587375E0,-5.207239069E0,-1.522721960E0,1.147652166E0,5.545369815E0
2.276533375E0,-4.293031872E0,-3.724999722E0,7.715686105E-1,5.735944883E0
2.286478375E0,-2.741917294E0,-5.857838289E0,4.750155205E-1,6.485215464E0
2.296424375E0,-8.342941048E-1,-7.846120237E0,4.384682299E-1,7.902525154E0
2.306369375E0,6.879790083E-1,-9.689768382E0,2.406310505E-1,9.717141026E0
2.316315375E0,1.493818150E0,-1.125861727E1,1.575473785E-2,1.135729738E1
2.326261375E0,2.543781761E0,-1.144011017E1,-8.857559614E-1,1.175293623E1
2.336206375E0,3.554096425E0,-9.492507300E0,-3.364548697E0,1.067986349E1
2.346152375E0,2.636188233E0,-7.316856004E0,-6.375151398E0,1.005626300E1
2.356097375E0,1.332609099E0,-5.673528789E0,-7.176757886E0,9.245032704E0
2.366043375E0,1.537251852E0,-4.748788710E0,-6.047720770E0,7.841496285E0
2.375989375E0,1.862421216E0,-3.932678788E0,-4.638464615E0,6.360025882E0
2.385934375E0,1.885142911E0,-3.039766273E0,-3.497357676E0,5.002544703E0
2.395880375E0,1.749595097E0,-2.279117777E0,-2.717746074E0,3.954946848E0
2.405825375E0,1.634388430E0,-1.475805656E0,-1.928266857E0,2.927019123E0
2.415771375E0,1.721642921E0,-5.104525709E-1,-1.203561926E0,2.161753336E0
2.425716375E0,1.807275248E0,4.417694217E-1,-6.207997629E-1,1.961325162E0
2.435662375E0,1.653125394E0,1.177713432E0,-2.863267484E-1,2.049833043E0
2.445608375E0,7.761137243E-1,1.551549903E0,-9.699010491E-2,1.737546170E0
2.455553375E0,8.525759362E-2,1.509905448E0,-1.643932986E-1,1.521219404E0
2.465499375E0,-1.703630134E-2,1.039490517E0,-3.275803167E-1,1.090018181E0
2.475444375E0,4.289178995E-1,5.458995616E-1,-3.993174666E-1,8.008940848E-1
2.485390375E0,1.085943064E0,1.528924102E-1,-3.218203707E-1,1.142898411E0
2.495336375E0,1.581718904E0,-1.308677030E-1,-7.178948253E-2,1.588746291E0
2.505281375E0,2.085506234E0,-3.026992446E-1,-9.354638726E-2,2.109434524E0
2.515227375E0,2.655779622E0,-3.729740059E-1,-4.956304640E-1,2.727255867E0
2.525172375E0,2.995523316E0,-5.535681850E-1,-1.032142029E0,3.216351169E0
2.535118375E0,3.121650681E0,-7.474793977E-1,-1.595934509E0,3.584750393E0
2.545063375E0,2.897806695E0,-7.932303518E-1,-2.186673882E0,3.715917208E0
2.555009375E0,2.325528151E0,-6.083320373E-1,-2.707756983E0,3.620786783E0
2.564955375E0,1.745029737E0,-1.931604302E-1,-3.148376258E0,3.604817997E0
2.574900375E0,1.278979021E0,1.747475481E-1,-3.663327969E0,3.884108115E0
2.584846375E0,1.136521260E0,3.085499686E-1,-4.303670003E0,4.461889640E0
2.594791375E0,1.458467638E0,4.508226657E-1,-4.987411242E0,5.215806728E0
2.604737375E0,2.006742339E0,8.960226488E-1,-5.689408658E0,6.099118155E0
2.614683375E0,2.331137677E0,1.546109068E0,-6.140769852E0,6.747867107E0
2.624628375E0,2.391375400E0,2.239277188E0,-6.037256008E0,6.868879002E0
2.634574375E0,2.056113889E0,2.907274799E0,-5.480351987E0,6.535603184E0
2.644519375E0,1.248899775E0,3.548741838E0,-4.602586684E0,5.944503635E0
2.654465375E0,3.017601818E-1,4.110877363E0,-3.402049230E0,5.344558997E0
2.664410375E0,-4.531410867E-1,4.604771789E0,-1.952311047E0,5.022029320E0
2.674356375E0,-1.051414890E0,4.627197615E0,-5.429332691E-1,4.776107994E0
2.684302375E0,-9.558775257E-1,3.821557717E0,1.102837497E0,4.090752471E0
2.694247375E0,1.088060121E-1,2.284700698E0,3.287657812E0,4.005045557E0
2.704193375E0,7.182287014E-1,9.308942735E-2,5.253821497E0,5.303504354E0
2.714138375E0,-1.154857251E-1,-2.196180870E0,6.192244061E0,6.571182076E0
2.724084375E0,-1.997608403E0,-3.681699336E0,6.104965596E0,7.403779728E0
2.734030375E0,-3.986981295E0,-3.974225594E0,5.495507385E0,7.867089064E0
2.743975375E0,-4.744483990E0,-3.160384392E0,4.341200649E0,7.165485393E0
2.753921375E0,-3.747273813E0,-1.815124258E0,2.608323327E0,4.913256321E0
2.763866375E0,-2.182596619E0,-7.850734860E-1,9.049376062E-1,2.489775180E0
2.773812375E0,-9.893747623E-1,-2.696677387E-1,-1.425529249E-1,1.035328183E0
2.783757375E0,-9.099056929E-2,-7.502036154E-2,-6.924147061E-1,7.023855519E-1
2.793703375E0,4.677236040E-1,-1.204491341E-1,-1.122246745E0,1.221765575E0
2.803649375E0,6.256636231E-1,-5.404411858E-1,-1.675318501E0,1.868214047E0
2.813594375E0,6.056465574E-1,-1.357714119E0,-2.119379739E0,2.588815532E0
2.823540375E0,4.676364805E-1,-2.291784015E0,-2.408724820E0,3.357515913E0
2.833485375E0,2.401214656E-1,-3.077196640E0,-2.555336736E0,4.007061681E0
2.843431375E0,1.731307930E-1,-3.532840335E0,-2.480693227E0,4.320274759E0
2.853377375E0,5.074001782E-1,-3.491452573E0,-2.189446924E0,4.152273334E0
2.863322375E0,1.411326801E0,-2.873328788E0,-2.149899281E0,3.856154637E0
2.873268375E0,2.706977257E0,-1.953924294E0,-2.565396870E0,4.210321498E0
2.883213375E0,3.715775447E0,-1.007313289E0,-3.323928090E0,5.086272228E0
2.893159375E0,4.049321385E0,2.147565365E-2,-3.880945548E0,5.608850437E0
2.903104375E0,4.254862125E0,9.814662570E-1,-4.123285155E0,6.005714627E0
2.913050375E0,4.561675763E0,1.737352197E0,-4.169727542E0,6.419805776E0
2.922996375E0,4.822169513E0,2.233772619E0,-3.964573888E0,6.630302032E0
2.932941375E0,5.101275242E0,2.375428435E0,-3.597956975E0,6.679143937E0
2.942887375E0,5.298308283E0,2.235167765E0,-3.185901641E0,6.574040985E0
2.952832375E0,4.988996422E0,1.866990230E0,-2.680914755E0,5.963475643E0
2.962778375E0,3.908452020E0,1.311263838E0,-2.084933207E0,4.619778839E0
2.972724375E0,2.596921549E0,7.815850371E-1,-1.331170684E0,3.021074658E0
2.982669375E0,1.431728759E0,2.454742992E-1,-6.752197990E-1,1.601882221E0
2.992615375E0,2.559757523E-1,-2.536855441E-1,-9.596538037E-2,3.729467728E-1
3.002560375E0,-9.324114798E-1,-7.670313174E-1,3.364596060E-1,1.253368771E0
3.012506375E0,-1.817132776E0,-1.390951447E0,4.287801245E-1,2.328211728E0
3.022452375E0,-2.397650924E0,-2.197250910E0,4.636634436E-1,3.285060929E0
3.032397375E0,-2.684282751E0,-2.901710588E0,4.801207244E-1,3.981935979E0
3.042343375E0,-2.466470752E0,-3.141411347E0,4.656333706E-1,4.021039375E0
3.052288375E0,-1.370557820E0,-2.606042036E0,3.733648923E-1,2.968043998E0
3.062234375E0,-1.228707585E-1,-1.770894749E0,7.880497187E-2,1.776900577E0
3.072179375E0,9.775812207E-1,-1.521182388E0,-8.640722930E-3,1.808241014E0
3.082124958E0,2.179714087E0,-1.738191272E0,1.883291683E-1,2.794267395E0
3.092070958E0,2.927627787E0,-2.036270632E0,2.073601010E-1,3.572170314E0
3.102015958E0,3.030261624E0,-2.332658392E0,1.193387479E-1,3.825966861E0
3.111961958E0,2.937073379E0,-2.545680644E0,-1.945573300E-2,3.886806980E0
3.121906958E0,2.842555477E0,-2.497196701E0,-1.974093094E-1,3.788810293E0
3.131852958E0,2.686910782E0,-2.215086672E0,-3.940900558E-1,3.504483627E0
3.141798958E0,2.285992933E0,-1.825042305E0,-6.857053185E-1,3.004452511E0
3.151743958E0,1.740801761E0,-1.366734034E0,-1.058026483E0,2.453114904E0
3.161689958E0,1.143310170E0,-8.268226057E-1,-1.455616097E0,2.027217795E0
3.171634958E0,6.681921767E-1,-4.560190862E-1,-1.738086899E0,1.917128129E0
3.181580958E0,2.312717047E-1,-1.412810093E-1,-1.904360662E0,1.923547883E0
3.191525958E0,-1.713725352E-1,1.284007627E-1,-1.994381471E0,2.005844648E0
3.201471958E0,-4.604424318E-1,3.303600830E-1,-2.034893905E0,2.112330045E0
3.211417958E0,-6.371735747E-1,5.058063734E-1,-2.104037522E0,2.255837792E0
3.221362958E0,-7.260774189E-1,6.946398640E-1,-2.075204317E0,2.305685563E0
3.231308958E0,-7.247391374E-1,8.096540111E-1,-2.017591701E0,2.291607014E0
3.241253958E0,-7.487904896E-1,8.583192176E-1,-1.993614609E0,2.296061472E0
3.251199958E0,-6.672699246E-1,8.660761338E-1,-1.930758210E0,2.218820472E0
3.261145958E0,-4.602439919E-1,8.894720131E-1,-1.847211731E0,2.101232061E0
3.271090958E0,-1.561570568E-1,9.047449404E-1,-1.806743151E0,2.026639891E0
3.281036958E0,1.395543996E-1,8.253046685E-1,-1.860317972E0,2.039947594E0
3.290981958E0,1.691084568E-1,7.046391875E-1,-2.120831603E0,2.241214122E0
3.300927958E0,1.234311775E-1,7.305651569E-1,-2.501668359E0,2.609081310E0
3.310872958E0,1.678144680E-1,8.440987891E-1,-2.831067160E0,2.958987281E0
3.320818958E0,2.177132907E-1,1.118332618E0,-2.942273600E0,3.155160988E0
3.330764958E0,2.427566230E-1,1.516639102E0,-2.718914640E0,3.122758678E0
3.340709958E0,2.127294895E-1,2.054434422E0,-2.282247353E0,3.078085056E0
3.350655958E0,2.241794707E-1,2.651542144E0,-1.833486269E0,3.231501830E0
3.360600958E0,4.638814717E-1,3.152227526E0,-1.323935485E0,3.450294127E0
3.370546958E0,8.181821752E-1,3.574405267E0,-7.471099998E-1,3.742187654E0
3.380492958E0,1.090565653E0,3.771106771E0,-2.105213982E-1,3.931271929E0
3.390437958E0,1.325891671E0,3.764111747E0,1.890159237E-1,3.995278837E0
3.400383958E0,1.338653804E0,3.573417088E0,4.475201583E-1,3.842079903E0
3.410328958E0,1.082698809E0,3.161311761E0,7.919936657E-1,3.434149491E0
3.420274958E0,7.873648636E-1,2.564619191E0,1.272281621E0,2.969160747E0
3.430219958E0,7.797498154E-1,1.863032835E0,1.371855025E0,2.441492848E0
3.440165958E0,1.040669023E0,1.175852848E0,1.315687841E0,2.048574244E0
3.450111958E0,1.819711106E0,5.848192137E-1,1.080323963E0,2.195555029E0
3.460056958E0,2.971649719E0,-2.101080000E-2,7.555487014E-1,3.066267658E0
3.470002958E0,4.215698936E0,-1.000399541E0,5.449681002E-1,4.366910463E0
3.479947958E0,5.393325537E0,-2.504296975E0,2.375244248E-1,5.951124393E0
3.489893958E0,6.018708640E0,-4.227452132E0,-7.842152609E-1,7.396701887E0
3.499839958E0,5.022080553E0,-5.821047608E0,-2.265417312E0,8.014861442E0
3.509784958E0,2.559105559E0,-7.381875288E0,-3.388380779E0,8.515998375E0
3.519730958E0,-5.546255077E-1,-8.640282050E0,-3.930514149E0,9.508471215E0
3.529675958E0,-3.796246875E0,-8.636408270E0,-4.831257255E0,1.059906056E1
3.539621958E0,-6.663989818E0,-6.925917597E0,-6.209426104E0,1.144264250E1
3.549566958E0,-6.053397832E0,-4.949320725E0,-5.642880608E0,9.642691663E0
3.559512958E0,-3.170378161E0,-4.118475235E0,-3.224864563E0,6.116607507E0
3.569458958E0,-2.205987674E0,-4.637358322E0,-9.265155861E-1,5.218228143E0
3.579403958E0,-2.950355330E0,-6.331509535E0,1.075999362E0,7.067558573E0
3.589349958E0,-4.423077748E0,-7.760160320E0,3.210476904E0,9.491620879E0
3.599294958E0,-5.489484753E0,-7.750083813E0,4.889130949E0,1.068184644E1
3.609240958E0,-4.227576093E0,-5.058951926E0,4.325937370E0,7.885374331E0
3.619186958E0,-1.662703718E0,-9.448685342E-1,2.247285973E0,2.950873506E0
3.629131958E0,-4.086439218E-1,2.550474191E0,8.811327142E-1,2.729157986E0
3.639077958E0,-1.533913604E-1,5.009742343E0,2.737401782E-1,5.019559835E0
3.649022958E0,-5.974221562E-1,6.073474832E0,1.735633408E-1,6.105254622E0
3.658968958E0,-1.474440477E0,6.129710428E0,2.891689338E-1,6.311176065E0
3.668913958E0,-2.093319137E0,5.406416284E0,2.962367557E-1,5.805090719E0
3.678859958E0,-2.421862344E0,3.873602614E0,4.100545625E-1,4.586759114E0
3.688805958E0,-2.877065159E0,1.835723414E0,8.899174248E-1,3.526944486E0
3.698750958E0,-3.353862326E0,-2.010857463E-3,1.725906272E0,3.771889315E0
3.708696958E0,-3.715285742E0,-1.390978344E0,2.566216650E0,4.724789603E0
3.718641958E0,-3.822327211E0,-1.924083613E0,3.241492290E0,5.368384796E0
3.728587958E0,-3.441311822E0,-1.305320143E0,3.665442907E0,5.194416178E0
3.738533958E0,-2.527741679E0,1.760304272E-1,3.669664012E0,4.459472913E0
3.748478958E0,-2.058701866E0,1.723149894E0,3.461961556E0,4.380944733E0
3.758424958E0,-2.170264402E0,2.593424914E0,3.063454514E0,4.562965474E0
3.768369958E0,-2.492998400E0,2.946103234E0,2.813145152E0,4.775808930E0
3.778315958E0,-2.481476462E0,3.260521469E0,2.809018772E0,4.967827708E0
3.788261958E0,-1.910410923E0,3.458025210E0,2.966070891E0,4.940160400E0
3.798206958E0,-1.281663770E0,3.297910320E0,3.106711046E0,4.708559017E0
3.808152958E0,-9.434489764E-1,2.857030259E0,3.056957672E0,4.289254957E0
3.818097958E0,-7.109774230E-1,2.214047037E0,3.031927496E0,3.821004779E0
3.828043958E0,-3.947658478E-1,1.653190298E0,3.181582303E0,3.607124088E0
3.837988958E0,5.879609227E-2,1.225051906E0,3.397707673E0,3.612288275E0
3.847934958E0,3.355237591E-1,8.784254533E-1,3.667491771E0,3.786119829E0
3.857880958E0,4.909241863E-1,7.347424078E-1,3.975067009E0,4.072101507E0
3.867825958E0,7.424288651E-1,6.613955194E-1,4.132693909E0,4.250623907E0
3.877771958E0,1.075841195E0,4.464267290E-1,3.947954639E0,4.116196902E0
3.887716958E0,1.485922801E0,1.691482544E-2,3.622302150E0,3.915268259E0
3.897662958E0,1.864119247E0,-7.575401169E-1,3.154421402E0,3.741548072E0
3.907608958E0,2.211162460E0,-1.753746620E0,2.675966549E0,3.889172611E0
3.917553958E0,2.586440707E0,-2.528095143E0,2.184471821E0,4.225264219E0
3.927499958E0,2.956997182E0,-2.576312453E0,1.747658499E0,4.293661423E0
3.937444958E0,3.394290268E0,-1.912297381E0,1.288434554E0,4.103431648E0
3.947390958E0,3.748755789E0,-1.433598699E0,1.022674948E0,4.141767648E0
3.957335958E0,3.356152096E0,-2.669598346E0,2.511244052E0,4.969593435E0
3.967281958E0,3.321326372E0,-5.357195592E0,2.851825653E0,6.918356960E0
3.977227958E0,3.934049083E0,-6.613301475E0,-1.002273574E0,7.759964620E0
3.987172958E0,3.228937148E0,-6.430559029E0,-4.106284668E0,8.284907863E0
3.997118958E0,1.263393999E0,-5.216830257E0,-5.779766850E0,7.887787216E0
4.007063958E0,-2.055755308E0,-3.414748798E0,-6.843471272E0,7.919579426E0
4.017009958E0,-6.743502595E0,-2.369344407E-1,-8.817207102E0,1.110288729E1
4.026955958E0,-5.841336862E0,2.579825460E0,-7.814446455E0,1.009169407E1
4.036900958E0,-1.049239726E0,3.936615134E0,-5.635068144E0,6.953548425E0
4.046846958E0,1.386088756E0,5.175000445E0,-4.587046247E0,7.052862179E0
4.056791958E0,1.943872053E0,6.067477342E0,-4.119233034E0,7.586896642E0
4.066737958E0,1.575414875E0,5.780314735E0,-3.700518892E0,7.041861297E0
4.076682958E0,8.526797242E-1,4.541327160E0,-3.080544171E0,5.553419440E0
4.086629125E0,2.032058005E-1,2.754656623E0,-2.368153914E0,3.638348344E0
4.096575125E0,-5.148451455E-1,6.428703707E-1,-1.426869723E0,1.647514809E0
4.106520125E0,-1.709158823E0,-1.692663682E0,1.253420842E-1,2.408743419E0
4.116466125E0,-3.111031261E0,-3.602215794E0,1.764699039E0,5.076281792E0
4.126411125E0,-4.010249121E0,-4.528200746E0,3.111489975E0,6.802063648E0
4.136357125E0,-4.462519849E0,-4.419041415E0,4.412845706E0,7.675624903E0
4.146303125E0,-4.304048903E0,-3.180575413E0,6.251003315E0,8.228969520E0
4.156248125E0,-3.058334692E0,-1.171743425E0,8.210900540E0,8.839981980E0
4.166194125E0,-1.704783352E0,6.939990091E-1,9.301689849E0,9.482054363E0
4.176139125E0,-8.639375147E-1,1.952575341E0,9.446314881E0,9.684616839E0
4.186085125E0,-6.739271258E-1,2.447323460E0,8.375700220E0,8.751909738E0
4.196030125E0,-1.533813251E0,2.644763467E0,6.578217012E0,7.253984832E0
4.205976125E0,-2.876672226E0,3.051226816E0,4.805789123E0,6.378153124E0
4.215922125E0,-3.501626728E0,3.393642688E0,3.171375403E0,5.816856745E0
4.225867125E0,-3.469198070E0,3.546569012E0,2.042038325E0,5.365017011E0
4.235813125E0,-2.930713070E0,3.271066922E0,1.555618980E0,4.659281953E0
4.245758125E0,-2.604513574E0,2.387858446E0,1.387796874E0,3.796226953E0
4.255704125E0,-2.657413918E0,1.153654479E0,1.322947159E0,3.184800869E0
4.265650125E0,-2.660096036E0,-1.010299462E-1,1.315407175E0,2.969278365E0
4.275595125E0,-2.495086441E0,-1.146878725E0,1.425009724E0,3.093774373E0
4.285541125E0,-1.984802416E0,-1.774856238E0,1.595827943E0,3.104226493E0
4.295486125E0,-1.161437708E0,-1.876213043E0,1.786316196E0,2.839020691E0
4.305432125E0,-2.889629656E-1,-1.566016499E0,1.767071840E0,2.378749704E0
4.315377125E0,3.201137146E-1,-1.052654353E0,1.541854634E0,1.894167282E0
4.325323125E0,5.738160695E-1,-5.623705834E-1,1.173464188E0,1.422161648E0
4.335269125E0,6.332280198E-1,-2.227303845E-1,7.533540221E-1,1.009023702E0
4.345214125E0,5.699452128E-1,-2.133064270E-2,4.105640012E-1,7.027484194E-1
4.355160125E0,4.336485162E-1,1.161227793E-1,7.522735298E-2,4.551864345E-1
4.365105125E0,3.093099605E-1,1.647534871E-1,-1.814233142E-1,3.946273965E-1
4.375051125E0,2.365055475E-1,1.444233030E-1,-5.207449861E-1,5.898883835E-1
4.384997125E0,1.949113789E-1,1.496296638E-1,-7.981980000E-1,8.351643726E-1
4.394942125E0,2.070624778E-1,1.541156477E-1,-1.010282359E0,1.042735320E0
4.404888125E0,2.564308119E-1,1.927195501E-1,-1.133172706E0,1.177700287E0
4.414833125E0,2.616462359E-1,1.312770081E-1,-1.178802769E0,1.214606262E0
4.424779125E0,1.781151058E-1,5.658584476E-2,-1.105686991E0,1.121369998E0
4.434724125E0,-9.764850140E-5,5.631804228E-2,-8.714052862E-1,8.732232843E-1
4.444670125E0,-2.549042501E-1,1.299531984E-1,-6.335231580E-1,6.951371103E-1
4.454616125E0,-4.509539357E-1,2.357065254E-1,-4.717453189E-1,6.938736659E-1
4.464561125E0,-4.932687736E-1,4.142068166E-1,-4.071359248E-1,7.619980519E-1
4.474507125E0,-4.469425996E-1,6.449320990E-1,-3.956955551E-1,8.787889803E-1
4.484452125E0,-3.663065721E-1,7.812540847E-1,-3.819389570E-1,9.436184698E-1
4.494398125E0,-3.301111378E-1,7.535189867E-1,-3.168894137E-1,8.815799040E-1
4.504344125E0,-4.215412715E-1,5.917417324E-1,-1.612112439E-1,7.442072202E-1
4.514289125E0,-5.202674147E-1,4.187354851E-1,6.650973916E-2,6.711491151E-1
4.524235125E0,-6.294603664E-1,3.819255084E-1,3.459405738E-1,8.134877549E-1
4.534180125E0,-6.670557703E-1,5.349442184E-1,6.528539068E-1,1.075800605E0
4.544126125E0,-7.057530820E-1,7.382384580E-1,9.452338390E-1,1.391599958E0
4.554071125E0,-6.740768145E-1,8.983732295E-1,1.225797426E0,1.662538222E0
4.564017125E0,-6.101550530E-1,9.852938443E-1,1.566341604E0,1.948465850E0
4.573963125E0,-5.597270572E-1,9.757810092E-1,2.086929154E0,2.370804979E0
4.583908125E0,-4.811147511E-1,8.950128347E-1,2.895083939E0,3.068229195E0
4.593854125E0,-6.809141099E-2,7.387734783E-1,3.627928340E0,3.703010496E0
4.603799125E0,4.060742167E-1,6.020187986E-1,4.093031661E0,4.156949733E0
4.613745125E0,5.117822278E-1,4.362426335E-1,4.609548964E0,4.658344162E0
4.623691125E0,2.373846763E-1,3.600791413E-1,4.840164319E0,4.859341427E0
4.633636125E0,-1.909186077E-1,4.845324486E-1,4.815067484E0,4.843149439E0
4.643582125E0,-6.551349056E-1,7.923719805E-1,4.782627132E0,4.891888938E0
4.653527125E0,-1.185001402E0,1.114886854E0,4.337951059E0,4.633035766E0
4.663473125E0,-1.661241914E0,1.467483314E0,3.347117563E0,4.014527114E0
4.673418125E0,-2.028299707E0,1.901409865E0,2.753121729E0,3.912676633E0
4.683364125E0,-2.358438473E0,2.298504220E0,2.453384684E0,4.106634886E0
4.693310125E0,-2.777143260E0,2.544057457E0,2.092677552E0,4.308602136E0
4.703255125E0,-3.072912970E0,2.837372505E0,1.770215157E0,4.541710972E0
4.713201125E0,-3.389739672E0,3.087045690E0,1.380660932E0,4.788153166E0
4.723146125E0,-3.772623539E0,3.412585913E0,1.032444476E0,5.190796911E0
4.733092125E0,-4.151302966E0,3.663764756E0,6.331854813E-1,5.572917759E0
4.743038125E0,-4.448712527E0,3.757848794E0,1.782623094E-1,5.826169252E0
4.752983125E0,-4.827688115E0,3.561154892E0,-7.671020687E-2,5.999523410E0
4.762929125E0,-5.275104777E0,2.864017097E0,-6.551658958E-3,6.002446774E0
4.772874125E0,-5.435731884E0,1.647017977E0,-7.485956311E-2,5.680268769E0
4.782820125E0,-4.824517754E0,-3.000937253E-1,-1.286806104E0,5.002189296E0
4.792765125E0,-3.754050151E0,-3.182562296E0,-3.741008229E0,6.181968770E0
4.802711125E0,-2.913418761E0,-6.330058841E0,-6.112600890E0,9.269387436E0
4.812657125E0,-1.971819551E0,-8.137924950E0,-6.601710539E0,1.066285501E1
4.822602125E0,-4.979015591E-1,-8.005332903E0,-5.091502790E0,9.500350599E0
4.832548125E0,8.035083682E-1,-7.215911427E0,-3.215197653E0,7.940560394E0
4.842493125E0,1.013743618E0,-6.909282269E0,-1.542393309E0,7.151561698E0
4.852439125E0,5.493199270E-1,-6.799969742E0,-3.426873292E-1,6.830722910E0
4.862385125E0,3.888660072E-1,-6.372403792E0,2.598185425E-1,6.389542435E0
4.872330125E0,6.337353388E-1,-5.519388583E0,5.275058292E-1,5.580639140E0
4.882276125E0,8.160003597E-1,-4.709944487E0,5.955533861E-1,4.817065237E0
4.892221125E0,9.162997694E-1,-4.153712311E0,4.435633475E-1,4.276643505E0
4.902167125E0,9.854714535E-1,-3.580360656E0,1.019089289E-1,3.714905362E0
4.912112125E0,1.134562150E0,-2.958322161E0,-4.624915154E-1,3.201999326E0
4.922058125E0,1.376758500E0,-2.446349899E0,-1.126079594E0,3.024590393E0
4.932004125E0,1.639364264E0,-2.182903597E0,-1.630262342E0,3.179675866E0
4.941949125E0,2.346200251E0,-2.060991490E0,-2.040650342E0,3.730495323E0
4.951895125E0,3.133790086E0,-1.830759712E0,-2.376921814E0,4.338441971E0
4.961840125E0,3.414148289E0,-1.283710588E0,-2.455234743E0,4.396873782E0
4.971786125E0,3.293327272E0,-5.925650203E-1,-2.336821317E0,4.081405602E0
4.981732125E0,3.177611751E0,1.889065808E-1,-2.135416313E0,3.833132527E0
4.991677125E0,2.904640043E0,9.439984685E-1,-1.751052223E0,3.520546943E0
5.001623125E0,2.108598350E0,1.496613557E0,-1.249559925E0,2.871835502E0
5.011568125E0,1.420364111E0,1.832633745E0,-8.391549683E-1,2.465798392E0
5.021514125E0,1.221590135E0,2.078890402E0,-6.488335074E-1,2.497008746E0
5.031459125E0,1.278672920E0,2.286993392E0,-4.899354221E-1,2.665591853E0
5.041405125E0,1.386697305E0,2.467837831E0,-4.195231050E-1,2.861669550E0
5.051351125E0,1.473057903E0,2.569126225E0,-4.449631709E-1,2.994712234E0
5.061296125E0,1.585696326E0,2.478470408E0,-5.926246619E-1,3.001408402E0
5.071242125E0,1.778244261E0,2.203132040E0,-8.756562120E-1,2.963564954E0
5.081187458E0,2.002158122E0,1.783308388E0,-1.200322276E0,2.937618001E0
5.091133458E0,2.168374874E0,1.308017464E0,-1.541374870E0,2.964556589E0
5.101079458E0,2.209721413E0,6.879032868E-1,-1.859187998E0,2.968612415E0
5.111024458E0,2.214557792E0,-1.025496376E-1,-2.077107878E0,3.037953222E0
5.120970458E0,2.275431107E0,-9.318514627E-1,-2.307874676E0,3.372272141E0
5.130915458E0,2.362853852E0,-1.522956433E0,-2.524404380E0,3.778239285E0
5.140861458E0,2.396292470E0,-1.704779112E0,-2.861071855E0,4.102952788E0
5.150807458E0,2.201424361E0,-1.512339059E0,-3.467770472E0,4.377084726E0
5.160752458E0,1.806237659E0,-9.054910451E-1,-4.107001829E0,4.577103072E0
5.170698458E0,1.396779074E0,-2.638556063E-2,-4.543131026E0,4.753075583E0
5.180643458E0,1.099749875E0,9.809920478E-1,-4.536740604E0,4.770095439E0
5.190589458E0,8.932892217E-1,1.915146729E0,-4.104980154E0,4.616991952E0
5.200534458E0,7.742592068E-1,2.442901796E0,-3.232003428E0,4.124693039E0
5.210480458E0,7.402710964E-1,2.533604389E0,-1.967741264E0,3.292287682E0
5.220426458E0,6.491697223E-1,2.230313407E0,-4.828238922E-1,2.372517256E0
5.230371458E0,8.063858561E-1,1.645949691E0,1.044056315E0,2.109374818E0
5.240317458E0,8.864006169E-1,5.938648564E-1,2.433177876E0,2.656828202E0
5.250262458E0,5.085659668E-1,-8.109398139E-1,3.404539559E0,3.536545254E0
5.260208458E0,-3.542430353E-1,-2.027505071E0,3.688725350E0,4.224092760E0
5.270154458E0,-1.309967949E0,-2.688321716E0,3.527667303E0,4.624664990E0
5.280099458E0,-1.965657024E0,-2.705857515E0,2.946029559E0,4.456967870E0
5.290045458E0,-2.139464632E0,-2.152024451E0,1.943960492E0,3.603817496E0
5.299990458E0,-1.815021932E0,-1.167787199E0,9.287384051E-1,2.349592854E0
5.309936458E0,-1.223351535E0,-1.863577795E-1,1.917234769E-1,1.252228451E0
5.319881458E0,-3.964885837E-1,5.707923281E-1,-4.079327542E-1,8.058636428E-1
5.329827458E0,4.813623807E-1,9.761628324E-1,-1.000887199E0,1.478640863E0
5.339773458E0,1.199810937E0,8.425919616E-1,-1.438772315E0,2.054159992E0
5.349718458E0,1.734350528E0,2.797588634E-1,-1.671113476E0,2.424635442E0
5.359664458E0,2.191824402E0,-5.306149399E-1,-1.751406856E0,2.855358541E0
5.369609458E0,2.511789597E0,-1.581930866E0,-1.781549253E0,3.462009530E0
5.379555458E0,2.143448633E0,-2.946503769E0,-1.537252291E0,3.954668267E0
5.389501458E0,1.256691920E0,-4.325637993E0,-1.117920097E0,4.641138219E0
5.399446458E0,2.881697908E-1,-4.965705793E0,-8.541147771E-1,5.046859212E0
5.409392458E0,-3.511426954E-1,-4.224427367E0,-8.070666182E-1,4.315141284E0
5.419337458E0,1.952740525E-1,-2.219901854E0,-1.290304786E0,2.575069443E0
5.429283458E0,1.316386876E0,-3.156952661E-1,-2.001836963E0,2.416586257E0
5.439228458E0,2.114399811E0,8.152685076E-1,-2.610512525E0,3.456895275E0
5.449174458E0,2.638989927E0,1.418978321E0,-3.077297212E0,4.295058258E0
5.459120458E0,3.070144898E0,1.716716788E0,-3.464753602E0,4.937349870E0
5.469065458E0,3.492085242E0,1.844971370E0,-3.763122691E0,5.455242531E0
5.479011458E0,3.950740545E0,1.756528140E0,-3.832074812E0,5.777416319E0
5.488956458E0,4.372459572E0,1.342096206E0,-3.644947246E0,5.848526769E0
5.498902458E0,4.316244441E0,6.996439111E-1,-3.187880924E0,5.411289353E0
5.508848458E0,3.747664699E0,2.301113248E-2,-2.576146099E0,4.547752075E0
5.518793458E0,2.668114323E0,-4.759867430E-1,-1.870063527E0,3.292800482E0
5.528739458E0,1.428472445E0,-4.443006814E-1,-1.122128631E0,1.870055958E0
5.538684458E0,2.531180719E-1,-2.177865636E-1,-4.579206008E-1,5.667371721E-1
5.548630458E0,-7.620038813E-1,-1.269027060E-1,2.509712666E-2,7.729062542E-1
5.558576458E0,-1.532438571E0,-1.811385548E-1,3.906834680E-1,1.591795439E0
5.568521458E0,-2.001768697E0,-3.281445730E-1,5.680160701E-1,2.106513478E0
5.578467458E0,-2.125393308E0,-5.156682873E-1,6.459065375E-1,2.280439815E0
5.588412458E0,-1.843376834E0,-6.551746666E-1,7.091526532E-1,2.080910734E0
5.598358458E0,-1.292737812E0,-7.813219124E-1,8.188230300E-1,1.718169414E0
5.608303458E0,-6.622040431E-1,-1.028883668E0,8.883838463E-1,1.512065361E0
5.618249458E0,6.397233993E-2,-1.319231839E0,9.329767594E-1,1.617068563E0
5.628195458E0,8.075225548E-1,-1.628907396E0,1.020565857E0,2.084942841E0
5.638140458E0,1.605304379E0,-1.860898601E0,1.163400764E0,2.719089386E0
5.648086458E0,2.325750345E0,-1.848030633E0,1.154262004E0,3.186950370E0
5.658031458E0,2.656265233E0,-1.664247383E0,9.111809707E-1,3.264309284E0
5.667977458E0,2.800901667E0,-1.402071682E0,5.768550137E-1,3.184904528E0
5.677923458E0,2.772808719E0,-1.151135498E0,-1.566761434E-3,3.002263077E0
5.687868458E0,2.439380310E0,-8.795826173E-1,-6.635092878E-1,2.676655834E0
5.697814458E0,2.156061077E0,-4.624247110E-1,-1.180226566E0,2.501073915E0
5.707759458E0,2.122271333E0,7.845033824E-2,-1.431109539E0,2.560910889E0
5.717705458E0,2.104360288E0,4.663394219E-1,-1.524491620E0,2.640052912E0
5.727650458E0,2.081026682E0,6.268004680E-1,-1.524713229E0,2.654863708E0
5.737596458E0,2.081244783E0,5.937081510E-1,-1.450245430E0,2.605241068E0
5.747542458E0,1.916750181E0,3.412458444E-1,-1.441455310E0,2.422431299E0
5.757487458E0,1.582266496E0,5.589938164E-4,-1.481251460E0,2.167411697E0
5.767433458E0,1.198023736E0,-2.387891775E-1,-1.512547805E0,1.944243299E0
5.777378458E0,8.949562629E-1,-3.433900183E-1,-1.546019898E0,1.819076948E0
5.787324458E0,5.669261491E-1,-4.551753330E-1,-1.637600452E0,1.791738006E0
5.797270458E0,2.899966072E-1,-6.145359331E-1,-1.768475756E0,1.894533965E0
5.807215458E0,-9.505379945E-4,-8.196124041E-1,-1.946449505E0,2.111973265E0
5.817161458E0,-3.373118377E-1,-9.717183638E-1,-2.171201565E0,2.402526189E0
5.827106458E0,-6.004238974E-1,-9.974537140E-1,-2.493006879E0,2.751455263E0
5.837052458E0,-7.174512409E-1,-9.072019404E-1,-2.763291499E0,2.995585344E0
5.846997458E0,-7.473090244E-1,-6.767795438E-1,-2.927548850E0,3.096295140E0
5.856943458E0,-7.401389493E-1,-2.996686327E-1,-2.977729070E0,3.082933241E0
5.866889458E0,-6.358219908E-1,1.638307965E-1,-2.859122978E0,2.933546375E0
5.876834458E0,-5.065833952E-1,5.838719648E-1,-2.880088754E0,2.982020194E0
5.886780458E0,-4.469143137E-1,8.659124118E-1,-3.050555848E0,3.202409670E0
5.896725458E0,-3.398374694E-1,1.040283984E0,-3.118570661E0,3.305020913E0
5.906671458E0,9.466784667E-2,1.178757160E0,-3.135645407E0,3.351224040E0
5.916617458E0,6.277601422E-1,1.210347912E0,-2.907583239E0,3.211396139E0
5.926562458E0,1.008474838E0,1.232343383E0,-2.504557469E0,2.967911695E0
5.936508458E0,1.246680171E0,1.332536008E0,-2.022927870E0,2.724353287E0
5.946453458E0,1.246406376E0,1.463122460E0,-1.454334680E0,2.410258399E0
5.956399458E0,1.170796761E0,1.524544537E0,-9.100381324E-1,2.126774671E0
5.966344458E0,1.195986347E0,1.618361943E0,-4.025281727E-1,2.052195812E0
5.976290458E0,1.327977958E0,1.768994989E0,1.590340331E-2,2.212040154E0
5.986236458E0,1.606994517E0,1.989278314E0,2.272948672E-1,2.567357112E0
5.996181458E0,2.054440854E0,2.258468335E0,1.426268922E-1,3.056427469E0
6.006127458E0,2.313190379E0,2.400302491E0,-9.407585263E-3,3.333525203E0
6.016072458E0,2.423210712E0,2.331516430E0,-1.148124182E-1,3.364684370E0
6.026018458E0,2.419125993E0,1.861183360E0,-1.197572623E-1,3.054589314E0
6.035964458E0,2.508490891E0,9.066768605E-1,-6.404528394E-2,2.668087569E0
6.045909458E0,3.100647191E0,-4.722041792E-1,6.149458230E-2,3.137000378E0
6.055855458E0,4.105748186E0,-2.164073224E0,-1.591243726E-1,4.643888634E0
6.065800458E0,4.290853199E0,-3.929330088E0,-1.093348635E0,5.920005689E0
6.075746458E0,2.664324743E0,-5.394256999E0,-2.342467242E0,6.456298296E0
6.085690958E0,-7.720941290E-2,-6.364642782E0,-3.185487366E0,7.117722164E0
6.095636958E0,-3.029635680E0,-6.735680775E0,-3.617456270E0,8.223994025E0
6.105582958E0,-5.198096362E0,-6.649125611E0,-3.789403878E0,9.251521980E0
6.115527958E0,-6.075545915E0,-6.454136757E0,-3.335324898E0,9.470614110E0
6.125473958E0,-5.967920310E0,-6.077263827E0,-1.980246412E0,8.744746097E0
6.135418958E0,-4.932339242E0,-5.918641731E0,-4.607956767E-2,7.704570958E0
6.145364958E0,-4.268274468E0,-6.709392863E0,1.580489235E0,8.107531421E0
6.155310958E0,-4.892452752E0,-8.149990679E0,3.515032640E0,1.013478645E1
6.165255958E0,-5.315230710E0,-7.820154507E0,5.052795392E0,1.072087848E1
6.175201958E0,-3.649866801E0,-4.298761851E0,4.170953996E0,7.014109947E0
6.185146958E0,-1.907460564E0,-4.712060595E-1,2.169879509E0,2.927254351E0
6.195092958E0,-9.557737376E-1,2.729631709E0,9.559260575E-1,3.046011709E0
6.205037958E0,-6.755175684E-1,5.101942409E0,3.327206039E-1,5.157212748E0
6.214983958E0,-1.036628012E0,6.247618362E0,1.565124214E-2,6.333054381E0
6.224929958E0,-1.505133243E0,6.362968724E0,-9.184820965E-2,6.539207380E0
6.234874958E0,-1.756515130E0,5.838082886E0,-1.740540683E-1,6.099086162E0
6.244820958E0,-1.694703044E0,4.844181941E0,-1.497249734E-1,5.134251128E0
6.254765958E0,-1.701296803E0,3.436211003E0,2.859474103E-1,3.844960701E0
6.264711958E0,-2.048223510E0,1.831846125E0,1.080481106E0,2.952680002E0
6.274657958E0,-2.413306113E0,2.516325867E-1,2.129227327E0,3.228153399E0
6.284602958E0,-2.384814678E0,-1.064872695E0,3.180694696E0,4.115593961E0
6.294548958E0,-1.624321717E0,-1.736522477E0,3.934863308E0,4.597508087E0
6.304493958E0,-9.693936570E-1,-1.477186183E0,4.768740579E0,5.085537316E0
6.314439958E0,-8.470870087E-1,-5.161313868E-1,5.340634523E0,5.431972489E0
6.324384958E0,-1.205348689E0,6.321021384E-1,5.119687539E0,5.297510649E0
6.334330958E0,-1.554901380E0,1.732655128E0,4.610749397E0,5.165154606E0
6.344276958E0,-1.450498322E0,2.605208223E0,4.103947828E0,5.072814114E0
6.354221958E0,-1.219045646E0,3.024583393E0,3.609982651E0,4.864786915E0
6.364167958E0,-1.052459495E0,3.007251077E0,3.170296592E0,4.494664671E0
6.374112958E0,-1.021007030E0,2.582633293E0,2.766879643E0,3.920213392E0
6.384058958E0,-9.226824439E-1,1.951968400E0,2.439174780E0,3.257467902E0
6.394004958E0,-7.450339459E-1,1.295519625E0,2.377635759E0,2.808308830E0
6.403949958E0,-4.391704805E-1,5.900349301E-1,2.533240693E0,2.637862835E0
6.413895958E0,-2.573213428E-1,-1.496121222E-1,2.842522733E0,2.858064650E0
6.423840958E0,-2.703612185E-1,-9.171749514E-1,3.131162347E0,3.273909395E0
6.433786958E0,-3.306370948E-1,-1.465939649E0,3.197814758E0,3.533315606E0
6.443731958E0,-9.903414533E-2,-1.524921682E0,3.003764382E0,3.370132692E0
6.453677958E0,2.812868871E-1,-1.308053716E0,2.530405378E0,2.862355361E0
6.463623958E0,5.695419011E-1,-1.052370763E0,1.941567373E0,2.280689822E0
6.473568958E0,9.835450883E-1,-7.441774750E-1,1.317927325E0,1.805018972E0
6.483514958E0,1.531273513E0,-3.592885977E-1,7.948645024E-1,1.762298625E0
6.493459958E0,2.066636246E0,4.304252386E-2,4.168450072E-1,2.108695756E0
6.503405958E0,2.521001886E0,3.340666330E-1,1.332310013E-1,2.546527346E0
6.513351958E0,2.761484417E0,1.990164167E-1,4.519071780E-2,2.769015334E0
6.523296958E0,2.868536703E0,-4.663791829E-1,1.747609967E-1,2.911452174E0
6.533242958E0,3.109355741E0,-1.135402980E0,-3.449599957E-1,3.328097122E0
6.543187958E0,3.182054173E0,-1.534206476E0,-1.325756454E0,3.773180151E0
6.553133958E0,2.733333582E0,-1.564443013E0,-2.002631015E0,3.732174352E0
6.563079958E0,2.077742886E0,-1.244036061E0,-2.790980111E0,3.695160511E0
6.573024958E0,1.303133284E0,-7.918667811E-1,-3.912321707E0,4.198984460E0
6.582970958E0,2.136243694E-1,-6.291329223E-1,-4.646678491E0,4.693939135E0
6.592915958E0,-8.399224153E-1,-5.541727871E-1,-4.707372589E0,4.813723490E0
6.602861958E0,-1.386882223E0,-8.795674145E-2,-4.095163263E0,4.324527817E0
6.612806958E0,-1.498612136E0,5.472099227E-1,-3.142653880E0,3.524422001E0
6.622752958E0,-1.399436488E0,1.173126876E0,-2.206250360E0,2.863946543E0
6.632698958E0,-1.395519584E0,1.449496109E0,-1.934551883E0,2.791237157E0
6.642643958E0,-1.675573878E0,1.353397704E0,-1.938033316E0,2.897448239E0
6.652589958E0,-2.077102908E0,1.228863121E0,-1.725361019E0,2.966703845E0
6.662534958E0,-2.391528597E0,1.188581652E0,-1.156773091E0,2.910371000E0
6.672480958E0,-2.742988212E0,1.168652587E0,-1.555172253E-1,2.985618664E0
6.682425958E0,-2.887730480E0,9.134438431E-1,6.719741558E-1,3.102404914E0
6.692371958E0,-2.792550673E0,4.678725618E-1,1.380839857E0,3.150232167E0
6.702317958E0,-2.537965243E0,3.193866134E-2,2.151581233E0,3.327399803E0
6.712262958E0,-2.194610454E0,-2.170404589E-1,3.084979284E0,3.792165448E0
6.722208958E0,-1.967081698E0,-2.474576747E-1,4.210263657E0,4.653704521E0
6.732153958E0,-1.644287181E0,4.114334822E-2,5.606262420E0,5.842563773E0
6.742099958E0,-1.131540602E0,5.379257137E-1,6.812542425E0,6.926794533E0
6.752045958E0,-8.075589538E-1,1.016668249E0,7.545764557E0,7.656652567E0
6.761990958E0,-8.306168640E-1,1.303081244E0,7.563734220E0,7.719975418E0
6.771936958E0,-1.176554368E0,1.208907158E0,6.515819035E0,6.730648883E0
6.781881958E0,-1.517617779E0,9.059927362E-1,5.321894782E0,5.607722410E0
6.791827958E0,-1.687273572E0,7.817212772E-1,4.340683463E0,4.722236037E0
6.801773958E0,-1.967485741E0,8.984966058E-1,3.589736667E0,4.191002938E0
6.811718958E0,-2.324607360E0,1.042087850E0,2.943804694E0,3.893036417E0
6.821664958E0,-2.552732386E0,1.077453564E0,2.327335671E0,3.618541162E0
6.831609958E0,-2.544006294E0,9.490726823E-1,1.828923687E0,3.273785092E0
6.841555958E0,-2.290546160E0,7.184134734E-1,1.517185816E0,2.839819084E0
6.851500958E0,-1.920754355E0,2.930957776E-1,1.290108027E0,2.332290965E0
6.861446958E0,-1.654421137E0,-1.494156557E-1,1.145901071E0,2.018049454E0
6.871392958E0,-1.485257826E0,-3.442776257E-1,9.404515475E-1,1.791358983E0
6.881337958E0,-1.256586817E0,-2.197857267E-1,6.303233423E-1,1.422892726E0
6.891283958E0,-9.913569684E-1,2.329472244E-2,3.285169675E-1,1.044631361E0
6.901228958E0,-7.692310399E-1,2.331015909E-1,1.713123089E-1,8.218276289E-1
6.911174958E0,-5.381524394E-1,2.867457014E-1,1.453179270E-3,6.097813191E-1
6.921120958E0,-2.643872644E-1,2.714739436E-1,-1.765666900E-1,4.180604306E-1
6.931065958E0,4.921542943E-2,2.641234088E-1,-3.430485409E-1,4.357357399E-1
6.941011958E0,4.005582458E-1,2.260872710E-1,-4.795950598E-1,6.645101833E-1
6.950956958E0,7.266941540E-1,1.626642770E-1,-5.618712312E-1,9.328683406E-1
6.960902958E0,9.751060943E-1,-3.137498975E-2,-5.733977012E-1,1.131636518E0
6.970847958E0,1.107957173E0,-3.415346968E-1,-5.609098028E-1,1.287957629E0
6.980793958E0,1.098683196E0,-6.328961903E-1,-5.086359872E-1,1.366152598E0
6.990739958E0,8.506003082E-1,-8.230347794E-1,-4.351562208E-1,1.261058313E0
7.000684958E0,3.761971374E-1,-8.065520632E-1,-3.807239056E-1,9.679882278E-1
7.010630958E0,-9.030600652E-2,-5.760729486E-1,-3.830065124E-1,6.976454726E-1
7.020575958E0,-3.726708278E-1,-2.032240731E-1,-4.413570468E-1,6.123557892E-1
7.030521958E0,-4.704204860E-1,3.217494732E-1,-4.658272058E-1,7.360795764E-1
7.040467958E0,-5.029834838E-1,7.981706643E-1,-4.340237613E-1,1.038482267E0
7.050412958E0,-5.579318158E-1,1.130114173E0,-3.552288759E-1,1.309440151E0
7.060358958E0,-5.776019955E-1,1.255753296E0,-2.427459884E-1,1.403376650E0
7.070303958E0,-5.432680222E-1,1.181684276E0,-1.280296107E-1,1.306870099E0
7.080249583E0,-4.848299257E-1,9.206967294E-1,6.409776270E-2,1.042521485E0
7.090194583E0,-4.576766257E-1,5.827978313E-1,2.815100314E-1,7.926973595E-1
7.100140583E0,-4.102548297E-1,2.726872408E-1,5.736328324E-1,7.561229946E-1
7.110086583E0,-3.263345674E-1,1.129699606E-1,8.633712119E-1,9.298743525E-1
7.120031583E0,-1.684499507E-1,3.969850123E-2,1.192961217E0,1.205449220E0
7.129977583E0,-2.047197908E-2,7.930812478E-2,1.559453584E0,1.561603138E0
7.139922583E0,1.371996528E-1,1.614714450E-1,1.929830841E0,1.941428301E0
7.149868583E0,2.672044529E-1,2.761493772E-1,2.399637077E0,2.430208798E0
7.159814583E0,2.381474456E-1,3.524812692E-1,2.976415200E0,3.006660056E0
7.169759583E0,2.114237697E-1,4.003775668E-1,3.662100638E0,3.689984186E0
7.179705583E0,4.154518349E-1,4.676000816E-1,4.173107525E0,4.219724692E0
7.189650583E0,8.138131356E-1,5.444225550E-1,4.455021672E0,4.561349125E0
7.199596583E0,7.811024956E-1,6.345667398E-1,4.752239152E0,4.857630391E0
7.209541583E0,4.846071468E-1,8.038945037E-1,4.474593472E0,4.571988321E0
7.219487583E0,3.278007567E-2,1.050558127E0,3.921726369E0,4.060133572E0
7.229433583E0,-4.845413657E-1,1.396343164E0,3.622670524E0,3.912581794E0
7.239378583E0,-9.451359712E-1,1.714879008E0,3.432152451E0,3.951425371E0
7.249324583E0,-1.240026186E0,1.976386372E0,2.853480415E0,3.685935229E0
7.259269583E0,-1.720923567E0,2.188661351E0,2.502545734E0,3.743601419E0
7.269215583E0,-2.147055195E0,2.437170355E0,2.209831195E0,3.928485619E0
7.279160583E0,-2.502368271E0,2.622967971E0,1.780894073E0,4.038983986E0
7.289106583E0,-2.912871754E0,2.717223333E0,1.296823700E0,4.189257238E0
7.299052583E0,-3.387656309E0,2.733385037E0,9.937319613E-1,4.464875389E0
7.308997583E0,-3.848978527E0,2.701891934E0,7.799010390E-1,4.766875429E0
7.318943583E0,-4.214249119E0,2.693399438E0,4.985143107E-1,5.026212559E0
7.328888583E0,-4.561529290E0,2.697280235E0,2.516512978E-1,5.305299097E0
7.338834583E0,-4.867667575E0,2.715229433E0,1.225073540E-1,5.575093411E0
7.348780583E0,-4.998440845E0,2.673588486E0,4.946232811E-2,5.668768190E0
7.358725583E0,-4.869057750E0,2.406288870E0,2.755646557E-3,5.431202178E0
7.368671583E0,-4.183799159E0,1.470982288E0,-3.334640774E-1,4.447377045E0
7.378616583E0,-3.477134788E0,-5.085072023E-1,-1.306148255E0,3.749009092E0
7.388562583E0,-2.606495780E0,-3.403083018E0,-3.408115717E0,5.476316921E0
7.398507583E0,-1.634556245E0,-7.176879508E0,-6.170109426E0,9.604666778E0
7.408453583E0,-1.369569787E0,-1.008096933E1,-6.827138829E0,1.225199937E1
7.418399583E0,-5.021901628E-1,-1.013296511E1,-5.894540092E0,1.173348967E1
7.428344583E0,9.312249336E-1,-7.925512562E0,-4.435190840E0,9.129723273E0
7.438290583E0,1.768782589E0,-6.068052709E0,-2.942301959E0,6.971871796E0
7.448235583E0,1.722697759E0,-5.516909949E0,-1.660218213E0,6.013344116E0
7.458181583E0,1.045503793E0,-5.184388150E0,-8.701772247E-1,5.359866330E0
7.468127583E0,3.973979719E-1,-4.694162267E0,-4.847210214E-1,4.735825061E0
7.478072583E0,7.128559873E-2,-4.237033380E0,-2.600759661E-1,4.245606318E0
7.488018583E0,2.272903539E-1,-3.830236740E0,-5.587496951E-2,3.837381451E0
7.497963583E0,3.421957245E-1,-3.459305166E0,7.266174093E-2,3.476948357E0
7.507909583E0,5.375414420E-1,-2.922257119E0,-9.198503450E-2,2.972708987E0
7.517854583E0,9.847708109E-1,-2.175671761E0,-4.332503209E-1,2.427143795E0
7.527800583E0,1.274692281E0,-1.426463342E0,-8.452696940E-1,2.091439440E0
7.537746583E0,1.476356610E0,-1.088788977E0,-1.226492221E0,2.206665684E0
7.547691583E0,1.875069620E0,-1.009097275E0,-1.533246656E0,2.623930010E0
7.557637583E0,1.968759557E0,-7.789953053E-1,-1.631348901E0,2.672853740E0
7.567582583E0,1.766859001E0,-3.293882757E-1,-1.531581661E0,2.361361842E0
7.577528583E0,1.548926988E0,3.028805083E-1,-1.371622452E0,2.090994875E0
7.587474583E0,1.140829854E0,8.931645298E-1,-1.156278124E0,1.853702979E0
7.597419583E0,4.099669639E-1,1.378588679E0,-8.071603198E-1,1.649268759E0
7.607365583E0,-3.601289157E-2,1.772212127E0,-5.502055974E-1,1.856006183E0
7.617310583E0,-4.267765760E-2,2.024527084E0,-4.317934871E-1,2.070501608E0
7.627256583E0,2.047563359E-1,2.137264910E0,-4.017643802E-1,2.184317071E0
7.637201583E0,4.921052507E-1,2.186478000E0,-4.797495724E-1,2.291945304E0
7.647147583E0,7.755416474E-1,2.176585096E0,-5.510622145E-1,2.375427770E0
7.657093583E0,1.023024027E0,2.177083279E0,-5.960084456E-1,2.478204154E0
7.667038583E0,1.260652386E0,2.178733948E0,-5.577075751E-1,2.578209416E0
7.676984583E0,1.691017252E0,2.194971081E0,-4.908509499E-1,2.813960207E0
7.686929583E0,2.201543059E0,1.941621752E0,-4.738723898E-1,2.973422592E0
7.696875583E0,2.707631561E0,1.292276759E0,-5.708032916E-1,3.054024278E0
7.706821583E0,2.909470428E0,2.659670359E-1,-5.719471532E-1,2.977058982E0
7.716766583E0,2.912664762E0,-9.044619352E-1,-5.016928571E-1,3.090851522E0
7.726712583E0,2.974345286E0,-2.073520319E0,-5.160251136E-1,3.662307785E0
7.736657583E0,3.054227023E0,-2.920035177E0,-6.897065681E-1,4.281425381E0
7.746603583E0,3.138553520E0,-3.306648399E0,-1.000446319E0,4.667476263E0
7.756548583E0,3.224067880E0,-3.201689708E0,-1.717120538E0,4.857358708E0
7.766494583E0,3.201745842E0,-2.448837889E0,-2.899422280E0,4.965343191E0
7.776440583E0,3.039385620E0,-1.035167670E0,-4.136952144E0,5.236774780E0
7.786385583E0,2.841096012E0,5.942694837E-1,-5.223196120E0,5.975513407E0
7.796331583E0,2.545804605E0,2.055199238E0,-5.882400688E0,6.731092248E0
7.806276583E0,1.899507766E0,3.290341684E0,-5.880377551E0,7.000951242E0
7.816222583E0,9.698330753E-1,4.036387929E0,-5.337131456E0,6.761506924E0
7.826168583E0,-2.257256207E-1,4.027626461E0,-4.178565024E0,5.808023125E0
7.836113583E0,-1.261566305E0,3.352863622E0,-2.616126436E0,4.435917215E0
7.846059583E0,-1.538468366E0,2.100744370E0,-1.070058298E0,2.815144150E0
7.856004583E0,-9.995332763E-1,3.028623819E-1,1.887200546E-1,1.061323538E0
7.865950583E0,-5.919914085E-1,-1.766455543E0,1.199350469E0,2.215685122E0
7.875895583E0,-4.831016350E-1,-3.318501289E0,1.739919124E0,3.777983133E0
7.885841583E0,-3.840034626E-1,-3.692069373E0,2.257900278E0,4.344761049E0
7.895787583E0,7.580973566E-2,-2.843698023E0,2.764248396E0,3.966539393E0
7.905732583E0,6.112474591E-1,-1.242834458E0,2.620879346E0,2.964332891E0
7.915678583E0,6.723040849E-1,4.475125569E-1,2.108767627E0,2.258132232E0
7.925623583E0,5.516377267E-1,1.686003118E0,1.373736952E0,2.243671970E0
7.935569583E0,8.356229576E-1,2.311316054E0,5.874697566E-1,2.526968212E0
7.945515583E0,1.110184231E0,2.359676621E0,-1.128022917E-1,2.610231243E0
7.955460583E0,1.099100541E0,1.946561480E0,-5.820172280E-1,2.309949707E0
7.965406583E0,9.917254892E-1,9.244079572E-1,-8.038543041E-1,1.576144428E0
7.975351583E0,6.545782506E-1,-5.480636162E-1,-7.475292452E-1,1.134745075E0
7.985297583E0,1.802638113E-2,-2.308798243E0,-5.283003196E-1,2.368538686E0
7.995242583E0,-7.450358462E-1,-4.130152709E0,-2.287017073E-1,4.203039886E0
8.005188583E0,-1.319727390E0,-5.537569916E0,-7.392927110E-2,5.693138545E0
8.015134583E0,-1.548243741E0,-6.358486249E0,-6.259532064E-2,6.544564480E0
8.025079583E0,-1.095761489E0,-6.282751358E0,-2.078756793E-1,6.380977210E0
8.035025583E0,2.425422129E-1,-4.724544400E0,-4.770980063E-1,4.754762772E0
8.044970583E0,1.928931247E0,-2.527239695E0,-7.476820037E-1,3.265998257E0
8.054916583E0,3.427237574E0,-8.873278391E-1,-1.183369444E0,3.732783321E0
8.064862583E0,4.626721652E0,7.918124020E-2,-1.800788932E0,4.965446977E0
8.074807583E0,5.450257537E0,6.262420589E-1,-2.555155180E0,6.051966980E0
8.084753958E0,6.044462117E0,1.107448027E0,-3.212326086E0,6.934046603E0
8.094698958E0,6.498300776E0,1.568334335E0,-3.717303324E0,7.648916889E0
8.104644958E0,6.763502412E0,1.966092349E0,-3.878796696E0,8.040867354E0
8.114590958E0,6.753162780E0,2.211567233E0,-3.936110519E0,8.123373879E0
8.124535958E0,6.240474234E0,2.095864869E0,-4.193358479E0,7.805153653E0
8.134481958E0,5.379177614E0,1.549886370E0,-4.110000865E0,6.944768296E0
8.144426958E0,3.920120139E0,8.568012804E-1,-3.468831450E0,5.304172128E0
8.154372958E0,2.115633428E0,1.728314155E-1,-2.512729245E0,3.289313569E0
8.164317958E0,2.771119751E-1,-4.847359318E-1,-1.383736567E0,1.492141702E0
8.174263958E0,-1.477510850E0,-1.078282115E0,-3.058149335E-1,1.854522420E0
8.184209958E0,-2.873295459E0,-1.434185759E0,6.451531237E-1,3.275505784E0
8.194154958E0,-3.682296044E0,-1.340386480E0,1.295928199E0,4.127392636E0
8.204100958E0,-3.940032247E0,-9.040479523E-1,1.589905152E0,4.343841065E0
8.214045958E0,-3.709799007E0,-4.036216021E-1,1.523811881E0,4.030821470E0
8.223991958E0,-3.444640642E0,-2.493404782E-1,1.137373345E0,3.636115778E0
8.233936958E0,-2.938231128E0,-2.445714891E-1,9.417184930E-1,3.095133453E0
8.243882958E0,-2.077510166E0,-2.401650274E-1,1.289747254E0,2.457066485E0
8.253828958E0,-1.024967495E0,-3.945595872E-1,2.036224292E0,2.313535174E0
8.263773958E0,3.906574479E-1,-7.091222477E-1,2.871226130E0,2.983187405E0
8.273719958E0,1.780266374E0,-8.315968573E-1,3.409876313E0,3.935499735E0
8.283664958E0,2.727722301E0,-8.681033635E-1,3.174073893E0,4.274203725E0
8.293610958E0,3.107989247E0,-8.724127614E-1,2.389806592E0,4.016450763E0
8.303556958E0,3.230158047E0,-7.262464035E-1,1.472800479E0,3.623602641E0
8.313501958E0,3.445839905E0,-5.212067699E-1,6.504452924E-1,3.545214835E0
8.323447958E0,3.755183926E0,-3.256717855E-1,-1.000517070E-2,3.769292843E0
8.333392958E0,3.867429124E0,-2.380459964E-1,-5.687662679E-1,3.916269781E0
8.343338958E0,3.627466410E0,-2.631708974E-1,-1.173003500E0,3.821479908E0
8.353284958E0,3.194503188E0,-4.423898113E-1,-1.892719441E0,3.739377788E0
8.363229958E0,2.610088309E0,-6.364507127E-1,-2.665936235E0,3.784817895E0
8.373175958E0,2.005659873E0,-8.123308665E-1,-3.308691123E0,3.953478204E0
8.383120958E0,1.652985061E0,-9.004647785E-1,-3.719390195E0,4.168580076E0
8.393066958E0,1.302817827E0,-9.065897369E-1,-3.974307748E0,4.279528165E0
8.403012958E0,9.408728394E-1,-8.233353263E-1,-4.123486299E0,4.308858551E0
8.412957958E0,5.107706594E-1,-6.359712410E-1,-4.149269889E0,4.228686167E0
8.422903958E0,5.815640688E-3,-3.444191283E-1,-4.075047087E0,4.089580311E0
8.432848958E0,-3.364097585E-1,2.330290854E-2,-3.925158100E0,3.939616816E0
8.442794958E0,-3.044757749E-1,4.056809914E-1,-3.779776146E0,3.813658385E0
8.452739958E0,-5.874295570E-2,6.645115006E-1,-3.644730315E0,3.705278038E0
8.462685958E0,1.795717568E-1,8.040833688E-1,-3.453586297E0,3.550500583E0
8.472631958E0,3.784551128E-1,9.092151368E-1,-3.167421224E0,3.316995274E0
8.482576958E0,6.203102048E-1,9.639585239E-1,-2.803803348E0,3.029078077E0
8.492522958E0,8.861332530E-1,1.015830928E0,-2.382690092E0,2.737582271E0
8.502467958E0,1.202820792E0,9.922204560E-1,-1.964381746E0,2.508002180E0
8.512413958E0,1.606720136E0,9.068247950E-1,-1.569183058E0,2.422027307E0
8.522359958E0,1.918634008E0,8.167835212E-1,-1.269858681E0,2.441481691E0
8.532304958E0,2.250877918E0,7.668746120E-1,-1.104693988E0,2.622002456E0
8.542250958E0,2.463659119E0,7.541645193E-1,-8.900095184E-1,2.725893857E0
8.552195958E0,2.588734570E0,6.582561493E-1,-4.938016011E-1,2.716374027E0
8.562141958E0,2.582845254E0,6.729671592E-1,2.496597362E-1,2.680728332E0
8.572087958E0,2.634253097E0,7.822457725E-1,7.868254580E-1,2.858372287E0
8.582032958E0,2.566689397E0,1.021912032E0,1.100394384E0,2.973729387E0
8.591978958E0,2.235487608E0,1.374431309E0,1.354769900E0,2.953280845E0
8.601923958E0,2.063814672E0,1.643490352E0,1.462135889E0,3.016327717E0
8.611869958E0,2.318318534E0,1.567166061E0,1.441048490E0,3.147575422E0
8.621814958E0,2.756199118E0,1.040681595E0,1.347087243E0,3.239490053E0
8.631760958E0,3.258225267E0,-7.812464833E-3,1.257698665E0,3.492549048E0
8.641706958E0,3.482375940E0,-1.516582968E0,1.335472334E0,4.026220615E0
8.651651958E0,3.022726902E0,-3.004440905E0,8.209376755E-1,4.340216785E0
8.661597958E0,1.139645573E0,-3.670626463E0,-6.113456923E-1,3.891790619E0
8.671542958E0,-1.996720796E0,-3.542092969E0,-2.157482243E0,4.603047487E0
8.681488958E0,-6.004092940E0,-3.338561917E0,-3.990584934E0,7.944803070E0
8.691434958E0,-9.794321861E0,-3.311947145E0,-5.525079094E0,1.172280826E1
8.701379958E0,-8.475069557E0,-3.916183793E0,-4.038470415E0,1.017214544E1
8.711325958E0,-6.228376345E0,-4.545561129E0,-1.864821205E0,7.932991617E0
8.721270958E0,-5.986957090E0,-3.768029382E0,-5.859757930E-1,7.098244026E0
8.731216958E0,-6.057768626E0,-1.311105963E0,1.149764326E-1,6.199095027E0
8.741162958E0,-5.591609883E0,1.372963657E0,5.422057293E-1,5.783175368E0
8.751107958E0,-4.948964045E0,2.140892522E0,4.850791633E-1,5.413960446E0
8.761053958E0,-5.154570858E0,-1.740162368E0,-2.640061721E-1,5.446784837E0
8.770998958E0,-5.786242642E0,-7.297141532E0,-8.762637377E-2,9.313246310E0
8.780944958E0,-5.393302733E0,-1.103086121E1,1.461113357E0,1.236537365E1
8.790889958E0,-3.505085941E0,-1.096361589E1,2.689596116E0,1.182033959E1
8.800835958E0,-8.266664120E-1,-6.394780501E0,2.450329367E0,6.897877139E0
8.810781958E0,4.823774573E-1,-9.896734089E-1,1.931968583E0,2.223655566E0
8.820726958E0,9.173189391E-1,2.603959842E0,1.144576530E0,2.988667986E0
8.830672958E0,1.062757465E0,4.106398981E0,-2.946894363E-2,4.241796133E0
8.840617958E0,1.270827418E0,4.937021692E0,-8.589789297E-1,5.169819176E0
8.850563958E0,1.436246026E0,5.273463464E0,-1.177331609E0,5.590914887E0
8.860509958E0,1.253393214E0,4.747480688E0,-8.993130232E-1,4.991826454E0
8.870454958E0,8.343967965E-1,3.288578748E0,-4.955776928E-1,3.428784835E0
8.880400958E0,9.526768329E-1,1.566020007E0,-1.530703117E-1,1.839413583E0
8.890345958E0,1.479767291E0,3.810279608E-2,3.005438147E-1,1.510460076E0
8.900291958E0,2.137520725E0,-9.596333385E-1,1.044910301E0,2.565487972E0
8.910236958E0,2.302189428E0,-1.337114963E0,1.853036288E0,3.243716398E0
8.920182958E0,1.642619117E0,-1.128523146E0,2.584065861E0,3.263304832E0
8.930128958E0,5.160898715E-1,-3.764402354E-1,3.490023513E0,3.548002273E0
8.940073958E0,-7.522358152E-1,5.660783029E-1,4.253074631E0,4.356024241E0
8.950019958E0,-1.689188827E0,1.257198728E0,4.530545479E0,4.995973366E0
8.959964958E0,-2.261596449E0,1.708415496E0,4.357357968E0,5.198083345E0
8.969910958E0,-2.586253889E0,1.860539582E0,3.834560755E0,4.985395962E0
8.979856958E0,-2.620204284E0,1.903939955E0,3.313928767E0,4.633851715E0
8.989801958E0,-2.488852724E0,1.768268765E0,2.971705268E0,4.260539227E0
8.999747958E0,-2.506314849E0,1.379418399E0,2.704016812E0,3.936510658E0
9.009692958E0,-2.713925503E0,8.568948358E-1,2.476689346E0,3.772751054E0
9.019638958E0,-2.882505409E0,3.712455690E-1,2.454150084E0,3.803881352E0
9.029583958E0,-2.864833369E0,1.557446820E-1,2.753377837E0,3.976508035E0
9.039529958E0,-2.378028546E0,2.513156676E-1,3.006353529E0,3.841398296E0
9.049475958E0,-1.602420094E0,6.689840358E-1,2.965939329E0,3.436871528E0
9.059420958E0,-8.500155866E-1,1.069724130E0,2.541205770E0,2.885231876E0
9.069366958E0,-3.565583865E-1,1.175166970E0,1.891443286E0,2.255151657E0
9.079311958E0,-4.453502566E-2,9.259668249E-1,1.328409044E0,1.619897687E0
9.089257583E0,2.985347115E-1,4.906416196E-1,8.758876886E-1,1.047392675E0
9.099203583E0,7.237116355E-1,1.350461233E-1,4.001476981E-1,8.379225305E-1
9.109148583E0,1.197607268E0,-4.570943892E-2,1.265350623E-1,1.205140508E0
9.119094583E0,1.702648679E0,-2.182438159E-1,-1.015310526E-2,1.716608859E0
9.129039583E0,2.339822693E0,-7.289250129E-1,-1.004734375E-1,2.452793676E0
9.138985583E0,2.756099716E0,-1.717526627E0,-4.518552840E-2,3.247772327E0
9.148930583E0,2.958047634E0,-2.913512024E0,1.704187082E-1,4.155435074E0
9.158876583E0,3.229050000E0,-3.921290166E0,3.060678256E-1,5.088905382E0
9.168822583E0,3.317503170E0,-3.900598040E0,-1.255754173E0,5.272324999E0
9.178767583E0,2.556947644E0,-2.559155552E0,-3.084301884E0,4.753964294E0
9.188713583E0,1.357392522E0,-9.902756721E-1,-3.836421340E0,4.188232212E0
9.198658583E0,5.946223632E-2,4.365595526E-1,-3.665936412E0,3.692317670E0
9.208604583E0,-9.275180912E-1,1.686522936E0,-3.107895399E0,3.655634450E0
9.218550583E0,-1.411294203E0,2.731352545E0,-2.503705237E0,3.964918406E0
9.228495583E0,-1.504603339E0,3.432892708E0,-1.955566192E0,4.227626129E0
9.238441583E0,-1.633878553E0,3.591597251E0,-1.551721518E0,4.239925661E0
9.248386583E0,-1.927816037E0,3.058229442E0,-1.366490936E0,3.864781943E0
9.258332583E0,-2.363229389E0,2.116685050E0,-1.277172816E0,3.419996951E0
9.268277583E0,-2.966380793E0,1.217931751E0,-9.943057193E-1,3.357293050E0
9.278223583E0,-3.564391033E0,5.377345097E-1,-4.099710935E-1,3.627963360E0
9.288169583E0,-3.951520856E0,1.446373111E-1,3.473795736E-1,3.969396629E0
9.298114583E0,-3.938487120E0,-6.601506472E-3,1.050936588E0,4.076296369E0
9.308060583E0,-3.516861064E0,-1.145644963E-2,1.756269109E0,3.931020755E0
9.318005583E0,-2.991993645E0,6.965963423E-2,2.526936225E0,3.916922914E0
9.327951583E0,-2.362607538E0,2.007740897E-1,3.386426640E0,4.134018626E0
9.337897583E0,-1.605692927E0,3.937269437E-1,4.267849960E0,4.576878190E0
9.347842583E0,-9.561377268E-1,5.926995063E-1,5.108511756E0,5.230906654E0
9.357788583E0,-5.169950205E-1,9.069183505E-1,5.667979197E0,5.763312669E0
9.367733583E0,-2.315950558E-2,1.312370716E0,5.737059957E0,5.885296102E0
9.377679583E0,2.400493987E-1,1.556243463E0,5.309386418E0,5.537969083E0
9.387624583E0,-2.753276972E-1,1.445735765E0,4.503251846E0,4.737640175E0
9.397570583E0,-9.549581972E-1,1.211544837E0,3.574564896E0,3.893237759E0
9.407516583E0,-1.335318552E0,9.102372301E-1,2.805282986E0,3.237471248E0
9.417461583E0,-1.604510327E0,5.633663642E-1,2.387497088E0,2.931207498E0
9.427407583E0,-2.086859133E0,1.958752924E-1,2.434552556E0,3.212537054E0
9.437352583E0,-2.505003026E0,-1.008837658E-1,2.612192137E0,3.620602914E0
9.447298583E0,-2.532511545E0,-2.206768423E-1,2.528583970E0,3.585533417E0
9.457244583E0,-2.212755387E0,-1.773817188E-1,2.255373988E0,3.164563557E0
9.467189583E0,-1.784692278E0,-7.164710283E-2,1.922505450E0,2.624173591E0
9.477135583E0,-1.413349060E0,9.643228054E-3,1.647655324E0,2.170810131E0
9.487080583E0,-1.153244004E0,3.212635696E-2,1.283489563E0,1.725789470E0
9.497026583E0,-9.491888957E-1,8.364383519E-2,9.130696213E-1,1.319716630E0
9.506971583E0,-7.861360712E-1,1.506301224E-1,5.917059913E-1,9.953970747E-1
9.516917583E0,-6.218265340E-1,1.692774779E-1,3.779833156E-1,7.471241461E-1
9.526863583E0,-5.290125105E-1,1.046253991E-1,2.717932016E-1,6.038809939E-1
9.536808583E0,-4.183432831E-1,-3.510142028E-2,2.247365642E-1,4.761824603E-1
9.546754583E0,-2.147271542E-1,-1.818712109E-1,1.454290241E-1,3.167561983E-1
9.556699583E0,7.588443384E-2,-3.043721330E-1,7.803065434E-2,3.232485509E-1
9.566645583E0,4.286798447E-1,-3.564497745E-1,-5.008768782E-2,5.597603304E-1
9.576590583E0,8.316098674E-1,-3.517380881E-1,-2.089746635E-1,9.268036815E-1
9.586536583E0,1.140205444E0,-2.759529108E-1,-3.327394612E-1,1.219399038E0
9.596482583E0,1.325390272E0,-1.703270531E-1,-4.579131456E-1,1.412570397E0
9.606427583E0,1.365841310E0,2.044537425E-2,-5.657656230E-1,1.478523330E0
9.616373583E0,1.294386288E0,2.503754354E-1,-6.589357419E-1,1.473879247E0
9.626318583E0,1.181486641E0,4.596595627E-1,-7.870523299E-1,1.492196021E0
9.636264583E0,1.051701111E0,5.618852645E-1,-8.825541723E-1,1.483473001E0
9.646210583E0,8.705885763E-1,4.476224846E-1,-8.444531304E-1,1.292823053E0
9.656155583E0,5.389267570E-1,1.704252863E-1,-6.686786650E-1,8.755672359E-1
9.666101583E0,1.822419244E-1,-3.467925131E-2,-3.820311968E-1,4.246911876E-1
9.676046583E0,-1.270024011E-1,6.241493404E-2,-4.472389072E-3,1.415811998E-1
9.685992583E0,-3.215234783E-1,4.102149224E-1,3.627671063E-1,6.350225217E-1
9.695937583E0,-4.132143979E-1,8.311495453E-1,7.044052257E-1,1.165222051E0
9.705883583E0,-4.686683679E-1,1.116615291E0,1.023108811E0,1.585317441E0
9.715829583E0,-5.242002520E-1,1.205105299E0,1.432391249E0,1.943915990E0
9.725774583E0,-5.712611286E-1,1.147689734E0,1.917196178E0,2.306333061E0
9.735720583E0,-4.844204745E-1,1.043974162E0,2.395026548E0,2.657197285E0
9.745665583E0,-2.978203279E-1,9.805383039E-1,2.865893469E0,3.043599462E0
9.755611583E0,-1.739841941E-1,9.561618465E-1,3.436851273E0,3.571619052E0
9.765556583E0,-1.789723076E-1,9.442253405E-1,3.924802589E0,4.040750913E0
9.775502583E0,-3.225050797E-1,9.662102866E-1,4.212880286E0,4.334274120E0
9.785448583E0,-5.974984623E-1,1.040406775E0,4.451080064E0,4.609941909E0
9.795393583E0,-1.018824118E0,1.085417472E0,4.386160768E0,4.631904571E0
9.805339583E0,-1.581599621E0,1.125117728E0,4.084825094E0,4.522515153E0
9.815284583E0,-2.082993685E0,1.229302247E0,3.899875908E0,4.589017194E0
9.825230583E0,-2.563392445E0,1.403153417E0,3.734993783E0,4.742362164E0
9.835176583E0,-2.846542109E0,1.697891092E0,3.349013230E0,4.711849505E0
9.845121583E0,-3.017920199E0,2.047760410E0,2.940375302E0,4.684759539E0
9.855067583E0,-3.134736750E0,2.451493109E0,2.544167969E0,4.723259850E0
9.865012583E0,-3.188961489E0,2.844744675E0,2.223853987E0,4.817424021E0
9.874958583E0,-3.126564974E0,3.088194668E0,1.916143094E0,4.794158863E0
9.884903583E0,-3.124521957E0,3.098813211E0,1.653693743E0,4.701061984E0
9.894849583E0,-3.273130404E0,2.686956391E0,1.510998877E0,4.496246757E0
9.904795583E0,-3.625726864E0,1.754209135E0,1.395667226E0,4.262749346E0
9.914740583E0,-4.020903917E0,5.156975234E-1,1.149569614E0,4.213682777E0
9.924686583E0,-4.461872562E0,-9.469138902E-1,4.217443161E-1,4.580700923E0
9.934631583E0,-4.805135989E0,-3.006376918E0,-2.669165068E0,6.265147740E0
9.944577583E0,-4.191077481E0,-5.814493464E0,-8.864311101E0,1.139953841E1
9.954522583E0,-3.210586539E0,-7.704133469E0,-1.037577191E1,1.331608731E1
9.964468583E0,-2.388510849E0,-6.998360506E0,-7.720372941E0,1.069047203E1
9.974414583E0,-1.406906306E0,-4.698688012E0,-5.341298767E0,7.251656839E0
9.984359583E0,-1.819200352E0,-2.790881878E0,-3.110082550E0,4.557534975E0
9.994305583E0,-2.193768893E0,-2.128840826E0,-1.563373119E0,3.433470654E0
1.000425058E1,-1.968622878E0,-2.166329080E0,-4.013885504E-1,2.954584656E0
1.001419658E1,-1.567135510E0,-2.419290739E0,4.037524335E-1,2.910652403E0
1.002414158E1,-1.102836766E0,-2.802966319E0,8.576217909E-1,3.131834008E0
1.003408758E1,-7.665620783E-1,-3.386864011E0,1.125307031E0,3.650312475E0
1.004403358E1,-6.202071476E-1,-4.047038047E0,1.243362900E0,4.278916354E0
1.005397858E1,-2.116678910E-1,-4.475993881E0,1.227768522E0,4.646153254E0
1.006392458E1,8.001011226E-1,-4.321230946E0,9.954988436E-1,4.506020045E0
1.007386958E1,1.951858765E0,-3.601325263E0,5.291659999E-1,4.130292114E0
1.008381621E1,3.273477729E0,-2.435593945E0,-3.535717750E-1,4.095459353E0
1.009376121E1,4.186445901E0,-1.361631753E0,-1.370516305E0,4.610714181E0
1.010370721E1,4.555912455E0,-7.287150979E-1,-2.187013605E0,5.105917400E0
1.011365321E1,4.880389362E0,-2.566185075E-1,-2.718499196E0,5.592342198E0
1.012359821E1,4.456684913E0,5.193438470E-1,-2.879316922E0,5.331249795E0
1.013354421E1,3.865569710E0,1.449991953E0,-2.908995050E0,5.050480971E0
1.014348921E1,3.457275597E0,2.296092829E0,-2.780078562E0,4.995361213E0
1.015343521E1,2.879581216E0,2.915937449E0,-2.475056804E0,4.787544816E0
1.016338121E1,2.172397466E0,3.164383303E0,-1.902368516E0,4.283881232E0
1.017332621E1,1.323103719E0,2.900720655E0,-1.095478338E0,3.371180291E0
1.018327221E1,1.003098616E0,2.252638076E0,-5.424228072E-1,2.524838141E0
1.019321721E1,1.112076098E0,1.536493322E0,-2.490720910E-1,1.912998140E0
1.020316321E1,1.410728338E0,8.951718789E-1,-1.754842973E-1,1.679964844E0
1.021310821E1,1.718989162E0,2.825760520E-1,-1.290231988E-1,1.746831403E0
1.022305421E1,1.952926466E0,-2.387061471E-1,-1.544145866E-1,1.973511153E0
1.023300021E1,2.198824688E0,-7.224451286E-1,-3.350771780E-1,2.338596521E0
1.024294521E1,2.414414161E0,-1.233659592E0,-6.158536032E-1,2.780393387E0
1.025289121E1,2.599953623E0,-1.714795977E0,-9.485897022E-1,3.255780476E0
1.026283621E1,2.683639265E0,-2.116216688E0,-1.165132271E0,3.610792985E0
1.027278221E1,2.613146988E0,-2.114245006E0,-1.244327252E0,3.584259956E0
1.028272721E1,2.268018300E0,-1.729351451E0,-1.268249673E0,3.121381214E0
1.029267321E1,1.836118539E0,-1.186970159E0,-1.521376223E0,2.663609405E0
1.030261921E1,1.627772013E0,-6.269875789E-1,-2.060785376E0,2.699924354E0
1.031256421E1,1.632949430E0,-6.864923537E-2,-2.577816356E0,3.052273534E0
1.032251021E1,1.707377030E0,4.821368444E-1,-2.889441376E0,3.390643556E0
1.033245521E1,1.848637867E0,7.595737785E-1,-3.205108868E0,3.777186405E0
1.034240121E1,1.933607704E0,7.735141253E-1,-3.647149308E0,4.199864394E0
1.035234621E1,2.008206774E0,6.987563038E-1,-3.716816251E0,4.282041320E0
1.036229221E1,2.102865594E0,6.411729240E-1,-3.137757714E0,3.831275231E0
1.037223821E1,2.357461696E0,3.350185597E-1,-2.133801019E0,3.197337935E0
1.038218321E1,2.685390506E0,-4.087127727E-1,-1.231202592E0,2.982319253E0
1.039212921E1,2.653651820E0,-1.252698126E0,-5.583172935E-1,2.987112113E0
1.040207421E1,2.188247952E0,-1.953780452E0,-1.634858108E-1,2.938097134E0
1.041202021E1,1.426246702E0,-2.357580979E0,-1.458354056E-1,2.759281735E0
1.042196621E1,4.729040909E-1,-2.418009029E0,-3.243529460E-1,2.485077620E0
1.043191121E1,-4.692533818E-1,-2.047614230E0,-3.239988971E-1,2.125534769E0
1.044185721E1,-1.055970602E0,-1.334142823E0,-3.349881542E-1,1.734136110E0
1.045180221E1,-1.404169663E0,-4.725257760E-1,-2.884659523E-1,1.509365978E0
1.046174821E1,-1.563110725E0,3.332421756E-1,-1.887425664E-1,1.609344352E0
1.047169321E1,-1.493598148E0,9.912755460E-1,-1.148480862E-1,1.796288596E0
1.048163921E1,-1.257907410E0,1.486586752E0,-1.890176779E-1,1.956527257E0
1.049158521E1,-9.434122851E-1,1.691564990E0,-3.919771644E-1,1.976123719E0
1.050153021E1,-6.102671733E-1,1.454269191E0,-5.460302469E-1,1.668973916E0
1.051147621E1,-4.254264539E-1,4.874852926E-1,-6.528594616E-1,9.191599724E-1
1.052142121E1,-2.575985008E-1,-8.126325828E-1,-8.964433560E-1,1.237068871E0
1.053136721E1,2.626744688E-2,-1.995819009E0,-8.411193404E-1,2.165979049E0
1.054131221E1,1.632194701E-1,-2.880112728E0,-4.308506235E-1,2.916731421E0
1.055125821E1,1.781956512E-1,-3.287172493E0,2.478202021E-1,3.301313608E0
1.056120421E1,1.003838289E-1,-2.910340494E0,7.540627778E-1,3.008117248E0
1.057114921E1,4.047881216E-2,-1.693581694E0,7.159833705E-1,1.839154609E0
1.058109521E1,2.095127535E-1,-2.048156852E-1,2.143171182E-1,3.630108620E-1
1.059104021E1,4.818453607E-1,8.643120289E-1,-2.616057439E-1,1.023546677E0
1.060098621E1,7.743283501E-1,1.398107854E0,-5.991222341E-1,1.706820851E0
1.061093121E1,1.249298555E0,1.486083891E0,-8.659761465E-1,2.125819112E0
1.062087721E1,1.895270873E0,1.343659167E0,-1.107963751E0,2.573918280E0
1.063082321E1,2.520660993E0,1.188386355E0,-1.347251988E0,3.095332275E0
1.064076821E1,3.076530350E0,1.121376679E0,-1.513709646E0,3.607470241E0
1.065071421E1,3.574449121E0,1.047363793E0,-1.621537566E0,4.062393569E0
1.066065921E1,3.846782606E0,8.745212674E-1,-1.566030240E0,4.244405091E0
1.067060521E1,3.853145546E0,5.133966440E-1,-1.447455431E0,4.147943338E0
1.068055021E1,3.553399730E0,-5.280503511E-2,-1.239243683E0,3.763663497E0
1.069049621E1,2.914431791E0,-7.963299608E-1,-9.302066410E-1,3.161224203E0
1.070044221E1,2.165306840E0,-1.260369673E0,-5.863093767E-1,2.573100097E0
1.071038721E1,1.254992427E0,-1.230716103E0,-2.866550696E-1,1.780965819E0
1.072033321E1,2.560067426E-1,-9.220041668E-1,-1.247503459E-2,9.569674824E-1
1.073027821E1,-4.891853705E-1,-5.716922146E-1,1.311393061E-1,7.637616333E-1
1.074022421E1,-8.844855076E-1,-2.092888051E-1,2.608632937E-1,9.456035507E-1
1.075016921E1,-9.654994114E-1,1.026677513E-1,2.771802413E-1,1.009731978E0
1.076011521E1,-8.586532398E-1,3.529823756E-1,2.019093266E-1,9.500785861E-1
1.077006121E1,-6.729721293E-1,5.171534801E-1,-1.385410041E-2,8.488410598E-1
1.078000621E1,-4.620512201E-1,5.197648466E-1,-2.980852067E-1,7.566383655E-1
1.078995221E1,-1.187939335E-1,3.852186602E-1,-6.387767351E-1,7.553417320E-1
1.079989721E1,4.155239019E-1,3.519380629E-2,-9.616567674E-1,1.048180545E0
1.080984321E1,1.234663412E0,-4.851481605E-1,-1.139294010E0,1.748643280E0
1.081978921E1,2.580777386E0,-1.194450502E0,-1.056179932E0,3.033585333E0
1.082973421E1,3.287641732E0,-1.995091031E0,-6.558026576E-1,3.901160533E0
1.083968021E1,3.414189219E0,-2.636954511E0,-1.979846755E-1,4.318496851E0
1.084962521E1,3.546556149E0,-3.022183696E0,7.391260654E-2,4.660162860E0
1.085957121E1,3.662590635E0,-3.108717810E0,7.156407237E-3,4.804034533E0
1.086951621E1,3.725251152E0,-2.929873118E0,-1.426451647E-1,4.741518773E0
1.087946221E1,3.504739493E0,-2.645442914E0,-3.731994161E-1,4.406908773E0
1.088940821E1,2.674905864E0,-2.308133415E0,-8.271430331E-1,3.628603979E0
1.089935321E1,1.525909716E0,-1.871955686E0,-1.229192027E0,2.709895125E0
1.090929921E1,5.996221711E-1,-1.355876924E0,-1.526808579E0,2.128166680E0
1.091924421E1,-3.825584695E-2,-8.633220953E-1,-1.832514170E0,2.026054474E0
1.092919021E1,-4.540631926E-1,-4.282237619E-1,-2.128951339E0,2.218554208E0
1.093913521E1,-7.515174848E-1,-8.211069524E-2,-2.435207737E0,2.549854391E0
1.094908121E1,-9.112518682E-1,2.742332447E-1,-2.655421772E0,2.820788653E0
1.095902721E1,-9.070890892E-1,5.842105186E-1,-2.835017539E0,3.033387049E0
1.096897221E1,-8.138563319E-1,8.103398895E-1,-2.876587734E0,3.097381129E0
1.097891821E1,-5.968301256E-1,9.740771306E-1,-2.726734122E0,2.956367945E0
1.098886321E1,-2.596450994E-1,1.034989915E0,-2.456309753E0,2.678073432E0
1.099880921E1,5.499540210E-2,9.615892321E-1,-2.213579845E0,2.414045168E0
1.100875521E1,3.949965204E-1,8.046452862E-1,-1.974665829E0,2.168589732E0
1.101870021E1,8.474025390E-1,5.781498796E-1,-1.892476197E0,2.152629671E0
1.102864621E1,1.475849217E0,3.330521411E-1,-1.721862630E0,2.292131226E0
1.103859121E1,2.138053991E0,-4.836173594E-2,-1.508463525E0,2.617073926E0
1.104853721E1,2.587193536E0,-3.445290560E-1,-1.427880707E0,2.975082180E0
1.105848221E1,2.806060665E0,-4.552794135E-1,-1.455454714E0,3.193681923E0
1.106842821E1,2.691967455E0,-4.230016136E-1,-1.526675847E0,3.123516974E0
1.107837421E1,2.441330941E0,-1.581098807E-1,-1.527150203E0,2.883970048E0
1.108831896E1,2.056886160E0,1.316015285E-1,-1.513756132E0,2.557255807E0
1.109826496E1,1.604395868E0,3.189182514E-1,-1.510550981E0,2.226557706E0
1.110820996E1,1.081906950E0,4.941727531E-1,-1.467997869E0,1.889377437E0
1.111815596E1,5.750243235E-1,8.779009581E-1,-1.439331309E0,1.781302243E0
1.112810096E1,5.390343457E-2,1.318759968E0,-1.454513166E0,1.964088080E0
1.113804696E1,-4.819890926E-1,1.658449284E0,-1.588700480E0,2.346643715E0
1.114799296E1,-9.443053012E-1,1.945124234E0,-1.804391401E0,2.816211838E0
1.115793796E1,-1.352225338E0,2.186245281E0,-2.053327106E0,3.290035562E0
1.116788396E1,-1.501750921E0,2.262828603E0,-2.103465957E0,3.435144560E0
1.117782896E1,-1.027420840E0,2.048142233E0,-1.699475103E0,2.852839957E0
1.118777496E1,1.096714731E-2,1.336318572E0,-1.266538047E0,1.841191524E0
1.119771996E1,9.728133280E-1,3.191942400E-1,-1.032819575E0,1.454292614E0
1.120766596E1,2.046828656E0,-8.877991247E-1,-8.492759138E-1,2.387250388E0
1.121761196E1,3.340743805E0,-2.241679224E0,-6.173491748E-1,4.070235242E0
1.122755696E1,4.371961389E0,-3.600418945E0,-7.678415953E-1,5.715474056E0
1.123750296E1,4.298639644E0,-4.700778392E0,-1.396440082E0,6.521170538E0
1.124744796E1,2.378165663E0,-5.517322177E0,-1.938787168E0,6.313114256E0
1.125739396E1,-6.425068201E-1,-5.818080146E0,-2.342180728E0,6.304655595E0
1.126733896E1,-3.591997200E0,-5.668123038E0,-2.716608206E0,7.239476695E0
1.127728496E1,-5.284230527E0,-5.200358065E0,-2.925817489E0,7.970396743E0
1.128723096E1,-5.761089090E0,-4.472493737E0,-2.493373499E0,7.707805079E0
1.129717596E1,-5.175833089E0,-3.619532323E0,-1.221205899E0,6.432853663E0
1.130712196E1,-4.178394578E0,-2.864866698E0,3.247604969E-1,5.076604359E0
1.131706696E1,-3.597477795E0,-2.298149879E0,1.733590390E0,4.607458627E0
1.132701296E1,-3.692699995E0,-2.526666668E0,2.564082416E0,5.156994894E0
1.133695796E1,-4.118010966E0,-3.933368760E0,3.037567720E0,6.454163135E0
1.134690396E1,-4.632602489E0,-5.245015005E0,3.383558288E0,7.773008099E0
1.135684996E1,-4.627382095E0,-4.416544654E0,3.430770754E0,7.258699587E0
1.136679496E1,-3.166583318E0,-1.146229100E0,2.866751255E0,4.422595823E0
1.137674096E1,-1.340568621E0,1.902309167E0,2.014659323E0,3.078109254E0
1.138668596E1,-5.198696579E-1,4.206353039E0,1.467233053E0,4.485135804E0
1.139663196E1,-3.371318896E-1,5.896511189E0,1.307325738E0,6.049099329E0
1.140657796E1,-4.803133902E-1,6.927170071E0,1.347084466E0,7.073261108E0
1.141652296E1,-5.936015855E-1,7.369904868E0,1.821469072E0,7.614828310E0
1.142646896E1,-6.952221005E-1,7.395194660E0,2.460593131E0,7.824752801E0
1.143641396E1,-7.443122533E-1,6.607716215E0,2.779775092E0,7.207153659E0
1.144635996E1,-5.595283981E-1,5.000973859E0,2.735264332E0,5.727519754E0
1.145630496E1,-5.736796832E-1,3.246134979E0,2.838912077E0,4.350393369E0
1.146625096E1,-1.041694332E0,1.352600144E0,2.807991416E0,3.286254711E0
1.147619696E1,-1.194523739E0,-3.463867164E-1,2.861165410E0,3.119797786E0
1.148614196E1,-1.239894185E0,-1.519255731E0,3.420249274E0,3.942534801E0
1.149608796E1,-1.426019538E0,-2.105768298E0,4.227447454E0,4.933467728E0
1.150603296E1,-1.920707723E0,-1.928444467E0,4.967461712E0,5.664246823E0
1.151597896E1,-2.502313015E0,-1.218652713E0,5.342481658E0,6.024018188E0
1.152592396E1,-2.818443606E0,-4.003869224E-1,5.204987306E0,5.932607092E0
1.153586996E1,-2.780547217E0,2.806985110E-1,4.733119342E0,5.496603786E0
1.154581596E1,-2.560367388E0,6.368114859E-1,4.136224458E0,4.906053689E0
1.155576096E1,-2.180039046E0,6.712860847E-1,3.414443573E0,4.106290317E0
1.156570696E1,-1.806425355E0,4.863146800E-1,2.716787716E0,3.298576969E0
1.157565196E1,-1.533869823E0,2.328033829E-1,2.076832182E0,2.592332147E0
1.158559796E1,-1.624124374E0,-6.822004974E-2,1.613191250E0,2.290157192E0
1.159554396E1,-1.682238535E0,-3.234118366E-1,1.347802504E0,2.179700276E0
1.160548896E1,-1.530332257E0,-4.413431597E-1,1.148314144E0,1.963498402E0
1.161543496E1,-1.211046655E0,-5.629553050E-1,8.557388413E-1,1.586140485E0
1.162537996E1,-6.700597773E-1,-8.505529457E-1,4.301667186E-1,1.165102495E0
1.163532596E1,-2.856627971E-2,-1.173131554E0,-3.136095643E-2,1.173898286E0
1.164527096E1,6.801750219E-1,-1.331498712E0,-4.733977421E-1,1.568321492E0
1.165521696E1,1.436567623E0,-1.205512850E0,-7.128118408E-1,2.006262317E0
1.166516296E1,2.181805783E0,-1.031203258E0,-8.645551269E-1,2.563418070E0
1.167510796E1,2.759113371E0,-9.452620518E-1,-1.057511489E0,3.102347094E0
1.168505396E1,3.087526039E0,-1.058921984E0,-1.245687314E0,3.493689982E0
1.169499896E1,3.241658351E0,-1.279348565E0,-1.361647687E0,3.741545942E0
1.170494496E1,3.247252382E0,-1.734316322E0,-1.016412288E0,3.819109199E0
1.171488996E1,3.431356645E0,-2.121906028E0,-2.373085164E0,4.680622481E0
1.172483596E1,2.976682418E0,-1.532737656E0,-4.310491073E0,5.458045092E0
1.173478196E1,1.764699917E0,-7.881584769E-1,-4.959798936E0,5.323059746E0
1.174472696E1,2.016713449E-1,-1.783289677E-1,-4.471375457E0,4.479472182E0
1.175467296E1,-9.996845730E-1,5.747620028E-1,-3.299119524E0,3.494840517E0
1.176461796E1,-1.464524330E0,1.303787003E0,-2.155377830E0,2.913819770E0
1.177456396E1,-1.461608470E0,2.014386842E0,-1.296913016E0,2.806427808E0
1.178450996E1,-1.551085049E0,2.502241094E0,-8.316888048E-1,3.059212577E0
1.179445496E1,-1.736205558E0,2.869612883E0,-4.361822610E-1,3.382209751E0
1.180440096E1,-2.019264297E0,3.107992170E0,1.056034921E-1,3.707855948E0
1.181434596E1,-2.172031285E0,3.039620678E0,5.498421930E-1,3.776154155E0
1.182429196E1,-2.015876567E0,2.574713239E0,8.696641316E-1,3.383669945E0
1.183423696E1,-1.864960077E0,1.814044277E0,1.234012764E0,2.879517360E0
1.184418296E1,-1.879767420E0,9.426577020E-1,1.734450223E0,2.725884567E0
1.185412896E1,-1.886684968E0,2.852248406E-1,2.502953870E0,3.147334023E0
1.186407396E1,-1.792385752E0,-1.194592005E-1,3.368997844E0,3.817992097E0
1.187401996E1,-1.620707553E0,-3.329392898E-1,4.250029401E0,4.560733653E0
1.188396496E1,-1.398665094E0,-4.308807367E-1,5.174875315E0,5.377848713E0
1.189391096E1,-1.174145169E0,-3.900712645E-1,6.027094717E0,6.152775244E0
1.190385596E1,-1.057151447E0,-2.548251665E-1,6.373069789E0,6.465177769E0
1.191380196E1,-8.685905828E-1,-1.930119109E-1,6.132021832E0,6.196240388E0
1.192374796E1,-7.255263188E-1,-7.423917353E-2,5.580513622E0,5.627968743E0
1.193369296E1,-5.547363125E-1,2.281308728E-1,4.808767694E0,4.846031656E0
1.194363896E1,-6.782815473E-1,5.822575486E-1,4.012520179E0,4.110888943E0
1.195358396E1,-1.279741498E0,8.651411641E-1,3.301920925E0,3.645392891E0
1.196352996E1,-1.890882684E0,1.058768787E0,2.623384877E0,3.402730798E0
1.197347596E1,-2.214287358E0,1.122726216E0,1.897373532E0,3.124677420E0
1.198342096E1,-2.317870783E0,1.057933220E0,1.273220099E0,2.848304247E0
1.199336696E1,-2.293301368E0,6.807948267E-1,8.187646309E-1,2.528455711E0
1.200331196E1,-2.156806597E0,1.700364465E-1,4.188617849E-1,2.203672454E0
1.201325796E1,-1.846093743E0,-3.170126438E-2,8.694400370E-2,1.848411842E0
1.202320296E1,-1.312469826E0,1.563510382E-1,-3.298377804E-1,1.362283250E0
1.203314896E1,-8.320728207E-1,4.982032388E-1,-6.794534755E-1,1.184148923E0
1.204309496E1,-4.872932115E-1,7.489026099E-1,-8.829014969E-1,1.256114981E0
1.205303996E1,-2.642956093E-1,7.235110760E-1,-1.012917553E0,1.272525998E0
1.206298596E1,-1.493998682E-1,4.670065892E-1,-1.110235540E0,1.213687946E0
1.207293096E1,-5.313072503E-3,9.946347713E-2,-1.203882061E0,1.207995542E0
1.208287696E1,1.145538251E-1,-3.205782759E-1,-1.285212299E0,1.329535131E0
1.209282196E1,2.339628857E-1,-6.398128617E-1,-1.280532773E0,1.450470031E0
1.210276796E1,3.639277786E-1,-8.377317560E-1,-1.239900325E0,1.539996993E0
1.211271396E1,4.170517793E-1,-8.780722815E-1,-1.143415566E0,1.500780555E0
1.212265896E1,3.643907319E-1,-7.977087343E-1,-9.660489035E-1,1.304749138E0
1.213260496E1,1.553542341E-1,-6.076666242E-1,-7.414275295E-1,9.711377068E-1
1.214254996E1,-7.754738197E-2,-4.475833082E-1,-4.965632410E-1,6.729929172E-1
1.215249596E1,-2.480529213E-1,-2.902733266E-1,-2.931599508E-1,4.813850981E-1
1.216244096E1,-2.933431149E-1,-3.871149123E-2,-1.378650659E-1,3.264284592E-1
1.217238696E1,-2.649757867E-1,3.205893856E-1,-1.359623820E-3,4.159225532E-1
1.218233296E1,-1.301037642E-1,7.065453798E-1,1.495941420E-1,7.338336122E-1
1.219227796E1,-2.554385394E-2,9.958574241E-1,3.366797537E-1,1.051540657E0
1.220222396E1,3.012953281E-2,1.140510523E0,5.018400608E-1,1.246401014E0
1.221216896E1,3.443878457E-2,1.107790089E0,7.182865888E-1,1.320727275E0
1.222211496E1,-5.078423738E-2,8.958244282E-1,9.472694010E-1,1.304760424E0
1.223206096E1,-1.741452849E-1,6.397292465E-1,1.216108370E0,1.385099150E0
1.224200596E1,-2.699146374E-1,3.861542147E-1,1.484212198E0,1.557194540E0
1.225195196E1,-3.312706406E-1,2.256498992E-1,1.752008827E0,1.797273781E0
1.226189696E1,-3.440346739E-1,2.123656100E-1,1.989096465E0,2.029769385E0
1.227184296E1,-3.024220866E-1,3.130388761E-1,2.195212571E0,2.237947874E0
1.228178796E1,-2.465838084E-1,4.689116120E-1,2.312299556E0,2.372216456E0
1.229173396E1,-1.849920161E-1,5.835123610E-1,2.387866048E0,2.465078697E0
1.230167996E1,-1.986125202E-1,6.543730134E-1,2.416320353E0,2.511225801E0
1.231162496E1,-2.266373478E-1,6.716907120E-1,2.504591675E0,2.602981436E0
1.232157096E1,-2.466519284E-1,7.179082739E-1,2.707953742E0,2.812337628E0
1.233151596E1,-2.471157588E-1,7.874708444E-1,2.942870309E0,3.056413287E0
1.234146196E1,-2.765064959E-1,7.398540437E-1,3.035339931E0,3.136419670E0
1.235140696E1,-3.214104809E-1,6.129618627E-1,3.070539585E0,3.147576891E0
1.236135296E1,-4.874911398E-1,4.604606313E-1,3.151456279E0,3.222009975E0
1.237129896E1,-7.472870243E-1,3.860524732E-1,3.121927840E0,3.233250353E0
1.238124396E1,-9.047202359E-1,4.383885616E-1,2.868589035E0,3.039655620E0
1.239118996E1,-1.090387605E0,6.426891071E-1,2.536671839E0,2.834907130E0
1.240113496E1,-1.295100526E0,9.504777682E-1,2.346172476E0,2.843451890E0
1.241108096E1,-1.600401050E0,1.246991243E0,1.972880382E0,2.829934219E0
1.242102696E1,-2.001525014E0,1.498153714E0,1.578718990E0,2.956843010E0
1.243097196E1,-2.347460618E0,1.812073181E0,1.242864279E0,3.215414776E0
1.244091796E1,-2.627747193E0,2.111906705E0,8.937550255E-1,3.487693118E0
1.245086296E1,-2.853981521E0,2.381435280E0,5.430285788E-1,3.756504300E0
1.246080896E1,-3.002018696E0,2.615165446E0,3.341024472E-1,3.995351174E0
1.247075396E1,-3.193717322E0,2.747759832E0,1.997654450E-1,4.217809937E0
1.248069996E1,-3.305060880E0,2.862315558E0,2.068773403E-1,4.377108178E0
1.249064596E1,-3.376339315E0,2.848642429E0,3.216307747E-1,4.429207290E0
1.250059096E1,-3.412202920E0,2.648412130E0,3.709086963E-1,4.335295704E0
1.251053696E1,-3.466962387E0,2.174646744E0,3.766623565E-1,4.109840774E0
1.252048196E1,-3.622954114E0,1.392068265E0,2.958965939E-1,3.892454927E0
1.253042796E1,-3.706138358E0,1.455828059E-1,-8.380287945E-2,3.709943235E0
1.254037396E1,-3.510572091E0,-1.566732198E0,-9.403274404E-1,3.957648529E0
1.255031896E1,-2.949911233E0,-3.653570720E0,-2.537963489E0,5.337772378E0
1.256026496E1,-2.328867057E0,-5.544373736E0,-4.013483800E0,7.229920754E0
1.257020996E1,-1.971906528E0,-6.379470152E0,-3.975673950E0,7.771231442E0
1.258015596E1,-1.820570062E0,-5.933259770E0,-2.755735434E0,6.790590890E0
1.259010096E1,-1.525279824E0,-4.653667960E0,-1.512495764E0,5.125499728E0
1.260004696E1,-1.327676972E0,-3.382691438E0,-5.428250957E-1,3.674232790E0
1.260999296E1,-1.427744174E0,-2.737824243E0,1.440828489E-1,3.091099300E0
1.261993796E1,-1.505408939E0,-2.604998308E0,4.587057357E-1,3.043465658E0
1.262988396E1,-1.461643115E0,-2.758077829E0,4.616569716E-1,3.155395548E0
1.263982896E1,-1.273021001E0,-3.030767409E0,1.943250494E-1,3.293007103E0
1.264977496E1,-8.142524808E-1,-3.314306497E0,-5.314782813E-2,3.413276923E0
1.265971996E1,-2.311942291E-1,-3.381826050E0,-2.631703126E-1,3.399920120E0
1.266966596E1,4.742025382E-1,-3.153206935E0,-5.478947778E-1,3.235393440E0
1.267961196E1,1.297631639E0,-2.657201664E0,-8.338138291E-1,3.072428040E0
1.268955696E1,2.222747694E0,-2.098618323E0,-1.293237457E0,3.319227214E0
1.269950296E1,3.217674242E0,-1.824226034E0,-2.026279202E0,4.217467908E0
1.270944796E1,4.253878623E0,-1.845485925E0,-2.888944070E0,5.463268205E0
1.271939396E1,5.007266632E0,-1.838700231E0,-3.541062982E0,6.402551422E0
1.272933996E1,5.168556814E0,-1.611352885E0,-3.712398972E0,6.564475896E0
1.273928496E1,4.995849944E0,-1.368837277E0,-3.655360553E0,6.339865371E0
1.274923096E1,4.305508660E0,-1.186947355E0,-3.362981644E0,5.590697129E0
1.275917596E1,4.069531116E0,-1.023005462E0,-3.125005229E0,5.231948142E0
1.276912196E1,4.014095711E0,-9.020388490E-1,-2.849903088E0,5.004856249E0
1.277906696E1,3.959412258E0,-7.741251594E-1,-2.407383761E0,4.698054040E0
1.278901296E1,4.048640184E0,-7.946436238E-1,-2.076300231E0,4.618870910E0
1.279895896E1,3.979607372E0,-7.270316845E-1,-1.875880337E0,4.459235017E0
1.280890396E1,3.645211540E0,-5.818277782E-1,-1.813405469E0,4.112727821E0
1.281884996E1,3.181694570E0,-3.764525145E-1,-1.904036727E0,3.726962931E0
1.282879496E1,2.603637661E0,-1.196691155E-1,-2.058188335E0,3.321052391E0
1.283874096E1,1.891680391E0,1.194592005E-1,-2.173078521E0,2.883573384E0
1.284868596E1,1.207666233E0,5.974755120E-1,-2.121879424E0,2.513524817E0
1.285863196E1,6.935668999E-1,1.263396776E0,-1.996525060E0,2.462380713E0
1.286857796E1,3.105235501E-1,1.887674171E0,-1.822290313E0,2.642059923E0
1.287852296E1,1.273631743E-1,2.222244834E0,-1.627426589E0,2.757373892E0
1.288846896E1,-4.520482421E-3,2.220828053E0,-1.323774833E0,2.585435647E0
1.289841396E1,5.379730761E-2,2.154348135E0,-1.266665370E0,2.499710222E0
1.290835996E1,1.499205628E-1,2.206133416E0,-1.538296019E0,2.693669517E0
1.291830596E1,1.289293510E-1,2.390586172E0,-1.594495947E0,2.876446132E0
1.292825096E1,3.223970523E-1,2.587425671E0,-1.360180475E0,2.940884626E0
1.293819696E1,8.199856026E-1,2.618184364E0,-9.695619106E-1,2.909865298E0
1.294814196E1,1.663972125E0,2.396985950E0,-4.984195858E-2,2.918360687E0
1.295808796E1,2.287426670E0,1.895898864E0,1.159798733E0,3.189339489E0
1.296803296E1,2.446406032E0,1.218940396E0,2.007419008E0,3.391231227E0
1.297797896E1,2.290248244E0,4.768872142E-1,2.306366679E0,3.285115781E0
1.298792496E1,1.958371393E0,-2.684895247E-1,2.471771838E0,3.164958319E0
1.299786996E1,1.340751054E0,-9.293435919E-1,2.685372380E0,3.142056288E0
1.300781596E1,3.723857760E-1,-1.499476354E0,2.658010919E0,3.074430443E0
1.301776096E1,-7.121873581E-1,-1.879926610E0,2.264287776E0,3.027925697E0
1.302770696E1,-1.559592163E0,-1.866233600E0,1.589750932E0,2.905591780E0
1.303765296E1,-1.836665108E0,-1.612235815E0,5.221660057E-1,2.499059899E0
1.304759796E1,-1.531885132E0,-1.336661219E0,-5.383089986E-1,2.103119552E0
1.305754396E1,-9.601975948E-1,-1.204846267E0,-1.225258897E0,1.968474870E0
1.306748896E1,-4.951454374E-1,-1.178747805E0,-1.663014790E0,2.097673374E0
1.307743496E1,-4.123795617E-1,-1.157972648E0,-1.943606004E0,2.299687339E0
1.308738008E1,-5.914286140E-1,-1.261112269E0,-2.052446077E0,2.480469080E0
1.309732608E1,-6.639221013E-1,-1.578737116E0,-2.008229432E0,2.639353877E0
1.310727208E1,-4.210989296E-1,-1.988746802E0,-1.873694940E0,2.764628524E0
1.311721708E1,-5.923127130E-2,-2.309041488E0,-1.755984642E0,2.901493236E0
1.312716308E1,3.820385058E-1,-2.546341379E0,-1.727722125E0,3.100779189E0
1.313710808E1,1.050241061E0,-2.672556453E0,-1.765317967E0,3.370743509E0
1.314705408E1,2.000037775E0,-2.644992093E0,-1.842835090E0,3.793702076E0
1.315699908E1,3.164589417E0,-2.464724189E0,-2.196664727E0,4.573273164E0
1.316694508E1,4.248533683E0,-2.122966129E0,-2.750974339E0,5.488613983E0
1.317689108E1,5.052717040E0,-1.615663453E0,-3.319603490E0,6.257801947E0
1.318683608E1,5.523372291E0,-1.083546363E0,-3.819729001E0,6.802355756E0
1.319678208E1,5.539970782E0,-4.636812776E-1,-4.003028102E0,6.850584689E0
1.320672708E1,5.339457479E0,1.370271599E-1,-3.904475621E0,6.616155415E0
1.321667308E1,5.041402677E0,6.455653524E-1,-3.602032776E0,6.229537359E0
1.322661908E1,4.606322178E0,8.129588574E-1,-3.175714915E0,5.653695369E0
1.323656408E1,3.824191888E0,4.234465867E-1,-2.639895953E0,4.666133437E0
1.324651008E1,2.557294091E0,-1.588606632E-1,-2.029329402E0,3.268511527E0
1.325645508E1,1.120637883E0,-6.224355215E-1,-1.286751433E0,1.816310682E0
1.326640108E1,-2.710399340E-1,-8.694850606E-1,-4.554229626E-1,1.018271570E0
1.327634608E1,-1.351534489E0,-7.845162463E-1,3.030547553E-1,1.591839628E0
1.328629208E1,-2.085361077E0,-4.363607472E-1,8.592027318E-1,2.297252893E0
1.329623808E1,-2.577315250E0,2.571956277E-2,1.200504709E0,2.843312672E0
1.330618308E1,-3.075966386E0,3.328615218E-1,1.234083369E0,3.330964989E0
1.331612908E1,-3.473261300E0,3.905928361E-1,1.128195409E0,3.672728101E0
1.332607408E1,-3.686910959E0,2.754360169E-1,1.131817467E0,3.866547323E0
1.333602008E1,-3.509077250E0,1.320125878E-1,1.157652074E0,3.697459776E0
1.334596608E1,-2.717440265E0,5.494803965E-2,1.136985821E0,2.946224302E0
1.335591108E1,-1.517579626E0,-4.537439346E-4,1.025368906E0,1.831510175E0
1.336585708E1,-2.454684520E-1,-1.807596552E-1,8.639863390E-1,9.161884128E-1
1.337580208E1,8.998294786E-1,-4.641116327E-1,6.963484204E-1,1.228818058E0
1.338574808E1,1.817907679E0,-7.485465145E-1,5.841614020E-1,2.050939969E0
1.339569308E1,2.526849978E0,-9.012909901E-1,4.918654418E-1,2.727494798E0
1.340563908E1,3.092491202E0,-9.398463607E-1,3.680366170E-1,3.253039189E0
1.341558508E1,3.455366482E0,-9.282530862E-1,1.917698161E-1,3.583013672E0
1.342553008E1,3.605180917E0,-8.884008032E-1,-7.713427618E-2,3.713830251E0
1.343547608E1,3.594467064E0,-7.969959587E-1,-4.303499557E-1,3.706831142E0
1.344542108E1,3.332993613E0,-6.534877449E-1,-6.948509485E-1,3.466801191E0
1.345536708E1,2.951603125E0,-5.400137544E-1,-1.301136460E0,3.270555297E0
1.346531308E1,2.615299932E0,-3.476982468E-1,-2.059644291E0,3.347061758E0
1.347525808E1,2.229042807E0,-1.155462438E-1,-2.531892617E0,3.375272284E0
1.348520408E1,1.821486321E0,1.251736844E-1,-2.757981935E0,3.307558801E0
1.349514908E1,1.332447423E0,3.520672864E-1,-2.732249508E0,3.060156023E0
1.350509508E1,8.347835167E-1,6.025017786E-1,-2.505210895E0,2.708496546E0
1.351504008E1,3.957364125E-1,8.824945307E-1,-2.114430509E0,2.325128014E0
1.352498608E1,7.895334497E-2,1.165676939E0,-1.641826088E0,2.015100310E0
1.353493208E1,-8.147524908E-2,1.385786601E0,-1.151349945E0,1.803510304E0
1.354487708E1,-2.215194992E-1,1.534100057E0,-7.653179370E-1,1.728654222E0
1.355482308E1,-3.781367319E-1,1.518418994E0,-3.824858178E-1,1.610862822E0
1.356476808E1,-6.460423391E-1,1.382234418E0,-2.727726102E-2,1.526003519E0
1.357471408E1,-8.909990866E-1,1.334760874E0,2.504828779E-1,1.624256025E0
1.358466008E1,-9.869796697E-1,1.391118093E0,4.158820438E-1,1.755646972E0
1.359460508E1,-9.717636066E-1,1.471005676E0,5.494253596E-1,1.846632187E0
1.360455108E1,-8.750116295E-1,1.575666159E0,6.415599366E-1,1.913104375E0
1.361449608E1,-7.060217616E-1,1.594186045E0,6.436141366E-1,1.858530342E0
1.362444208E1,-4.265405678E-1,1.507697539E0,6.096218600E-1,1.681287464E0
1.363438708E1,-9.004427053E-2,1.304667009E0,5.772212686E-1,1.429492346E0
1.364433308E1,3.298276940E-1,1.010438626E0,5.419480133E-1,1.193096883E0
1.365427908E1,7.593678834E-1,7.736620599E-1,5.135399008E-1,1.199548163E0
1.366422408E1,1.151795649E0,7.016559380E-1,4.730778263E-1,1.429250469E0
1.367417008E1,1.516890824E0,8.829389191E-1,3.715133715E-1,1.794034864E0
1.368411508E1,1.834908604E0,1.198889124E0,1.417539760E-1,2.196433224E0
1.369406108E1,2.128650207E0,1.549841931E0,-8.965776958E-2,2.634615765E0
1.370400708E1,2.372806544E0,1.842079337E0,-3.150965843E-1,3.020389550E0
1.371395208E1,2.555230317E0,1.937124658E0,-5.359319593E-1,3.250980925E0
1.372389808E1,2.613027997E0,1.795148415E0,-7.386256168E-1,3.255156055E0
1.373384308E1,2.542655879E0,1.521191159E0,-9.196934203E-1,3.102411554E0
1.374378908E1,2.459566945E0,1.291055276E0,-1.156320882E0,3.008882062E0
1.375373408E1,2.286363354E0,1.132018611E0,-1.442540261E0,2.930843894E0
1.376368008E1,2.097652216E0,1.060904775E0,-1.859392943E0,2.997166308E0
1.377362608E1,1.899928619E0,9.199880469E-1,-2.313991302E0,3.132197712E0
1.378357108E1,1.820184731E0,5.816389132E-1,-2.751609639E0,3.350034609E0
1.379351708E1,1.787316654E0,-6.803059995E-2,-3.177931302E0,3.646693892E0
1.380346208E1,1.604866277E0,-8.495372844E-1,-3.559828743E0,3.996209460E0
1.381340808E1,1.071772410E0,-1.722413730E0,-3.776597599E0,4.286967994E0
1.382335308E1,3.018784417E-1,-2.659776193E0,-3.817755858E0,4.662703055E0
1.383329908E1,-7.569444318E-1,-3.501631991E0,-3.859813710E0,5.266170653E0
1.384324508E1,-1.830531525E0,-4.255900590E0,-3.972821678E0,6.103019546E0
1.385319008E1,-2.562972322E0,-5.004666960E0,-3.872323536E0,6.827181562E0
1.386313608E1,-2.916332721E0,-5.668734657E0,-3.523821589E0,7.284014535E0
1.387308108E1,-3.077735168E0,-6.143412209E0,-3.023709819E0,7.507115851E0
1.388302708E1,-3.138656139E0,-6.417924950E0,-2.381715654E0,7.530836108E0
1.389297308E1,-3.350478250E0,-6.341563822E0,-1.604693199E0,7.349569816E0
1.390291808E1,-3.821265941E0,-5.971395310E0,-7.166803586E-1,7.125536196E0
1.391286408E1,-4.374327465E0,-5.926103947E0,3.110783046E-1,7.372260066E0
1.392280908E1,-4.567818555E0,-6.437556977E0,1.135953788E0,7.974803897E0
1.393275508E1,-4.572954749E0,-6.983856488E0,1.727368222E0,8.524668179E0
1.394270008E1,-4.616544865E0,-6.535934626E0,1.988153894E0,8.245221879E0
1.395264608E1,-3.897638179E0,-4.388398497E0,1.749147054E0,6.124470602E0
1.396259208E1,-2.273685713E0,-1.406381080E0,1.318649456E0,2.981005007E0
1.397253708E1,-8.882084298E-1,1.090263060E0,1.110673351E0,1.791977412E0
1.398248308E1,1.187527838E-1,3.028587567E0,8.093281750E-1,3.137109652E0
1.399242808E1,5.355521096E-1,4.331365925E0,3.050637124E-1,4.374998367E0
1.400237408E1,4.388324384E-1,5.115201555E0,1.422889231E-1,5.135962130E0
1.401232008E1,6.903851375E-2,5.461663116E0,2.084232710E-1,5.466074512E0
1.402226508E1,-3.393322700E-1,5.244289951E0,4.894441098E-1,5.277999528E0
1.403221108E1,-6.735324387E-1,4.499339474E0,1.139972579E0,4.690121441E0
1.404215608E1,-1.177454985E0,3.396138280E0,2.251718894E0,4.241508392E0
1.405210208E1,-1.715561378E0,2.096705114E0,3.563971496E0,4.476741672E0
1.406204708E1,-2.039928357E0,8.027578050E-1,4.462548208E0,4.971927625E0
1.407199308E1,-2.296904130E0,-4.293902814E-2,5.167982617E0,5.655586324E0
1.408193908E1,-2.979466277E0,-4.470734310E-1,5.743146324E0,6.485431647E0
1.409188387E1,-3.568705986E0,-2.834010941E-1,5.897134502E0,6.898708135E0
1.410182987E1,-3.912244524E0,2.867112029E-1,5.902568904E0,7.087184222E0
1.411177487E1,-3.914256843E0,8.807924062E-1,5.332861819E0,6.673576034E0
1.412172087E1,-3.835435499E0,1.341848869E0,4.492797024E0,6.057751147E0
1.413166687E1,-3.704972423E0,1.624795049E0,3.957423620E0,5.659326932E0
1.414161188E1,-3.406738697E0,1.696595934E0,3.505832630E0,5.174472799E0
1.415155787E1,-3.314905252E0,1.610093980E0,2.862664636E0,4.666459929E0
1.416150287E1,-2.981298795E0,1.416064653E0,2.465969646E0,4.119998532E0
1.417144887E1,-2.410538042E0,1.099087678E0,2.270141716E0,3.488872423E0
1.418139488E1,-1.745466962E0,7.783526963E-1,1.869641358E0,2.673583109E0
1.419133988E1,-1.150017218E0,6.721672601E-1,1.696405900E0,2.156882334E0
1.420128587E1,-3.437861672E-1,6.621293449E-1,1.732986665E0,1.886755676E0
1.421123087E1,3.304957384E-1,5.068395764E-1,1.654362080E0,1.761541280E0
1.422117687E1,7.947152522E-1,2.316748703E-1,1.490945266E0,1.705333799E0
1.423112187E1,1.139685481E0,-1.054364079E-1,1.288154472E0,1.723177813E0
1.424106787E1,1.476746911E0,-3.870833373E-1,8.385679078E-1,1.741783880E0
1.425101388E1,1.871585557E0,-5.552855122E-1,3.227516860E-1,1.978722605E0
1.426095888E1,2.500531661E0,-6.572703087E-1,-1.188029967E-1,2.588199567E0
1.427090487E1,3.331257283E0,-9.202347994E-1,-4.059717442E-1,3.479787382E0
1.428084987E1,3.974364173E0,-1.617955561E0,-5.398851156E-1,4.324907712E0
1.429079587E1,4.093212340E0,-3.061559431E0,5.436787891E-1,5.140342404E0
1.430074188E1,4.685503126E0,-5.080820512E0,1.137377438E0,7.004448876E0
1.431068687E1,5.770550469E0,-5.365482851E0,-2.222618763E0,8.187044223E0
1.432063287E1,5.871327231E0,-4.279618067E0,-4.266402190E0,8.425544605E0
1.433057788E1,5.002750828E0,-2.583923773E0,-5.110002211E0,7.603703079E0
1.434052387E1,3.355307173E0,-8.053294104E-1,-5.490526142E0,6.484791362E0
1.435046887E1,1.202230223E0,9.384623247E-1,-5.390406023E0,5.602012686E0
1.436041487E1,-4.068207599E-1,2.060134873E0,-4.837933021E0,5.274016946E0
1.437036088E1,-7.724149950E-1,2.591119941E0,-3.940380156E0,4.778820278E0
1.438030588E1,-4.282965598E-1,2.783640686E0,-2.916392362E0,4.054311017E0
1.439025187E1,-3.376951227E-1,2.836846840E0,-2.152498661E0,3.577008314E0
1.440019687E1,-8.880765751E-1,2.747865082E0,-1.575626252E0,3.289687006E0
1.441014287E1,-1.721029109E0,2.447100096E0,-1.031343006E0,3.164476019E0
1.442008888E1,-2.651260893E0,1.915322145E0,-4.195209123E-1,3.297520438E0
1.443003387E1,-3.611338620E0,1.284846702E0,3.696772727E-1,3.850877687E0
1.443997987E1,-4.501364949E0,6.578509372E-1,1.373839570E0,4.752103684E0
1.444992488E1,-4.744981296E0,1.818951845E-1,2.207698131E0,5.236589003E0
1.445987087E1,-4.235629463E0,-8.115526021E-2,2.780013074E0,5.067111190E0
1.446981587E1,-3.429423263E0,-1.889568669E-1,3.271425941E0,4.743298040E0
1.447976187E1,-2.910096080E0,-1.749293965E-1,4.065738612E0,5.002948126E0
1.448970788E1,-2.361551823E0,-2.890103281E-2,5.208023765E0,5.718502760E0
1.449965287E1,-1.688666379E0,1.270635045E-1,6.456615976E0,6.675000310E0
1.450959887E1,-1.349305238E0,4.277904832E-1,7.238216801E0,7.375324520E0
1.451954388E1,-1.437684295E0,7.531827718E-1,6.983922561E0,7.170034502E0
1.452948987E1,-1.942268308E0,9.867287511E-1,6.399791565E0,6.760426901E0
1.453943587E1,-2.581612954E0,1.149301227E0,5.671260070E0,6.336308825E0
1.454938087E1,-2.852041123E0,1.262639562E0,4.792690190E0,5.718240681E0
1.455932688E1,-2.684745559E0,1.421759841E0,3.807631989E0,4.871069813E0
1.456927188E1,-2.444820559E0,1.597235368E0,3.045667284E0,4.219525754E0
1.457921787E1,-2.282402743E0,1.544273627E0,2.490436735E0,3.714353032E0
1.458916387E1,-2.132338631E0,1.155210423E0,2.054761866E0,3.178588599E0
1.459910887E1,-1.620481851E0,7.051204133E-1,1.737978433E0,2.478653921E0
1.460905488E1,-9.012152687E-1,3.906963319E-1,1.457098074E0,1.757261330E0
1.461899987E1,-2.971274328E-1,1.514107257E-1,1.130796543E0,1.178944758E0
1.462894587E1,6.150861561E-2,-1.402764577E-1,8.453284585E-1,8.590931249E-1
1.463889088E1,2.540659055E-1,-5.911523330E-1,7.105109614E-1,9.585595399E-1
1.464883687E1,4.728394791E-1,-1.193043662E0,7.425677365E-1,1.482679061E0
1.465878287E1,7.562676166E-1,-1.830368534E0,6.557611424E-1,2.086195665E0
1.466872787E1,7.507895064E-1,-2.197805226E0,4.770170224E-1,2.370986701E0
1.467867388E1,5.492845148E-1,-2.170094102E0,2.611706380E-1,2.253715153E0
1.468861888E1,3.461960971E-1,-1.717702044E0,5.965329409E-3,1.752252160E0
1.469856487E1,2.026073380E-1,-9.368765599E-1,-2.710582796E-1,9.961224888E-1
1.470851087E1,2.533585386E-1,-1.347789055E-1,-9.867423458E-1,1.027626566E0
1.471845587E1,5.179865621E-1,3.377421927E-1,-1.841907575E0,1.942936793E0
1.472840187E1,6.639317492E-1,5.335403019E-1,-2.305671737E0,2.457965171E0
1.473834687E1,5.595254745E-1,5.966902310E-1,-2.396676047E0,2.532422568E0
1.474829288E1,2.507695377E-1,6.162573534E-1,-2.172915237E0,2.272491830E0
1.475823788E1,-1.316193625E-1,6.236043799E-1,-1.704322299E0,1.819593520E0
1.476818387E1,-3.996731235E-1,6.183091414E-1,-1.070816975E0,1.299497516E0
1.477812987E1,-5.352332170E-1,6.177817225E-1,-3.380205933E-1,8.845262997E-1
1.478807487E1,-6.899816796E-1,6.572089130E-1,2.839547523E-1,9.942980312E-1
1.479802088E1,-8.075310333E-1,7.324017674E-1,8.100182927E-1,1.358178322E0
1.480796587E1,-7.826044992E-1,8.458845288E-1,1.596801504E0,1.969204277E0
1.481791187E1,-7.047426832E-1,8.469639248E-1,2.554497076E0,2.781989477E0
1.482785787E1,-7.006215656E-1,8.689886320E-1,3.407944978E0,3.586098269E0
1.483780287E1,-7.351311015E-1,1.025817972E0,3.952571016E0,4.149161106E0
1.484774887E1,-5.406705429E-1,1.362716412E0,4.557904016E0,4.787881544E0
1.485769387E1,-2.656781834E-1,1.629884466E0,5.167107874E0,5.424584044E0
1.486763988E1,-3.280650508E-1,1.692712798E0,4.894894842E0,5.189691591E0
1.487758488E1,-8.764682440E-1,1.673494170E0,4.335507508E0,4.729207615E0
1.488753087E1,-1.592056635E0,1.749265314E0,3.952283918E0,4.605987585E0
1.489747687E1,-2.399606087E0,1.944569918E0,3.833039310E0,4.922565580E0
1.490742187E1,-3.236952804E0,2.194267076E0,3.697154111E0,5.381600132E0
1.491736787E1,-4.075896103E0,2.434676517E0,3.519480032E0,5.909933881E0
1.492731287E1,-4.691664922E0,2.604001358E0,3.138345067E0,6.216249075E0
1.493725887E1,-4.920369991E0,2.761982599E0,2.579291609E0,6.204138452E0
1.494720487E1,-5.110759426E0,2.908318527E0,2.065971563E0,6.232689392E0
1.495714987E1,-5.325065727E0,2.998170351E0,1.652458227E0,6.330558319E0
1.496709587E1,-5.340249192E0,2.947358631E0,1.197545872E0,6.216051837E0
1.497704087E1,-5.167121322E0,2.467660661E0,4.012645894E-1,5.740165953E0
1.498698688E1,-4.712468730E0,1.103917478E0,-1.197230269E0,4.985915728E0
1.499693287E1,-4.245522660E0,-9.089011413E-1,-3.221872543E0,5.406572539E0
1.500687787E1,-3.944080859E0,-3.454907475E0,-5.004951135E0,7.248565054E0
1.501682387E1,-3.672330927E0,-5.933080845E0,-6.003201824E0,9.204667017E0
1.502676887E1,-3.134177756E0,-7.144587675E0,-5.861508002E0,9.758354334E0
1.503671487E1,-2.036068026E0,-6.459336101E0,-4.100165849E0,7.917067377E0
1.504665987E1,-8.234478121E-1,-5.250717795E0,-2.068626638E0,5.703272730E0
1.505660588E1,1.307042733E-2,-4.531900279E0,-8.587478185E-1,4.612563148E0
1.506655187E1,7.448747554E-1,-4.292214139E0,-1.963138336E-1,4.360788889E0
1.507649687E1,1.169417037E0,-4.288052675E0,5.372772574E-2,4.444976785E0
1.508644287E1,1.599920409E0,-4.416701360E0,-3.496518016E-2,4.697682278E0
1.509639058E1,1.983471736E0,-4.506963074E0,-1.877796762E-1,4.927690887E0
1.510633658E1,2.066236004E0,-4.216951702E0,-2.480577452E-1,4.702504176E0
1.511628258E1,2.090778814E0,-3.515657122E0,-7.261445157E-1,4.154333510E0
1.512622758E1,3.240562290E0,-2.825983883E0,-1.956824659E0,4.724043989E0
1.513617358E1,4.300807207E0,-2.651158567E0,-2.735183056E0,5.745155414E0
1.514611858E1,4.570542188E0,-2.479992439E0,-3.097324510E0,6.052572801E0
1.515606458E1,4.300406672E0,-1.959538790E0,-3.382792010E0,5.811761489E0
1.516600958E1,4.008108163E0,-1.341643631E0,-3.579112861E0,5.538500478E0
1.517595558E1,4.219549620E0,-1.008473377E0,-3.994601679E0,5.897326523E0
1.518590158E1,4.306643897E0,-9.615237433E-1,-4.164788107E0,6.067715348E0
1.519584658E1,4.166170973E0,-1.110904316E0,-4.093646788E0,5.945505277E0
1.520579258E1,3.805080848E0,-1.221899672E0,-3.794644445E0,5.510989524E0
1.521573758E1,3.152416391E0,-1.242290082E0,-3.233127556E0,4.683388468E0
1.522568358E1,2.543044134E0,-9.738718933E-1,-2.658582484E0,3.805727363E0
1.523562958E1,2.227479846E0,-5.511427599E-1,-2.169387320E0,3.157794507E0
1.524557458E1,2.041586043E0,2.066113651E-2,-1.797508644E0,2.720209142E0
1.525552058E1,1.623850724E0,6.015720713E-1,-1.532386238E0,2.312355447E0
1.526546558E1,9.726987956E-1,1.279754947E0,-1.478992973E0,2.184338775E0
1.527541158E1,4.246445350E-1,2.062693030E0,-1.562859879E0,2.622509584E0
1.528535758E1,3.326643245E-1,2.713934274E0,-1.849592132E0,3.301074954E0
1.529530258E1,3.839360735E-1,3.071883275E0,-1.978553935E0,3.674037212E0
1.530524858E1,4.690708025E-1,3.060240884E0,-2.006641328E0,3.689405251E0
1.531519358E1,5.358169153E-1,2.875416244E0,-1.811513894E0,3.440450688E0
1.532513958E1,6.997155395E-1,2.726463688E0,-1.308059856E0,3.103905067E0
1.533508458E1,1.031122859E0,2.387138654E0,-7.069043988E-1,2.694690916E0
1.534503058E1,1.216492459E0,1.742487221E0,-4.065235752E-1,2.163649009E0
1.535497658E1,1.285413736E0,1.040447121E0,-4.051450941E-1,1.702633616E0
1.536492158E1,1.215860083E0,4.583363378E-1,-4.506428638E-1,1.375306122E0
1.537486758E1,1.277941725E0,1.108146769E-1,-2.263153124E-1,1.302548873E0
1.538481258E1,1.617823122E0,-3.197783768E-2,1.288711712E-1,1.623262768E0
1.539475858E1,2.007475141E0,-9.457228124E-2,4.865991470E-1,2.067771527E0
1.540470458E1,2.337973803E0,-3.781043530E-2,8.955317751E-1,2.503902612E0
1.541464958E1,2.561581270E0,1.258595628E-1,1.326367196E0,2.887349852E0
1.542459558E1,2.334333619E0,2.542334282E-1,1.409521619E0,2.738703941E0
1.543454058E1,1.015213754E0,2.468367004E-1,1.207469913E0,1.596737585E0
1.544448658E1,-4.535264182E-1,1.647277594E-1,1.076102858E0,1.179329813E0
1.545443258E1,-1.808156716E0,-5.723313153E-2,8.847290441E-1,2.013815240E0
1.546437758E1,-3.020897893E0,-3.046522146E-1,7.768470383E-1,3.134027501E0
1.547432358E1,-3.573648053E0,-4.127029127E-1,6.385542485E-1,3.653633209E0
1.548426858E1,-3.262548698E0,1.947707534E-3,3.328913426E-1,3.279488443E0
1.549421458E1,-1.834039416E0,8.017047215E-1,-4.463325888E-1,2.050766642E0
1.550415958E1,-3.351866671E-1,1.289661300E0,-1.257848646E0,1.832419053E0
1.551410558E1,5.181568623E-1,1.329161580E0,-1.631878951E0,2.167529919E0
1.552405158E1,1.257006354E0,1.521873529E0,-1.770701791E0,2.651706780E0
1.553399658E1,1.669604309E0,1.502949600E0,-1.768516394E0,2.859035902E0
1.554394258E1,1.740181372E0,7.479471749E-1,-1.689128747E0,2.537875511E0
1.555388758E1,1.573842997E0,-7.562496364E-1,-1.508521997E0,2.307495158E0
1.556383358E1,1.134686696E0,-2.449093997E0,-1.175756954E0,2.944143291E0
1.557377958E1,5.282640669E-1,-4.172141565E0,-6.233245906E-1,4.251395266E0
1.558372458E1,8.633121550E-3,-6.014450113E0,2.088050942E-1,6.018079782E0
1.559367058E1,3.522567362E-2,-7.453530577E0,1.107537197E0,7.535449393E0
1.560361558E1,1.102221200E0,-7.385395896E0,1.225351868E0,7.567063586E0
1.561356158E1,3.101393295E0,-5.670776505E0,1.064868602E-1,6.464339563E0
1.562350758E1,4.246391264E0,-4.002189903E0,-1.263209665E0,5.970348519E0
1.563345258E1,4.558945990E0,-2.684200013E0,-2.194066809E0,5.727377010E0
1.564339858E1,4.569393795E0,-1.515305352E0,-2.977423553E0,5.660438232E0
1.565334358E1,4.485114952E0,-4.736677372E-1,-3.788671807E0,5.890216577E0
1.566328958E1,4.356238226E0,6.068778348E-1,-4.407137361E0,6.226393170E0
1.567323458E1,4.192595710E0,1.605181734E0,-4.827868209E0,6.592630631E0
1.568318058E1,4.042660237E0,2.333955889E0,-5.003913254E0,6.843215599E0
1.569312658E1,3.789225538E0,2.698996392E0,-4.767651828E0,6.661329872E0
1.570307158E1,3.339688675E0,2.639257144E0,-4.278148077E0,6.035043470E0
1.571301758E1,2.682556069E0,2.118659070E0,-3.641148895E0,4.994275582E0
1.572296258E1,1.873758675E0,1.401769965E0,-2.982227917E0,3.790727365E0
1.573290858E1,9.561948833E-1,8.096195126E-1,-2.257936238E0,2.582260340E0
1.574285458E1,-5.981350780E-2,2.686848217E-1,-1.288374912E0,1.317451746E0
1.575279958E1,-1.138771561E0,-3.515199870E-1,-2.240185261E-1,1.212662883E0
1.576274558E1,-2.176943238E0,-1.056574327E0,6.078268379E-1,2.494971871E0
1.577269058E1,-2.976361991E0,-1.681766226E0,1.117465476E0,3.596636961E0
1.578263658E1,-3.428959871E0,-2.225307021E0,1.565685985E0,4.377342771E0
1.579258158E1,-3.300023211E0,-2.579200977E0,2.152611366E0,4.709157734E0
1.580252758E1,-2.475572821E0,-2.660733383E0,2.747575060E0,4.555999521E0
1.581247358E1,-1.633936002E0,-2.554896441E0,2.924641029E0,4.213166010E0
1.582241858E1,-6.346790063E-1,-2.263375903E0,2.812619487E0,3.665585396E0
1.583236458E1,7.695137528E-1,-1.711540833E0,2.581133774E0,3.191202751E0
1.584230958E1,2.108757395E0,-1.143053477E0,2.046498581E0,3.153027980E0
1.585225558E1,3.024276707E0,-7.464497030E-1,1.225910715E0,3.347580296E0
1.586220158E1,3.737713323E0,-3.774126273E-1,3.454394674E-1,3.772568038E0
1.587214658E1,4.224909470E0,-2.213814318E-2,-3.914408286E-1,4.243062108E0
1.588209258E1,4.510386034E0,2.610512817E-1,-8.951110679E-1,4.605752248E0
1.589203758E1,4.534484748E0,4.062288755E-1,-1.191377791E0,4.705948881E0
1.590198358E1,4.246979493E0,3.450061888E-1,-1.522949709E0,4.524957448E0
1.591192958E1,3.599462048E0,1.229113966E-1,-2.069822540E0,4.153961915E0
1.592187458E1,3.027666923E0,-2.014237154E-1,-2.823248263E0,4.144643442E0
1.593182058E1,2.634044059E0,-5.634143114E-1,-3.406413007E0,4.342726490E0
1.594176558E1,2.167628624E0,-8.989064956E-1,-3.791452158E0,4.458896299E0
1.595171158E1,1.590647749E0,-1.075113509E0,-4.013884335E0,4.449415329E0
1.596165658E1,9.890892720E-1,-1.146607999E0,-4.088584853E0,4.359992385E0
1.597160258E1,2.590537266E-1,-1.061216431E0,-4.041148147E0,4.186187704E0
1.598154858E1,-5.166149515E-1,-7.259499496E-1,-3.818986112E0,3.921549344E0
1.599149358E1,-1.108173227E0,-2.106500369E-1,-3.449769234E0,3.629508109E0
1.600143958E1,-1.443993587E0,4.033818662E-1,-3.044732898E0,3.393852211E0
1.601138458E1,-1.359037490E0,1.039057238E0,-2.574309489E0,3.090904752E0
1.602133058E1,-9.843800707E-1,1.531941265E0,-2.044854929E0,2.738116112E0
1.603127658E1,-5.309386564E-1,1.806842262E0,-1.582194575E0,2.459657392E0
1.604122158E1,-1.630886386E-1,1.819283967E0,-1.191955642E0,2.181089248E0
1.605116758E1,6.486374795E-2,1.630671501E0,-7.607259724E-1,1.800555707E0
1.606111258E1,3.002723578E-1,1.261637934E0,-3.441799772E-1,1.341772567E0
1.607105858E1,5.064433544E-1,9.520728886E-1,1.918763816E-2,1.078561923E0
1.608100458E1,7.115239915E-1,8.584420091E-1,2.755017981E-1,1.148516571E0
1.609094721E1,1.063784382E0,9.728158861E-1,3.589656852E-1,1.485551858E0
1.610089321E1,1.579671794E0,1.180877945E0,3.575430577E-1,2.004413315E0
1.611083821E1,2.092182585E0,1.465630331E0,3.300851177E-1,2.575705034E0
1.612078421E1,2.442970208E0,1.650859598E0,5.433875978E-1,2.998117898E0
1.613073021E1,2.697152765E0,1.737853303E0,7.117860930E-1,3.286549343E0
1.614067521E1,2.595714099E0,1.755776188E0,8.473216282E-1,3.246295681E0
1.615062121E1,2.027683995E0,1.635983697E0,1.039358662E0,2.805033238E0
1.616056621E1,1.626417067E0,1.206439633E0,1.052252503E0,2.282096491E0
1.617051221E1,2.058186581E0,3.280755758E-1,6.263935018E-1,2.176266161E0
1.618045721E1,2.643774118E0,-1.201560132E0,8.156281114E-3,2.904023909E0
1.619040321E1,2.820534863E0,-3.339192247E0,-1.042072647E0,4.493499435E0
1.620034921E1,1.943002426E0,-5.491014969E0,-3.045697689E0,6.572882034E0
1.621029421E1,-1.374911073E0,-6.997938337E0,-6.541528657E0,9.677454138E0
1.622024021E1,-6.353292167E0,-7.642764017E0,-1.000405505E1,1.410167652E1
1.623018521E1,-7.533438041E0,-7.472128816E0,-1.056465919E1,1.497322349E1
1.624013121E1,-5.291216195E0,-6.891861075E0,-9.316493829E0,1.273937892E1
1.625007721E1,-2.140122736E0,-6.222136196E0,-6.311844179E0,9.117811202E0
1.626002221E1,-3.336423444E-1,-5.171034279E0,-3.069213729E0,6.022539800E0
1.626996821E1,1.381330877E-1,-4.145213968E0,-9.909071714E-1,4.264243967E0
1.627991321E1,1.507426813E-1,-3.652317077E0,7.461291294E-1,3.730797778E0
1.628985921E1,2.733533849E-1,-3.600501391E0,2.857695088E0,4.604861947E0
1.629980521E1,-2.745686556E-1,-3.392335251E0,4.639011914E0,5.753586529E0
1.630975021E1,-1.968115486E0,-3.076327159E0,5.383676462E0,6.505477661E0
1.631969621E1,-3.462954413E0,-2.694238513E0,5.371463968E0,6.935675857E0
1.632964121E1,-4.492927417E0,-1.880763931E0,4.659519854E0,6.740533733E0
1.633958721E1,-4.397984422E0,8.273459315E-2,3.597579537E0,5.682577806E0
1.634953221E1,-3.153342006E0,2.758761953E0,2.831393142E0,5.056789539E0
1.635947821E1,-2.075130057E0,4.977062840E0,2.122540451E0,5.795040745E0
