"Time (s)","Linear Acceleration x (m/s^2)","Linear Acceleration y (m/s^2)","Linear Acceleration z (m/s^2)","Absolute acceleration (m/s^2)"
5.393708590E-3,6.520958152E-1,-1.989900457E0,2.608834081E0,3.345287438E0
1.533770841E-2,7.531441802E-1,-1.950437014E0,2.851071947E0,3.535539838E0
2.528170822E-2,7.673771802E-1,-1.991257011E0,2.999397097E0,3.681080706E0
3.522570850E-2,7.195337999E-1,-2.059489925E0,2.856304035E0,3.594120251E0
4.516970832E-2,6.389609224E-1,-2.165285352E0,2.315421385E0,3.233868875E0
5.511370860E-2,5.008982205E-1,-2.299768973E0,1.376690088E0,2.726740170E0
6.505770842E-2,3.442203230E-1,-2.337065438E0,2.859498954E-1,2.379523027E0
7.500170823E-2,2.637273330E-1,-2.158351724E0,-6.422143131E-1,2.267261232E0
8.494570851E-2,1.533505395E-1,-1.887026884E0,-1.227239349E0,2.256214367E0
9.488970833E-2,-1.136657792E-1,-1.693504511E0,-1.608931553E0,2.338704381E0
1.048337086E-1,-4.572559185E-1,-1.580210030E0,-1.665061900E0,2.340636205E0
1.147777084E-1,-6.741348481E-1,-1.518615460E0,-1.346259423E0,2.138472620E0
1.247217082E-1,-7.429147688E-1,-1.434986243E0,-7.847805405E-1,1.796382022E0
1.346657085E-1,-6.322540198E-1,-1.294884617E0,-6.849077582E-2,1.442623410E0
1.446097083E-1,-5.267559238E-1,-1.145012879E0,7.209891719E-1,1.452016419E0
1.545544583E-1,-4.566105321E-1,-1.016494587E0,1.377496419E0,1.771793105E0
1.644984586E-1,-3.423141307E-1,-8.476802087E-1,1.928080185E0,2.133830804E0
1.744424584E-1,-1.513260873E-1,-4.945604235E-1,2.288345268E0,2.346063439E0
1.843864582E-1,-1.390760243E-1,-3.816594601E-2,2.416033840E0,2.420334335E0
1.943304585E-1,-3.634361739E-1,4.615739411E-1,2.132007678E0,2.211468538E0
2.042744583E-1,-7.116040984E-1,9.044514102E-1,1.627336249E0,1.993147264E0
2.142184586E-1,-9.880019823E-1,1.266609237E0,1.071422746E0,1.930904859E0
2.241614582E-1,-1.305418376E0,1.416745269E0,5.684359002E-1,2.008582502E0
2.341064583E-1,-1.706620547E0,1.287745752E0,1.424928448E-1,2.142696204E0
2.440494583E-1,-2.017415115E0,9.260036623E-1,-5.777107537E-2,2.220536878E0
2.539944584E-1,-2.133306783E0,5.555585772E-1,-1.730334368E-1,2.211240316E0
2.639374584E-1,-2.021690015E0,3.005462998E-1,-2.009372270E-1,2.053761029E0
2.738824585E-1,-1.643594725E0,1.712514979E-1,-9.262925148E-2,1.655086364E0
2.838254585E-1,-1.245421851E0,7.974081874E-2,2.442551547E-1,1.271650410E0
2.937694583E-1,-8.651613370E-1,-8.032495558E-2,6.004543760E-1,1.056173137E0
3.037134586E-1,-4.354368871E-1,-2.941576320E-1,1.073228659E0,1.194970188E0
3.136584582E-1,-3.040098980E-1,-6.385516173E-1,7.504904214E-1,1.031215816E0
3.236014582E-1,-2.958708662E-1,-8.546576911E-1,6.442295560E-1,1.110410311E0
3.335464583E-1,-2.421448946E-2,-7.263949227E-1,1.488832083E0,1.656760965E0
3.434894583E-1,3.052208564E-1,-4.685356361E-1,2.624135368E0,2.683052709E0
3.534334586E-1,3.762244731E-1,-1.676349950E-1,2.768066627E0,2.798542335E0
3.633774584E-1,3.488904941E-1,7.138807118E-2,1.959059903E0,1.991164618E0
3.733214582E-1,2.393788692E-1,3.009187675E-1,1.237289836E0,1.295662180E0
3.832654585E-1,1.148776147E-1,5.299699920E-1,8.224956661E-1,9.851721574E-1
3.932094583E-1,1.066634461E-1,7.632218564E-1,4.780280060E-1,9.068602248E-1
4.031534586E-1,8.578508556E-2,7.373736548E-1,1.450568488E-1,7.563864602E-1
4.130974584E-1,-5.930918545E-2,5.392337358E-1,5.011823952E-2,5.447957775E-1
4.230414582E-1,-2.526643279E-1,2.990324557E-1,7.481366247E-2,3.985683834E-1
4.329854585E-1,-6.571334839E-1,-3.570894599E-3,7.825445652E-2,6.617861640E-1
4.429294583E-1,-1.075188061E0,-3.062391490E-1,-2.535700616E-1,1.146346177E0
4.528734586E-1,-1.258739761E0,-5.286011589E-1,-8.954870439E-1,1.632710023E0
4.628174584E-1,-1.155515940E0,-4.127409196E-1,-1.798764333E0,2.177412520E0
4.727614583E-1,-8.403466308E-1,2.418151116E-1,-1.790132673E0,1.992293150E0
4.827054585E-1,-7.229550058E-1,1.104927877E0,-1.401537246E0,1.925574253E0
4.926494583E-1,-3.855788487E-1,1.840580111E0,-2.404318358E0,3.052401180E0
5.025934586E-1,-2.221082407E-1,2.593013270E0,-2.670937943E0,3.729203586E0
5.125374584E-1,-4.372091782E-1,3.294588516E0,-1.834972047E0,3.796391414E0
5.224814583E-1,1.121428719E-1,3.817128451E0,-1.089736518E0,3.971217863E0
5.324254585E-1,8.689058939E-1,4.124901910E0,-1.053003432E0,4.344954481E0
5.423694584E-1,8.997727606E-1,4.064321247E0,-4.367130420E-1,4.185572422E0
5.523134582E-1,6.699514577E-1,3.933875129E0,5.324062344E-1,4.025874424E0
5.622574585E-1,5.857980376E-1,3.757299741E0,1.212325441E0,3.991264669E0
5.722024585E-1,5.436401975E-1,3.450875235E0,1.919384498E0,3.985990643E0
5.821454586E-1,6.443429920E-1,3.009215156E0,1.830062432E0,3.580458386E0
5.920894584E-1,5.258652467E-1,2.357725990E0,5.761235270E-1,2.483409837E0
6.020334582E-1,4.720328557E-1,1.408772006E0,-6.767275035E-1,1.632609474E0
6.119774585E-1,3.045300078E-1,-4.546584392E-1,-3.058331476E0,3.106902676E0
6.219214583E-1,3.137984294E-1,-2.802705533E0,-6.582869056E0,7.161549607E0
6.318654586E-1,1.436463250E0,-4.302148558E0,-9.565371208E0,1.058622857E1
6.418094584E-1,2.394745004E0,-3.276572660E0,-8.022279888E0,8.990423051E0
6.517534582E-1,1.673383950E0,-4.383394450E-1,-2.718208881E0,3.221958230E0
6.616974585E-1,5.782361260E-1,1.927441669E0,2.223370423E0,2.998793831E0
6.716424585E-1,-7.926719427E-2,3.010947686E0,4.911496257E0,5.761500216E0
6.815854586E-1,-1.408336973E-1,3.134950758E0,5.944388775E0,6.721867917E0
6.915294584E-1,4.139355057E-1,2.834345986E0,5.886492569E0,6.546423034E0
7.014744584E-1,1.194818585E0,2.636884929E0,4.992738640E0,5.771325039E0
7.114174585E-1,1.896121351E0,2.564192344E0,3.907678433E0,5.043838745E0
7.213624585E-1,2.837164637E0,2.240258936E0,2.521952058E0,4.407777837E0
7.313064584E-1,3.249327267E0,1.821749738E0,1.780304673E0,4.128726743E0
7.412494584E-1,1.639630313E0,1.532594399E0,2.145279104E0,3.104747266E0
7.511944585E-1,-9.624809325E-3,1.075480714E0,1.701780953E0,2.013159162E0
7.611374585E-1,-3.990253982E-1,1.362477261E-1,9.688584906E-1,1.056632143E0
7.710824586E-1,-2.002361459E-1,-1.469052122E0,5.839453474E-1,1.593487000E0
7.810264584E-1,4.726362884E-2,-3.151766181E0,3.376919067E-1,3.170157683E0
7.909704582E-1,-2.402261308E-1,-4.333500159E0,1.728331697E-1,4.343593389E0
8.009144585E-1,-7.720622617E-1,-4.518108451E0,2.984956813E-1,4.593308588E0
8.108584583E-1,-7.311223966E-1,-3.346110672E0,4.360502601E-1,3.452699874E0
8.208024586E-1,-3.139215133E-1,-1.500536454E0,4.109543028E-1,1.587148325E0
8.307464584E-1,-4.917976141E-2,-2.541995144E-1,1.002956821E0,1.035837066E0
8.406904582E-1,1.222769737E-2,-3.951022089E-2,1.661458846E0,1.661973547E0
8.506344585E-1,-2.637167349E-1,-3.486051500E-2,1.928005341E0,1.946269859E0
8.605784583E-1,-7.197782135E-1,3.370949060E-1,1.638304749E0,1.820921773E0
8.705224586E-1,-1.061322266E0,7.753986830E-1,7.641650122E-1,1.520393448E0
8.804664584E-1,-1.079100140E0,8.626338780E-1,-2.235764766E-1,1.399493037E0
8.904104582E-1,-6.300728622E-1,5.407095730E-1,-7.417081958E-1,1.113323718E0
9.003544585E-1,-5.496707234E-1,1.824261117E-1,-3.036853775E-1,6.539434218E-1
9.102984583E-1,-1.331875565E0,1.971441382E-1,8.724732801E-1,1.604359049E0
9.202424586E-1,-2.156575047E0,2.863644630E-1,2.107858093E0,3.029172540E0
9.301864584E-1,-2.751307338E0,-2.934834480E-2,2.821047371E0,3.940667667E0
9.401304582E-1,-3.153452810E0,-5.350512224E-1,3.272755890E0,4.576185699E0
9.500744585E-1,-2.992712852E0,-7.729837829E-1,3.684615342E0,4.809389188E0
9.600184583E-1,-2.389578697E0,-1.024520475E0,3.472777443E0,4.338192218E0
9.699624586E-1,-1.471430477E0,-1.478091332E0,2.560710035E0,3.302589517E0
9.799064584E-1,-2.185116184E-1,-1.833670456E0,1.667829680E0,2.488322831E0
9.898504582E-1,1.191657872E0,-1.778054080E0,9.272409332E-1,2.332659543E0
9.997944585E-1,2.258521544E0,-1.598451004E0,4.650202900E-1,2.805745721E0
1.009738458E0,2.949044968E0,-1.598099586E0,5.029707661E-1,3.391720523E0
1.019682459E0,3.086042015E0,-1.790929064E0,6.700546610E-1,3.630434613E0
1.029626458E0,2.670086004E0,-2.025619928E0,8.589758599E-1,3.459817176E0
1.039570458E0,1.952859516E0,-2.096537299E0,1.054134284E0,3.052921227E0
1.049514459E0,1.299911469E0,-2.041924889E0,1.135339830E0,2.673616204E0
1.059458458E0,7.360393202E-1,-1.883778756E0,1.063890948E0,2.285222140E0
1.069402459E0,1.997169131E-1,-1.675164135E0,7.994050115E-1,1.866844958E0
1.079346458E0,-2.726176590E-1,-1.460957821E0,4.422968405E-1,1.550594930E0
1.089290458E0,-5.006356806E-1,-1.228040417E0,2.019581509E-1,1.341456837E0
1.099234459E0,-5.110320300E-1,-1.025246699E0,1.209537488E-1,1.151917679E0
1.109178458E0,-3.549508408E-1,-7.588902390E-1,-2.163469791E-3,8.378001998E-1
1.119122459E0,-5.957318723E-2,-4.672153348E-1,-3.039435321E-1,5.605540156E-1
1.129066458E0,9.177701980E-2,-2.115727276E-1,-5.657833108E-1,6.109801922E-1
1.139010458E0,4.827154264E-1,-1.192212188E-1,-7.154591677E-1,8.712690184E-1
1.148954459E0,1.197457141E0,-1.780091250E-1,-6.991059673E-1,1.397977112E0
1.158897958E0,1.072361224E0,-4.446959531E-1,-8.042201936E-1,1.412261734E0
1.168841959E0,4.461592188E-1,-7.979478854E-1,-7.307309255E-1,1.170361723E0
1.178785958E0,-3.344098645E-1,-1.150604571E0,-7.476969141E-1,1.412363803E0
1.188729959E0,-7.043140823E-1,-1.467906652E0,-5.529255760E-1,1.719457751E0
1.198673958E0,-6.605994210E-1,-1.555893799E0,-1.375200802E-1,1.695909456E0
1.208617958E0,-3.308190894E-1,-1.538882495E0,4.160884506E-1,1.628106324E0
1.218561959E0,-1.509499651E-1,-1.625614829E0,8.269500750E-1,1.830097235E0
1.228505958E0,-2.642111170E-1,-1.745787975E0,1.258148900E0,2.168068685E0
1.238449959E0,-3.979495105E-1,-1.707354811E0,1.543114709E0,2.335514348E0
1.248393958E0,4.902568728E-2,-1.572726763E0,1.517517353E0,2.186031086E0
1.258337958E0,4.288160849E-1,-1.529185472E0,1.702313341E0,2.328124171E0
1.268281959E0,8.798626989E-1,-1.458839375E0,1.188412668E0,2.077184479E0
1.278225958E0,1.201455467E0,-1.185998937E0,6.450338405E-1,1.807251331E0
1.288169959E0,1.649174430E0,-5.111858118E-1,4.542690146E-1,1.785342425E0
1.298113958E0,1.427356212E0,2.938810587E-1,6.523153782E-3,1.457310668E0
1.308057958E0,1.666817234E0,1.115379190E0,1.183090532E-1,2.009066316E0
1.318001959E0,1.701909445E0,1.472350536E0,-6.055756599E-1,2.330457839E0
1.327945958E0,1.209921358E0,1.380574393E0,-1.266595788E0,2.230282547E0
1.337889958E0,8.120987320E-1,1.302870160E0,-1.031472230E0,1.849570211E0
1.347833958E0,5.136182535E-1,1.214759637E0,-9.344657528E-1,1.616375862E0
1.357777958E0,8.251722291E-2,1.134860358E0,-1.262195174E0,1.699368642E0
1.367721959E0,-6.383387786E-1,1.068883300E0,-2.359910510E0,2.668176441E0
1.377665958E0,-1.296233278E0,8.981475270E-1,-3.894951383E0,4.202087097E0
1.387609958E0,-1.446937952E0,1.068175787E0,-4.572474108E0,4.913466029E0
1.397553958E0,-1.601075527E0,1.360794432E0,-4.521289337E0,4.985705727E0
1.407497958E0,-1.979091294E0,1.536157692E0,-4.323320156E0,4.996766953E0
1.417441959E0,-2.112067211E0,1.639868587E0,-3.929617186E0,4.753092479E0
1.427385958E0,-2.083342179E0,1.745704944E0,-3.495143920E0,4.427621417E0
1.437329958E0,-1.763527842E0,2.051769846E0,-2.935188822E0,3.991882184E0
1.447273958E0,-1.507625326E0,2.298175607E0,-2.074869272E0,3.443781023E0
1.457217958E0,-1.399881899E0,2.496092162E0,-1.173075421E0,3.092935718E0
1.467161959E0,-1.321005007E0,2.628412313E0,-4.769398391E-1,2.980113610E0
1.477105958E0,-1.344468714E0,2.523835446E0,-2.021288896E-1,2.866739885E0
1.487049958E0,-1.490862821E0,2.206131662E0,-3.971230066E-1,2.692098724E0
1.496993958E0,-1.609696954E0,1.719160924E0,-8.328598559E-1,2.498058067E0
1.506937958E0,-1.671994651E0,1.208057558E0,-1.427405328E0,2.508476659E0
1.516881959E0,-1.659322273E0,7.571150243E-1,-2.058154421E0,2.750013307E0
1.526825958E0,-1.631963151E0,5.357242370E-1,-2.608809523E0,3.123490245E0
1.536769958E0,-1.746258968E0,5.414977777E-1,-2.926701003E0,3.450828739E0
1.546713958E0,-1.980650747E0,6.229641098E-1,-2.995208151E0,3.644493591E0
1.556657958E0,-2.224376436E0,7.442178208E-1,-2.856207556E0,3.695893978E0
1.566601959E0,-2.205997760E0,9.391938114E-1,-2.558788347E0,3.506552287E0
1.576545958E0,-1.824214047E0,1.141544895E0,-2.114693488E0,3.017086373E0
1.586489958E0,-1.208153452E0,1.088872007E0,-1.672042306E0,2.332595654E0
1.596433959E0,-6.656742194E-1,6.709200490E-1,-1.278362725E0,1.589800973E0
1.606377958E0,-3.709801054E-1,8.720654368E-2,-9.878672040E-1,1.058826158E0
1.616321959E0,-2.633284616E-1,-4.569417769E-1,-7.893080395E-1,9.492864939E-1
1.626265958E0,-3.052322584E-1,-9.444703388E-1,-6.390351820E-1,1.180490117E0
1.636209958E0,-3.882185742E-1,-1.271517389E0,-4.697389930E-1,1.410008814E0
1.646153959E0,-4.834755644E-1,-1.448414959E0,-2.746390414E-1,1.551477076E0
1.656097958E0,-4.988721603E-1,-1.473863211E0,-1.806146443E-2,1.556108098E0
1.666041959E0,-4.592049051E-1,-1.349773015E0,1.091879815E-1,1.429922499E0
1.675985958E0,-4.007061803E-1,-1.147593255E0,-7.276275158E-3,1.215561050E0
1.685930958E0,-1.766347370E-1,-9.468092251E-1,-5.878322840E-2,9.649367891E-1
1.695874958E0,4.016838348E-1,-8.112409455E-1,2.236770487E-1,9.324661907E-1
1.705818959E0,9.284145425E-1,-8.408325344E-1,7.293460125E-1,1.449447660E0
1.715762958E0,1.057208750E0,-1.133612562E0,1.099083000E0,1.900197680E0
1.725706958E0,1.125606335E0,-1.638971624E0,1.370452278E0,2.414820294E0
1.735650958E0,1.403545180E0,-2.230929118E0,1.857363959E0,3.224404547E0
1.745594958E0,1.739242309E0,-2.816330130E0,2.714679210E0,4.280906729E0
1.755538959E0,1.908301101E0,-3.189950838E0,3.565547905E0,5.150779679E0
1.765482958E0,2.005532988E0,-3.195855356E0,4.157331737E0,5.614183930E0
1.775426958E0,1.859761317E0,-2.944168975E0,4.267871010E0,5.508317899E0
1.785370959E0,1.496548069E0,-2.605937371E0,3.806132762E0,4.849454846E0
1.795314958E0,1.100335620E0,-2.259464116E0,2.894816136E0,3.833520188E0
1.805258959E0,6.510614428E-1,-1.874194000E0,1.669865388E0,2.593247879E0
1.815202958E0,2.644298029E-1,-1.540025625E0,3.247625434E-1,1.595955124E0
1.825146958E0,-1.219613703E-1,-1.284835008E0,-9.573897618E-1,1.606944532E0
1.835090959E0,-3.745831597E-1,-1.089433340E0,-1.941107197E0,2.257227214E0
1.845034958E0,-6.413574037E-1,-9.355621058E-1,-2.568062616E0,2.807411864E0
1.854978959E0,-9.458510126E-1,-7.797653836E-1,-2.770862766E0,3.029909018E0
1.864922958E0,-1.290110073E0,-7.093350863E-1,-2.607817835E0,2.994704347E0
1.874866958E0,-1.643767072E0,-8.022490972E-1,-1.989428587E0,2.702480324E0
1.884810959E0,-1.828136944E0,-1.100655316E0,-7.258417761E-1,2.253968299E0
1.894754958E0,-1.878666535E0,-1.362286057E0,6.759012920E-1,2.417034093E0
1.904698959E0,-1.811797484E0,-1.330704660E0,1.310701336E0,2.602176591E0
1.914642958E0,-1.511986180E0,-1.070069700E0,1.368958899E0,2.303301943E0
1.924586958E0,-1.189488555E0,-6.998000318E-1,1.264361567E0,1.871687281E0
1.934530959E0,-8.193788078E-1,-2.838548380E-1,1.153365042E0,1.442985142E0
1.944474958E0,-5.343916565E-1,3.182288647E-1,1.067220352E0,1.235234121E0
1.954418959E0,-4.361563870E-1,9.929805940E-1,8.853047025E-1,1.400002597E0
1.964362958E0,-3.383754462E-1,1.552248645E0,7.198135892E-1,1.744163238E0
1.974306958E0,-2.290880620E-1,1.879172319E0,7.088421661E-1,2.021441852E0
1.984250959E0,-4.967034280E-2,1.961778274E0,9.732053107E-1,2.190472487E0
1.994194958E0,8.751966208E-2,1.773741758E0,1.166043559E0,2.124494551E0
2.004138958E0,1.246731627E-1,1.408784870E0,1.228684781E0,1.873468574E0
2.014082958E0,5.418263912E-2,9.489042825E-1,1.283267954E0,1.596913190E0
2.024026958E0,-1.411547095E-1,3.830546057E-1,1.396969109E0,1.455396226E0
2.033970959E0,-4.565400732E-1,-3.012538129E-1,1.459025901E0,1.558184610E0
2.043914958E0,-7.700452647E-1,-9.857265383E-1,1.464629872E0,1.926075591E0
2.053858958E0,-1.074737825E0,-1.694237752E0,1.253172627E0,2.365574896E0
2.063802958E0,-1.431960309E0,-2.359749711E0,7.441660729E-1,2.858795580E0
2.073746958E0,-1.665851566E0,-2.624316339E0,2.920809934E-1,3.122084079E0
2.083690959E0,-1.518259950E0,-2.310768170E0,1.217711896E-1,2.767596617E0
2.093634958E0,-1.293342414E0,-1.626255099E0,-8.849907070E-2,2.079728909E0
2.103578958E0,-1.161197679E0,-7.206979805E-1,-2.944266039E-1,1.398024554E0
2.113522958E0,-1.208622984E0,-5.380958676E-2,-4.059903091E-1,1.276124257E0
2.123466958E0,-1.257081783E0,3.003743917E-1,-6.609294963E-1,1.451656703E0
2.133410959E0,-1.336734894E0,3.960623217E-1,-1.146844811E0,1.805264125E0
2.143354958E0,-1.234230572E0,4.489293373E-1,-1.512053715E0,2.002790327E0
2.153299125E0,-1.184116133E0,4.459156823E-1,-1.737218880E0,2.149162919E0
2.163243125E0,-1.342700808E0,5.821522987E-1,-2.021685922E0,2.495788598E0
2.173187125E0,-1.576851097E0,8.828453636E-1,-2.129013319E0,2.792592529E0
2.183131125E0,-1.691295725E0,1.208599010E0,-1.927061308E0,2.834564884E0
2.193076125E0,-1.512598968E0,1.505763280E0,-1.839105151E0,2.817372260E0
2.203020125E0,-1.211859125E0,1.888267663E0,-2.072055007E0,3.054106949E0
2.212964125E0,-8.770765007E-1,2.406798747E0,-2.042368400E0,3.276158128E0
2.222908125E0,-3.552335536E-1,2.862122015E0,-1.782982698E0,3.390716828E0
2.232852125E0,1.042061538E-2,3.174856251E0,-1.083625885E0,3.354708014E0
2.242796125E0,2.036722621E-1,3.433546427E0,-2.598663434E-1,3.449384579E0
2.252740125E0,2.327206448E-1,3.614262228E0,5.405207080E-1,3.661859225E0
2.262684125E0,5.651249143E-1,3.645812050E0,1.301344329E0,3.912136083E0
2.272628125E0,1.053446943E0,3.689942155E0,1.660807174E0,4.181351939E0
2.282572125E0,1.244832451E0,3.744828215E0,2.109694118E0,4.474835803E0
2.292516125E0,1.339293928E0,3.773900571E0,2.538872731E0,4.741509094E0
2.302460125E0,1.595593470E0,3.688808965E0,2.402742826E0,4.682563741E0
2.312404125E0,2.007614012E0,3.433027194E0,1.874746269E0,4.396687766E0
2.322348125E0,2.451246357E0,2.870672398E0,8.872489017E-1,3.877702842E0
2.332292125E0,2.210406853E0,1.848968527E0,-4.349270099E-1,2.914402953E0
2.342236125E0,2.091936125E0,-6.064965963E-2,-3.390129097E0,3.984074600E0
2.352180125E0,3.654686369E0,-2.565937738E0,-7.346165757E0,8.596913415E0
2.362124125E0,4.657057299E0,-4.430870333E0,-9.275400183E0,1.128511600E1
2.372068125E0,3.317126317E0,-4.166905968E0,-5.905576712E0,7.952500780E0
2.382012125E0,1.055520366E0,-2.024859205E0,3.297607434E-1,2.307145464E0
2.391956125E0,-1.980168352E-1,-1.745931816E-1,4.999647710E0,5.006612695E0
2.401900125E0,-2.196749219E-1,4.130730414E-1,6.822079818E0,6.838103498E0
2.411844125E0,9.459917843E-2,4.115855098E-1,6.749473772E0,6.762673128E0
2.421788125E0,1.883592814E-1,1.216343647E-1,6.125584048E0,6.129686294E0
2.431732125E0,3.314289540E-1,-7.620500743E-2,4.711494584E0,4.723752065E0
2.441676125E0,7.427911001E-1,5.394541758E-1,2.308472553E0,2.484309755E0
2.451620125E0,9.408444804E-1,2.228120116E0,8.054943019E-1,2.549221187E0
2.461564125E0,5.037233028E-1,4.103452569E0,9.262644482E-1,4.236747099E0
2.471508125E0,-3.425494811E-1,4.925356497E0,1.354048499E0,5.119562882E0
2.481452125E0,-1.265799105E0,4.376467254E0,1.668842125E0,4.851880773E0
2.491396125E0,-1.824611365E0,2.202718642E0,2.137714561E0,3.570854182E0
2.501340125E0,-1.523460171E0,-2.949329728E-1,2.306720435E0,2.780085523E0
2.511284125E0,-9.619739789E-1,-2.338719031E0,1.874243993E0,3.147664402E0
2.521228125E0,-6.331797802E-1,-3.840433699E0,1.038014095E0,4.028314895E0
2.531172125E0,-4.628550661E-1,-4.870123698E0,2.290126330E-1,4.897426511E0
2.541116125E0,-5.007064319E-1,-5.216074796E0,-3.875940916E-1,5.254366983E0
2.551060125E0,-1.042436344E0,-4.141496308E0,-3.813989666E-1,4.287671906E0
2.561004125E0,-1.350085841E0,-1.866392060E0,2.034342805E-1,2.312474131E0
2.570948125E0,-1.213196091E0,-6.298562229E-2,1.027424495E0,1.591041494E0
2.580892125E0,-1.182050897E0,7.417842096E-1,2.170845177E0,2.580708608E0
2.590836125E0,-1.457480190E0,5.889660591E-1,3.445873235E0,3.787502062E0
2.600781125E0,-1.885337039E0,-2.380430728E-1,4.191658694E0,4.602299736E0
2.610725125E0,-2.088537723E0,-1.050303773E0,3.874173887E0,4.524859240E0
2.620669125E0,-1.802508305E0,-1.567164307E0,2.983700831E0,3.821977342E0
2.630613125E0,-1.342332141E0,-1.894318362E0,2.062938028E0,3.105802785E0
2.640557125E0,-7.667848572E-1,-2.085112424E0,1.737722325E0,2.820519760E0
2.650501125E0,-1.486058164E-1,-2.226401619E0,1.934310686E0,2.953050235E0
2.660445125E0,3.211486718E-1,-2.362537664E0,2.221984048E0,3.259130834E0
2.670389125E0,8.178544387E-1,-2.448871218E0,2.246691165E0,3.422495773E0
2.680333125E0,1.209139293E0,-2.460615935E0,1.972055632E0,3.377225492E0
2.690277125E0,1.229242605E0,-2.428691892E0,1.710656441E0,3.214953677E0
2.700221125E0,1.070064438E0,-2.441385612E0,1.229865918E0,2.935638225E0
2.710165125E0,1.004620062E0,-2.596601121E0,6.629327524E-1,2.862006060E0
2.720109125E0,1.000155712E0,-2.721553196E0,3.303489733E-1,2.918268955E0
2.730053125E0,1.097801583E0,-2.644566416E0,1.951046294E-1,2.870011439E0
2.739997125E0,1.417079145E0,-2.172904274E0,-5.773423791E-2,2.594794699E0
2.749941125E0,1.749393368E0,-1.367424590E0,-4.893347669E-1,2.273692081E0
2.759885125E0,2.033986124E0,-5.947653276E-1,-8.061652699E-1,2.267321722E0
2.769829125E0,2.199867832E0,2.204692662E-2,-9.738002649E-1,2.405866060E0
2.779773125E0,2.055112407E0,4.547935098E-1,-1.183834590E0,2.414909621E0
2.789717125E0,1.780618669E0,7.047385901E-1,-1.336973460E0,2.335542198E0
2.799661125E0,1.342731798E0,7.173954731E-1,-1.185348727E0,1.929413525E0
2.809605125E0,7.349508610E-1,4.050103158E-1,-7.783342776E-1,1.144548108E0
2.819549125E0,2.940710932E-1,-2.698969495E-1,-3.706947613E-1,5.447355113E-1
2.829493125E0,-1.672017163E-1,-1.088191976E0,-1.742329931E-1,1.114663773E0
2.839437125E0,-4.984432670E-1,-1.994084725E0,-4.141465902E-2,2.055853777E0
2.849381125E0,-3.908919212E-1,-3.034909576E0,7.717634690E-1,3.155802827E0
2.859325125E0,2.269772172E-2,-3.821602156E0,2.062611169E0,4.342755238E0
2.869269125E0,1.546378040E-1,-4.082791432E0,2.392064348E0,4.734455679E0
2.879213125E0,-5.197619230E-2,-3.919353569E0,2.924826971E0,4.890669354E0
2.889157125E0,-7.140122741E-2,-3.267667935E0,3.754428758E0,4.977799431E0
2.899101125E0,1.376772241E-1,-2.443239765E0,3.894718372E0,4.599696377E0
2.909045125E0,2.948288924E-1,-1.508330208E0,3.601734568E0,3.915925943E0
2.918989125E0,-2.125875118E-1,-6.422090507E-1,2.921671813E0,2.998965171E0
2.928933125E0,-8.988588408E-1,1.097908294E-1,1.686350443E0,1.914100065E0
2.938877125E0,-1.378488984E0,8.024484873E-1,4.017464000E-1,1.644857326E0
2.948822125E0,-1.788507294E0,1.175807825E0,-8.142674643E-1,2.290046699E0
2.958766125E0,-2.332450815E0,1.469150355E0,-2.244914489E0,3.555048612E0
2.968710125E0,-2.933121831E0,1.570590776E0,-3.816297562E0,5.063011568E0
2.978654125E0,-3.120761028E0,1.789355578E0,-5.014629446E0,6.171503161E0
2.988598125E0,-2.762222628E0,2.436761050E0,-5.544746788E0,6.656718050E0
2.998542125E0,-2.216746112E0,3.154396259E0,-6.109517069E0,7.224290823E0
3.008486125E0,-1.825344898E0,3.484721843E0,-7.433928956E0,8.410616508E0
3.018430125E0,-1.522300376E0,3.750819272E0,-8.736890332E0,9.629085954E0
3.028374125E0,-9.472237196E-1,4.151890903E0,-8.794192461E0,9.771041494E0
3.038318125E0,-6.478978068E-2,4.412997733E0,-7.458874347E0,8.666807557E0
3.048262125E0,4.878808567E-1,4.481637028E0,-5.456093059E0,7.077573712E0
3.058206125E0,7.697552428E-1,4.349740216E0,-3.498240606E0,5.634753802E0
3.068150125E0,5.618838027E-1,3.976007241E0,-2.032505025E0,4.500602589E0
3.078094125E0,2.163203743E-1,3.563624171E0,-1.255336390E0,3.784452561E0
3.088038125E0,-1.249725401E-1,3.129583014E0,-9.177935869E-1,3.263778952E0
3.097982125E0,-6.056771091E-1,2.484621679E0,-1.038608172E0,2.760234878E0
3.107926125E0,-1.138553167E0,1.687460244E0,-1.259248762E0,2.393644258E0
3.117870125E0,-1.594165580E0,9.213691592E-1,-1.497982975E0,2.373654991E0
3.127814125E0,-1.930183429E0,3.664432508E-1,-1.763923699E0,2.640324893E0
3.137758125E0,-2.030475748E0,7.608513951E-2,-2.120814938E0,2.937086433E0
3.147702125E0,-1.918758846E0,1.097656864E-1,-2.428806497E0,3.097222145E0
3.157645708E0,-1.568222653E0,4.527136552E-1,-2.704903834E0,3.159236727E0
3.167589708E0,-1.184032811E0,8.622871381E-1,-2.780850395E0,3.143024296E0
3.177533709E0,-9.380202752E-1,1.016357762E0,-2.561032509E0,2.910627535E0
3.187477708E0,-8.687401253E-1,8.102615368E-1,-2.259613219E0,2.552858215E0
3.197421709E0,-9.314316326E-1,4.233132702E-1,-1.971509795E0,2.221173087E0
3.207365708E0,-1.058226458E0,6.168344736E-2,-1.520547380E0,1.853567484E0
3.217309708E0,-1.366839284E0,-2.935600466E-1,-8.735523838E-1,1.648490490E0
3.227253709E0,-1.819633923E0,-6.608271700E-1,-1.106000841E-1,1.939070019E0
3.237198709E0,-2.206354440E0,-1.025518010E0,4.983909345E-1,2.483562085E0
3.247142708E0,-2.445154435E0,-1.294185290E0,7.789461887E-1,2.874100371E0
3.257086708E0,-2.518725272E0,-1.479215167E0,8.394689637E-1,3.039204279E0
3.267030708E0,-2.439397267E0,-1.582210363E0,9.010155863E-1,3.043990431E0
3.276974708E0,-2.053705859E0,-1.715967759E0,1.106663330E0,2.896024315E0
3.286918709E0,-1.233558727E0,-1.943032685E0,1.570043476E0,2.786050909E0
3.296862708E0,-4.764673841E-1,-2.406896980E0,2.081092463E0,3.217315664E0
3.306806708E0,5.067577153E-2,-3.040465600E0,2.510216112E0,3.943118566E0
3.316750709E0,5.911397615E-1,-3.863127328E0,3.009736728E0,4.932718737E0
3.326694708E0,1.257447819E0,-4.798165523E0,3.829664882E0,6.266570075E0
3.336638709E0,2.060776459E0,-5.661930252E0,4.821835636E0,7.717146668E0
3.346582708E0,2.812266315E0,-6.243211901E0,5.562343399E0,8.821915934E0
3.356526708E0,3.135967589E0,-6.349109069E0,5.732136601E0,9.110591018E0
3.366470709E0,3.114408320E0,-5.828695182E0,5.351895676E0,8.503882292E0
3.376414708E0,2.796925268E0,-4.724889386E0,4.551889570E0,7.132115347E0
3.386358709E0,1.965150070E0,-3.209733138E0,3.389796390E0,5.065068724E0
3.396302708E0,8.374850035E-1,-1.719647997E0,1.919892329E0,2.710084301E0
3.406246708E0,-1.388178697E-1,-5.959944123E-1,2.644824278E-1,6.666563546E-1
3.416190709E0,-9.446507254E-1,1.698241925E-1,-1.304247179E0,1.619341210E0
3.426134708E0,-1.372506844E0,6.894370115E-1,-2.254712668E0,2.728154622E0
3.436078709E0,-1.473204229E0,1.045473388E0,-2.474424135E0,3.063677546E0
3.446022708E0,-1.416484776E0,1.183161868E0,-2.204008538E0,2.874709509E0
3.455966708E0,-1.490275176E0,1.213756839E0,-1.688983444E0,2.558669740E0
3.465910709E0,-1.680154733E0,1.129412507E0,-8.954542994E-1,2.213669113E0
3.475854708E0,-1.920309820E0,9.692321277E-1,7.997821569E-3,2.151061293E0
3.485798709E0,-1.939226440E0,8.308887595E-1,8.648581588E-1,2.280121696E0
3.495742708E0,-1.712960390E0,7.372643119E-1,1.432833883E0,2.351766336E0
3.505686708E0,-1.363448191E0,6.450449502E-1,1.847415506E0,2.384956605E0
3.515631708E0,-1.076494036E0,4.927647436E-1,2.062636896E0,2.378261438E0
3.525575709E0,-9.963395271E-1,2.676358312E-1,2.042426580E0,2.288193114E0
3.535519708E0,-9.399986807E-1,1.257502198E-2,1.881760882E0,2.103516025E0
3.545463708E0,-9.347411567E-1,-2.590316534E-2,1.652006822E0,1.898298855E0
3.555407709E0,-9.627253461E-1,1.494864070E-1,1.252781741E0,1.587025006E0
3.565351708E0,-9.682626593E-1,4.516143787E-1,7.497182965E-1,1.305207129E0
3.575295709E0,-9.790262139E-1,8.478451002E-1,1.055749869E-1,1.299415145E0
3.585239708E0,-1.005062696E0,1.151222622E0,-6.221566093E-1,1.650013150E0
3.595183708E0,-1.089211730E0,1.276216797E0,-1.254366921E0,2.094886125E0
3.605127709E0,-1.075665486E0,1.160751829E0,-1.666597964E0,2.298249294E0
3.615071708E0,-1.100502119E0,8.051522398E-1,-1.700510060E0,2.179703996E0
3.625015709E0,-1.352770590E0,3.005954164E-1,-1.660358400E0,2.162668696E0
3.634959708E0,-1.931211954E0,-3.379784203E-1,-2.341779463E0,3.054134915E0
3.644903708E0,-2.154295802E0,-1.055173334E0,-3.548804988E0,4.283503007E0
3.654847709E0,-1.887975010E0,-1.446314639E0,-4.891720973E0,5.439228783E0
3.664791708E0,-1.548167873E0,-1.392396294E0,-5.232245271E0,5.631339253E0
3.674735709E0,-8.252143291E-1,-7.712103224E-1,-4.527463412E0,4.666226419E0
3.684679708E0,2.835712481E-1,1.917266929E-1,-3.016628256E0,3.035987124E0
3.694623708E0,9.322116512E-1,1.189972120E0,-1.546982058E0,2.162916017E0
3.704567709E0,9.090587237E-1,1.794019318E0,-5.499949515E-2,2.011943841E0
3.714511708E0,1.052159094E0,2.069427853E0,1.609585857E0,2.824949031E0
3.724455708E0,1.151639236E0,2.226453075E0,2.337844872E0,3.427664638E0
3.734399708E0,1.079792743E0,2.312503624E0,2.689757499E0,3.707886296E0
3.744343708E0,1.303362495E0,2.372186154E0,2.235027432E0,3.510180703E0
3.754287709E0,1.416534770E0,2.553228230E0,1.522455035E0,3.292934023E0
3.764231708E0,1.431184676E0,2.903909726E0,1.157030661E0,3.437979236E0
3.774176708E0,1.411140128E0,3.339999163E0,1.042477859E0,3.772753763E0
3.784120708E0,1.460914259E0,3.653201176E0,9.969868138E-1,4.058833824E0
3.794064709E0,1.560374813E0,3.800475581E0,6.805457354E-1,4.164315874E0
3.804008708E0,1.571763435E0,3.598651916E0,-9.336687773E-2,3.928034277E0
3.813952709E0,1.650995253E0,2.863586158E0,-1.325507070E0,3.561303133E0
3.823896708E0,2.141609976E0,1.891737401E0,-2.699509193E0,3.930968528E0
3.833840708E0,2.802520761E0,1.072857653E0,-3.371170084E0,4.513306315E0
3.843784709E0,2.937687337E0,6.232067692E-1,-2.833678819E0,4.128938025E0
3.853728708E0,2.594667740E0,4.418278939E-1,-1.503428487E0,3.031140014E0
3.863672709E0,2.367155210E0,3.706187475E-1,2.035696435E-1,2.404625260E0
3.873616708E0,2.161172713E0,1.106059313E-1,1.442097042E0,2.600489386E0
3.883560708E0,1.864314837E0,-1.125390208E-1,2.245711464E0,2.920882542E0
3.893504709E0,1.911135246E0,-2.565682214E-1,2.890575443E0,3.474721798E0
3.903448708E0,2.260575671E0,-3.843257904E-1,3.476982468E0,4.165010896E0
3.913392708E0,2.165596131E0,-2.467910922E-1,3.802821777E0,4.383168479E0
3.923336708E0,1.713728568E0,8.326025784E-2,3.523614013E0,3.919139394E0
3.933280708E0,7.975148991E-1,3.585109180E-1,2.544802392E0,2.690832456E0
3.943224709E0,-6.359908292E-1,4.512559444E-1,1.472092966E0,1.665885339E0
3.953168708E0,-2.261354813E0,2.863948685E-1,1.005766993E0,2.491448345E0
3.963112708E0,-3.652125581E0,-3.351682484E-2,1.745936202E0,4.048140049E0
3.973056708E0,-4.471662556E0,-3.921756774E-1,2.687869433E0,5.232036875E0
3.983000708E0,-4.602104289E0,-6.258649135E-1,2.849392042E0,5.448862797E0
3.992945708E0,-4.424820219E0,-5.907249016E-1,3.111031261E0,5.441186027E0
4.002889709E0,-4.000665534E0,-5.855261421E-1,3.040900926E0,5.059174243E0
4.012833708E0,-3.411712631E0,-1.166992562E0,1.981546833E0,4.114387265E0
4.022777708E0,-2.631889068E0,-2.133042635E0,1.002516818E0,3.532952154E0
4.032721709E0,-1.491136178E0,-2.760676916E0,7.621851450E-1,3.228893051E0
4.042665708E0,-1.246339864E-1,-2.891928781E0,5.991957629E-1,2.955980593E0
4.052609709E0,1.088666185E0,-2.754562483E0,6.361565977E-2,2.962575820E0
4.062553708E0,1.816819950E0,-2.562230018E0,-4.597402543E-1,3.174463498E0
4.072497708E0,1.940897282E0,-2.421622608E0,-3.935930425E-1,3.128298867E0
4.082441709E0,1.548359662E0,-2.519506752E0,2.440803230E-2,2.957351462E0
4.092385708E0,9.656641567E-1,-2.833733783E0,4.732853293E-1,3.030932764E0
4.102329709E0,3.990812391E-1,-3.140652963E0,8.690088049E-1,3.283008250E0
4.112273708E0,-9.631036609E-2,-3.611531578E0,1.242231317E0,3.820415511E0
4.122217708E0,-3.543707970E-1,-4.105857528E0,1.206146980E0,4.293999912E0
4.132161709E0,-4.372156101E-1,-4.249506660E0,9.291021019E-1,4.371806842E0
4.142105708E0,-2.416648382E-1,-3.927002896E0,6.492485136E-1,3.987640565E0
4.152049708E0,3.456303790E-1,-3.125820331E0,5.077888718E-1,3.185602398E0
4.161993833E0,1.168789704E0,-1.978962071E0,3.714949527E-1,2.328168540E0
4.171937834E0,2.019539409E0,-6.956297976E-1,8.535882354E-2,2.137691832E0
4.181881833E0,2.629909201E0,3.261413169E-1,-4.183182862E-1,2.682868008E0
4.191825833E0,2.850013601E0,9.729053485E-1,-8.990140843E-1,3.142824950E0
4.201769833E0,2.749155855E0,1.295447704E0,-1.184214951E0,3.261657205E0
4.211713833E0,2.424332793E0,1.356872705E0,-1.134083848E0,3.000773101E0
4.221658833E0,1.904426736E0,1.248736637E0,-8.162303746E-1,2.419176803E0
4.231602834E0,1.474190362E0,9.719288635E-1,-4.696688265E-2,1.766377318E0
4.241546833E0,1.388866915E0,5.613701248E-1,1.140938539E0,1.883037034E0
4.251490833E0,5.982230785E-1,-5.743421727E-1,1.698780454E0,1.890395412E0
4.261434834E0,3.689642778E-1,-2.026177753E0,2.151689114E0,2.978472254E0
4.271378833E0,4.457294485E-1,-3.302316197E0,2.858556383E0,4.390365770E0
4.281322834E0,4.519198957E-1,-4.160367612E0,3.759372579E0,5.625457532E0
4.291266833E0,3.316920787E-1,-4.589470210E0,4.339091851E0,6.324632364E0
4.301210833E0,2.171322602E-1,-4.732125315E0,4.178238457E0,6.316473147E0
4.311154834E0,5.038557422E-1,-4.517788024E0,3.439911706E0,5.700637840E0
4.321098833E0,1.184172267E0,-3.454651952E0,3.149598033E0,4.822535831E0
4.331042834E0,1.026348607E0,-2.117936354E0,2.279004341E0,3.276111513E0
4.340986833E0,3.445457205E-1,-1.069018956E0,1.045986189E0,1.534796530E0
4.350930833E0,-2.236312942E-1,-1.356904864E-1,-3.163349515E-1,4.104761448E-1
4.360874834E0,-8.647226496E-1,4.654950839E-1,-1.869712109E0,2.111931416E0
4.370818833E0,-1.325610712E0,6.148294634E-1,-3.310441487E0,3.618602199E0
4.380762833E0,-1.396107668E0,1.060981958E0,-4.212926479E0,4.563282684E0
4.390706833E0,-1.674826458E0,1.757701092E0,-5.422789657E0,5.941481672E0
4.400650833E0,-1.997289291E0,2.321077396E0,-6.893762004E0,7.543243292E0
4.410594834E0,-1.957879935E0,3.019913222E0,-7.948747643E0,8.725580714E0
4.420538833E0,-1.705434000E0,3.657825739E0,-8.441891870E0,9.357015155E0
4.430483833E0,-1.471626651E0,4.314030685E0,-7.861496660E0,9.087335995E0
4.440427833E0,-1.182378341E0,4.799037927E0,-6.361225085E0,8.055679248E0
4.450371834E0,-7.217077216E-1,4.949729446E0,-4.381094740E0,6.649411609E0
4.460315833E0,-4.325608976E-1,4.789358447E0,-2.466192425E0,5.404365674E0
4.470259834E0,-2.144968836E-1,4.506370751E0,-1.207738300E0,4.670333827E0
4.480203833E0,2.058545161E-2,4.241115906E0,-5.740720314E-1,4.279841888E0
4.490147833E0,7.201902229E-2,3.816560102E0,-6.243440527E-1,3.867961123E0
4.500091834E0,-2.790250379E-1,3.102544904E0,-1.280695179E0,3.368058788E0
4.510035833E0,-7.035004422E-1,2.276485945E0,-1.989486474E0,3.104087235E0
4.519979834E0,-1.160447482E0,1.470112807E0,-2.559587077E0,3.171648787E0
4.529923833E0,-1.450719346E0,8.735722643E-1,-3.091627568E0,3.525035623E0
4.539867833E0,-1.631944148E0,5.062308812E-1,-3.469919032E0,3.867796465E0
4.549811834E0,-1.733951456E0,2.959831327E-1,-3.541132856E0,3.953962009E0
4.559755833E0,-1.603509138E0,1.923201853E-1,-3.259526857E0,3.637683870E0
4.569699834E0,-1.160057180E0,1.362418789E-1,-2.844831798E0,3.075282502E0
4.579643833E0,-2.832309401E-1,1.268763936E-1,-2.381818857E0,2.401953050E0
4.589587833E0,7.992190701E-1,1.120273894E-1,-1.991400268E0,2.148715031E0
4.599531834E0,1.366243160E0,-1.358413446E-1,-1.894430044E0,2.339644938E0
4.609475833E0,1.317741091E0,-5.130674458E-1,-2.129771703E0,2.556483384E0
4.619419833E0,1.102081744E0,-7.980379325E-1,-2.218181604E0,2.602264079E0
4.629364833E0,6.115041518E-1,-9.886027837E-1,-2.091162538E0,2.392537053E0
4.639308834E0,1.895287246E-1,-1.069962112E0,-1.666640064E0,1.989580146E0
4.649252833E0,-8.632624537E-2,-1.079460329E0,-7.954335827E-1,1.343652264E0
4.659196834E0,-3.682789841E-1,-1.046152834E0,3.840369380E-1,1.173690561E0
4.669140833E0,-8.874541390E-1,-9.928776830E-1,1.628743089E0,2.103850041E0
4.679084833E0,-1.164163387E0,-1.086507393E0,2.793641764E0,3.215619538E0
4.689028834E0,-1.189223969E0,-1.495570414E0,3.828911760E0,4.279199666E0
4.698972833E0,-1.045926255E0,-2.183164968E0,4.511692886E0,5.120111689E0
4.708916834E0,-8.424028042E-1,-3.146130635E0,4.780232112E0,5.784323599E0
4.718860833E0,-7.929366754E-1,-4.217319492E0,4.944016131E0,6.546589018E0
4.728804833E0,-7.855343927E-1,-5.062332201E0,4.953279290E0,7.125955888E0
4.738748834E0,-7.804243648E-1,-5.626013145E0,4.686191343E0,7.363523301E0
4.748692833E0,-8.708163254E-1,-5.857899100E0,4.167900580E0,7.241871180E0
4.758636834E0,-9.970189735E-1,-5.526244444E0,3.414054734E0,6.571848614E0
4.768580833E0,-1.249921283E0,-4.523528820E0,2.283996109E0,5.219315513E0
4.778524833E0,-1.296302713E0,-3.309534000E0,6.346526939E-1,3.610567831E0
4.788468834E0,-1.111227374E0,-2.165337392E0,-8.173688275E-1,2.567411946E0
4.798412833E0,-8.637654604E-1,-1.234119183E0,-1.670149562E0,2.249119936E0
4.808356833E0,-4.965930618E-1,-5.677997231E-1,-1.942468429E0,2.083790966E0
4.818301833E0,-1.530267499E-1,-2.181356424E-1,-1.826499431E0,1.845833285E0
4.828245834E0,7.413480073E-2,-1.114485151E-1,-1.368311028E0,1.374842467E0
4.838189833E0,1.784029350E-1,-1.155585229E-1,-6.553407276E-1,6.889505415E-1
4.848133834E0,5.323042005E-2,-1.979025221E-1,6.433106661E-3,2.050372423E-1
4.858077833E0,-1.537190603E-1,-1.722285676E-1,6.098072898E-1,6.520407654E-1
4.868021833E0,-3.252105863E-1,-5.733662724E-2,1.058823166E0,1.109123938E0
4.877965834E0,-4.738873002E-1,1.012644196E-1,1.287797792E0,1.375953055E0
4.887909833E0,-5.154326445E-1,2.685392261E-1,1.313525541E0,1.436361192E0
4.897853834E0,-4.852575034E-1,3.588944954E-1,1.250342283E0,1.388393290E0
4.907797833E0,-5.965244624E-1,3.445688170E-1,1.198565773E0,1.382435899E0
4.917741833E0,-9.649946505E-1,2.439230329E-1,1.083897196E0,1.471579510E0
4.927685834E0,-1.570197550E0,7.316328585E-2,9.856218731E-1,1.855350018E0
4.937629833E0,-2.236298617E0,-1.198515487E-1,8.114426744E-1,2.381981341E0
4.947573834E0,-2.814391193E0,-3.071010286E-1,4.445357394E-1,2.865784509E0
4.957517833E0,-3.339811175E0,-4.269929230E-1,-1.534660220E-1,3.370491575E0
4.967461833E0,-3.365852334E0,-5.222364646E-1,-6.413220280E-1,3.465975592E0
4.977405834E0,-3.104133593E0,-5.738919371E-1,-1.054397993E0,3.328175543E0
4.987349833E0,-2.683975480E0,-6.434971923E-1,-1.299219743E0,3.050538470E0
4.997294833E0,-2.370597466E0,-7.662320030E-1,-1.613463145E0,2.968182465E0
5.007238833E0,-2.249937832E0,-7.962165248E-1,-1.972651756E0,3.096374646E0
5.017182834E0,-1.999786637E0,-9.102571106E-1,-3.521970946E0,4.151143691E0
5.027126833E0,-1.621615041E0,-1.072139615E0,-5.699048377E0,6.021484128E0
5.037070834E0,-1.662406679E0,-1.101422471E0,-7.134525202E0,7.407980648E0
5.047014833E0,-8.477340031E-1,-6.237067062E-1,-6.193805852E0,6.282586563E0
5.056958833E0,6.569364327E-1,2.464800203E-1,-4.426182035E0,4.481451248E0
5.066902834E0,1.349137131E0,1.308174169E0,-3.038392178E0,3.572578576E0
5.076846833E0,1.732889309E0,2.113866692E0,-1.886173483E0,3.320992044E0
5.086790834E0,2.053107981E0,2.520076271E0,-8.600967711E-1,3.362410334E0
5.096734833E0,2.098122771E0,2.696753401E0,3.266950482E-1,3.432393876E0
5.106678833E0,2.067169950E0,2.680343775E0,1.225391921E0,3.599863847E0
5.116622834E0,1.793554172E0,2.447571967E0,1.780777421E0,3.518325357E0
5.126566833E0,1.342050013E0,2.345215872E0,1.918535190E0,3.313896951E0
5.136510834E0,1.291666895E0,2.398726666E0,1.559420255E0,3.139121615E0
5.146454833E0,9.961111933E-1,2.495886340E0,1.832518555E0,3.252662046E0
5.156399209E0,6.595454603E-1,2.885800315E0,2.160660789E0,3.664873629E0
5.166344208E0,1.101404052E0,3.140870479E0,1.674165138E0,3.725719684E0
5.176288208E0,1.145436510E0,3.334065993E0,1.855316264E0,3.983744380E0
5.186232208E0,1.064375682E0,3.482704554E0,1.759795857E0,4.044627060E0
5.196176209E0,1.104243168E0,3.398345019E0,1.135546529E0,3.749342311E0
5.206120208E0,1.047548857E0,3.054016523E0,2.076401827E-1,3.235350054E0
5.216064208E0,6.486561906E-1,2.273477553E0,-8.173922163E-1,2.501516554E0
5.226008208E0,2.189308637E-1,9.979156440E-1,-2.168888406E0,2.397466011E0
5.235952208E0,5.335107735E-1,-3.430596507E-1,-3.276228844E0,3.337064445E0
5.245896209E0,1.647146908E0,-1.528007843E0,-3.721042911E0,4.346729949E0
5.255840208E0,2.573849605E0,-2.180500976E0,-2.426313245E0,4.155271623E0
5.265784208E0,2.939280703E0,-2.172842293E0,-4.091326028E-2,3.655446427E0
5.275728208E0,2.752648104E0,-1.584566206E0,2.040289131E0,3.775010117E0
5.285672208E0,2.559165200E0,-7.567185831E-1,3.039058176E0,4.044480700E0
5.295616209E0,2.847692548E0,5.187883615E-2,2.822561508E0,4.009850088E0
5.305560208E0,3.105523768E0,6.178483808E-1,2.204722775E0,3.858343817E0
5.315504208E0,2.553012468E0,1.054355308E0,1.798419932E0,3.296035805E0
5.325448208E0,1.403235862E0,1.646932023E0,1.871296120E0,2.860630200E0
5.335393209E0,3.150196204E-1,2.238594233E0,2.226330868E0,3.172867888E0
5.345337208E0,-3.233893248E-1,2.595310641E0,2.730595915E0,3.781054354E0
5.355281208E0,-5.486957002E-1,2.562644586E0,3.364575010E0,4.264807058E0
5.365225208E0,-6.518417537E-1,2.143920211E0,4.122180616E0,4.691872182E0
5.375169208E0,-1.039552205E0,1.332060045E0,4.535673487E0,4.840184576E0
5.385113209E0,-1.913762400E0,5.060999036E-2,4.098102074E0,4.523216610E0
5.395057208E0,-2.888137154E0,-1.343094326E0,2.497722951E0,4.047697929E0
5.405001208E0,-2.958794616E0,-2.423266261E0,5.352473965E-1,3.861757984E0
5.414945208E0,-2.281944906E0,-2.941557024E0,-4.825756779E-1,3.754052419E0
5.424889208E0,-1.592107944E0,-2.739229329E0,-5.536073613E-1,3.216312506E0
5.434833209E0,-1.157435581E0,-1.938308135E0,2.010182109E-1,2.266518006E0
5.444777208E0,-8.067298186E-1,-1.224533842E0,1.422349241E0,2.042883622E0
5.454721208E0,-2.906253290E-1,-1.221966915E0,2.357230146E0,2.670992359E0
5.464665208E0,2.777553150E-1,-1.713202026E0,2.786855193E0,3.283103877E0
5.474609208E0,4.474090612E-1,-2.225068454E0,2.749904883E0,3.565540823E0
5.484553209E0,4.925320244E-1,-2.529575658E0,2.470864643E0,3.570225887E0
5.494497208E0,7.348087737E-1,-2.605300609E0,2.365272406E0,3.594725129E0
5.504442208E0,1.017702037E0,-2.547310263E0,2.276698199E0,3.564808789E0
5.514386208E0,1.355475512E0,-2.423104877E0,2.023202397E0,3.435418323E0
5.524330209E0,1.887132134E0,-2.307203123E0,1.720834397E0,3.441761898E0
5.534274208E0,2.267639985E0,-2.169640943E0,1.450704144E0,3.457466621E0
5.544218208E0,2.276352044E0,-2.064865855E0,1.094970361E0,3.262577159E0
5.554162208E0,1.988504435E0,-1.964590200E0,9.265158784E-1,2.944859286E0
5.564106208E0,1.674781434E0,-1.874627863E0,7.647555810E-1,2.627541356E0
5.574050209E0,1.454013083E0,-1.732426502E0,5.444933063E-1,2.326355216E0
5.583994208E0,1.332074078E0,-1.452790430E0,2.854370946E-1,1.991606316E0
5.593938208E0,1.335730927E0,-1.015214047E0,-3.067361623E-2,1.678027873E0
5.603882208E0,1.328506692E0,-5.514327818E-1,-2.666014588E-1,1.462902759E0
5.613826208E0,1.167623477E0,-2.040725040E-1,-4.364285749E-1,1.263115225E0
5.623770209E0,8.031770504E-1,-3.926112950E-2,-6.059954900E-1,1.006908806E0
5.633714208E0,2.749951369E-1,-2.757780790E-2,-9.284986693E-1,9.687582978E-1
5.643658208E0,-2.655138767E-1,-1.483590639E-1,-1.310435580E0,1.345269281E0
5.653602208E0,-8.007264823E-1,-4.577668190E-1,-1.177608767E0,1.495819430E0
5.663547209E0,-1.376453860E0,-8.833493936E-1,-6.960162985E-1,1.777461693E0
5.673491208E0,-1.649092277E0,-1.387784595E0,7.093052655E-2,2.156497753E0
5.683435209E0,-1.652088390E0,-1.796980932E0,1.375608645E0,2.801934272E0
5.693379208E0,-1.370398192E0,-2.275781356E0,2.412290744E0,3.588358764E0
5.703323208E0,-1.079016818E0,-2.795440952E0,2.913141895E0,4.179134254E0
5.713267209E0,-8.229023400E-1,-3.025925329E0,3.259019611E0,4.522676330E0
5.723211208E0,-3.863664687E-1,-2.799609432E0,3.763346931E0,4.706365067E0
5.733155208E0,4.120854467E-2,-2.358350472E0,3.764808151E0,4.442667611E0
5.743099208E0,4.776748341E-1,-1.787999024E0,3.332449822E0,3.811867728E0
5.753043208E0,9.603221405E-1,-1.127426208E0,2.848811998E0,3.210769108E0
5.762987209E0,1.289137097E0,-4.157376176E-1,2.366509677E0,2.726734361E0
5.772931208E0,1.181073389E0,7.309031260E-1,1.612135243E0,2.127941205E0
5.782875208E0,8.680619945E-1,1.532748765E0,2.116253525E-1,1.774157742E0
5.792819208E0,4.669561569E-1,1.861255866E0,-1.149105345E0,2.236686063E0
5.802763208E0,1.261057305E-1,1.769518315E0,-2.590280866E0,3.139530647E0
5.812707209E0,-2.725012994E-1,1.564002718E0,-3.582245214E0,3.918270311E0
5.822652209E0,-8.689985722E-1,1.369178170E0,-4.292076144E0,4.588215885E0
5.832596208E0,-1.409140381E0,1.414195883E0,-5.088504338E0,5.466123216E0
5.842540208E0,-1.736565161E0,1.827018079E0,-6.063522871E0,6.566579263E0
5.852484209E0,-1.475827875E0,2.499596398E0,-6.484063391E0,7.104162733E0
5.862428208E0,-1.063756754E0,3.059535710E0,-6.000282894E0,6.818777897E0
5.872372209E0,-1.100209174E0,3.200265911E0,-4.995834156E0,6.034113112E0
5.882316208E0,-1.502971820E0,3.100776122E0,-3.752908482E0,5.094905193E0
5.892260208E0,-1.693586957E0,2.981754878E0,-2.534544037E0,4.264154360E0
5.902204209E0,-1.757785584E0,2.944318664E0,-1.475473534E0,3.733074431E0
5.912148208E0,-1.870905526E0,3.019900358E0,-8.093967336E-1,3.643515985E0
5.922092208E0,-2.142016942E0,3.055492945E0,-7.805185050E-1,3.812280532E0
5.932036208E0,-2.439706000E0,2.814819210E0,-1.305172793E0,3.947005012E0
5.941980208E0,-2.551139897E0,2.342827284E0,-1.717561126E0,3.866157094E0
5.951924209E0,-2.467053135E0,1.801254078E0,-1.954596723E0,3.626474290E0
5.961869209E0,-2.226169777E0,1.430696726E0,-2.276538570E0,3.490752477E0
5.971813208E0,-2.033587344E0,1.181131130E0,-2.715477939E0,3.592265117E0
5.981757208E0,-1.930043095E0,1.076750729E0,-3.144245492E0,3.843271809E0
5.991701209E0,-1.982739957E0,1.118513882E0,-3.446787447E0,4.130699062E0
6.001645208E0,-2.092365018E0,1.241015974E0,-3.574871290E0,4.324097219E0
6.011589209E0,-2.166955024E0,1.419260157E0,-3.599040756E0,4.434308045E0
6.021533208E0,-2.024962701E0,1.526553640E0,-3.468316895E0,4.296517432E0
6.031477208E0,-1.489831080E0,1.295192766E0,-2.984295493E0,3.578147640E0
6.041421209E0,-1.067524408E0,6.807690990E-1,-2.083196291E0,2.437778028E0
6.051365208E0,-9.004349577E-1,-2.752436435E-1,-1.027349943E0,1.393553042E0
6.061309209E0,-5.217745346E-1,-1.407296754E0,4.263696098E-1,1.560296081E0
6.071253208E0,5.765413105E-2,-2.612103260E0,2.214087968E0,3.424703340E0
6.081197208E0,1.192849535E-1,-3.749974934E0,3.595758129E0,5.196731418E0
6.091141209E0,-3.058231196E-1,-4.503854109E0,4.031817745E0,6.052584898E0
6.101085208E0,-3.083880007E-1,-4.751214135E0,3.693447561E0,6.025835528E0
6.111030208E0,-1.401583439E-1,-4.896597551E0,3.031605899E0,5.760811251E0
6.120974208E0,-1.931224233E-1,-5.065825328E0,2.516710614E0,5.659833464E0
6.130918209E0,-1.655174258E-1,-5.197391188E0,2.061155212E0,5.593624227E0
6.140862208E0,7.567093737E-2,-5.297241166E0,1.559997960E0,5.522688086E0
6.150806209E0,4.091698057E-1,-5.402317970E0,1.414328615E0,5.599355750E0
6.160750625E0,6.844937754E-1,-5.436913607E0,1.650171965E0,5.722903879E0
6.170694625E0,9.510320842E-1,-5.257794095E0,1.828091628E0,5.647192203E0
6.180638625E0,8.226571224E-1,-4.754169318E0,1.628481134E0,5.092233444E0
6.190582625E0,1.663548202E-1,-3.757976848E0,8.741189790E-1,3.861883984E0
6.200526625E0,-5.872586721E-1,-2.315782743E0,1.241743952E-1,2.392308872E0
6.210470625E0,-9.754772463E-1,-1.083270959E0,-3.520298642E-1,1.499652245E0
6.220414625E0,-1.077137815E0,-1.433070695E-1,-4.745500821E-1,1.185732081E0
6.230358625E0,-1.033989310E0,4.732116544E-1,-4.700804704E-1,1.230462845E0
6.240302625E0,-1.104741350E0,7.602146333E-1,-2.567664421E-1,1.365396919E0
6.250247625E0,-1.335014058E0,8.227102590E-1,1.133517838E-1,1.572247860E0
6.260191625E0,-1.467170488E0,8.795323312E-1,5.981140280E-1,1.812155278E0
6.270135625E0,-1.358935895E0,1.027796670E0,9.479628807E-1,1.949796498E0
6.280079625E0,-1.222239395E0,1.203421301E0,1.201641993E0,2.094286381E0
6.290023625E0,-1.074382607E0,1.236690788E0,1.275794043E0,2.076379669E0
6.299967625E0,-8.605569470E-1,1.170979779E0,1.047035764E0,1.791099046E0
6.309911625E0,-8.207793622E-1,8.485309786E-1,6.828217641E-1,1.363792193E0
6.319855625E0,-9.523634952E-1,1.870062357E-1,3.083692896E-1,1.018361025E0
6.329799625E0,-1.285982524E0,-6.790652204E-1,1.655528015E-1,1.463655819E0
6.339743625E0,-1.577803901E0,-1.465024559E0,4.642291617E-1,2.202560061E0
6.349687625E0,-1.764367356E0,-1.984145043E0,1.408316800E0,3.005524901E0
6.359631625E0,-1.844295286E0,-1.974810548E0,2.444196077E0,3.643541720E0
6.369575625E0,-1.924564547E0,-1.535349022E0,3.346405664E0,4.154476644E0
6.379519625E0,-1.644699556E0,-9.387494230E-1,3.583361447E0,4.052994741E0
6.389464625E0,-1.156032249E0,-3.883539373E-1,3.164512819E0,3.391367087E0
6.399408625E0,-7.195241520E-1,1.522345984E-1,2.772526883E0,2.868413446E0
6.409352625E0,-4.721313813E-1,6.256672776E-1,2.395863869E0,2.520819562E0
6.419296625E0,-3.490679571E-1,9.688327628E-1,1.872977487E0,2.137411993E0
6.429240625E0,-1.281627810E-1,1.316356763E0,1.264004887E0,1.829461445E0
6.439184625E0,-6.884599417E-2,1.644011924E0,9.900303814E-1,1.920332037E0
6.449128625E0,-1.396578223E-1,1.998222799E0,5.897525096E-1,2.088110793E0
6.459072625E0,-4.939143062E-3,2.144210232E0,-4.381067258E-1,2.188515346E0
6.469016625E0,2.248692960E-2,2.331006553E0,-1.213168024E0,2.627902941E0
6.478960625E0,-1.467247671E-1,2.508222796E0,-1.432835637E0,2.892356775E0
6.488904625E0,-3.285503697E-1,2.546016859E0,-1.377014316E0,2.913128150E0
6.498848625E0,-4.201525578E-1,2.561778613E0,-9.936100468E-1,2.779658029E0
6.508792625E0,-4.496003053E-1,2.563728075E0,-7.591580415E-1,2.711302825E0
6.518737625E0,-6.796458489E-1,2.601766552E0,-6.463436168E-1,2.765658645E0
6.528681625E0,-1.079809115E0,2.540699986E0,-1.560496143E-1,2.765048937E0
6.538625625E0,-8.976750720E-1,2.609694207E0,3.752912575E-1,2.785169279E0
6.548569625E0,-1.276587510E-1,2.726739092E0,2.411134458E-1,2.740353723E0
6.558513625E0,4.979085392E-1,2.575222532E0,-9.220240474E-2,2.624535251E0
6.568457625E0,9.659372216E-1,2.379703335E0,-6.347544354E-1,2.645550202E0
6.578401625E0,1.406263551E0,2.469622986E0,-1.857087386E0,3.394906247E0
6.588345625E0,1.918184942E0,2.647366648E0,-2.855340122E0,4.340616414E0
6.598289625E0,2.127604725E0,2.602213279E0,-4.366203636E0,5.510167874E0
6.608233625E0,2.196719106E0,2.192742707E0,-5.649386805E0,6.445872066E0
6.618177625E0,2.035694973E0,1.534968368E0,-5.547256998E0,6.105099681E0
6.628121625E0,1.785777960E0,1.067032072E0,-4.975844865E0,5.393198725E0
6.638065625E0,1.923373176E0,1.012926031E0,-4.036914178E0,4.584981963E0
6.648009625E0,2.117453666E0,1.219274856E0,-2.444404530E0,3.456205247E0
6.657954625E0,2.171804413E0,1.221855233E0,-1.707577005E-1,2.497763561E0
6.667898625E0,1.926266963E0,1.063982749E0,2.397349647E0,3.254204823E0
6.677842625E0,1.536781882E0,8.896363199E-1,4.431574045E0,4.774096758E0
6.687786625E0,1.369545960E0,6.111375314E-1,5.311323016E0,5.518994238E0
6.697730625E0,1.689194528E0,1.888516170E-1,4.704651880E0,5.002278721E0
6.707674625E0,2.125830680E0,-1.508207417E-1,3.031641567E0,3.705773005E0
6.717618625E0,2.640269297E0,-3.181622064E-1,1.361285598E0,2.987532030E0
6.727562625E0,2.863360163E0,-4.122211021E-1,6.058139339E-1,2.955633296E0
6.737506625E0,2.024087373E0,-4.530662423E-1,9.451147020E-1,2.279350897E0
6.747450625E0,3.621180654E-1,-4.365981442E-1,2.008362456E0,2.086927691E0
6.757394625E0,-1.335208771E0,-4.866035324E-1,3.252020494E0,3.548972070E0
6.767338625E0,-2.424034000E0,-6.536894739E-1,4.238876422E0,4.926593558E0
6.777282625E0,-2.996337833E0,-1.000239328E0,4.628292798E0,5.603535790E0
6.787227625E0,-3.291871315E0,-1.462357644E0,4.438531939E0,5.716246357E0
6.797171625E0,-2.656872174E0,-2.015805377E0,3.643214424E0,4.939175276E0
6.807115625E0,-1.071587638E0,-2.496321373E0,2.456458273E0,3.662527503E0
6.817059625E0,-1.985515630E-1,-2.948939134E0,1.431492824E0,3.284027473E0
6.827003625E0,-4.264663813E-1,-3.264626799E0,1.029119895E0,3.449456402E0
6.836947625E0,-5.682698393E-1,-3.266064044E0,1.035357997E0,3.473049256E0
6.846891625E0,-3.657260898E-1,-2.964329005E0,1.134149044E0,3.194885926E0
6.856835625E0,-1.413304183E-1,-2.464933519E0,1.475576737E0,2.876316785E0
6.866779625E0,3.068940371E-2,-1.912147692E0,1.917924449E0,2.708446940E0
6.876723625E0,6.606184244E-2,-1.411876293E0,2.213347126E0,2.626150097E0
6.886667625E0,-3.064730376E-2,-9.712710518E-1,2.249466254E0,2.450388773E0
6.896611625E0,5.102221906E-2,-5.534950948E-1,1.897109530E0,1.976862326E0
6.906555625E0,2.512425774E-1,-3.046060216E-1,1.127491989E0,1.194632097E0
6.916500625E0,3.794533056E-1,-3.354383898E-1,3.436823791E-1,6.120631521E-1
6.926444625E0,4.158224022E-1,-5.359294742E-1,-2.597795123E-1,7.263704747E-1
6.936388625E0,4.701833814E-1,-7.684089214E-1,-7.815674955E-1,1.192632564E0
6.946332625E0,5.764348912E-1,-9.860212380E-1,-9.198307568E-1,1.466493671E0
6.956276625E0,5.869522780E-1,-1.067803320E0,-7.733334464E-1,1.443177579E0
6.966220625E0,4.007623136E-1,-9.942932940E-1,-5.800759524E-1,1.218900200E0
6.976164625E0,7.838017166E-2,-9.604969722E-1,-4.335289407E-1,1.056714355E0
6.986108625E0,-2.490387619E-2,-8.604511124E-1,-2.689812756E-1,9.018576642E-1
6.996052625E0,6.773356140E-2,-7.275544256E-1,2.728573948E-1,7.799836123E-1
7.005996625E0,8.979569077E-3,-7.362778866E-1,1.060001965E0,1.290654843E0
7.015940625E0,4.585795820E-2,-1.041755143E0,2.027749484E0,2.280158920E0
7.025884625E0,1.513700876E-1,-1.684703282E0,2.983901683E0,3.429986488E0
7.035828625E0,5.898861185E-1,-2.637822822E0,3.700375050E0,4.582450260E0
7.045773625E0,6.889771280E-1,-3.608606216E0,3.965252165E0,5.405548357E0
7.055717625E0,5.047214225E-1,-4.503978070E0,3.829520456E0,5.933446645E0
7.065661625E0,3.337362653E-1,-5.026275346E0,3.455067689E0,6.108380839E0
7.075605625E0,8.184103628E-1,-4.954659818E0,2.894010390E0,5.796011178E0
7.085549625E0,2.370553612E0,-4.159639049E0,2.891745763E0,5.593238329E0
7.095493625E0,2.396605296E0,-3.799011438E0,1.667948670E0,4.791477603E0
7.105437625E0,1.977798767E0,-3.359116634E0,7.240829337E-1,3.964801208E0
7.115381625E0,1.578991617E0,-2.534960943E0,-2.247850960E-1,2.994957404E0
7.125325625E0,9.083648054E-1,-1.658276206E0,-1.659074351E0,2.515459063E0
7.135269625E0,1.973660401E-1,-8.202333784E-1,-3.127086838E0,3.238889970E0
7.145213625E0,-3.598174784E-1,-1.346607918E-1,-4.445738048E0,4.462307580E0
7.155157625E0,-9.680055280E-1,9.034006655E-2,-5.314881046E0,5.403069180E0
7.165101208E0,-1.498144943E0,5.864119953E-1,-6.004164276E0,6.215971843E0
7.175046208E0,-2.171766990E0,1.218938642E0,-7.285120241E0,7.699049305E0
7.184990209E0,-2.513184743E0,2.302366891E0,-8.208203804E0,8.887721898E0
7.194934208E0,-2.351891930E0,3.597182511E0,-8.562214120E0,9.580325063E0
7.204878208E0,-2.354805013E0,4.576224512E0,-8.049803901E0,9.554385396E0
7.214822209E0,-1.964168323E0,5.106900263E0,-5.920967168E0,8.062024542E0
7.224766208E0,-1.386021952E0,5.106967506E0,-3.192089750E0,6.179936159E0
7.234710209E0,-1.169879333E0,5.047400166E0,-1.015217555E0,5.279728476E0
7.244654208E0,-8.041856951E-1,5.160836150E0,4.904147476E-1,5.246089117E0
7.254598208E0,-7.518615934E-1,5.196322902E0,8.355729640E-1,5.316507287E0
7.264542209E0,-1.241281145E0,5.095994622E0,2.636263955E-1,5.251612985E0
7.274486208E0,-1.686765303E0,4.732833998E0,-9.430751932E-1,5.112170347E0
7.284430209E0,-1.883242858E0,4.133763950E0,-2.383864798E0,5.130050627E0
7.294375208E0,-2.187690128E0,3.234584974E0,-3.462025875E0,5.218634995E0
7.304319208E0,-2.299168756E0,2.292628353E0,-4.040734164E0,5.183614021E0
7.314263208E0,-2.390705748E0,1.536658798E0,-4.514709465E0,5.334734838E0
7.324207209E0,-2.454408824E0,9.581727040E-1,-4.798707560E0,5.474469093E0
7.334151208E0,-2.454742992E0,5.045316803E-1,-4.808977609E0,5.422783512E0
7.344095208E0,-2.418658947E0,3.047258896E-1,-4.537035888E0,5.150481883E0
7.354039208E0,-2.368092226E0,1.605154252E-1,-3.961257640E0,4.617920320E0
7.363983208E0,-1.938156107E0,5.855050921E-2,-3.064262599E0,3.626235311E0
7.373927209E0,-1.236372700E0,-1.248263597E-1,-1.934094046E0,2.298895137E0
7.383871208E0,-2.134023213E-1,-6.199235576E-1,-6.757615435E-1,9.415409878E-1
7.393815208E0,6.402443862E-1,-1.316529840E0,5.457802784E-1,1.562382734E0
7.403760208E0,8.779114830E-1,-1.956118169E0,1.608252107E0,2.680224189E0
7.413704209E0,1.027232414E0,-2.410020563E0,2.657748379E0,3.731893888E0
7.423648208E0,1.367879503E0,-2.761652232E0,3.452563911E0,4.627960128E0
7.433592208E0,1.232121774E0,-3.147759084E0,3.554177994E0,4.904966109E0
7.443536208E0,4.218368483E-1,-3.447735280E0,2.894424373E0,4.521340215E0
7.453480208E0,-6.027277735E-1,-3.721695460E0,2.129088163E0,4.329816887E0
7.463424209E0,-1.002068629E0,-4.067707955E0,1.904846274E0,4.602046161E0
7.473368208E0,-6.437287420E-1,-4.572668821E0,2.431401492E0,5.218754646E0
7.483312208E0,-2.246254671E-1,-5.168981906E0,3.307541268E0,6.140737724E0
7.493256208E0,-5.316843957E-2,-5.752994789E0,4.354698654E0,7.215481709E0
7.503200208E0,-1.510189623E-3,-6.211486078E0,5.424978855E0,8.246996856E0
7.513144209E0,-6.941112757E-2,-6.416024020E0,6.057732373E0,8.824188554E0
7.523088208E0,-3.245061430E-1,-5.920747313E0,5.911473629E0,8.372936967E0
7.533033208E0,-7.449301578E-1,-4.376725116E0,4.993794647E0,6.681962935E0
7.542977208E0,-1.025575752E0,-2.383340887E0,3.757928901E0,4.566634322E0
7.552921209E0,-8.321244223E-1,-4.837068218E-1,2.429358475E0,2.613079781E0
7.562865208E0,-2.987025265E-1,1.023099017E0,1.062419788E0,1.504888901E0
7.572809208E0,1.932023840E-1,2.067446231E0,-8.516118765E-2,2.078199583E0
7.582753208E0,3.820168711E-1,2.732436619E0,-7.007969820E-1,2.846623118E0
7.592697208E0,3.251525527E-1,2.997496167E0,-7.718248647E-1,3.112301572E0
7.602641209E0,2.523792762E-1,2.928543461E0,-4.284213978E-1,2.970455688E0
7.612585208E0,2.100296474E-1,2.562564479E0,6.057949305E-2,2.571870727E0
7.622529208E0,1.667815939E-1,1.967561170E0,5.501399624E-1,2.049821220E0
7.632473208E0,-3.524993956E-2,1.064047068E0,9.668792081E-1,1.438156502E0
7.642417208E0,-5.042086217E-1,-2.073329115E-1,1.246463240E0,1.360471932E0
7.652362208E0,-1.078151430E0,-1.578533049E0,1.376484851E0,2.355607700E0
7.662306209E0,-1.515844757E0,-2.540998778E0,1.486920628E0,3.311403490E0
7.672250208E0,-1.742326423E0,-2.849401982E0,1.428826202E0,3.632676332E0
7.682194208E0,-1.710378698E0,-2.453754228E0,1.288833334E0,3.256899824E0
7.692138209E0,-1.795928434E0,-1.568737793E0,1.005452120E0,2.587900919E0
7.702082208E0,-1.860703889E0,-5.746894974E-1,7.043292850E-1,2.070885492E0
7.712026208E0,-1.696648559E0,1.057387090E-1,2.503941464E-1,1.718282350E0
7.721970208E0,-1.640726373E0,5.234632105E-1,-5.052848017E-1,1.794800684E0
7.731914208E0,-2.194904423E0,3.795667416E-1,-2.471524501E0,3.327177437E0
7.741858209E0,-2.799408580E0,-3.725535911E-1,-5.712623858E0,6.372562743E0
7.751802208E0,-2.682592906E0,-1.382950702E0,-7.445449140E0,8.033901309E0
7.761747208E0,-1.634053238E0,-1.607472088E0,-6.386804314E0,6.785673574E0
7.771691208E0,2.521728694E-2,-1.063255355E0,-4.006869430E0,4.145618228E0
7.781635209E0,1.531522604E0,-2.558870208E-1,-1.861070217E0,2.423761953E0
7.791579208E0,2.511172131E0,5.922469318E-1,-9.768700531E-1,2.758807170E0
7.801523209E0,3.010609717E0,1.207511428E0,-9.914895540E-1,3.391888302E0
7.811467208E0,2.875894547E0,1.792369233E0,-8.700873238E-1,3.498629569E0
7.821411208E0,2.840595198E0,2.294443914E0,-1.181422906E0,3.837865818E0
7.831355209E0,3.315408989E0,2.956159860E0,-1.138956918E0,4.585634171E0
7.841299208E0,3.417875304E0,4.026169919E0,6.280254596E-1,5.318489616E0
7.851243209E0,3.544768655E0,4.677493025E0,1.422078807E0,6.038760961E0
7.861187208E0,3.572538836E0,4.897141927E0,7.327236566E-1,6.105891970E0
7.871132209E0,3.599541570E0,4.979950195E0,2.774670473E-1,6.150901676E0
7.881076208E0,2.399916282E0,4.879325461E0,2.311172798E0,5.908378357E0
7.891020209E0,2.482453532E0,5.183749634E0,1.924766276E0,6.061234282E0
7.900964208E0,2.062155378E0,5.066438701E0,3.221165906E0,6.348007223E0
7.910908208E0,1.473953258E0,4.751127596E0,3.424258125E0,6.039146906E0
7.920852209E0,6.539742333E-1,4.012630692E0,2.152511525E0,4.600238388E0
7.930796208E0,-1.315597209E-1,2.949399894E0,-8.654463887E-3,2.952345271E0
7.940740209E0,7.174299717E-2,1.480279945E0,-2.938018874E0,3.290642897E0
7.950684208E0,8.238732702E-1,-2.944026303E-1,-5.067837939E0,5.142802879E0
7.960628208E0,1.554730496E0,-1.596623164E0,-5.214867346E0,5.671087540E0
7.970572209E0,2.335195498E0,-1.783179165E0,-3.720157642E0,4.740510398E0
7.980516208E0,3.074563639E0,-1.005314126E0,-1.766009108E0,3.685428907E0
7.990461208E0,3.592552686E0,-2.694396973E-3,-4.716957638E-1,3.623387773E0
8.000405208E0,3.696029399E0,6.573106545E-1,4.315917581E-2,3.754271345E0
8.010349208E0,3.355660930E0,1.008947001E0,2.213241291E-1,3.511042395E0
8.020293208E0,2.724527090E0,1.160087001E0,5.065641725E-1,3.004239833E0
8.030237209E0,1.600154006E0,1.141965310E0,1.148249313E0,2.276632183E0
8.040181208E0,1.373502186E-1,1.109433741E0,2.539782557E0,2.774924098E0
8.050125208E0,-1.477966202E0,1.012303303E0,4.410589558E0,4.760508620E0
8.060069208E0,-2.812550782E0,8.512481797E-1,5.625475202E0,6.346734326E0
8.070013208E0,-3.274549231E0,7.289723754E-1,5.335442780E0,6.302461666E0
8.079957209E0,-3.293705002E0,7.192613196E-1,4.207959269E0,5.391915309E0
8.089901208E0,-3.347460502E0,8.890831733E-1,3.150482132E0,4.682039979E0
8.099846208E0,-2.807283903E0,9.295780653E-1,2.413872124E0,3.817294450E0
8.109790208E0,-2.168089092E0,6.202685434E-1,2.255101800E0,3.189173483E0
8.119734209E0,-1.743089485E0,-2.638421577E-1,2.376955728E0,2.959373611E0
8.129678208E0,-1.148053431E0,-1.873898131E0,2.542802060E0,3.360857509E0
8.139622208E0,-2.227362317E-1,-3.913357834E0,2.332126880E0,4.561008304E0
8.149566208E0,5.390194353E-1,-5.915335130E0,1.903064481E0,6.237257897E0
8.159509750E0,1.232400101E0,-7.220015003E0,1.379093586E0,7.453142007E0
8.169453750E0,1.402897308E0,-7.145023878E0,1.211316796E0,7.381515796E0
8.179397750E0,5.901466119E-1,-5.476864123E0,2.022681995E0,5.868181668E0
8.189341750E0,-3.051463044E-1,-3.720518416E0,3.019226174E0,4.801155927E0
8.199285750E0,-8.571193689E-1,-2.927203864E0,4.424271165E0,5.373765106E0
8.209230750E0,-5.273673964E-1,-2.875635515E0,5.542140099E0,6.265996558E0
8.219174750E0,3.813548201E-1,-3.161499456E0,5.794079080E0,6.611494740E0
8.229118750E0,5.861570567E-1,-3.428596174E0,5.786498165E0,6.751474864E0
8.239062750E0,8.408559233E-2,-3.245771282E0,5.228280859E0,6.154431115E0
8.249006750E0,5.561930001E-2,-1.878487025E0,3.896961949E0,4.326444203E0
8.258950750E0,-2.278867516E-1,-8.792224288E-2,2.369279357E0,2.381836973E0
8.268894750E0,-9.156517518E-1,1.247128068E0,1.447298725E0,2.118589188E0
8.278838750E0,-1.024957847E0,2.213730703E0,1.070793878E0,2.664158731E0
8.288782750E0,-3.092130429E-1,2.618599516E0,2.002723986E-1,2.644387484E0
8.298726750E0,1.033660550E0,2.490155484E0,-7.685184105E-1,2.803560061E0
8.308670750E0,2.010485872E0,1.936498421E0,-1.068566089E0,2.988965217E0
8.318615750E0,2.380669295E0,1.328816594E0,-1.247636776E0,2.998322424E0
8.328559750E0,2.376416322E0,9.417911446E-1,-1.626206860E0,3.029665633E0
8.338503750E0,2.269505831E0,8.547337049E-1,-1.951079331E0,3.112545097E0
8.348447750E0,1.985598661E0,1.065977234E0,-2.065368131E0,3.056902848E0
8.358391750E0,1.648651105E0,1.496970822E0,-1.913630546E0,2.936146109E0
8.368335750E0,1.394870836E0,1.912092143E0,-1.312017252E0,2.706131978E0
8.378279750E0,1.494814369E0,2.163953356E0,-6.405656907E-1,2.706933418E0
8.388223750E0,1.815121334E0,2.147216871E0,-4.587529519E-1,2.848799751E0
8.398167750E0,1.920130603E0,1.648003818E0,-3.635076562E-1,2.556355987E0
8.408111750E0,1.556023315E0,5.800736135E-1,-2.890296239E-1,1.685595467E0
8.418055750E0,1.366970554E0,-9.615085405E-1,1.614208665E-1,1.679036588E0
8.428000750E0,1.044514444E0,-3.270098623E0,1.136536170E0,3.616112539E0
8.437944750E0,1.091970447E-1,-6.375282376E0,2.340578153E0,6.792234938E0
8.447888750E0,-1.343196360E0,-9.286618066E0,3.370635357E0,9.970287572E0
8.457832750E0,-2.568310538E0,-1.076899482E1,3.378018343E0,1.157490719E1
8.467776750E0,-2.658945304E0,-1.000475087E1,2.465584314E0,1.064162282E1
8.477720750E0,-1.589637204E0,-7.237547879E0,8.774197322E-1,7.461830280E0
8.487664750E0,-5.840172681E-1,-4.537235278E0,-6.778057301E-1,4.624608173E0
8.497608750E0,3.222613969E-1,-2.324395106E0,-1.644524724E0,2.865506341E0
8.507552750E0,8.425960547E-1,-1.273101400E0,-2.768564810E0,3.161598709E0
8.517496750E0,9.136648679E-1,-1.526140827E0,-4.163485347E0,4.527526869E0
8.527441750E0,9.950572327E-1,-1.685664564E0,-5.580986077E0,5.914305497E0
8.537385750E0,1.352800411E0,-1.384253461E0,-6.625456082E0,6.902383276E0
8.547329750E0,1.698915963E0,-7.908926350E-1,-7.364151208E0,7.598851862E0
8.557273750E0,2.008618564E0,1.840457904E-1,-7.976317264E0,8.227396824E0
8.567217750E0,2.193697411E0,1.448080498E0,-8.453728389E0,8.852952566E0
8.577161750E0,2.334316662E0,2.724423594E0,-8.602293275E0,9.320459634E0
8.587105750E0,2.164627686E0,3.633525880E0,-8.085844384E0,9.125185080E0
8.597049750E0,1.215684374E0,4.075988197E0,-6.880064317E0,8.088686746E0
8.606993750E0,1.386320744E-1,4.275906839E0,-5.588821346E0,7.038289720E0
8.616937750E0,-8.533248183E-1,4.220300987E0,-4.298326818E0,6.083972148E0
8.626881750E0,-1.910591455E0,3.957546996E0,-3.383161554E0,5.546018395E0
8.636826750E0,-2.740375383E0,3.620290707E0,-3.009135050E0,5.447114447E0
8.646770750E0,-3.115757565E0,3.281539870E0,-2.859264480E0,5.352741587E0
8.656714750E0,-3.306166296E0,2.885444219E0,-2.874570152E0,5.245920079E0
8.666658750E0,-3.477291786E0,2.368207709E0,-2.857206845E0,5.085626498E0
8.676602750E0,-3.445068950E0,1.968413109E0,-2.648285245E0,4.770384154E0
8.686546750E0,-3.080648836E0,1.725110466E0,-2.368592455E0,4.251662450E0
8.696490750E0,-2.630888025E0,1.485150091E0,-2.094400141E0,3.676105894E0
8.706434750E0,-2.181331281E0,1.310607780E0,-1.912171665E0,3.183127297E0
8.716378750E0,-1.595604872E0,1.226637670E0,-1.871269807E0,2.748134926E0
8.726322750E0,-9.774170601E-1,1.182052651E0,-1.946680178E0,2.478337405E0
8.736267750E0,-1.349268401E-1,1.161744102E0,-1.575329359E0,1.962018654E0
8.746211750E0,9.462647031E-1,1.221262325E0,-7.446405745E-1,1.715047562E0
8.756155750E0,1.926769239E0,1.545608547E0,6.147528648E-1,2.545440348E0
8.766099750E0,1.860980169E0,1.511646749E0,1.254735296E0,2.706045777E0
8.776043750E0,1.810441515E0,1.057912754E0,2.737297994E-1,2.114664484E0
8.785987750E0,2.277057218E0,8.351467019E-1,-6.121841830E-1,2.501445394E0
8.795931750E0,4.231282351E0,8.661223269E-1,1.190562104E0,4.480106733E0
8.805875750E0,6.574009940E0,8.343631750E-1,5.008540741E0,8.306578655E0
8.815819750E0,6.606997007E0,1.630548710E-1,6.793653579E0,9.478012729E0
8.825763750E0,4.914464303E0,-7.176732159E-1,6.008975365E0,7.795819339E0
8.835708750E0,3.183473293E0,-9.018733728E-1,4.065933909E0,5.242108005E0
8.845652750E0,2.140681145E0,-6.876623815E-1,2.132391840E0,3.098788518E0
8.855596750E0,2.077087705E0,-4.190600055E-1,1.245077742E0,2.457666211E0
8.865540750E0,2.623283721E0,-3.615567327E-1,1.564076393E0,3.075496011E0
8.875484750E0,3.294403744E0,-9.120422655E-1,2.824460099E0,4.434240857E0
8.885428750E0,3.982684177E0,-2.734101321E0,4.815761549E0,6.821190701E0
8.895372750E0,4.973321207E0,-5.664656809E0,6.204530230E0,9.763117123E0
8.905316750E0,6.081042298E0,-8.844896007E0,6.670721133E0,1.263763353E1
8.915260750E0,5.905931053E0,-1.155181421E1,6.131310811E0,1.434982248E1
8.925204750E0,3.119834536E0,-1.195899442E1,3.959511076E0,1.297800613E1
8.935148750E0,8.919231659E-1,-8.870237839E0,1.342227184E0,9.015443421E0
8.945093750E0,1.912723935E0,-4.016707370E0,4.991759232E-1,4.476787638E0
8.955037750E0,1.522692432E0,-1.329528201E-1,-2.930910999E-1,1.556332576E0
8.964981750E0,-1.559579591E-1,1.216423754E0,-2.666148489E0,2.934681823E0
8.974925750E0,-1.111285993E0,6.812140721E-1,-4.404801106E0,4.593613170E0
8.984869750E0,-1.644606293E0,-1.296912432E-1,-5.743538672E0,5.975766574E0
8.994813750E0,-2.004425964E0,-9.322870803E-1,-6.813870327E0,7.163498551E0
9.004757750E0,-2.602713216E0,-1.830607685E0,-7.594988172E0,8.234627248E0
9.014701750E0,-4.775987911E0,-2.441677973E0,-9.150586687E0,1.060684159E1
9.024645750E0,-7.651371703E0,-2.631012570E0,-1.148098338E1,1.404559345E1
9.034589750E0,-9.820156614E0,-2.562482618E0,-1.326991094E1,1.670605667E1
9.044534750E0,-1.021647153E1,-2.177238815E0,-1.269443850E1,1.643975147E1
9.054478750E0,-8.791526130E0,-1.183737234E0,-9.828961351E0,1.324011506E1
9.064422750E0,-7.029506285E0,8.077753007E-2,-6.808612511E0,9.786607581E0
9.074366750E0,-5.472450060E0,1.298447326E0,-4.484455971E0,7.193331667E0
9.084310750E0,-3.766946770E0,2.257401803E0,-2.713156010E0,5.162069972E0
9.094254750E0,-1.816054842E0,2.555054315E0,-9.559969550E-1,3.277237849E0
9.104198750E0,-1.129014897E0,2.069911417E0,6.685849634E-1,2.450757794E0
9.114142750E0,-1.568234640E0,1.407896093E0,1.498540507E0,2.585953392E0
9.124086750E0,-2.270727899E0,4.316946691E-1,2.151582987E0,3.157827549E0
9.134030750E0,-2.820269107E0,-6.594086355E-1,2.960743200E0,4.141827843E0
9.143975750E0,-2.737075215E0,-1.565966797E0,4.137316718E0,5.202040212E0
9.153919750E0,-2.587482096E0,-2.128415734E0,5.162844669E0,6.154687824E0
9.163864250E0,-1.998471306E0,-2.316220699E0,5.615113351E0,6.394393156E0
9.173808250E0,-9.310413310E-1,-1.701737975E0,6.422497473E0,6.709040459E0
9.183752250E0,-6.110504079E-1,-3.568520629E-1,6.131185681E0,6.171884951E0
9.193696250E0,-6.328815722E-1,7.275427312E-1,4.849967760E0,4.944900888E0
9.203640250E0,-4.383613721E-1,1.505774975E0,3.315278597E0,3.667504757E0
9.213584250E0,-1.762160763E-1,2.155537459E0,2.018469661E0,2.958312629E0
9.223528250E0,5.420310438E-2,2.664629382E0,1.461507752E0,3.039604025E0
9.233472250E0,4.516459537E-1,2.990462551E0,1.540674666E0,3.394190443E0
9.243417250E0,6.780138910E-1,3.016812444E0,1.801569242E0,3.578618713E0
9.253361250E0,9.995230436E-1,2.842515131E0,2.067601182E0,3.654300649E0
9.263305250E0,1.231793160E0,2.412956450E0,2.495709754E0,3.683509250E0
9.273249250E0,1.524136109E0,2.077832056E0,2.722594878E0,3.748719755E0
9.283193250E0,1.982343808E0,1.913390810E0,2.989676978E0,4.065577425E0
9.293137250E0,2.405300983E0,1.845842021E0,3.587175294E0,4.696853433E0
9.303081250E0,2.801194905E0,1.831377763E0,4.265673627E0,5.421863969E0
9.313025250E0,3.285502528E0,1.867772003E0,4.840454925E0,6.141099494E0
9.322969250E0,3.829804338E0,1.928350911E0,5.199465780E0,6.739464586E0
9.332913250E0,4.315585752E0,1.889972711E0,5.202113400E0,7.018422975E0
9.342858250E0,4.650784113E0,1.674040300E0,4.757977610E0,6.860798403E0
9.352802250E0,4.738762490E0,1.287676755E0,4.075982934E0,6.381819352E0
9.362746250E0,4.792295795E0,7.583686674E-1,3.549490866E0,6.011664282E0
9.372690250E0,4.915042008E0,1.738570172E-1,3.015386893E0,5.768918644E0
9.382634250E0,5.022008048E0,-4.931202543E-1,2.435168560E0,5.603015111E0
9.392578250E0,5.072368362E0,-1.192138513E0,2.024433528E0,5.590030961E0
9.402522250E0,5.168494248E0,-1.975235640E0,1.913880222E0,5.854726820E0
9.412466250E0,4.975226814E0,-2.858479784E0,1.663321184E0,5.974146457E0
9.422410250E0,4.344997539E0,-3.827899607E0,1.200125810E0,5.913723106E0
9.432354250E0,3.505462502E0,-4.782957500E0,7.461865783E-1,5.976767036E0
9.442299250E0,2.748314733E0,-5.356509714E0,3.410505474E-1,6.030070120E0
9.452243250E0,2.267064326E0,-5.061917633E0,-1.124738243E-1,5.547543704E0
9.462187250E0,2.169466403E0,-3.533232098E0,-6.786901215E-1,4.201301443E0
9.472131250E0,2.236713184E0,-1.375941644E0,-1.270735909E0,2.917339717E0
9.482075250E0,2.130529794E0,4.207843494E-1,-1.513845302E0,2.647252212E0
9.492019250E0,1.939353909E0,1.789600577E0,-1.564391265E0,3.067748986E0
9.501963250E0,1.711217774E0,2.911630974E0,-1.540462120E0,3.711992018E0
9.511907250E0,1.573604431E0,3.753093254E0,-1.555946716E0,4.356938152E0
9.521851250E0,1.339564069E0,4.275368310E0,-1.617372594E0,4.763307694E0
9.531796250E0,8.619070691E-1,4.510728096E0,-1.494053646E0,4.829259576E0
9.541740250E0,1.868805206E-1,4.405014530E0,-1.025044971E0,4.526565423E0
9.551684250E0,-5.402412111E-1,4.054421911E0,-4.221438271E-1,4.111982856E0
9.561628250E0,-1.002512140E0,3.497212080E0,4.502490538E-1,3.665821482E0
9.571572250E0,-5.976436195E-1,2.779669257E0,2.955570461E0,4.101113974E0
9.581516250E0,5.722503313E-1,1.292959714E0,5.133122102E0,5.324298806E0
9.591460250E0,-4.854934385E-1,-2.488101357E0,5.152298630E0,5.742171490E0
9.601404250E0,-3.200915537E0,-7.561231027E0,6.334804441E0,1.037052661E1
9.611348250E0,-7.491556190E0,-1.434225871E1,8.155635581E0,1.812010460E1
9.621292250E0,-1.009213751E1,-1.979655785E1,9.375403942E0,2.411748621E1
9.631237250E0,-6.199767673E0,-1.901907931E1,9.425400560E0,2.211335960E1
9.641181250E0,2.376580337E0,-1.204316509E1,8.169959505E0,1.474565013E1
9.651125250E0,6.966307240E0,-7.262997301E0,6.198328673E0,1.181946888E1
9.661069250E0,8.431808932E0,-5.587285867E0,3.637142968E0,1.074904527E1
9.671013250E0,7.789801025E0,-5.892974208E0,3.084131438E-1,9.772577127E0
9.680957250E0,5.417808999E0,-7.038454864E0,-3.719312135E0,9.629422827E0
9.690901250E0,2.075874408E0,-8.615258891E0,-7.899758500E0,1.187173638E1
9.700845250E0,-2.317181396E-1,-9.176550078E0,-1.092733508E1,1.427127943E1
9.710789250E0,-5.746310252E-1,-7.627506877E0,-1.390238671E1,1.586774774E1
9.720734250E0,9.771094966E-1,-5.620303924E0,-1.891410542E1,1.975565597E1
9.730678250E0,2.929853530E0,-3.239379691E0,-2.281079751E1,2.322520411E1
9.740622250E0,4.482996798E0,-8.876476818E-1,-2.209409260E1,2.256178420E1
9.750566250E0,4.050891947E0,1.879920763E-1,-1.693870898E1,1.741737433E1
9.760510250E0,1.852659435E0,3.827213144E-1,-1.047719771E1,1.064661892E1
9.770454250E0,-8.307392170E-1,1.612118286E-1,-3.761243103E0,3.855264787E0
9.780398250E0,-2.077251135E0,2.070171618E-1,2.066309533E0,2.937254410E0
9.790342250E0,-1.872694189E0,4.725105733E-1,6.130727844E0,6.427758059E0
9.800286250E0,-1.689146581E0,4.863918632E-1,7.522326577E0,7.724971867E0
9.810230250E0,-1.468957397E0,8.197153151E-1,6.367146560E0,6.585614956E0
9.820175250E0,-9.208613285E-1,1.590299985E0,4.221057032E0,4.603733496E0
9.830119250E0,-1.231506647E0,1.847507308E0,2.006086135E0,2.992369204E0
9.840063250E0,-1.896833834E0,1.533558020E0,-3.659304500E-1,2.466512495E0
9.850007250E0,-2.273265006E0,1.239299816E0,-2.151788224E0,3.366569527E0
9.859951250E0,-2.296483130E0,1.117132185E0,-3.479048874E0,4.315738657E0
9.869895250E0,-2.212751879E0,1.112024058E0,-4.647959908E0,5.266535834E0
9.879839250E0,-2.054889628E0,1.213364491E0,-5.578610353E0,6.067595755E0
9.889783250E0,-1.616418621E0,1.483018781E0,-5.955273952E0,6.346451111E0
9.899727250E0,-1.047526638E0,1.463785535E0,-5.404741057E0,5.696596004E0
9.909672250E0,-3.603512926E-1,1.013738210E0,-4.273689575E0,4.407033105E0
9.919616250E0,2.322283092E-1,3.949618757E-1,-3.168413204E0,3.201369567E0
9.929560250E0,6.765872435E-1,-4.870771569E-1,-2.124930208E0,2.282617542E0
9.939504250E0,1.200396536E0,-1.669722716E0,-8.450793672E-1,2.223304956E0
9.949448250E0,1.808584732E0,-2.958449630E0,7.340027350E-1,3.544314174E0
9.959392250E0,2.157277005E0,-4.364532502E0,2.293700148E0,5.381825750E0
9.969336250E0,2.007821881E0,-5.495794483E0,3.428698500E0,6.781672295E0
9.979280250E0,1.711925872E0,-6.138335656E0,3.673319106E0,7.355482858E0
9.989224250E0,1.708667803E0,-6.368688471E0,3.293881003E0,7.370847344E0
9.999168250E0,1.922260597E0,-6.466795394E0,2.810547819E0,7.308468205E0
1.000911325E1,1.955570285E0,-6.498442279E0,2.447371992E0,7.214127588E0
1.001905725E1,1.637969996E0,-6.382983159E0,2.117086169E0,6.921522488E0
1.002900125E1,1.117035121E0,-5.910234604E0,1.703201534E0,6.251362731E0
1.003894525E1,4.373818173E-1,-4.837359409E0,1.511381285E0,5.086808656E0
1.004888925E1,-3.891066201E-1,-3.311486970E0,1.610819619E0,3.702983899E0
1.005883325E1,-1.177368447E0,-1.919412857E0,1.502387098E0,2.706937230E0
1.006877725E1,-1.983558567E0,-9.967935634E-1,8.980411077E-1,2.394698275E0
1.007872125E1,-2.572489543E0,-5.557836950E-1,3.136329532E-2,2.632029943E0
1.008866525E1,-3.039103199E0,-4.212661600E-1,-7.980981588E-1,3.170264043E0
1.009861025E1,-3.319043619E0,-3.609252334E-1,-1.436263860E0,3.634442384E0
1.010855425E1,-3.580843052E0,-2.190460539E-1,-1.695534080E0,3.968028975E0
1.011849825E1,-3.733320310E0,-2.674054509E-1,-1.696103598E0,4.109252198E0
1.012844225E1,-3.980109940E0,-4.497877085E-1,-1.287667399E0,4.207335433E0
1.013838625E1,-4.044554735E0,-6.701482165E-1,-6.054125226E-1,4.144158052E0
1.014833025E1,-3.830665633E0,-8.158093750E-1,1.053358358E-1,3.917989250E0
1.015827425E1,-3.170410028E0,-7.757401603E-1,6.769499901E-1,3.333396741E0
1.016821788E1,-2.373761833E0,-5.292004985E-1,9.921798179E-1,2.626636480E0
1.017816187E1,-1.577474410E0,-1.735360050E-1,7.293770027E-1,1.746576959E0
1.018810687E1,-8.098194873E-1,2.181502604E-1,2.462046164E-1,8.740788588E-1
1.019805088E1,-2.202032179E-1,5.582278311E-1,-2.468355310E-1,6.488725206E-1
1.020799488E1,5.376938716E-2,8.451957268E-1,-5.528521934E-1,1.011381487E0
1.021793887E1,9.558224156E-2,1.087506682E0,-3.432072929E-1,1.144376684E0
1.022788288E1,-1.305993158E-1,1.152510763E0,2.103360415E-1,1.178803839E0
1.023782687E1,-5.185964267E-1,1.023046977E0,8.370508477E-1,1.419937144E0
1.024777088E1,-8.332191673E-1,7.108506846E-1,1.038708744E0,1.509463061E0
1.025771488E1,-8.931809020E-1,4.565663856E-1,1.156345367E0,1.530803579E0
1.026765887E1,-7.828806339E-1,2.721510512E-1,1.363729442E0,1.595846569E0
1.027760387E1,-6.908659248E-1,1.265746772E-2,1.361637893E0,1.526929497E0
1.028754788E1,-5.219375257E-1,-1.154117578E-1,1.486099971E0,1.579313705E0
1.029749188E1,-2.262080160E-1,-4.308696270E-2,1.666567558E0,1.682401254E0
1.030743588E1,-4.517324924E-2,8.124296844E-2,1.771835274E0,1.774272042E0
1.031737988E1,-3.271140012E-1,4.055751568E-1,2.151347636E0,2.213547250E0
1.032732387E1,-5.571241692E-1,1.091079916E0,2.233353666E0,2.547294903E0
1.033726788E1,-2.596766013E-1,1.759610792E0,2.005993164E0,2.680983150E0
1.034721188E1,4.280112156E-1,2.281640266E0,1.793229359E0,2.933384979E0
1.035715587E1,6.308800703E-1,2.720473216E0,2.318658988E0,3.629760830E0
1.036710087E1,3.706614321E-1,3.009089441E0,3.086384954E0,4.326405119E0
1.037704488E1,2.423951554E-1,3.319904621E0,3.531344032E0,4.852928269E0
1.038698887E1,3.378176218E-1,3.671437472E0,3.530113486E0,5.104436803E0
1.039693288E1,1.570749235E-1,3.986459724E0,2.777927372E0,4.861421000E0
1.040687688E1,2.658755270E-1,4.302510501E0,1.808193845E0,4.674596387E0
1.041682087E1,5.313139746E-1,4.485295047E0,1.007982503E0,4.627763490E0
1.042676488E1,2.941111466E-1,4.520354952E0,4.384818247E-1,4.551085207E0
1.043670888E1,2.674203613E-1,4.253919554E0,-1.046869411E0,4.388995418E0
1.044665288E1,5.087194562E-1,3.573794818E0,-4.298411018E0,5.613122319E0
1.045659787E1,1.762438214E0,1.421073378E0,-1.034375957E1,1.058862598E1
1.046654188E1,2.551807649E0,-1.845711628E0,-1.603330155E1,1.633967968E1
1.047648587E1,1.678109669E0,-2.552469261E0,-1.251585752E1,1.288323875E1
1.048642988E1,4.200204107E-1,-2.547187471E-1,-4.817504019E0,4.842483222E0
1.049637388E1,3.979889792E-1,2.067205911E0,6.629485399E-1,2.207087735E0
1.050631787E1,1.941106320E0,2.877280337E0,4.525608675E0,5.703312174E0
1.051626188E1,3.387438793E0,2.056666889E0,6.096203544E0,7.271060302E0
1.052620587E1,3.987366627E0,5.160770077E-1,5.367877285E0,6.706678362E0
1.053614988E1,4.452948834E0,-8.945742935E-1,3.809800721E0,5.928203608E0
1.054609487E1,4.179133081E0,-1.725719746E0,2.721147107E0,5.277111286E0
1.055603888E1,3.376776395E0,-1.585270795E0,2.019996661E0,4.242179726E0
1.056598287E1,2.547055032E0,-6.680543286E-1,1.525450271E0,3.043153701E0
1.057592688E1,1.863631297E0,3.429046994E-1,9.378504136E-1,2.114300982E0
1.058587088E1,1.143610424E0,1.034832040E0,5.074012014E-1,1.623631157E0
1.059581487E1,-7.595726091E-1,1.157338225E0,1.014585471E0,1.716323394E0
1.060575888E1,-3.040469694E0,7.304751098E-1,2.326712358E0,3.897645474E0
1.061570287E1,-4.535866445E0,-9.482955873E-2,3.162284737E0,5.530200884E0
1.062564688E1,-5.130355200E0,-8.406845999E-1,3.263628679E0,6.138286994E0
1.063559188E1,-5.291648304E0,-1.202880433E0,2.946740288E0,6.175090400E0
1.064553588E1,-5.235212733E0,-1.757937319E0,2.263338773E0,5.968291077E0
1.065547987E1,-4.629375703E0,-3.023237949E0,1.513133696E0,5.732421886E0
1.066542388E1,-2.919492848E0,-4.591403300E0,1.262072674E0,5.585449864E0
1.067536788E1,-9.266915873E-1,-5.686617197E0,1.392056571E0,5.927410390E0
1.068531187E1,4.534387100E-1,-5.974924690E0,1.474518976E0,6.170862008E0
1.069525588E1,9.599338853E-1,-5.376680269E0,1.823179090E0,5.757963682E0
1.070519987E1,1.187814205E0,-4.250710017E0,2.328153697E0,4.989963714E0
1.071514388E1,1.596793903E0,-3.299091457E0,2.612916607E0,4.501231877E0
1.072508888E1,1.942582742E0,-2.778206284E0,2.908658542E0,4.466805613E0
1.073503288E1,2.020645994E0,-2.518360114E0,3.068493352E0,4.454301218E0
1.074497687E1,1.923873990E0,-2.568064370E0,2.872802247E0,4.306882688E0
1.075492088E1,1.705589244E0,-2.802569293E0,2.352388651E0,4.036974322E0
1.076486488E1,1.455826012E0,-3.189712272E0,1.636447381E0,3.869322135E0
1.077480888E1,1.194698132E0,-3.697052954E0,1.430691171E0,4.140335904E0
1.078475288E1,7.584139833E-1,-4.068104396E0,1.468252515E0,4.390948712E0
1.079469687E1,7.627330291E-1,-3.893993610E0,1.137809109E0,4.127899887E0
1.080464088E1,1.188488097E0,-3.066762868E0,6.995152724E-1,3.362567481E0
1.081458588E1,1.706422180E0,-1.710455589E0,2.066236442E-1,2.424918207E0
1.082452988E1,2.112040021E0,-1.438397509E-1,-1.121513504E-1,2.119901142E0
1.083447387E1,2.408940582E0,1.371531090E0,6.080110252E-2,2.772686248E0
1.084441788E1,2.837175746E0,2.720281427E0,6.430171359E-1,3.982834204E0
1.085436187E1,3.281967886E0,3.720059994E0,1.134435266E0,5.088919624E0
1.086430588E1,3.302415015E0,4.365090911E0,9.580814874E-1,5.556787176E0
1.087424988E1,3.015077282E0,4.477713547E0,1.346887999E0,5.563696335E0
1.088419387E1,2.629880549E0,3.634311161E0,1.989282699E0,4.907314436E0
1.089413887E1,3.153985199E0,2.168964420E0,2.111102420E0,4.371359368E0
1.090408288E1,3.873808144E0,8.522597480E-1,3.977381337E0,5.617143270E0
1.091402688E1,3.205976302E0,-8.348911786E-1,5.623434523E0,6.526740624E0
1.092397087E1,2.221214554E0,-2.616258876E0,5.245129026E0,6.268172230E0
1.093391488E1,7.178635427E-1,-3.800430558E0,5.844559847E0,7.008386426E0
1.094385887E1,-1.177391543E0,-4.232583649E0,5.939963018E0,7.388110438E0
1.095380288E1,-1.412412483E0,-3.721974372E0,4.156775082E0,5.755586967E0
1.096374688E1,-5.196595967E-1,-2.615691111E0,1.907397999E0,3.278727377E0
1.097369087E1,-5.321015945E-1,-1.554938364E0,-5.844408989E-2,1.644500269E0
1.098363587E1,-1.729799056E0,-9.358252305E-1,-2.840306638E0,3.454752586E0
1.099357988E1,-2.902381849E0,-7.649602336E-1,-5.698242631E0,6.440415642E0
1.100352388E1,-4.375661800E0,-1.698820800E-1,-9.355293029E0,1.032941352E1
1.101346787E1,-6.052748791E0,8.228143394E-1,-1.320546527E1,1.454981458E1
1.102341188E1,-6.584604510E0,2.253059075E0,-1.609426929E1,1.753450301E1
1.103335587E1,-4.523914444E0,3.595619550E0,-1.437421492E1,1.549233153E1
1.104329988E1,-2.626690308E0,3.856542193E0,-1.048690175E1,1.147813260E1
1.105324388E1,-2.393391374E0,3.699364359E0,-6.961731793E0,8.238891217E0
1.106318888E1,-2.317826637E0,3.834868904E0,-3.909957678E0,5.946957951E0
1.107313287E1,-2.418280632E0,3.810014729E0,-1.900159730E0,4.896417103E0
1.108307688E1,-2.394573973E0,3.327747492E0,-7.589966583E-1,4.169408089E0
1.109302088E1,-2.063948719E0,2.342040249E0,-2.659641123E-1,3.133013526E0
1.110296488E1,-1.340891972E0,1.093184329E0,-2.916719806E-1,1.754455984E0
1.111290888E1,-5.309628493E-1,7.790362358E-2,-5.211599922E-1,7.480630049E-1
1.112285287E1,-5.020393778E-2,-5.427619457E-1,-1.469839742E0,1.567654245E0
1.113279688E1,-1.601023194E-1,-9.257148099E-1,-3.018399378E0,3.161220566E0
1.114274088E1,-5.758522162E-1,-1.115600215E0,-3.941934346E0,4.137029853E0
1.115268588E1,-9.655799568E-1,-1.406580470E0,-4.204312946E0,4.537296620E0
1.116263012E1,-7.900088283E-1,-1.900589501E0,-5.070698397E0,5.472507344E0
1.117257413E1,-3.845041305E-2,-2.090587172E0,-5.569426716E0,5.948995470E0
1.118251813E1,7.980817866E-1,-1.997112413E0,-5.020635121E0,5.461883334E0
1.119246212E1,1.030244022E0,-1.545206258E0,-3.660377464E0,4.104561889E0
1.120240613E1,5.499019442E-1,-6.204077071E-1,-2.216857794E0,2.366802981E0
1.121235012E1,-2.946716022E-1,6.207404137E-2,-1.132322667E0,1.171682193E0
1.122229413E1,-1.590791736E0,2.003946054E-1,-6.393579483E-2,1.604638318E0
1.123223913E1,-3.019132327E0,-3.341788995E-1,1.112805830E0,3.234991864E0
1.124218313E1,-4.106566503E0,-1.333841107E0,2.506569788E0,4.992585768E0
1.125212712E1,-4.348552938E0,-2.310630176E0,3.699331030E0,6.159056302E0
1.126207113E1,-3.694490997E0,-3.442410806E0,4.562125706E0,6.805324889E0
1.127201513E1,-2.629130059E0,-4.850630835E0,5.485735518E0,7.780375218E0
1.128195912E1,-1.796156621E0,-6.615106511E0,6.326245286E0,9.327764586E0
1.129190313E1,-1.392193542E0,-8.598363946E0,6.613911924E0,1.093681381E1
1.130184712E1,-1.298653002E0,-1.070500757E1,6.094296182E0,1.238644956E1
1.131179113E1,-1.571064254E0,-1.230605708E1,4.900688848E0,1.333881685E1
1.132173613E1,-2.123773483E0,-1.193999097E1,3.446192200E0,1.260753897E1
1.133168013E1,-2.475394188E0,-8.739423931E0,2.011726359E0,9.303340796E0
1.134162412E1,-2.090171143E0,-4.928964229E0,7.403452098E-1,5.404777035E0
1.135156813E1,-1.322035871E0,-1.677897123E0,-1.305279797E-1,2.140129705E0
1.136151213E1,-6.240788814E-1,7.658764923E-1,-7.262651145E-1,1.226173833E0
1.137145613E1,-6.671424553E-2,2.423038219E0,-1.256935018E0,2.730467111E0
1.138140013E1,2.395250496E-1,3.401501931E0,-1.618284760E0,3.774444754E0
1.139134412E1,2.789547251E-1,3.710282280E0,-1.847355865E0,4.154122534E0
1.140128912E1,3.043123452E-1,3.594436074E0,-1.734590264E0,4.002671618E0
1.141123313E1,3.929711911E-1,3.238583300E0,-1.367545627E0,3.537376032E0
1.142117713E1,2.952054530E-1,2.454733052E0,-8.915600538E-1,2.628257968E0
1.143112112E1,5.133811489E-2,1.324488485E0,-2.337848380E-1,1.345942310E0
1.144106513E1,-2.803058705E-1,-5.417562246E-2,4.737110066E-1,5.530899537E-1
1.145100912E1,-7.309675916E-1,-1.556048166E0,1.149141890E0,2.067879735E0
1.146095313E1,-1.145997258E0,-2.916144440E0,1.677574357E0,3.554077072E0
1.147089713E1,-1.609832902E0,-3.769002943E0,2.431771621E0,4.765549115E0
1.148084213E1,-2.058569719E0,-3.595296199E0,3.260579064E0,5.272119107E0
1.149078612E1,-2.514780156E0,-2.604795994E0,3.863465297E0,5.294850848E0
1.150073013E1,-2.577694734E0,-1.224552553E0,3.286486322E0,4.352589051E0
1.151067413E1,-2.188763677E0,3.024074686E-1,2.367358985E0,3.238290487E0
1.152061812E1,-1.604449663E0,1.522156534E0,1.345134712E0,2.588552999E0
1.153056213E1,-9.328932904E-1,2.399267533E0,6.589124992E-1,2.657242983E0
1.154050612E1,-5.179783760E-1,2.887530506E0,4.262973967E-1,2.964433081E0
1.155045013E1,-3.102478538E-1,3.159708454E0,6.269352463E-1,3.236210600E0
1.156039413E1,-2.481476462E-1,3.394888145E0,8.170337820E-1,3.500626655E0
1.157033913E1,-3.070964970E-1,3.644428598E0,9.776146960E-1,3.785749405E0
1.158028312E1,-2.915684849E-1,3.931535073E0,8.632045662E-1,4.035728228E0
1.159022713E1,-6.746812704E-1,4.228447913E0,1.464705594E0,4.525519754E0
1.160017113E1,-1.442241761E0,4.481686730E0,2.475594163E0,5.319223975E0
1.161011512E1,-1.641759576E0,4.929147831E0,2.802217290E0,5.902905606E0
1.162005913E1,-9.506277493E-1,5.418473827E0,2.045904212E0,5.869350541E0
1.163000312E1,-6.133276060E-1,5.639200371E0,2.091193528E0,6.045646529E0
1.163994713E1,-5.881486183E-1,5.915480141E0,1.994710377E0,6.270382252E0
1.164989213E1,-4.019832122E-1,6.192200207E0,1.522265877E0,6.389227442E0
1.165983613E1,3.923505092E-1,6.438469142E0,8.917495036E-1,6.511761743E0
1.166978012E1,9.773775914E-1,6.609852203E0,8.748107046E-2,6.682294968E0
1.167972413E1,1.595996635E0,6.478740086E0,-1.323646486E0,6.802449440E0
1.168966813E1,2.420014039E0,6.176416233E0,-2.932433029E0,7.252844194E0
1.169961213E1,3.515663846E0,5.143855836E0,-6.508066796E0,9.009665841E0
1.170955613E1,5.572288343E0,2.478673307E0,-1.167568981E1,1.317254536E1
1.171950012E1,5.496228932E0,-5.050965214E-1,-1.244876656E1,1.361746834E1
1.172944512E1,3.419848447E0,-1.992315942E0,-7.860531285E0,8.800718056E0
1.173938913E1,1.688549581E0,-1.912521914E0,-1.986935919E0,3.233705939E0
1.174933313E1,1.544718308E0,-1.261472458E0,2.337067485E0,3.072352818E0
1.175927712E1,2.566364877E0,-1.182905760E0,4.730005699E0,5.509850146E0
1.176922113E1,3.546475749E0,-1.742590132E0,4.661706712E0,6.111106289E0
1.177916512E1,3.151075040E0,-2.636696649E0,3.198742127E0,5.207052364E0
1.178910913E1,1.683674172E0,-3.329786416E0,2.338614365E0,4.403561450E0
1.179905313E1,5.873887727E-1,-3.477099997E0,2.440823110E0,4.288690641E0
1.180899813E1,8.896275491E-2,-3.072825261E0,2.827289274E0,4.176569657E0
1.181894212E1,-1.076674131E-1,-2.230546710E0,3.329887865E0,4.009374526E0
1.182888613E1,-4.795520827E-1,-1.586560106E0,3.899493208E0,4.237120538E0
1.183883013E1,-2.169498563E0,-1.708203827E0,4.935754600E0,5.655648310E0
1.184877412E1,-4.025135255E0,-2.318789381E0,5.753485955E0,7.394666906E0
1.185871813E1,-4.320908180E0,-2.903666482E0,5.374771737E0,7.482626395E0
1.186866212E1,-3.355553341E0,-3.008694170E0,4.096076014E0,6.090141011E0
1.187860613E1,-2.553563568E0,-2.439354874E0,3.106775073E0,4.703529574E0
1.188855112E1,-2.421328493E0,-1.750810148E0,2.619847312E0,3.973885729E0
1.189849513E1,-2.082740793E0,-1.590020489E0,2.185212078E0,3.411909464E0
1.190843912E1,-5.149715915E-1,-1.717061774E0,1.583826241E0,2.392070742E0
1.191838313E1,1.175385656E0,-1.845121059E0,1.205875962E0,2.498027221E0
1.192832713E1,1.872975148E0,-1.974928077E0,1.156035757E0,2.957160037E0
1.193827112E1,1.701434213E0,-2.218763986E0,1.447672655E0,3.148578746E0
1.194821513E1,1.073607266E0,-2.716667263E0,1.528286463E0,3.296751900E0
1.195815912E1,2.988126004E-1,-3.391774503E0,1.202087551E0,3.610877695E0
1.196810413E1,-3.236001170E-1,-4.038568940E0,8.232072723E-1,4.134298772E0
1.197804813E1,-4.337473342E-1,-4.364372873E0,5.648155966E-1,4.422092715E0
1.198799213E1,-4.422664350E-1,-4.380395998E0,3.488504407E-1,4.416465253E0
1.199793612E1,-2.108403638E-1,-3.902353374E0,-1.524214169E-1,3.911016211E0
1.200788013E1,5.366112596E-1,-2.908376414E0,-5.649611923E-1,3.010944397E0
1.201782413E1,1.335214910E0,-1.672520608E0,-5.381750974E-1,2.206752473E0
1.202776813E1,1.741142654E0,-3.852215838E-1,-2.034269714E-1,1.794813624E0
1.203771213E1,1.857339108E0,6.071637636E-1,1.390032265E-1,1.958999310E0
1.204765713E1,1.821447437E0,1.280101687E0,5.205793637E-1,2.286336364E0
1.205760112E1,9.533969906E-1,1.876484354E0,1.022836185E0,2.340160938E0
1.206754513E1,-3.190591693E-2,2.436967456E0,1.425430139E0,2.823416273E0
1.207748913E1,-8.610308638E-1,2.279319506E0,2.077597290E0,3.202043419E0
1.208743312E1,-1.111974356E0,1.644054608E0,2.641701865E0,3.304238380E0
1.209737713E1,-1.991526568E-1,9.701665127E-1,3.396803693E0,3.538242526E0
1.210732112E1,9.155523491E-1,1.417657435E-2,3.856936880E0,3.964139147E0
1.211726513E1,1.425621050E0,-1.074585505E0,4.417441617E0,4.764548229E0
1.212721012E1,1.471100401E0,-2.282324975E0,5.055216140E0,5.738323265E0
1.213715413E1,1.652704394E0,-3.061369396E0,5.167349948E0,6.229359508E0
1.214709812E1,1.416540324E0,-3.074569486E0,4.177533867E0,5.376927861E0
1.215704213E1,1.487393083E0,-2.609158017E0,2.600508231E0,3.972742982E0
1.216698571E1,1.869963539E0,-1.756947386E0,6.782372546E-1,2.653984463E0
1.217692971E1,1.213144343E0,-1.505261589E0,-2.214968559E0,2.940002953E0
1.218687371E1,-7.903440200E-2,-1.775495338E0,-5.262650793E0,5.554648819E0
1.219681771E1,-8.363088360E-1,-1.313143718E0,-7.850400984E0,8.003283982E0
1.220676271E1,-1.447003733E0,-5.659695446E-2,-1.083829953E1,1.093461292E1
1.221670671E1,-2.454335441E0,1.446923919E0,-1.414089932E1,1.442506100E1
1.222665071E1,-2.047234161E0,3.277966636E0,-1.467038574E1,1.517090804E1
1.223659471E1,-5.468321925E-1,4.444804832E0,-1.149480268E1,1.233636106E1
1.224653871E1,-8.698151359E-1,4.523865620E0,-7.864001023E0,9.113970079E0
1.225648271E1,-1.711169242E0,4.459263242E0,-4.798737381E0,6.770598887E0
1.226642671E1,-2.083461170E0,4.703582717E0,-2.323338515E0,5.644679147E0
1.227637071E1,-2.285107372E0,4.892948304E0,-2.973911422E-1,5.408428635E0
1.228631571E1,-2.741302167E0,4.736769174E0,8.116315395E-1,5.532672549E0
1.229625971E1,-3.163693039E0,4.054962194E0,4.792839879E-1,5.165402712E0
1.230620371E1,-3.151061884E0,3.065672947E0,-4.447801530E-1,4.418752199E0
1.231614771E1,-3.015505883E0,2.099170300E0,-1.443912603E0,3.947743062E0
1.232609171E1,-2.814554038E0,1.101520119E0,-2.388297572E0,3.852145675E0
1.233603571E1,-2.573622441E0,2.403661716E-1,-3.191712019E0,4.107107739E0
1.234597971E1,-2.447015896E0,-6.494490731E-1,-3.696223819E0,4.480149709E0
1.235592371E1,-2.408352060E0,-1.630960354E0,-3.885375983E0,4.853487185E0
1.236586871E1,-2.194417057E0,-2.757660338E0,-3.871466627E0,5.235304251E0
1.237581271E1,-1.627482137E0,-3.801553223E0,-3.890499898E0,5.677719126E0
1.238575671E1,-9.531990623E-1,-4.491764406E0,-3.942829555E0,6.052308719E0
1.239570071E1,-6.310701048E-1,-4.710351453E0,-3.608947109E0,5.967424866E0
1.240564471E1,-8.805979863E-1,-4.154610443E0,-2.959151881E0,5.176178185E0
1.241558871E1,-1.099075983E0,-3.105236962E0,-2.199787433E0,3.961001055E0
1.242553271E1,-1.369663781E0,-2.085139321E0,-1.312847264E0,2.819104964E0
1.243547771E1,-1.959978501E0,-1.343639286E0,-4.198318380E-1,2.413118527E0
1.244542171E1,-2.540141869E0,-1.140694710E0,3.465738273E-1,2.805996891E0
1.245536571E1,-2.864381379E0,-1.643369315E0,1.003668135E0,3.451476947E0
1.246530971E1,-2.528419079E0,-2.870507507E0,1.923846216E0,4.281810440E0
1.247525371E1,-1.408114487E0,-4.694000884E0,3.879788969E0,6.250535429E0
1.248519771E1,-8.703141958E-2,-6.562918357E0,6.297172346E0,9.095815047E0
1.249514171E1,1.069097893E0,-7.878136082E0,7.536055840E0,1.095445736E1
1.250508571E1,1.540120204E0,-8.728079748E0,7.142186809E0,1.138253833E1
1.251503071E1,8.852295658E-1,-8.903743554E0,5.982128459E0,1.076318455E1
1.252497471E1,-4.071024495E-1,-7.474433203E0,4.501928036E0,8.735000868E0
1.253491871E1,-1.461021263E0,-4.806819987E0,3.121334932E0,5.914628752E0
1.254486271E1,-1.663338726E0,-2.357999640E0,1.921169361E0,3.466662621E0
1.255480671E1,-1.229141156E0,-4.253311443E-1,1.020737911E0,1.653360350E0
1.256475071E1,-3.798807371E-1,1.107974861E0,4.161954546E-1,1.243035125E0
1.257469471E1,2.774452664E-1,2.159475558E0,-2.148793280E-2,2.177331462E0
1.258463871E1,3.892544085E-1,2.559965976E0,-4.069469136E-1,2.621173513E0
1.259458371E1,3.763612980E-1,2.389348902E0,-6.277132183E-1,2.498931749E0
1.260452771E1,3.338508707E-1,1.842222009E0,-6.401607710E-1,1.978647050E0
1.261447171E1,1.634874187E-1,1.068006803E0,-3.590988556E-1,1.138559904E0
1.262441571E1,-3.545883134E-2,1.148995417E-1,9.777509362E-2,1.549812968E-1
1.263435971E1,-2.005181278E-1,-9.302838242E-1,5.594142312E-1,1.103893018E0
1.264430371E1,-5.794988322E-1,-1.981933041E0,7.217060405E-1,2.187404189E0
1.265424771E1,-1.046061764E0,-2.718356524E0,6.941940138E-1,2.994263304E0
1.266419171E1,-1.423435946E0,-2.936995611E0,5.873533970E-1,3.316187137E0
1.267413671E1,-1.624453572E0,-2.558423481E0,9.345388430E-1,3.171394483E0
1.268408071E1,-1.854220350E0,-1.763602687E0,1.212454956E0,2.831691114E0
1.269402471E1,-1.872989473E0,-7.272544634E-1,1.119343602E0,2.299982331E0
1.270396871E1,-1.854110568E0,2.285910487E-1,9.174076706E-1,2.081253637E0
1.271391271E1,-1.683305505E0,1.104970561E0,9.203143215E-1,2.213923173E0
1.272385671E1,-1.470345087E0,1.853588997E0,1.130443664E0,2.622138387E0
1.273380071E1,-1.348180234E0,2.093774489E0,1.223120570E-2,2.490307442E0
1.274374471E1,-9.488387936E-1,2.161221537E0,-3.128596589E-1,2.380977689E0
1.275368971E1,-8.543717623E-1,2.163322442E0,-4.050448143E-1,2.360927020E0
1.276363371E1,-4.933284152E-1,1.935756994E0,-9.125878108E-1,2.196211415E0
1.277357771E1,-5.565471952E-1,1.937343929E0,-6.999523517E-1,2.133771209E0
1.278352171E1,-1.049701509E0,2.172592617E0,3.417367181E-1,2.436968593E0
1.279346571E1,-1.476098894E0,2.422228380E0,1.529290137E0,3.222543497E0
1.280340971E1,-1.841884040E0,2.598651740E0,2.140756282E0,3.837755222E0
1.281335371E1,-2.202376872E0,2.833462472E0,2.158755766E0,4.187982799E0
1.282329871E1,-1.810687391E0,3.022177849E0,2.243463795E0,4.176754431E0
1.283324271E1,-1.555081328E0,3.171722143E0,2.260569824E0,4.193837768E0
1.284318671E1,-1.563300175E0,3.328412905E0,2.026719497E0,4.198789328E0
1.285313071E1,-1.517183770E0,3.608077628E0,1.860600100E0,4.333809351E0
1.286307471E1,-1.301268023E0,4.034632010E0,1.442377416E0,4.477946687E0
1.287301871E1,-8.710822275E-1,4.449972602E0,9.115174779E-1,4.625138324E0
1.288296271E1,-4.625320074E-1,4.818755323E0,1.402714875E-1,4.842934525E0
1.289290671E1,1.915278876E-1,5.151948967E0,-8.585472590E-1,5.226505954E0
1.290285171E1,1.828108585E0,5.084660379E0,-2.200092657E0,5.834051754E0
1.291279571E1,3.503040585E0,4.362420487E0,-4.303686668E0,7.058592266E0
1.292273971E1,4.675593265E0,2.572595378E0,-7.000761373E0,8.802844947E0
1.293268371E1,4.712799975E0,4.190506500E-1,-8.392263628E0,9.634115208E0
1.294262771E1,4.083299263E0,-1.021435484E0,-7.439407212E0,8.547598668E0
1.295257171E1,3.699302963E0,-8.394923526E-1,-4.641723853E0,5.994596746E0
1.296251571E1,3.314991206E0,-1.458886153E-1,-1.020644356E0,3.471622832E0
1.297246071E1,2.748486641E0,8.731003940E-2,2.044734476E0,3.426768293E0
1.298240471E1,2.378336256E0,1.023771447E-1,3.606461458E0,4.321287848E0
1.299234871E1,2.388532045E0,-1.360477513E-1,3.968114085E0,4.633521740E0
1.300229271E1,2.773795729E0,-4.295534188E-1,3.962190855E0,4.855658067E0
1.301223671E1,3.085562544E0,-5.139924753E-1,3.733387552E0,4.870633131E0
1.302218071E1,2.914543473E0,-3.492968756E-1,3.222928842E0,4.359339661E0
1.303212471E1,2.517602314E0,-1.175512540E-1,3.006478075E0,3.923142889E0
1.304206871E1,1.938183004E0,2.149951029E-1,3.018196480E0,3.593366979E0
1.305201371E1,1.159659569E0,5.656444395E-1,2.830835903E0,3.111012031E0
1.306195771E1,-3.672527978E-1,6.033601499E-1,2.660824599E0,2.752981227E0
1.307190171E1,-2.220447984E0,1.954987317E-1,3.162259302E0,3.868913659E0
1.308184571E1,-3.580299261E0,-6.808591461E-1,3.779695162E0,5.250543542E0
1.309178971E1,-4.146587186E0,-1.679239059E0,4.070331308E0,6.048274636E0
1.310173371E1,-4.061458743E0,-2.421882809E0,3.957448179E0,6.166227335E0
1.311167771E1,-3.745730732E0,-2.913381631E0,3.516758153E0,5.906426936E0
1.312162271E1,-2.775531183E0,-3.231764862E0,2.756953409E0,5.074314690E0
1.313156671E1,-7.124858585E-1,-3.335933594E0,2.012007610E0,3.960336307E0
1.314151071E1,1.235776284E0,-3.453670789E0,1.229392878E0,3.868642112E0
1.315145471E1,2.214700171E0,-3.561922631E0,5.548171502E-1,4.230840549E0
1.316139871E1,2.473747028E0,-3.518617567E0,2.925139797E-1,4.311108717E0
1.317134337E1,2.324891827E0,-3.419230689E0,3.837200189E-1,4.152529538E0
1.318128738E1,1.853823178E0,-3.343752490E0,5.762694150E-1,3.866448956E0
1.319123138E1,1.179634243E0,-3.404520264E0,5.386542767E-1,3.643136506E0
1.320117638E1,5.164234552E-1,-3.569960799E0,3.072475013E-1,3.620181531E0
1.321112037E1,7.543171316E-2,-3.759182544E0,1.924947247E-1,3.764863552E0
1.322106438E1,-1.560759267E-1,-3.790582092E0,1.626841575E-2,3.793828799E0
1.323100838E1,-5.151949552E-1,-3.453625765E0,1.515510589E-2,3.491874346E0
1.324095237E1,-6.486117518E-1,-2.704086978E0,8.407126665E-3,2.780801013E0
1.325089638E1,-4.261544323E-1,-1.735775787E0,-8.418762624E-2,1.789305100E0
1.326084037E1,-1.894123650E-1,-6.065872282E-1,-1.262647748E-1,6.478949782E-1
1.327078538E1,-1.834028891E-1,4.606483269E-1,-3.440209329E-3,4.958279296E-1
1.328072937E1,-2.582089502E-1,1.223985373E0,-1.390672535E-2,1.251001780E0
1.329067338E1,-1.911560047E-1,1.762815651E0,4.821350902E-1,1.837529288E0
1.330061737E1,-9.381290334E-1,2.203386979E0,1.328918336E0,2.738799774E0
1.331056138E1,-1.690584412E0,2.521914051E0,1.506247137E0,3.389233921E0
1.332050538E1,-2.255379835E0,2.020107173E0,1.411879216E0,3.340804411E0
1.333044937E1,-2.230660293E0,1.032502509E0,2.160483911E0,3.272552139E0
1.334039338E1,-1.419424464E0,-2.197091281E-1,4.016786892E0,4.265866248E0
1.335033838E1,-7.008154008E-1,-1.638868128E0,5.370860535E0,5.658902177E0
1.336028238E1,-2.112368050E-1,-2.833130350E0,6.006998422E0,6.644943838E0
1.337022638E1,6.187541145E-1,-3.445583505E0,6.351388898E0,7.252244017E0
1.338017038E1,1.939676091E0,-3.478824341E0,5.197807510E0,6.548416988E0
1.339011437E1,2.273861276E0,-3.447082731E0,4.454885432E0,6.074440606E0
1.340005838E1,1.902491892E0,-3.236031575E0,3.120425105E0,4.881437144E0
1.341000238E1,1.971337886E0,-2.567358027E0,1.252716837E0,3.470850007E0
1.341994738E1,2.183351348E0,-1.929823240E0,-5.531705743E-1,2.966013913E0
1.342989137E1,1.673184560E0,-1.760748076E0,-3.308163412E0,4.104110807E0
1.343983538E1,3.904651476E-1,-1.933977102E0,-6.338997479E0,6.638947168E0
1.344977937E1,-8.391248551E-1,-1.676441166E0,-8.853263957E0,9.049578344E0
1.345972338E1,-1.977785611E0,-7.050584328E-1,-1.146643433E1,1.165709482E1
1.346966738E1,-3.223472925E0,9.048303097E-1,-1.425491067E1,1.464281304E1
1.347961137E1,-3.276700422E0,2.955341250E0,-1.512248076E1,1.575310230E1
1.348955637E1,-1.720056717E0,4.445646247E0,-1.175523650E1,1.268494978E1
1.349950038E1,-1.433342006E0,4.600628452E0,-7.710344966E0,9.092286344E0
1.350944438E1,-1.825863546E0,4.617805232E0,-4.207996691E0,6.508850821E0
1.351938837E1,-1.972326943E0,4.683097581E0,-1.618223948E0,5.332928396E0
1.352933238E1,-1.609941952E0,4.808310442E0,-1.123776376E-1,5.071921838E0
1.353927637E1,-1.272098310E0,4.832027918E0,6.496250743E-1,5.038724109E0
1.354922038E1,-1.473592777E0,4.568436606E0,7.171422887E-1,4.853491708E0
1.355916537E1,-1.979531297E0,4.056124620E0,-6.266110182E-2,4.513825153E0
1.356910938E1,-2.150170884E0,3.417907464E0,-1.354894007E0,4.259232799E0
1.357905337E1,-2.223562504E0,2.730007101E0,-2.609749755E0,4.382688988E0
1.358899738E1,-2.308190718E0,2.109050925E0,-3.613200374E0,4.778185548E0
1.359894138E1,-2.463151873E0,1.480793331E0,-4.348706428E0,5.212591834E0
1.360888537E1,-2.717943125E0,7.887952387E-1,-4.792891334E0,5.566077623E0
1.361882938E1,-2.976594125E0,1.757673025E-2,-4.897335470E0,5.730996094E0
1.362877337E1,-2.801354534E0,-8.609633285E-1,-4.592504915E0,5.447930476E0
1.363871838E1,-2.278744724E0,-1.872814057E0,-4.040296208E0,5.002409765E0
1.364866238E1,-1.629257352E0,-2.774096861E0,-3.128983090E0,4.487831112E0
1.365860638E1,-1.366755084E0,-3.656010763E0,-2.053575466E0,4.410397528E0
1.366855037E1,-1.422221771E0,-4.505573775E0,-1.099542591E0,4.850969359E0
1.367849438E1,-2.256097873E0,-5.376779087E0,-4.617212909E-1,5.849180927E0
1.368843838E1,-2.849197622E0,-6.307266394E0,1.951572543E-1,6.923700081E0
1.369838238E1,-2.540535387E0,-7.549013854E0,1.281789193E0,8.067522157E0
1.370832737E1,-1.522779847E0,-8.995886317E0,3.045927485E0,9.618861853E0
1.371827138E1,-2.242392585E-1,-1.018438552E1,5.296026115E0,1.148128409E1
1.372821537E1,1.093237538E0,-1.070080927E1,6.750932652E0,1.269951098E1
1.373815938E1,2.037924370E0,-1.030175084E1,6.461607159E0,1.233010840E1
1.374810338E1,2.176383513E0,-9.292823716E0,4.926144117E0,1.074058256E1
1.375804737E1,1.241623061E0,-7.435889527E0,3.517322994E0,8.318992843E0
1.376799138E1,-1.961477727E-1,-5.158237647E0,2.716117625E0,5.832939613E0
1.377793638E1,-1.603749458E0,-3.166604075E0,1.898552331E0,4.025406147E0
1.378788038E1,-2.547007962E0,-1.459246926E0,1.124477457E0,3.143421814E0
1.379782437E1,-2.555759490E0,1.088944513E-1,9.081953824E-1,2.714513478E0
1.380776838E1,-2.167073430E0,1.574946367E0,8.585016507E-1,2.813127867E0
1.381771237E1,-1.858210051E0,2.790445676E0,7.897261155E-1,3.444299494E0
1.382765638E1,-1.613901394E0,3.521141810E0,6.019854695E-1,3.919885695E0
1.383760038E1,-1.342179529E0,3.840386921E0,2.876274616E-1,4.078326513E0
1.384754437E1,-1.075194493E0,4.009654459E0,2.129912621E-1,4.156770063E0
1.385748937E1,-8.870274384E-1,3.972167374E0,9.605776638E-2,4.071137239E0
1.386743338E1,-5.571341094E-1,3.739574491E0,3.176792264E-3,3.780849889E0
1.387737738E1,-1.549665637E-1,3.382336512E0,4.000480762E-1,3.409435933E0
1.388732137E1,1.708211428E-1,2.635280453E0,7.871451545E-1,2.755627047E0
1.389726538E1,2.061348170E-1,1.581421573E0,9.935378337E-1,1.878963326E0
1.390720937E1,-9.047294453E-2,4.859340262E-1,1.566936558E0,1.643048207E0
1.391715338E1,-3.738807629E-1,-2.957738024E-1,2.579585432E0,2.623267040E0
1.392709838E1,-7.745563915E-1,-7.079329240E-1,3.251624053E0,3.416747812E0
1.393704238E1,-1.254994474E0,-6.234459203E-1,3.442963075E0,3.717215447E0
1.394698637E1,-1.506562887E0,-1.758479941E-1,3.232200772E0,3.570402790E0
1.395693038E1,-1.341066511E0,5.259471077E-1,2.685322094E0,3.047299542E0
1.396687438E1,-1.406173796E0,1.278453357E0,1.925328778E0,2.705301948E0
1.397681838E1,-9.750720343E-1,2.077960110E0,1.365338596E0,2.670736447E0
1.398676238E1,-2.927275492E-1,2.637166180E0,8.110839477E-1,2.774561596E0
1.399670738E1,2.396294224E-1,2.975802997E0,4.854908073E-1,3.024653213E0
1.400665137E1,3.683381872E-1,3.135808545E0,8.424232695E-1,3.267819642E0
1.401659538E1,5.404508337E-2,3.214412080E0,1.244733926E0,3.447423449E0
1.402653938E1,-3.809659803E-1,2.973135497E0,1.340548156E0,3.283555865E0
1.403648337E1,-4.426339325E-1,2.479953262E0,3.067931727E0,3.969672286E0
1.404642738E1,-1.202895490E0,2.232702579E0,4.505173533E0,5.169961985E0
1.405637137E1,-1.386857519E0,2.322991775E0,5.593757565E0,6.213677515E0
1.406631638E1,-1.497551158E0,2.627519444E0,5.333816085E0,6.131566841E0
1.407626037E1,-1.568949170E0,2.850849752E0,3.473586698E0,4.759700658E0
1.408620438E1,-1.392459444E0,3.140378729E0,1.823168272E0,3.889069864E0
1.409614837E1,-1.112744727E0,3.510900997E0,3.118656322E-1,3.696198968E0
1.410609238E1,-8.208660471E-1,3.687564678E0,-1.342433590E0,4.009249589E0
1.411603638E1,5.124151888E-1,2.999503516E0,-3.898202435E0,4.945257617E0
1.412598037E1,4.700895044E0,-9.991371274E-2,-1.454787839E1,1.528885747E1
1.413592537E1,8.508854184E0,-4.853035210E0,-2.339708613E1,2.536486132E1
1.414586938E1,5.804986476E0,-5.235451300E0,-1.617243487E1,1.796261306E1
1.415581338E1,2.767759064E0,-1.213780228E0,-6.701057072E0,7.351048807E0
1.416575700E1,1.596552705E0,2.372416534E0,6.084492740E-1,2.923619550E0
1.417570100E1,4.137226671E-2,3.609248241E0,5.595010039E0,6.658267181E0
1.418564500E1,-5.894411454E-1,2.781683038E0,6.775147727E0,7.347640989E0
1.419558900E1,-2.234542698E-2,1.523425380E0,6.118774381E0,6.305610528E0
1.420553400E1,1.251366715E0,9.801874709E-1,6.197891886E0,6.398480286E0
1.421547800E1,2.018233725E0,1.216002755E0,7.029208077E0,7.413615600E0
1.422542200E1,2.385805781E0,1.541527190E0,5.898486378E0,6.546794396E0
1.423536600E1,2.626591198E0,1.477204894E0,2.787732860E0,4.105188196E0
1.424531000E1,2.322006811E0,1.338277974E0,4.521461830E-1,2.717929311E0
1.425525400E1,1.429729596E0,1.441146870E0,-4.364352992E-1,2.076416815E0
1.426519800E1,-3.335120246E-1,1.243655407E0,8.230701551E-2,1.290226138E0
1.427514300E1,-1.662426560E0,-5.170704496E-1,8.475619487E-1,1.936332919E0
1.428508700E1,-2.464602567E0,-2.794766768E0,1.485451807E0,4.011427947E0
1.429503100E1,-2.881621017E0,-4.346955187E0,2.377365325E0,5.731633709E0
1.430497500E1,-2.847934038E0,-5.217283416E0,2.808811195E0,6.574206786E0
1.431491900E1,-2.557578266E0,-5.571933417E0,2.464949892E0,6.607845834E0
1.432486300E1,-2.096945727E0,-5.492550448E0,2.202208765E0,6.278137881E0
1.433480700E1,-1.298447911E0,-4.947580009E0,1.975214298E0,5.483245977E0
1.434475200E1,-5.468438870E-1,-4.275218037E0,1.844458862E0,4.688129263E0
1.435469600E1,-2.967988193E-1,-3.803073499E0,2.419621545E0,4.517302956E0
1.436464000E1,-1.889118433E-1,-3.608767599E0,3.092780639E0,4.756488553E0
1.437458400E1,-2.659807768E-1,-3.687954102E0,3.514185963E0,5.101103235E0
1.438452800E1,-4.415978059E-1,-3.856439867E0,3.576690067E0,5.278242975E0
1.439447200E1,-5.449628377E-1,-3.938493844E0,3.337338972E0,5.191006614E0
1.440441600E1,-4.276782167E-1,-3.962497834E0,2.647601998E0,4.784777328E0
1.441436100E1,-1.424791038E-1,-3.830452502E0,1.662208459E0,4.177990381E0
1.442430500E1,2.394396803E-1,-3.372466997E0,8.818826196E-1,3.494078127E0
1.443424900E1,6.325599754E-1,-2.743037036E0,2.605139226E-1,2.827057093E0
1.444419300E1,7.539379397E-1,-2.048018857E0,-2.356968775E-1,2.195075551E0
1.445413700E1,8.645859709E-1,-1.382946609E0,-5.600366673E-1,1.724439414E0
1.446408100E1,1.044039943E0,-7.228865933E-1,-7.737506452E-1,1.487035470E0
1.447402500E1,1.113691683E0,-9.160131097E-2,-7.791037712E-1,1.362241774E0
1.448397000E1,1.331349901E0,5.002690601E-1,-6.834877619E-1,1.577947151E0
1.449391400E1,1.509092393E0,8.971336198E-1,-5.110223821E-1,1.828483649E0
1.450385800E1,9.867372295E-1,1.160703297E0,1.593649855E-1,1.531757064E0
1.451380200E1,3.307091618E-1,1.623238521E0,2.140617996E0,2.706754006E0
1.452374600E1,-7.029136741E-1,1.013239442E0,2.168072427E0,2.494249356E0
1.453369000E1,-1.047999677E0,6.249621034E-2,1.792715096E0,2.077507284E0
1.454363400E1,-8.111813039E-2,-6.952748716E-1,3.485430818E0,3.555026763E0
1.455357900E1,1.020521418E0,-1.558036804E0,4.867723708E0,5.211878427E0
1.456352300E1,1.850569348E0,-2.552498497E0,4.926789064E0,5.849197037E0
1.457346700E1,2.851540309E0,-3.096445089E0,5.198905617E0,6.689385169E0
1.458341100E1,3.298428383E0,-3.451165842E0,5.426381017E0,7.227432906E0
1.459335500E1,2.930292363E0,-2.886093260E0,3.808420778E0,5.605373891E0
1.460329900E1,2.560824348E0,-1.658041733E0,2.205548694E0,3.764487850E0
1.461324300E1,2.781110596E0,-3.993209749E-1,7.389243364E-1,2.905175135E0
1.462318800E1,2.422119622E0,3.217465496E-1,-2.027643650E0,3.175141426E0
1.463313200E1,1.183783135E0,4.701564842E-1,-5.156356013E0,5.311346060E0
1.464307600E1,-3.349840611E-1,3.621683514E-1,-7.619054142E0,7.635009251E0
1.465302000E1,-1.356542922E0,7.177656019E-1,-9.441414329E0,9.565338504E0
1.466296400E1,-2.442226442E0,1.571128719E0,-1.164904989E1,1.200555200E1
1.467290800E1,-3.607360759E0,2.751392707E0,-1.404126510E1,1.475602721E1
1.468285200E1,-3.228017674E0,4.079787133E0,-1.355208938E1,1.451633176E1
1.469279700E1,-2.158006445E0,4.776305707E0,-9.909675146E0,1.121034119E1
1.470274100E1,-2.383044726E0,4.930117884E0,-6.620574242E0,8.591680151E0
1.471268500E1,-2.431637427E0,5.384733639E0,-3.505212241E0,6.869842050E0
1.472262900E1,-2.437038500E0,5.838219126E0,-1.059565178E0,6.414564489E0
1.473257300E1,-2.729233514E0,6.155334097E0,8.402916670E-2,6.733789001E0
1.474251700E1,-2.926050793E0,6.289908934E0,1.204982507E-1,6.938245273E0
1.475246200E1,-2.929374643E0,6.053255160E0,-6.493812454E-1,6.756095753E0
1.476240600E1,-2.792421158E0,5.382712256E0,-1.869178843E0,6.345473718E0
1.477235000E1,-2.409891047E0,4.488157259E0,-3.061982185E0,5.943640748E0
1.478229400E1,-2.077596705E0,3.554948657E0,-4.129567403E0,5.831585973E0
1.479223800E1,-1.967538658E0,2.585683785E0,-4.950921693E0,5.921874249E0
1.480218200E1,-2.085518221E0,1.636270210E0,-5.464022468E0,6.073080600E0
1.481212600E1,-2.180294570E0,7.729639024E-1,-5.772200553E0,6.218477051E0
1.482207100E1,-2.056033051E0,2.300937831E-2,-5.696031799E0,6.055788932E0
1.483201500E1,-1.551506341E0,-7.371111149E-1,-5.109098232E0,5.390119615E0
1.484195900E1,-5.675491700E-1,-1.596540134E0,-3.779427944E0,4.141874943E0
1.485190300E1,2.926726950E-1,-2.795582455E0,-1.893719607E0,3.389264303E0
1.486184700E1,1.424545455E-1,-4.579783713E0,1.604581225E-1,4.584807407E0
1.487179100E1,-1.337166711E0,-6.544700772E0,2.018670512E0,6.978262939E0
1.488173500E1,-2.586790078E0,-7.967456394E0,3.401708922E0,9.041209426E0
1.489168000E1,-2.267735879E0,-8.652799185E0,4.253581585E0,9.904873348E0
1.490162400E1,-1.434433974E0,-8.790543798E0,4.541708983E0,9.997918862E0
1.491156800E1,-1.339789772E0,-8.734460814E0,4.259652749E0,9.809713751E0
1.492151200E1,-1.396020106E0,-8.992232977E0,3.757148298E0,9.845064214E0
1.493145600E1,-9.825028952E-1,-9.541215776E0,3.743941192E0,1.029646571E1
1.494140000E1,-7.446392588E-2,-9.929632863E0,4.083147528E0,1.073663110E1
1.495134400E1,1.195424649E0,-9.736977632E0,3.757979187E0,1.050524541E1
1.496128900E1,2.371817195E0,-8.834223084E0,2.383005257E0,9.452392732E0
1.497123300E1,3.057832708E0,-7.530695112E0,4.145198180E0,9.123835690E0
1.498117700E1,2.944955426E0,-6.078878828E0,5.600356733E0,8.774367544E0
1.499112100E1,2.163213683E0,-4.231425315E0,5.573868846E0,7.324784471E0
1.500106500E1,1.251233544E0,-2.198427955E0,4.755995988E0,5.386851464E0
1.501100900E1,5.577609310E-1,-3.011362839E-1,3.684546345E0,3.738671166E0
1.502095400E1,1.599460526E-1,1.203283891E0,2.711963178E0,2.971231923E0
1.503089800E1,-3.664245397E-2,2.148363510E0,1.841289378E0,2.829691682E0
1.504084200E1,-8.357805401E-2,2.691452315E0,1.205615176E0,2.950323509E0
1.505078600E1,-2.029869685E-1,2.896638713E0,8.856350702E-1,3.035797922E0
1.506073000E1,-5.686939086E-1,2.839258232E0,1.107160344E0,3.100097433E0
1.507067400E1,-1.183326613E0,2.620733165E0,1.423275147E0,3.208460120E0
1.508061800E1,-1.865995619E0,2.370088173E0,1.342760450E0,3.301857541E0
1.509056300E1,-2.262819540E0,2.256380879E0,1.125231748E0,3.387883326E0
1.510050700E1,-2.321123443E0,2.229129345E0,8.689661202E-1,3.333426735E0
1.511045100E1,-2.365276499E0,2.092306838E0,4.676912981E-1,3.192337071E0
1.512039500E1,-2.760864612E0,1.690562192E0,2.095671326E-2,3.237408395E0
1.513033900E1,-3.406958260E0,9.295499986E-1,-4.664101732E-1,3.562157526E0
1.514028300E1,-3.964428292E0,1.428077173E-1,-1.190598357E0,4.141812426E0
1.515022700E1,-4.120419142E0,-3.594809711E-1,-2.018771377E0,4.602446995E0
1.516017200E1,-3.903318749E0,-4.303176498E-1,-2.821691442E0,4.835598529E0
1.517011613E1,-3.542632667E0,-6.110281885E-2,-3.189324017E0,4.767155069E0
1.518006012E1,-3.261818966E0,6.297591591E-1,-3.077106593E0,4.528205444E0
1.519000413E1,-2.826568020E0,1.420224363E0,-2.783505616E0,4.213600304E0
1.519994813E1,-2.152139057E0,2.085917001E0,-2.671955944E0,4.015233595E0
1.520989212E1,-1.640822998E0,2.467463610E0,-2.785879878E0,4.067161599E0
1.521983712E1,-1.331760229E0,2.642547957E0,-2.940154862E0,4.171469241E0
1.522978113E1,-1.018015594E0,2.571979081E0,-2.673702507E0,3.847092050E0
1.523972513E1,-4.545920733E-1,2.379951257E0,-2.195185089E0,3.269504475E0
1.524966912E1,7.692509204E-2,2.399976801E0,-1.848846320E0,3.030517914E0
1.525961313E1,7.339379771E-1,2.674394233E0,-1.608862849E0,3.206164240E0
1.526955712E1,1.353789175E0,2.613828773E0,-1.215548718E0,3.184714221E0
1.527950113E1,1.551092650E0,2.546533168E0,-2.142215163E-1,2.989416405E0
1.528944613E1,1.536639503E0,2.702924552E0,8.018871546E-1,3.210932124E0
1.529939013E1,1.148093484E0,2.983408470E0,2.002509978E0,3.772120221E0
1.530933412E1,8.651496425E-1,3.442093302E0,2.649089237E0,4.428788095E0
1.531927813E1,7.230853987E-1,3.913099971E0,2.865412243E0,4.903650803E0
1.532922213E1,1.219021087E0,4.128268737E0,2.764571747E0,5.115806106E0
1.533916613E1,2.152911182E0,4.187291116E0,2.135502267E0,5.169990656E0
1.534911112E1,2.841998530E0,4.170091531E0,9.982860652E-1,5.144238922E0
1.535905513E1,2.878843005E0,4.077691491E0,-2.387216422E-1,4.997228528E0
1.536899912E1,3.430885067E0,3.448686622E0,-2.532331158E0,5.484260466E0
1.537894313E1,4.463083228E0,2.125721921E0,-5.337409199E0,7.275008079E0
1.538888713E1,5.086823848E0,5.874604011E-1,-6.508505337E0,8.281396520E0
1.539883112E1,4.371181663E0,-5.327193528E-1,-4.636980884E0,6.394733048E0
1.540877612E1,2.961372946E0,-5.894326669E-1,-1.174437530E0,3.239824703E0
1.541872013E1,2.484911409E0,1.264062774E-1,1.526715608E0,2.919182044E0
1.542866413E1,1.913537283E0,8.303794670E-1,3.153898368E0,3.781300029E0
1.543860812E1,1.634307885E0,8.835119462E-1,3.575754512E0,4.029587566E0
1.544855213E1,1.588929398E0,3.594909114E-1,3.106975924E0,3.508166151E0
1.545849612E1,1.628435526E0,-4.158001828E-1,2.401697052E0,2.931354769E0
1.546844013E1,1.533852427E0,-9.389125603E-1,2.464387097E0,3.050813634E0
1.547838513E1,1.078637918E0,-9.907071966E-1,3.429576460E0,3.729203025E0
1.548832913E1,3.458493572E-1,-8.073771054E-1,4.688916438E0,4.770472401E0
1.549827312E1,-4.217511865E-1,-8.113356704E-1,5.033345214E0,5.115731001E0
1.550821713E1,-1.502191216E0,-1.449404308E0,4.497722719E0,4.958513986E0
1.551816113E1,-2.874774512E0,-2.722087047E0,3.561892518E0,5.325520134E0
1.552810513E1,-3.456103523E0,-4.166988414E0,2.597004872E0,6.004404909E0
1.553804913E1,-2.925794685E0,-5.335186672E0,2.186518346E0,6.465705982E0
1.554799413E1,-2.094847161E0,-5.784233539E0,2.526800862E0,6.650598834E0
1.555793812E1,-1.467831223E0,-5.413322430E0,2.824692233E0,6.279926309E0
1.556788213E1,-6.583429804E-1,-4.405558321E0,2.556617276E0,5.136015138E0
1.557782613E1,3.133476090E-1,-3.363763416E0,2.114920652E0,3.985722069E0
1.558777012E1,9.546687600E-1,-2.625264173E0,1.989939634E0,3.429761531E0
1.559771413E1,1.046498405E0,-2.115620272E0,2.171990646E0,3.207577187E0
1.560765913E1,7.955777165E-1,-1.922038842E0,2.346833212E0,3.136049001E0
1.561760313E1,5.589596102E-1,-1.984150305E0,2.063015211E0,2.916388184E0
1.562754712E1,4.515374878E-1,-2.134725464E0,1.515924279E0,2.656871342E0
1.563749113E1,5.662072340E-1,-2.284776712E0,9.705629539E-1,2.546131910E0
1.564743512E1,7.027952680E-1,-2.270654517E0,5.038092569E-1,2.429735971E0
1.565737913E1,7.445288926E-1,-2.104157975E0,4.563693345E-2,2.232462045E0
1.566732313E1,7.271310872E-1,-1.847105604E0,-5.006634548E-1,2.047237804E0
1.567726813E1,6.154896140E-1,-1.441342751E0,-1.207353553E0,1.978382924E0
1.568721212E1,4.883834249E-1,-9.128439188E-1,-1.574944905E0,1.884742381E0
1.569715613E1,3.315055525E-1,-3.632395613E-1,-1.535667695E0,1.612486955E0
1.570710013E1,-4.463793665E-2,8.609849632E-2,-1.038859310E0,1.043376328E0
1.571704412E1,-5.090118170E-1,3.679500782E-1,-7.577699125E-2,6.326313637E-1
1.572698813E1,-6.904725534E-1,7.017062241E-1,1.675979236E0,1.943720755E0
1.573693313E1,-1.427086947E0,1.026492156E0,2.383847549E0,2.961923773E0
1.574687712E1,-1.816070630E0,8.846802199E-1,2.415291536E0,3.148714789E0
1.575682113E1,-8.350142625E-1,1.381837392E-1,2.433482516E0,2.576466712E0
1.576676513E1,2.962094200E-1,-6.710586280E-1,3.340690888E0,3.420274158E0
1.577670912E1,1.591313893E0,-1.435476240E0,5.338003276E0,5.752143158E0
1.578665313E1,1.976096058E0,-2.250684521E0,5.986444874E0,6.693882182E0
1.579659813E1,1.711090743E0,-2.796884045E0,5.870587558E0,6.724149773E0
1.580654213E1,1.489997433E0,-2.767192469E0,5.119672337E0,6.007369752E0
1.581648612E1,1.408153663E0,-2.007509932E0,3.811932031E0,4.532528949E0
1.582643013E1,1.597148537E0,-7.643263954E-1,1.903540006E0,2.599719762E0
1.583637412E1,1.422299539E0,2.262404680E-1,-2.689146173E-1,1.465071944E0
1.584631813E1,9.756354135E-1,8.132944876E-1,-3.059614062E0,3.312785926E0
1.585626213E1,7.268147528E-2,1.107639815E0,-6.064543794E0,6.165293180E0
1.586620713E1,-1.312405214E0,1.149035763E0,-8.338611916E0,8.519104373E0
1.587615112E1,-2.119817403E0,1.615306773E0,-1.012123793E1,1.046624570E1
1.588609513E1,-2.973310329E0,2.229802945E0,-1.201368928E1,1.257542546E1
1.589603913E1,-3.855570678E0,3.113504925E0,-1.385513653E1,1.471475948E1
1.590598312E1,-3.320104596E0,4.356813008E0,-1.315795196E1,1.425260025E1
1.591592713E1,-2.353467755E0,4.793643871E0,-1.016239765E1,1.148007657E1
1.592587213E1,-2.334131305E0,4.726226644E0,-7.192184595E0,8.917000981E0
1.593581613E1,-2.501828865E0,4.766069571E0,-4.442989857E0,6.979593519E0
1.594576013E1,-2.499138854E0,4.795959368E0,-1.907364085E0,5.734540873E0
1.595570413E1,-2.610239752E0,4.691478395E0,1.067596328E-1,5.369796897E0
1.596564812E1,-2.708866493E0,4.431862020E0,9.672101605E-1,5.283450969E0
1.597559213E1,-2.791913327E0,3.870012424E0,8.980001771E-1,4.855736865E0
1.598553713E1,-2.821361659E0,3.102885212E0,3.796772540E-1,4.210953938E0
1.599548113E1,-2.799237842E0,2.356681092E0,-5.080020028E-1,3.694285357E0
1.600542512E1,-2.907705739E0,1.503386972E0,-1.425273433E0,3.570200192E0
1.601536913E1,-3.161833040E0,5.255845803E-1,-2.208447744E0,3.892385998E0
1.602531312E1,-3.566501586E0,-5.328263569E-1,-2.865718052E0,4.606102196E0
1.603525713E1,-3.802050236E0,-1.532263446E0,-3.356039245E0,5.297774691E0
1.604520113E1,-3.500419278E0,-2.358663298E0,-3.267000768E0,5.337557653E0
1.605514613E1,-2.440802060E0,-2.928306649E0,-2.685232047E0,4.662935306E0
1.606509012E1,-1.087166374E0,-3.525924248E0,-2.434156700E0,4.420315754E0
1.607503413E1,-2.952522308E-1,-4.438168827E0,-1.712303894E0,4.766183069E0
1.608497813E1,-3.957588877E-1,-5.425662394E0,-8.415757155E-1,5.504787661E0
1.609492212E1,-7.953990841E-1,-6.232814966E0,2.689134479E-3,6.283362901E0
1.610486613E1,-4.446339726E-1,-6.710832447E0,8.758088243E-1,6.782330912E0
1.611481113E1,-3.812384605E-2,-6.907375492E0,1.609241456E0,7.092457097E0
1.612475513E1,3.219126105E-1,-6.736852557E0,2.103116001E0,7.064835951E0
1.613469912E1,1.106773258E0,-6.252416587E0,2.289251001E0,6.749691132E0
1.614464313E1,1.764603730E0,-5.715243995E0,2.445465215E0,6.462053881E0
1.615458712E1,2.227789748E0,-5.078363512E0,2.860036313E0,6.239601817E0
1.616453113E1,2.668656068E0,-4.214411672E0,3.525709655E0,6.108487498E0
1.617447538E1,2.803777328E0,-3.356142740E0,4.023584865E0,5.942566496E0
1.618442038E1,2.746363809E0,-2.609361500E0,4.314902505E0,5.741921737E0
1.619436437E1,2.608345254E0,-2.106145443E0,4.430481493E0,5.555940951E0
1.620430838E1,2.358892217E0,-1.974729856E0,4.283757895E0,5.273946549E0
1.621425238E1,1.967670513E0,-2.172234183E0,3.869031261E0,4.853836781E0
1.622419637E1,1.442896357E0,-2.405271454E0,3.242546543E0,4.287352184E0
1.623414038E1,8.046605621E-1,-2.503381886E0,2.534072167E0,3.651838062E0
1.624408538E1,7.408137180E-2,-2.546868798E0,1.720723885E0,3.074560036E0
1.625402938E1,-7.210013779E-1,-2.656540344E0,9.840238291E-1,2.923243487E0
1.626397337E1,-1.424332470E0,-2.728654055E0,3.958395427E-1,3.103379590E0
1.627391738E1,-1.990089469E0,-2.462311628E0,-2.295558393E-2,3.166064056E0
1.628386137E1,-2.511785504E0,-1.647436638E0,-4.297469616E-1,3.034435095E0
1.629380538E1,-2.740989926E0,-2.799108911E-1,-7.337197298E-1,2.851266477E0
1.630375038E1,-2.783931001E0,1.198075191E0,-7.346704870E-1,3.118556830E0
1.631369438E1,-2.534939601E0,2.409538168E0,-6.199943089E-1,3.551927069E0
1.632363837E1,-2.199436015E0,3.335869859E0,-1.714584893E-1,3.999368014E0
1.633358238E1,-2.023249321E0,3.922390028E0,1.844568497E-1,4.417318833E0
1.634352638E1,-1.824273835E0,4.009529913E0,1.513747653E-1,4.407631957E0
1.635347038E1,-1.692417514E0,3.418144276E0,-6.171502233E-2,3.814681648E0
1.636341537E1,-1.865333860E0,2.249328552E0,9.326162785E-2,2.923635934E0
1.637335938E1,-2.237475222E0,8.890270400E-1,3.531767955E-1,2.433392344E0
1.638330337E1,-2.589252048E0,-5.268756455E-1,2.778228503E-1,2.656879683E0
1.639324738E1,-2.857351856E0,-1.803533907E0,2.199801466E-1,3.386087041E0
1.640319138E1,-2.912170088E0,-2.793821858E0,2.242889598E-1,4.041841255E0
1.641313537E1,-2.645543194E0,-3.165256292E0,2.500199246E-1,4.132826653E0
1.642307938E1,-2.321984592E0,-2.857720816E0,9.365447304E-1,3.799381099E0
