"Time (s)","Linear Acceleration x (m/s^2)","Linear Acceleration y (m/s^2)","Linear Acceleration z (m/s^2)","Absolute acceleration (m/s^2)"
3.138749860E-3,1.482920548E0,7.916039488E-1,-1.373926109E0,2.171028124E0
1.308374992E-2,5.154004848E-1,4.802552104E-1,-3.170559498E-1,7.725329780E-1
2.302974975E-2,-2.004156554E-1,1.647453010E-1,5.671974234E-1,6.237149719E-1
3.297575004E-2,-5.932976764E-1,-8.985533237E-2,1.264814726E0,1.399940143E0
4.292174987E-2,-7.686913419E-1,-3.100269753E-1,1.638403859E0,1.836129165E0
5.286674993E-2,-6.834272432E-1,-4.283234569E-1,1.824652880E0,1.994966645E0
6.281274976E-2,-6.941182923E-1,-4.604708639E-1,1.775271975E0,1.960975320E0
7.275875006E-2,-5.814845467E-1,-2.814881775E-1,1.611243542E0,1.735933647E0
8.270474989E-2,-5.233801800E-1,-8.874026835E-3,1.121590687E0,1.237728254E0
9.265074972E-2,-3.507317823E-1,2.727176464E-1,6.727303469E-1,8.061971331E-1
1.025957498E-1,-2.145015979E-1,4.577785134E-1,2.347189307E-1,5.573733751E-1
1.125417501E-1,-8.231710196E-2,6.557161188E-1,-1.818624767E-1,6.854295691E-1
1.224877499E-1,2.842740834E-2,8.198430768E-1,-6.060498691E-1,1.019925111E0
1.324337497E-1,1.811444020E-1,8.151723209E-1,-8.249718889E-1,1.173838926E0
1.423787498E-1,2.769323194E-1,6.377774459E-1,-9.318766057E-1,1.162688947E0
1.523247501E-1,9.930677176E-2,2.305969360E-1,-9.529476321E-1,9.854673872E-1
1.622707499E-1,7.602023542E-2,-1.834622383E-1,-1.071412221E0,1.089661239E0
1.722167498E-1,1.548500580E-1,-5.101759976E-1,-1.059787956E0,1.186342531E0
1.821617498E-1,1.947052646E-1,-7.581078815E-1,-1.042602990E0,1.303709590E0
1.921077501E-1,1.049861723E-1,-9.300376564E-1,-1.079760876E0,1.428942157E0
2.020537499E-1,-1.046499574E-1,-1.041814785E0,-1.058999752E0,1.489231390E0
2.119997498E-1,-5.023132467E-1,-1.376636294E0,-7.764810026E-1,1.658423598E0
2.219457501E-1,-1.186055070E0,-1.819419330E0,-3.581033671E-1,2.201193165E0
2.318907501E-1,-2.111676325E0,-2.731028317E0,4.482007011E-1,3.481174577E0
2.418367499E-1,-2.917052513E0,-3.508897741E0,1.147721894E0,4.705191204E0
2.517827498E-1,-2.154355736E0,-3.023704264E0,1.232216499E0,3.911827401E0
2.617287501E-1,-2.734731066E0,-2.387402363E0,6.081875380E-1,3.680806451E0
2.716737501E-1,-3.847990056E0,-2.787523822E0,1.235929481E0,4.909667831E0
2.816197500E-1,-4.331929012E0,-3.069339151E0,2.146282486E0,5.726515546E0
2.915657498E-1,-3.996855488E0,-2.749103815E0,2.135742295E0,5.300360434E0
3.015117501E-1,-2.811293339E0,-2.125187778E0,1.664874204E0,3.897640240E0
3.114577499E-1,-1.654040483E0,-1.124175449E0,1.519278535E0,2.511538896E0
3.214027500E-1,-1.127958890E0,7.068406641E-2,1.106610194E0,1.581731208E0
3.313487498E-1,-6.540233499E-1,1.241233198E0,3.898211499E-1,1.456147974E0
3.412947501E-1,-9.995066714E-1,1.926973015E0,-2.856599466E-1,2.189484001E0
3.512407499E-1,-1.576736199E0,2.548312183E0,-7.387150061E-1,3.086371962E0
3.611857500E-1,-1.848946307E0,2.969647048E0,-9.308346319E-1,3.619925296E0
3.711317498E-1,-1.269607104E0,2.868799827E0,-4.518270712E-1,3.169552390E0
3.810777501E-1,6.396947479E-1,2.283139784E0,1.831921700E-1,2.378128679E0
3.910237500E-1,3.060832037E0,1.580592438E0,8.514048851E-1,3.548500457E0
4.009697498E-1,4.899823460E0,8.398110259E-1,1.732156945E0,5.264401218E0
4.109147498E-1,5.327664814E0,1.075881833E-1,1.688588172E0,5.589894239E0
4.208607501E-1,4.468909979E0,3.210559934E-2,1.341220293E0,4.665946747E0
4.308067500E-1,3.160953326E0,-2.429363152E-1,4.850008106E-1,3.207159143E0
4.407527498E-1,2.523012743E0,-3.068212393E-1,-4.944873333E-1,2.589256707E0
4.506977499E-1,2.480028691E0,-1.009510088E0,-1.515656769E0,3.076827647E0
4.606437501E-1,3.196610232E0,-1.358034546E0,-1.809546014E0,3.916252237E0
4.705897500E-1,2.774049498E0,-1.010057972E0,-1.725321550E0,3.419400851E0
4.805357498E-1,7.937513387E-1,-4.903112519E-1,-2.043116552E0,2.246056890E0
4.904807499E-1,-1.317078309E0,-4.904279038E-1,-2.188233919E0,2.600688848E0
5.004267497E-1,-1.960089598E0,-3.478947133E-1,-1.754393907E0,2.653465647E0
5.103727500E-1,-7.822697461E-1,5.601094651E-1,-1.107540997E0,1.467077240E0
5.203187498E-1,-1.199144062E0,1.609535571E0,-7.141356504E-1,2.130385168E0
5.302647501E-1,-2.440570511E0,1.913605695E0,-6.468435538E-1,3.168071615E0
5.402097497E-1,-2.603330682E0,2.099362673E0,-4.543298622E-1,3.375065910E0
5.501557500E-1,-1.159632672E0,2.301027001E0,2.761616564E-1,2.591474186E0
5.601017498E-1,-5.554270148E-2,2.251630016E0,1.139108945E0,2.523983342E0
5.700477501E-1,6.014609742E-1,2.457978841E0,1.613806962E0,3.001297752E0
5.799927497E-1,9.808815354E-1,2.859191098E0,1.771491165E0,3.503610034E0
5.899387500E-1,1.033681893E0,3.198287798E0,1.699579768E0,3.766445869E0
5.998847499E-1,8.149281996E-1,3.436504533E0,1.444948729E0,3.815959671E0
6.098307502E-1,5.036253619E-1,3.555448302E0,1.056210630E0,3.743051165E0
6.197767500E-1,1.807438678E-1,3.378272990E0,5.248624492E-1,3.423576687E0
6.297217500E-1,1.233879447E-1,2.952334320E0,6.380247831E-2,2.955600324E0
6.396677499E-1,4.503671676E-1,2.456679590E0,-6.873986721E-2,2.498565661E0
6.496137497E-1,3.646493250E-1,1.931813340E0,-9.032544851E-2,1.968001676E0
6.595597500E-1,5.159173787E-2,1.583282157E0,3.998910785E-2,1.584627157E0
6.695047501E-1,-3.899513966E-1,1.403285564E0,9.834606509E-2,1.459775467E0
6.794507499E-1,-8.884423184E-1,1.374122576E0,3.682460387E-2,1.636734144E0
6.893967497E-1,-1.237921627E0,1.337233077E0,-6.909186959E-2,1.823572303E0
6.993427500E-1,-1.240646430E0,1.336552753E0,-1.449524943E-1,1.829368211E0
7.092887498E-1,-1.066996404E0,1.309125803E0,-2.059600035E-1,1.701385088E0
7.192337499E-1,-7.753203303E-1,1.289048219E0,-1.813473370E-1,1.515141506E0
7.291797497E-1,-4.813077092E-1,1.435105819E0,-1.721531385E-1,1.523424604E0
7.391257500E-1,-1.421539986E-1,1.669281251E0,-4.644786917E-2,1.675966902E0
7.490717499E-1,3.296917462E-1,1.977104995E0,1.980071872E-1,2.014161775E0
7.590167499E-1,7.390009350E-1,2.144672747E0,4.020393455E-1,2.303774991E0
7.689620415E-1,1.095426736E0,2.220895296E0,7.040386784E-1,2.574491428E0
7.789080418E-1,1.417162176E0,2.326418535E0,1.059493842E0,2.922858025E0
7.888540416E-1,1.728754451E0,2.285082814E0,1.423145632E0,3.199302878E0
7.988000414E-1,1.798160316E0,2.105518037E0,1.697982894E0,3.248035196E0
8.087450415E-1,1.892665354E0,1.925510334E0,1.811950389E0,3.251605204E0
8.186910418E-1,1.659435709E0,1.779580788E0,1.813480605E0,3.034690521E0
8.286370416E-1,1.207681582E0,1.604504919E0,1.776505153E0,2.681212672E0
8.385830414E-1,6.928804368E-1,1.429337248E0,1.877278406E0,2.459118233E0
8.485280415E-1,1.662012577E-2,1.284309343E0,2.010841091E0,2.386044553E0
8.584740418E-1,-5.740544897E-1,1.169825831E0,2.117897177E0,2.486668350E0
8.684200416E-1,-9.770410842E-1,1.074816470E0,2.119888739E0,2.569779755E0
8.783660415E-1,-1.115589690E0,9.589997926E-1,2.070745815E0,2.540119916E0
8.883110415E-1,-1.095887496E0,9.293050003E-1,1.807797112E0,2.309265595E0
8.982570418E-1,-1.029466050E0,9.153169987E-1,1.479552405E0,2.021554075E0
9.082030416E-1,-9.078895730E-1,9.067797714E-1,1.099248330E0,1.689633073E0
9.181490415E-1,-6.774168903E-1,1.027504602E0,6.331803650E-1,1.384043614E0
9.280950418E-1,-4.918666112E-1,1.076202553E0,3.271404599E-1,1.227666721E0
9.380400414E-1,-3.082769036E-1,1.272870143E0,-9.628317654E-2,1.313203526E0
9.479860417E-1,-4.722796082E-2,1.486233580E0,-3.713864869E-1,1.532660647E0
9.579320415E-1,1.800410324E-1,1.766181601E0,-5.426145959E-1,1.856405888E0
9.678780418E-1,2.329811382E-1,2.009828645E0,-6.199767673E-1,2.116143328E0
9.778230414E-1,3.381210923E-1,2.227289519E0,-5.054691352E-1,2.308818642E0
9.877690417E-1,3.017028791E-1,2.407407735E0,-3.947893828E-1,2.458148752E0
9.977150415E-1,2.098735267E-1,2.596561653E0,-1.219181009E-1,2.607881005E0
1.007661042E0,2.271286601E-1,2.767689774E0,4.899191961E-2,2.777425845E0
1.017607042E0,1.356805462E-1,2.899878656E0,2.204397377E-1,2.911408440E0
1.027552042E0,-7.322175801E-2,2.921655441E0,4.177062289E-1,2.952272080E0
1.037498042E0,-2.575487995E-1,2.944728262E0,5.530083141E-1,3.007253583E0
1.047444042E0,-3.250970042E-1,2.940805949E0,7.556657919E-1,3.053695873E0
1.057390042E0,-3.683506125E-1,2.885387209E0,8.453663193E-1,3.029155944E0
1.067335042E0,-3.843965417E-1,2.801853301E0,8.541527840E-1,2.954271416E0
1.077281042E0,-4.208100772E-1,2.697386069E0,8.635828811E-1,2.863345617E0
1.087227041E0,-4.324530530E-1,2.490820020E0,9.066096175E-1,2.685729140E0
1.097173042E0,-5.343828857E-1,2.172966254E0,9.660176209E-1,2.437321779E0
1.107119041E0,-4.999983341E-1,1.765090218E0,9.099974942E-1,2.047837213E0
1.117064042E0,-2.235665363E-1,1.226906058E0,8.026233190E-1,1.483065967E0
1.127010041E0,1.690985531E-1,5.271428633E-1,6.975082156E-1,8.905007747E-1
1.136956042E0,6.499437475E-1,-2.754807481E-1,5.235427326E-1,8.788705880E-1
1.146902042E0,1.217206112E0,-1.175876530E0,2.691173695E-1,1.713680393E0
1.156847042E0,1.894407240E0,-2.081823950E0,1.800679296E-1,2.820495383E0
1.166793041E0,2.602661176E0,-3.005742203E0,5.558465526E-2,3.976357760E0
1.176739042E0,3.361511069E0,-3.902881962E0,-1.433031227E-1,5.152938973E0
1.186685042E0,4.126967146E0,-4.784811359E0,-2.101565319E-1,6.322218229E0
1.196631042E0,4.943367675E0,-5.452845515E0,-1.793599780E-1,7.362240025E0
1.206576041E0,5.990286494E0,-5.983488522E0,2.911308208E-1,8.471742697E0
1.216522042E0,7.337472117E0,-6.302852331E0,5.973654382E-1,9.691299708E0
1.226468042E0,8.079161017E0,-6.228730102E0,5.633613941E-1,1.021701020E1
1.236414041E0,7.730246549E0,-5.295513314E0,-7.328900099E-2,9.370407902E0
1.246359041E0,7.075260748E0,-3.527315593E0,-1.060775697E0,7.976623034E0
1.256305042E0,5.967287056E0,-1.923172909E0,-1.403963841E0,6.424813096E0
1.266251042E0,4.519070903E0,-7.668658412E-1,-1.181766430E0,4.733567042E0
1.276197041E0,3.399146672E0,8.815262318E-2,-6.031385404E-1,3.453367210E0
1.286143042E0,2.385145338E0,7.067485705E-1,-1.501693618E-1,2.492180303E0
1.296088042E0,1.298723899E0,9.215299577E-1,1.470849556E-1,1.599229569E0
1.306034042E0,-4.910491705E-3,8.802138242E-1,4.094742264E-1,9.708087512E-1
1.315980041E0,-1.444358160E0,6.328666618E-1,6.054992075E-1,1.689177314E0
1.325926042E0,-2.752988997E0,3.008027002E-1,8.171577430E-1,2.887417091E0
1.335871042E0,-3.842849184E0,1.976972848E-2,9.705372262E-1,3.963561933E0
1.345817042E0,-4.749475758E0,-1.894965649E-1,9.114951123E-1,4.839860769E0
1.355763041E0,-5.158102577E0,-3.671861395E-1,8.780079621E-1,5.245164043E0
1.365709042E0,-5.291564689E0,-4.795430195E-1,8.133921361E-1,5.375148848E0
1.375654042E0,-5.233128785E0,-4.933813325E-1,6.801541181E-1,5.300157700E0
1.385600042E0,-5.137383553E0,-4.233717424E-1,4.236728740E-1,5.172180595E0
1.395546041E0,-5.214165680E0,-4.737688941E-1,1.895433426E-1,5.239075051E0
1.405492042E0,-5.075134095E0,-6.393754900E-1,7.533845007E-2,5.115805213E0
1.415438042E0,-4.706377101E0,-8.986410320E-1,-1.847603202E-2,4.791438457E0
1.425383042E0,-4.345358312E0,-1.313973145E0,-1.938756178E-1,4.543814702E0
1.435329041E0,-4.085240831E0,-1.880904849E0,-3.585185925E-1,4.511710460E0
1.445275042E0,-3.751026848E0,-2.431633626E0,-4.947375941E-1,4.497533746E0
1.455221042E0,-3.305498251E0,-2.969839714E0,-6.369301844E-1,4.489091966E0
1.465166042E0,-2.929466736E0,-3.461953955E0,-1.092740671E0,4.664866849E0
1.475112041E0,-2.472748323E0,-3.754895951E0,-1.255836326E0,4.668067346E0
1.485058042E0,-2.055676956E0,-3.988845095E0,-1.406150115E0,4.702547297E0
1.495004042E0,-1.656076484E0,-3.917349143E0,-1.418033411E0,4.483194440E0
1.504950041E0,-1.114590400E0,-3.658335031E0,-1.273849844E0,4.030932942E0
1.514895041E0,-7.228930253E-1,-3.219410280E0,-1.008869306E0,3.450361453E0
1.524841042E0,-5.788544691E-1,-2.648164208E0,-6.728823745E-1,2.792958442E0
1.534787042E0,-6.730653924E-1,-2.030876575E0,-3.201841736E-1,2.163329515E0
1.544733041E0,-9.607507414E-1,-1.405424183E0,6.004849277E-2,1.703486114E0
1.554678041E0,-1.352204288E0,-8.215478325E-1,3.402548875E-1,1.618385203E0
1.564624042E0,-1.649515908E0,-3.890135032E-1,5.295804944E-1,1.775581520E0
1.574570042E0,-1.915757178E0,-9.077246815E-2,6.948486096E-1,2.039897006E0
1.584516041E0,-2.109663128E0,3.936550230E-2,8.405009973E-1,2.271270588E0
1.594462042E0,-2.236316743E0,-3.338760138E-4,8.834370288E-1,2.404490314E0
1.604407042E0,-2.259619067E0,-8.841107011E-2,8.684967349E-1,2.422391674E0
1.614353042E0,-2.153583319E0,-2.734807080E-1,7.403726187E-1,2.293657434E0
1.624299041E0,-1.855657741E0,-5.230258387E-1,5.359012614E-1,2.001052684E0
1.634245042E0,-1.331763006E0,-7.952321461E-1,2.567119899E-1,1.572223876E0
1.644190042E0,-6.511675698E-1,-1.036671282E0,-5.007730901E-2,1.225240502E0
1.654136042E0,7.052268326E-2,-1.212289188E0,-3.365055066E-1,1.260100980E0
1.664082041E0,8.560259396E-1,-1.348253616E0,-6.787004272E-1,1.735281675E0
1.674028042E0,1.635652744E0,-1.463511592E0,-9.639369623E-1,2.397165107E0
1.683974042E0,2.270871449E0,-1.644156058E0,-1.159553150E0,3.033919871E0
1.693919042E0,2.862103304E0,-1.766028989E0,-1.276343827E0,3.597158222E0
1.703865041E0,3.222196478E0,-1.782188939E0,-1.327168411E0,3.914092941E0
1.713811042E0,3.216560347E0,-1.721311238E0,-1.252961104E0,3.857341620E0
1.723757042E0,2.671802747E0,-1.586157233E0,-1.028011263E0,3.272801834E0
1.733702042E0,1.577454822E0,-1.277625391E0,-8.316746253E-1,2.193712159E0
1.743648042E0,5.192859596E-1,-9.325858730E-1,-5.189735721E-1,1.186890006E0
1.753594042E0,-2.257545644E-1,-7.183602637E-1,-2.451839849E-2,7.533974673E-1
1.763540042E0,-7.922924584E-1,-5.115167642E-1,3.498494375E-1,1.005868465E0
1.773484792E0,-1.252842552E0,-2.975487247E-1,5.303519614E-1,1.392631648E0
1.783430791E0,-1.590388278E0,-1.719455624E-1,7.064952399E-1,1.748724014E0
1.793376792E0,-1.793400097E0,-7.009817541E-2,8.101755097E-1,1.969157693E0
1.803322792E0,-1.960666718E0,-5.621279240E-2,7.228719753E-1,2.090434823E0
1.813268791E0,-1.976813804E0,-1.615062359E-1,5.213885453E-1,2.050785970E0
1.823213791E0,-1.911251314E0,-3.107318571E-1,2.767088827E-1,1.956017300E0
1.833159792E0,-1.773210247E0,-5.398354143E-1,-4.978736021E-2,1.854231818E0
1.843105792E0,-1.605210970E0,-7.988331538E-1,-3.126997375E-1,1.820059832E0
1.853051791E0,-1.449292041E0,-1.038638577E0,-5.382519883E-1,1.862507105E0
1.862996791E0,-1.406206833E0,-1.280415097E0,-7.027569687E-1,2.027497925E0
1.872942792E0,-1.369069412E0,-1.534578944E0,-8.885815553E-1,2.240281404E0
1.882888792E0,-1.351007363E0,-1.749776360E0,-1.012605531E0,2.431523836E0
1.892834791E0,-1.333651657E0,-1.930551218E0,-1.098904075E0,2.590993037E0
1.902780792E0,-1.317298749E0,-2.016169074E0,-1.080860810E0,2.639786699E0
1.912725792E0,-1.326565416E0,-2.030704082E0,-1.009423915E0,2.627255510E0
1.922671792E0,-1.295871627E0,-1.919134530E0,-8.874417868E-1,2.479901922E0
1.932617791E0,-1.167880170E0,-1.641771855E0,-7.498527825E-1,2.149799551E0
1.942563792E0,-1.066626860E0,-1.269722294E0,-5.924983621E-1,1.760949139E0
1.952508792E0,-1.007583430E0,-8.721092910E-1,-4.276459839E-1,1.399528518E0
1.962454792E0,-9.589661711E-1,-5.511497766E-1,-2.733661757E-1,1.139346857E0
1.972400791E0,-9.830379885E-1,-2.889179420E-1,-1.645568745E-1,1.037745744E0
1.982346792E0,-1.134752769E0,-1.968044150E-1,-1.104176509E-1,1.156973588E0
1.992292792E0,-1.390340998E0,-2.360672987E-1,-1.745078123E-1,1.420995720E0
2.002237792E0,-1.702032675E0,-4.325775987E-1,-3.272416167E-1,1.786372213E0
2.012183791E0,-2.046205636E0,-7.469841385E-1,-5.102103500E-1,2.237243261E0
2.022129792E0,-2.302209601E0,-1.058089925E0,-7.872024572E-1,2.653188844E0
2.032075792E0,-2.580768031E0,-1.293502336E0,-1.066387709E0,3.077449377E0
2.042020792E0,-2.838871146E0,-1.467721880E0,-1.279074185E0,3.442299765E0
2.051966792E0,-3.055432134E0,-1.524235219E0,-1.474580079E0,3.719320494E0
2.061912792E0,-3.245261990E0,-1.445867327E0,-1.595191181E0,3.894469491E0
2.071858792E0,-3.399864711E0,-1.219730355E0,-1.565352840E0,3.936642186E0
2.081804791E0,-3.567585075E0,-8.740365332E-1,-1.393983813E0,3.928714039E0
2.091749792E0,-3.657104192E0,-5.366668081E-1,-1.243118048E0,3.899713428E0
2.101695792E0,-3.752021459E0,-1.172600627E-1,-1.099426816E0,3.911541164E0
2.111641792E0,-3.900793921E0,1.594237500E-1,-8.862225692E-1,4.003373526E0
2.121587791E0,-4.060808240E0,2.385330695E-1,-5.757420693E-1,4.108350097E0
2.131532792E0,-4.280721436E0,1.330867213E-1,-3.408312768E-1,4.296330300E0
2.141478791E0,-4.490800785E0,-2.461707026E-1,-2.430857116E-1,4.504107277E0
2.151424792E0,-4.369149463E0,-9.181695628E-1,-2.565770654E-1,4.471949705E0
2.161370791E0,-4.053707381E0,-1.796761662E0,-3.872979301E-1,4.450943236E0
2.171315792E0,-3.477563682E0,-2.687670920E0,-5.979743526E-1,4.435605648E0
2.181261791E0,-2.754244394E0,-3.453145709E0,-8.607738787E-1,4.500112125E0
2.191207792E0,-1.850156096E0,-4.051954971E0,-1.147068175E0,4.599693693E0
2.201153792E0,-7.533891785E-1,-4.425993170E0,-1.419541408E0,4.708726856E0
2.211099792E0,4.246674854E-1,-4.464221681E0,-1.803141413E0,4.833315285E0
2.221044791E0,1.306139338E0,-4.232619317E0,-2.085804880E0,4.896084992E0
2.230990792E0,1.693925511E0,-3.844917929E0,-1.957946593E0,4.635335196E0
2.240936792E0,1.666623107E0,-3.388878962E0,-1.506810517E0,4.066031374E0
2.250882792E0,1.401709154E0,-2.917585779E0,-1.079208899E0,3.412006327E0
2.260827791E0,1.458131277E0,-2.470664083E0,-6.951992963E-1,2.951885820E0
2.270773792E0,1.815832940E0,-2.095024039E0,-4.274944679E-1,2.805196341E0
2.280719792E0,2.422485073E0,-1.805086343E0,-2.991741045E-1,3.035831974E0
2.290665791E0,3.311115087E0,-1.578639760E0,-2.708441985E-1,3.678171175E0
2.300611792E0,4.320500044E0,-1.423583880E0,-2.427547592E-1,4.555462827E0
2.310556792E0,5.307098987E0,-1.369027604E0,-3.029565221E-1,5.489200205E0
2.320502792E0,6.149869289E0,-1.262801822E0,-3.154486598E-1,6.286101222E0
2.330448791E0,6.882419575E0,-1.246365299E0,-2.591043051E-1,6.999161429E0
2.340394792E0,7.484932464E0,-1.320342810E0,-1.366915298E-1,7.601723732E0
2.350339792E0,7.762644802E0,-1.371618505E0,2.286629695E-1,7.886208113E0
2.360285792E0,7.554840605E0,-1.335156438E0,7.342594278E-1,7.706970623E0
2.370231791E0,6.927293447E0,-1.004688474E0,1.104744420E0,7.086413315E0
2.380177792E0,6.025905978E0,-5.871452361E-1,1.339199641E0,6.200785278E0
2.390123792E0,5.676246575E0,-1.029560190E-1,1.620825375E0,5.904019819E0
2.400068792E0,5.773354209E0,4.966201052E-1,1.877566089E0,6.091264628E0
2.410014791E0,5.893601614E0,1.198743528E0,1.935410693E0,6.318017140E0
2.419960792E0,5.507128726E0,1.908285606E0,1.907091604E0,6.132456208E0
2.429906792E0,4.667401900E0,2.697121190E0,2.038977892E0,5.763378702E0
2.439851792E0,3.435109972E0,3.289588562E0,2.329527354E0,5.296042968E0
2.449797791E0,2.058471925E0,3.757438612E0,2.712337400E0,5.070742131E0
2.459743792E0,7.342529958E-1,3.980549066E0,2.885313241E0,4.970807865E0
2.469689792E0,-4.261713892E-1,4.128808142E0,2.912475897E0,5.070620729E0
2.479635791E0,-1.446215236E0,4.231554539E0,2.914358116E0,5.337703209E0
2.489580791E0,-2.355977088E0,4.240920901E0,2.731173620E0,5.567346538E0
2.499526792E0,-3.026715288E0,4.238356605E0,2.377567931E0,5.725163876E0
2.509472792E0,-3.370155008E0,4.232452671E0,1.924970051E0,5.742569990E0
2.519418791E0,-3.552953002E0,4.138361616E0,1.434601496E0,5.639822103E0
2.529363791E0,-3.621367180E0,3.911624134E0,9.629843777E-1,5.416866486E0
2.539309792E0,-3.474388644E0,3.655932703E0,5.699099833E-1,5.075629790E0
2.549255792E0,-3.427280551E0,3.284644449E0,2.581557405E-1,4.754133519E0
2.559201791E0,-3.386658189E0,2.953136850E0,-1.368650459E-2,4.493401636E0
2.569147792E0,-3.034686797E0,2.675386797E0,-1.882908690E-1,4.049996534E0
2.579092792E0,-2.592899249E0,2.495857396E0,-3.727342701E-1,3.618198653E0
2.589038792E0,-2.091794622E0,2.417723685E0,-5.790468425E-1,3.249044137E0
2.598984791E0,-1.557034006E0,2.469617139E0,-7.104203296E-1,3.004673153E0
2.608930792E0,-9.357193959E-1,2.655817921E0,-7.101466799E-1,2.904005496E0
2.618875792E0,-4.036040604E-1,2.925778605E0,-5.757225542E-1,3.009075131E0
2.628821792E0,-3.769466043E-2,3.246089078E0,-4.002914666E-1,3.270894136E0
2.638767791E0,3.182043064E-1,3.571730166E0,-2.116692066E-4,3.585876518E0
2.648713792E0,6.332598871E-1,3.871402015E0,4.118515581E-1,3.944412929E0
2.658658792E0,7.230316043E-1,4.105054998E0,8.299741819E-1,4.250071574E0
2.668604792E0,7.032428724E-1,4.267725707E0,1.153667270E0,4.476492088E0
2.678550791E0,6.852767175E-1,4.298537902E0,1.476252968E0,4.596341491E0
2.688496792E0,6.597916281E-1,4.144545631E0,1.658944397E0,4.512724232E0
2.698442792E0,5.350798738E-1,3.856433435E0,1.602345396E0,4.210213781E0
2.708387792E0,3.213103473E-1,3.319810189E0,1.475112761E0,3.646962803E0
2.718333791E0,1.285393417E-1,2.663059990E0,1.327482698E0,2.978358808E0
2.728279792E0,-2.794969082E-3,1.992036738E0,1.079631506E0,2.265793981E0
2.738225792E0,-9.147676528E-2,1.399521126E0,7.908123820E-1,1.610096769E0
2.748170792E0,-2.664652187E-1,8.708126709E-1,5.877100772E-1,1.083845725E0
2.758116791E0,-4.619551796E-1,4.350226119E-1,4.270824585E-1,7.648834468E-1
2.768062792E0,-6.266022474E-1,3.552475870E-3,4.165708458E-1,7.524455237E-1
2.778008792E0,-6.411126977E-1,-3.697878581E-1,4.336055392E-1,8.577775439E-1
2.787954791E0,-5.047152829E-1,-5.606070632E-1,3.599814928E-1,8.358256225E-1
2.797899792E0,-2.868339944E-1,-6.249308208E-1,1.873349223E-1,7.126756936E-1
2.807845792E0,-5.622507155E-2,-6.858406815E-1,1.889476575E-2,6.884008362E-1
2.817791792E0,1.289638495E-1,-8.944254819E-1,-7.206342459E-2,9.065438513E-1
2.827737791E0,2.996417356E-1,-1.346544768E0,5.849554539E-3,1.379493457E0
2.837682792E0,4.893376905E-1,-1.821494507E0,5.271206439E-2,1.886815353E0
2.847628792E0,9.153950590E-1,-2.192639504E0,3.434120916E-2,2.376298682E0
2.857574792E0,1.355976911E0,-2.400721151E0,4.511126876E-2,2.757566038E0
2.867520791E0,1.604875340E0,-2.454353275E0,-1.679780804E-2,2.932534232E0
2.877466792E0,1.628842492E0,-2.327178966E0,5.653493743E-2,2.841141672E0
2.887411791E0,1.483351488E0,-1.835325511E0,1.357835303E-1,2.363723447E0
2.897357792E0,1.228864290E0,-1.109713823E0,2.125363487E-1,1.669354340E0
2.907303791E0,9.454064780E-1,-1.746800128E-1,3.023617872E-1,1.007833898E0
2.917249792E0,6.821578127E-1,8.002756619E-1,4.576861274E-1,1.146846549E0
2.927194791E0,2.085573184E-1,1.615616967E0,6.564148611E-1,1.756301458E0
2.937140792E0,-3.094451773E-1,2.223200853E0,7.806793034E-1,2.376518152E0
2.947086792E0,-8.287340605E-1,2.632037587E0,8.749007517E-1,2.894801086E0
2.957032792E0,-1.214148018E0,2.895538267E0,9.689678335E-1,3.285908692E0
2.966978792E0,-1.521836691E0,3.062849911E0,9.809563798E-1,3.557992681E0
2.976923792E0,-1.791628976E0,3.177746822E0,9.367789114E-1,3.766372788E0
2.986869792E0,-1.944992087E0,3.282777725E0,8.727980930E-1,3.914256037E0
2.996815792E0,-1.905756100E0,3.332585478E0,8.529853874E-1,3.932634785E0
3.006761792E0,-1.772353045E0,3.396145004E0,8.840908206E-1,3.931494981E0
3.016706792E0,-1.470513341E0,3.367376119E0,9.737315601E-1,3.801287224E0
3.026652792E0,-1.078776205E0,3.308657502E0,1.042297765E0,3.632816703E0
3.036598791E0,-6.842604715E-1,3.171189462E0,1.083187856E0,3.420226736E0
3.046544792E0,-4.811779010E-1,2.914475060E0,1.145503972E0,3.168260784E0
3.056490791E0,-2.485253763E-1,2.647754610E0,1.115919546E0,2.884032901E0
3.066435792E0,-1.534899956E-1,2.393244609E0,9.740584926E-1,2.588429810E0
3.076381791E0,-1.187160194E-1,2.210489591E0,8.701593176E-1,2.378557328E0
3.086327792E0,-8.283867359E-2,2.095164665E0,6.936820900E-1,2.208567875E0
3.096273792E0,-8.630256414E-2,2.018554153E0,6.850275531E-1,2.133370983E0
3.106218792E0,-1.534432179E-1,1.996306667E0,7.983985595E-1,2.155510471E0
3.116164791E0,-2.588831341E-1,1.976270890E0,9.581298731E-1,2.211488178E0
3.126110792E0,-2.897500008E-1,2.056183909E0,1.071850762E0,2.336816507E0
3.136056792E0,-4.026269907E-1,2.138222391E0,1.224518566E0,2.496707674E0
3.146001792E0,-4.504572147E-1,2.294493323E0,1.237311763E0,2.645477595E0
3.155947791E0,-5.276334447E-1,2.445589761E0,1.215785823E0,2.781625693E0
3.165893792E0,-5.497622323E-1,2.624749618E0,1.191592968E0,2.934526004E0
3.175839792E0,-4.161866838E-1,2.946805485E0,1.005502991E0,3.141322999E0
3.185785791E0,-3.456487978E-1,3.261390657E0,7.960206431E-1,3.374876438E0
3.195730791E0,-2.935559535E-1,3.588337720E0,6.327114183E-1,3.655498110E0
3.205676792E0,-2.409473848E-1,3.804130091E0,6.585480715E-1,3.868222713E0
3.215622792E0,-1.641038615E-1,3.975406147E0,7.806576687E-1,4.054652946E0
3.225568791E0,-1.145890546E-1,4.001474789E0,9.319366859E-1,4.110162664E0
3.235514792E0,-9.195214391E-2,4.000157411E0,1.043930308E0,4.135154773E0
3.245459792E0,-1.107363242E-1,3.837547513E0,1.242023010E0,4.035053235E0
3.255405792E0,-1.552962005E-1,3.431456340E0,1.430692048E0,3.721006484E0
3.265351791E0,-2.779976821E-1,2.913616689E0,1.428717443E0,3.256943115E0
3.275297792E0,-2.569325030E-1,2.274327738E0,1.414457254E0,2.690589209E0
3.285242792E0,3.146386743E-3,1.694327214E0,1.379524818E0,2.184912660E0
3.295188792E0,4.358812755E-1,1.270656387E0,1.222830548E0,1.816555722E0
3.305134791E0,1.046166283E0,9.048972604E-1,1.042740838E0,1.732227294E0
3.315080792E0,1.706402884E0,5.684721529E-1,8.353969628E-1,1.983143837E0
3.325025792E0,2.442971962E0,2.067306483E-1,6.105216734E-1,2.526576000E0
3.334971792E0,3.267515908E0,-2.956787851E-1,6.081167136E-1,3.336748730E0
3.344917791E0,3.987010531E0,-7.277389053E-1,5.307108343E-1,4.087482218E0
3.354863792E0,4.620779126E0,-9.123024666E-1,3.783896971E-1,4.725153361E0
3.364809792E0,5.010270347E0,-9.912667751E-1,1.218950044E-1,5.108843036E0
3.374754792E0,5.203646539E0,-9.380457106E-1,-2.545485932E-1,5.293643551E0
3.384700791E0,5.396766039E0,-6.777381948E-1,-7.093526280E-1,5.485215939E0
3.394646792E0,5.384131960E0,-4.962055376E-1,-1.193918844E0,5.537195961E0
3.404592792E0,5.362623562E0,-3.954673675E-1,-1.445771871E0,5.568157883E0
3.414537792E0,5.543407191E0,-2.012842593E-1,-1.511857395E0,5.749399223E0
3.424483791E0,6.066838242E0,-1.761289528E-1,-1.478914620E0,6.246978159E0
3.434429792E0,6.772167401E0,-7.434164599E-1,-1.099490697E0,6.900999864E0
3.444375792E0,7.051224598E0,-1.842554716E0,-4.022685564E-1,7.299081874E0
3.454321791E0,6.533609188E0,-3.151038203E0,2.163703680E-1,7.256990210E0
3.464266791E0,5.200592539E0,-3.735006062E0,-6.799317777E-2,6.403206705E0
3.474212792E0,3.084533726E0,-3.724370269E0,-9.049047156E-1,4.919769786E0
3.484158792E0,1.013959234E0,-3.866921293E0,-9.866667706E-1,4.117609128E0
3.494104791E0,-8.017836589E-1,-4.051573732E0,-5.952607329E-1,4.172821837E0
3.504049791E0,-2.158423644E0,-3.884012120E0,-4.014318198E-1,4.461556935E0
3.513995792E0,-3.709167216E0,-3.938772172E0,-2.374144971E-2,5.410398443E0
3.523941792E0,-4.765911112E0,-3.897368915E0,3.673538084E-1,6.167523166E0
3.533887791E0,-5.189784545E0,-3.431861259E0,2.624972981E-1,6.227394332E0
3.543833792E0,-5.362924109E0,-2.674429608E0,-2.702466130E-2,5.992850662E0
3.553778792E0,-5.484509942E0,-1.742043710E0,-4.647871323E-1,5.773265339E0
3.563724792E0,-5.522708048E0,-1.088729043E0,-6.261655334E-1,5.663719483E0
3.573670791E0,-5.416524950E0,-6.069482937E-1,-6.613832402E-1,5.490405865E0
3.583616792E0,-5.088241214E0,-2.381828213E-1,-6.831052078E-1,5.139412654E0
3.593561792E0,-4.704725847E0,-3.196614325E-2,-6.770305355E-1,4.753297537E0
3.603507792E0,-4.242836741E0,7.375794768E-2,-7.607531619E-1,4.311130852E0
3.613453791E0,-3.658218087E0,5.588856429E-2,-9.207803446E-1,3.772733697E0
3.623399792E0,-2.887652712E0,-4.941248059E-2,-1.051717776E0,3.073611892E0
3.633345792E0,-2.177739336E0,-2.728062317E-1,-1.207696273E0,2.505095237E0
3.643290792E0,-1.722416654E0,-7.535762894E-1,-1.074394740E0,2.165391514E0
3.653236791E0,-1.414758970E0,-1.436475529E0,-6.544368211E-1,2.119738767E0
3.663182792E0,-9.977033901E-1,-2.119059019E0,-1.039893682E-1,2.344490770E0
3.673128792E0,-4.775859565E-1,-2.804632190E0,4.212918147E-1,2.876027966E0
3.683073792E0,-2.117978454E-1,-3.467433673E0,7.576276790E-1,3.555552602E0
3.693019792E0,-5.030301154E-2,-3.871674203E0,8.199573898E-1,3.957868321E0
3.702965792E0,1.275552553E-1,-3.894043603E0,5.917569351E-1,3.940814915E0
3.712911792E0,7.680200815E-2,-3.648279867E0,2.121744061E-1,3.655251361E0
3.722856792E0,-1.727565712E-1,-3.172009826E0,-2.274679448E-1,3.184844241E0
3.732802792E0,-4.697120959E-1,-2.503620745E0,-5.992812784E-1,2.616846258E0
3.742748792E0,-7.791514260E-1,-1.879708216E0,-7.211920702E-1,2.158818641E0
3.752694792E0,-1.029158487E0,-1.363105837E0,-6.703571083E-1,1.834830609E0
3.762640791E0,-1.420574026E0,-1.012493630E0,-4.869223519E-1,1.811150819E0
3.772585917E0,-1.794496450E0,-7.424519616E-1,-2.361976916E-1,1.956333759E0
3.782531917E0,-2.231096933E0,-5.888625634E-1,5.398017928E-2,2.308130522E0
3.792477916E0,-2.629106963E0,-5.213509038E-1,4.167549600E-1,2.712507121E0
3.802423917E0,-3.014609798E0,-5.110504487E-1,7.353557807E-1,3.144804114E0
3.812368917E0,-3.264137971E0,-5.841023451E-1,9.630334944E-1,3.452999530E0
3.822314917E0,-3.297594570E0,-7.663699973E-1,1.142573932E0,3.573083838E0
3.832260916E0,-3.282781819E0,-1.040370523E0,1.146602737E0,3.629562664E0
3.842206917E0,-3.157915113E0,-1.307049165E0,9.234267213E-1,3.540271499E0
3.852152917E0,-2.763682385E0,-1.384359296E0,5.140771137E-1,3.133475110E0
3.862097917E0,-2.270359232E0,-1.325709384E0,-1.728034951E-2,2.629131991E0
3.872043916E0,-1.815427144E0,-1.218624354E0,-4.365788484E-1,2.229668612E0
3.881989917E0,-1.398387936E0,-1.213791922E0,-5.649316639E-1,1.935956465E0
3.891935917E0,-8.389772129E-1,-1.215995738E0,-5.651060571E-1,1.581731094E0
3.901880917E0,-1.722987342E-1,-1.167635464E0,-5.628085399E-1,1.307598135E0
3.911826917E0,7.191391128E-1,-1.029348521E0,-6.617845054E-1,1.419393594E0
3.921772917E0,1.750955744E0,-8.836870703E-1,-7.067488629E-1,2.084764450E0
3.931718917E0,2.905397258E0,-5.885766345E-1,-5.330848769E-1,3.011965333E0
3.941664916E0,3.778131031E0,-2.252008331E-1,-6.715024316E-1,3.843943941E0
3.951609917E0,4.324884287E0,1.111526459E-1,-7.942337340E-1,4.398611852E0
3.961555917E0,4.374811907E0,4.491334051E-1,-8.255567566E-1,4.474622218E0
3.971501917E0,3.717528734E0,7.117663586E-1,-8.173116709E-1,3.872289969E0
3.981447916E0,2.612288032E0,5.997617733E-1,-4.582821049E-1,2.719151602E0
3.991392917E0,1.177418733E0,1.039509228E-1,1.745836799E-1,1.194822216E0
4.001338916E0,-2.986360145E-1,-4.256653127E-1,6.571007395E-1,8.379473787E-1
4.011284917E0,-1.551061075E0,-9.722504604E-1,9.949539562E-1,2.083505410E0
4.021230916E0,-2.707062042E0,-1.379405827E0,1.261886441E0,3.289878831E0
4.031176917E0,-3.599462925E0,-1.640341626E0,1.336332752E0,4.175241218E0
4.041121916E0,-4.178292836E0,-1.769070710E0,1.227669119E0,4.700522701E0
4.051067917E0,-4.305170399E0,-1.791859356E0,8.746401121E-1,4.744496543E0
4.061013917E0,-4.043933176E0,-1.728558861E0,3.164770389E-1,4.409248120E0
4.070959917E0,-3.563010213E0,-1.794251160E0,-9.410333455E-2,3.990392768E0
4.080904916E0,-2.856376541E0,-2.024134735E0,-1.970570878E-1,3.506399844E0
4.090850917E0,-1.906861224E0,-2.089329728E0,-3.984713745E-1,2.856606007E0
4.100796917E0,-8.562627518E-1,-2.053397711E0,-6.016650420E-1,2.304697135E0
4.110742917E0,1.331978184E-1,-1.967469369E0,-8.507768941E-1,2.147672857E0
4.120688917E0,9.213872856E-1,-1.849345964E0,-1.139911183E0,2.359752642E0
4.130633917E0,1.246475519E0,-1.777452986E0,-1.242594722E0,2.501415995E0
4.140579917E0,1.032340541E0,-1.718488202E0,-1.147207997E0,2.309765114E0
4.150525916E0,3.080260581E-1,-1.551826183E0,-9.268656150E-1,1.833609671E0
4.160471917E0,-5.264066988E-1,-1.381709045E0,-5.800747830E-1,1.588304333E0
4.170416917E0,-1.173192365E0,-1.206461560E0,-8.594705343E-2,1.685027216E0
4.180362917E0,-1.579622970E0,-1.092821509E0,4.494181645E-1,1.972674394E0
4.190308916E0,-1.830539272E0,-9.400852194E-1,8.609970962E-1,2.230683807E0
4.200254917E0,-1.938602250E0,-7.180804744E-1,1.034489978E0,2.311706678E0
4.210200917E0,-1.863188370E0,-4.597206661E-1,9.231267592E-1,2.129548546E0
4.220145917E0,-1.657047122E0,-2.737195668E-1,7.591813572E-1,1.843117982E0
4.230091916E0,-1.431181460E0,-2.184470066E-1,4.534270155E-1,1.517101027E0
4.240037917E0,-1.288443909E0,-2.680179468E-1,9.984588504E-2,1.319807004E0
4.249983917E0,-1.302156799E0,-4.737802961E-1,-1.785388827E-1,1.397124272E0
4.259928917E0,-1.462709647E0,-8.563144997E-1,-4.116586000E-1,1.744206650E0
4.269874916E0,-1.799194688E0,-1.234600993E0,-6.990305382E-1,2.291284538E0
4.279820917E0,-2.072669549E0,-1.626027058E0,-9.364983912E-1,2.795881308E0
4.289766917E0,-2.319340189E0,-1.939780171E0,-1.078923701E0,3.210321226E0
4.299711917E0,-2.622341734E0,-2.149659545E0,-1.179143223E0,3.589998756E0
4.309657916E0,-2.981540869E0,-2.311594674E0,-1.208617136E0,3.961541528E0
4.319603917E0,-3.229841128E0,-2.311368387E0,-1.206589907E0,4.150922396E0
4.329549917E0,-3.394322720E0,-2.270584058E0,-1.158092369E0,4.244779926E0
4.339495916E0,-3.585358856E0,-2.163787880E0,-1.089635069E0,4.327133081E0
4.349440916E0,-3.756341967E0,-2.058888246E0,-9.848295754E-1,4.395340155E0
4.359386917E0,-3.827840551E0,-1.992370029E0,-8.901958984E-1,4.406171847E0
4.369332917E0,-3.837578503E0,-1.945403439E0,-8.386076689E-1,4.383476489E0
4.379278916E0,-3.707788442E0,-1.916345700E0,-9.111517346E-1,4.272033879E0
4.389223916E0,-3.405788525E0,-1.886314985E0,-1.010934908E0,4.022383508E0
4.399169917E0,-2.972538496E0,-1.878178585E0,-1.122587637E0,3.691035480E0
4.409115917E0,-2.459555250E0,-1.910449076E0,-1.160141818E0,3.323425453E0
4.419061916E0,-1.873346153E0,-1.958174927E0,-1.095356423E0,2.922957500E0
4.429007917E0,-1.458396156E0,-2.045755692E0,-9.227099258E-1,2.676458352E0
4.438952917E0,-1.197514443E0,-2.215151284E0,-6.723960324E-1,2.606348495E0
4.448898917E0,-1.004858043E0,-2.445916328E0,-3.694873112E-1,2.669975139E0
4.458844916E0,-8.509903175E-1,-2.647966572E0,-2.564084463E-1,2.793144604E0
4.468790917E0,-6.739962691E-1,-2.694401943E0,-4.845209004E-1,2.819367536E0
4.478735917E0,-2.778889239E-1,-2.568927419E0,-9.082159938E-1,2.738880543E0
4.488681917E0,2.827152157E-1,-2.294457655E0,-1.354497127E0,2.679389163E0
4.498627916E0,9.634802216E-1,-1.942975382E0,-1.611230240E0,2.701760604E0
4.508573917E0,1.757448492E0,-1.732872060E0,-1.517376582E0,2.897223234E0
4.518519917E0,2.631912457E0,-1.591610054E0,-1.274164716E0,3.329216345E0
4.528464917E0,3.448533425E0,-1.576008806E0,-9.248421130E-1,3.902757932E0
4.538410916E0,4.116208854E0,-1.725272726E0,-4.472090864E-1,4.485503013E0
4.548356917E0,4.651878712E0,-1.972911957E0,-4.245838702E-2,5.053133667E0
4.558302917E0,5.211850768E0,-2.146395045E0,2.102059409E-1,5.640442062E0
4.568247917E0,5.590668481E0,-2.319670556E0,2.577721632E-1,6.058291182E0
4.578193916E0,5.787540139E0,-2.399038907E0,3.034476882E-1,6.272406957E0
4.588139917E0,5.971878290E0,-2.285157366E0,4.754531845E-1,6.411811774E0
4.598085917E0,5.892274296E0,-1.969769663E0,7.412921664E-1,6.256868465E0
4.608031916E0,5.671606225E0,-1.348921076E0,1.050552279E0,5.923712124E0
4.617976916E0,5.325268625E0,-4.919943729E-1,1.255493680E0,5.493342222E0
4.627922917E0,4.902967508E0,5.024024168E-1,1.380914117E0,5.118439447E0
4.637868917E0,4.474518043E0,1.490797624E0,1.336897447E0,4.902150963E0
4.647814916E0,4.183398625E0,2.380891196E0,1.280422699E0,4.980858282E0
4.657759917E0,4.143275616E0,2.907146745E0,1.199622949E0,5.201666103E0
4.667705917E0,4.320078460E0,3.276568567E0,1.201771655E0,5.553668570E0
4.677651917E0,4.337413700E0,3.563931735E0,1.273912847E0,5.756528551E0
4.687597916E0,4.128433628E0,3.645840409E0,1.421055252E0,5.688190796E0
4.697543917E0,3.447140619E0,3.611898783E0,1.606007361E0,5.244792742E0
4.707488917E0,2.359198903E0,3.183262208E0,1.833181775E0,4.365722526E0
4.717434917E0,1.182393544E0,2.657784339E0,1.841013536E0,3.442557614E0
4.727380916E0,1.972125506E-1,2.189538141E0,1.608213077E0,2.723842756E0
4.737326917E0,-5.618542743E-1,1.852127485E0,1.095849051E0,2.224172113E0
4.747271916E0,-1.086138434E0,1.673020253E0,5.325519763E-1,2.064535074E0
4.757217917E0,-1.393038903E0,1.641146203E0,4.799160719E-2,2.153188668E0
4.767163916E0,-1.653185620E0,1.707625537E0,-3.445202851E-1,2.401604026E0
4.777110500E0,-1.902824891E0,1.863418751E0,-6.420244248E-1,2.739574304E0
4.787056500E0,-2.086718069E0,2.204129575E0,-7.762558848E-1,3.132914407E0
4.797001500E0,-2.228171571E0,2.624176590E0,-7.389828086E-1,3.520958239E0
4.806947500E0,-2.271933888E0,3.065382925E0,-6.216976029E-1,3.865845830E0
4.816893500E0,-2.170253731E0,3.493179840E0,-4.898977076E-1,4.141534307E0
4.826839500E0,-2.043784304E0,3.870096039E0,-4.122637868E-1,4.395982150E0
4.836784500E0,-1.839882538E0,4.288770713E0,-3.413089943E-1,4.679232182E0
4.846730500E0,-1.664802868E0,4.621007460E0,-2.693496501E-1,4.919128761E0
4.856676500E0,-1.592938249E0,4.968738744E0,-1.650493562E-1,5.220446174E0
4.866622500E0,-1.616440548E0,5.246923537E0,1.074022418E-1,5.491322417E0
4.876568500E0,-1.750889086E0,5.448791640E0,3.508896571E-1,5.733939874E0
4.886513500E0,-1.977715445E0,5.487038863E0,6.241211276E-1,5.865874278E0
4.896459500E0,-2.145217123E0,5.409424092E0,7.764757401E-1,5.870838107E0
4.906405500E0,-2.065479813E0,5.292954572E0,7.763153802E-1,5.734478227E0
4.916351500E0,-1.660903360E0,4.973564451E0,7.609373492E-1,5.298487423E0
4.926296500E0,-8.487970269E-1,4.580153841E0,6.953451844E-1,4.709752704E0
4.936242500E0,-1.972762853E-1,4.168830579E0,6.136559272E-1,4.218369345E0
4.946188500E0,2.252072650E-1,3.741542372E0,7.837794971E-1,3.829382187E0
4.956134500E0,6.437737656E-1,3.365918992E0,1.264136011E0,3.652655907E0
4.966080500E0,1.090449586E0,3.006385689E0,1.754798534E0,3.647842253E0
4.976025500E0,1.401478774E0,2.519220239E0,2.122317819E0,3.579782995E0
4.985971500E0,1.611676236E0,1.726712603E0,2.341917311E0,3.326201046E0
4.995917500E0,1.560832357E0,7.059793693E-1,2.475231636E0,3.010211980E0
5.005863500E0,1.429752401E0,-3.387517145E-1,2.508537961E0,2.907182029E0
5.015808500E0,1.172238684E0,-1.106435289E0,2.248255588E0,2.766404846E0
5.025754500E0,3.732856625E-1,-1.745062627E0,1.805972781E0,2.538921709E0
5.035700500E0,-6.090763879E-1,-2.448554007E0,1.475289200E0,2.922818673E0
5.045646500E0,-7.983548516E-1,-2.739696229E0,1.163493589E0,3.081724068E0
5.055592500E0,-7.834310031E-1,-2.777706055E0,5.357949883E-1,2.935386062E0
5.065537500E0,-3.719840723E-1,-2.390243233E0,-5.309667961E-1,2.476602633E0
5.075483500E0,1.718584388E-1,-1.736283326E0,-1.307029869E0,2.180032612E0
5.085429500E0,5.805349588E-1,-1.074584628E0,-1.389677777E0,1.850123587E0
5.095375500E0,7.700595903E-1,-5.741471681E-1,-1.036930167E0,1.413457079E0
5.105320500E0,8.199158746E-1,-2.313602901E-1,-5.222195077E-1,9.992511393E-1
5.115266500E0,9.494527513E-1,2.013547182E-2,-1.066083361E-1,9.556313627E-1
5.125212500E0,8.021964723E-1,1.832236719E-1,2.065843217E-1,8.483909335E-1
5.135158500E0,4.030778110E-1,2.375273484E-1,4.475776072E-1,6.474694413E-1
5.145104500E0,4.898037136E-2,1.639091492E-1,6.674087960E-1,6.889846057E-1
5.155049500E0,-1.625771534E-1,1.242890006E-1,7.336001542E-1,7.616090026E-1
5.164995500E0,-3.009889340E-1,6.546893477E-2,6.485883629E-1,7.180162842E-1
5.174941500E0,-3.854022628E-1,4.526855886E-2,5.051935852E-1,6.370280254E-1
5.184887500E0,-4.954351670E-1,1.166817731E-1,3.403963901E-1,6.123237242E-1
5.194832500E0,-5.928585505E-1,2.963985774E-1,1.913631423E-1,6.898936366E-1
5.204778500E0,-6.306906205E-1,5.567435154E-1,1.493754561E-1,8.544278950E-1
5.214724500E0,-6.365354973E-1,8.481582186E-1,1.768999082E-1,1.075101568E0
5.224670500E0,-6.194288832E-1,1.167286093E0,1.654200697E-1,1.331770537E0
5.234615500E0,-5.664764982E-1,1.425358803E0,1.860683423E-1,1.545045232E0
5.244561500E0,-4.725988662E-1,1.709229136E0,2.740473032E-1,1.794412397E0
5.254507500E0,-4.027030045E-1,1.982073959E0,3.840609115E-1,2.058710682E0
5.264453500E0,-4.812176621E-1,2.187431974E0,4.842897892E-1,2.291498566E0
5.274399500E0,-6.281353873E-1,2.315395949E0,6.458964510E-1,2.484510956E0
5.284344500E0,-7.641843081E-1,2.330963576E0,8.146621513E-1,2.584771416E0
5.294290500E0,-8.681337690E-1,2.264432495E0,9.285536331E-1,2.596829338E0
5.304236500E0,-9.336570829E-1,2.143535171E0,9.940839636E-1,2.540602587E0
5.314182500E0,-9.595421219E-1,1.985032066E0,1.037194315E0,2.436564268E0
5.324128500E0,-9.766709554E-1,1.817993487E0,1.033671368E0,2.308129756E0
5.334073500E0,-9.959661824E-1,1.639645808E0,9.442259252E-1,2.138211778E0
5.344019500E0,-9.431558847E-1,1.575711767E0,9.414579995E-1,2.063674820E0
5.353965500E0,-7.722791934E-1,1.651121261E0,9.735136051E-1,2.066481384E0
5.363911500E0,-6.262081450E-1,1.797691661E0,9.333922040E-1,2.120153994E0
5.373856500E0,-5.237544018E-1,1.941329099E0,1.055121294E0,2.270761609E0
5.383802500E0,-3.534291029E-1,2.175290230E0,1.137845947E0,2.480220376E0
5.393748500E0,-1.514656895E-1,2.513656321E0,1.169484646E0,2.776527380E0
5.403694500E0,-5.557661533E-2,2.784123959E0,1.115168105E0,2.999672462E0
5.413639500E0,-3.277481318E-2,3.037052288E0,1.099819310E0,3.230226510E0
5.423585500E0,-5.848852873E-2,3.232183523E0,1.177551464E0,3.440502679E0
5.433531500E0,5.323772907E-2,3.495290101E0,1.086086540E0,3.660528803E0
5.443477500E0,-2.754798710E-2,3.640501316E0,1.010701751E0,3.778296806E0
5.453423500E0,5.884170055E-2,3.897442297E0,9.063422535E-1,4.001871448E0
5.463368500E0,-8.358594775E-3,4.000115311E0,7.440437199E-1,4.068733639E0
5.473314500E0,-1.302607620E-1,4.022689949E0,7.317819625E-1,4.090783193E0
5.483260500E0,-1.848211312E-1,3.993176128E0,7.936308861E-1,4.075471068E0
5.493206500E0,-2.598759913E-1,3.775060951E0,7.820585154E-1,3.863966386E0
5.503151500E0,-3.486069041E-1,3.481122005E0,8.064636241E-1,3.590281432E0
5.513097500E0,-4.367636204E-1,3.106221341E0,9.314076591E-1,3.272139011E0
5.523043500E0,-4.923414052E-1,2.646360050E0,9.649122047E-1,2.859488964E0
5.532989500E0,-5.731855935E-1,2.233092003E0,8.498534726E-1,2.457130958E0
5.542935500E0,-5.326024085E-1,1.839911482E0,8.432041651E-1,2.092828911E0
5.552880500E0,-4.184092104E-1,1.357038473E0,9.015751648E-1,1.682099124E0
5.562826500E0,-1.916220278E-1,8.715292472E-1,9.016155106E-1,1.268539617E0
5.572772500E0,1.630700737E-1,3.665444076E-1,8.595528339E-1,9.485661421E-1
5.582718500E0,6.441871637E-1,-6.738799095E-2,8.265179658E-1,1.050071517E0
5.592663500E0,1.157293201E0,-5.010154572E-1,7.831648086E-1,1.484483465E0
5.602609500E0,1.704490260E0,-8.920284158E-1,7.397862160E-1,2.061136916E0
5.612555500E0,2.464376864E0,-1.270852269E0,7.243314403E-1,2.865811378E0
5.622501500E0,3.236056718E0,-1.576980028E0,6.930997074E-1,3.665967307E0
5.632447500E0,3.844927869E0,-1.845605793E0,6.121069998E-1,4.308643178E0
5.642392500E0,4.110224229E0,-1.904286110E0,4.398164517E-1,4.551229209E0
5.652338500E0,4.071739025E0,-1.675546250E0,2.228154615E-1,4.408646125E0
5.662284500E0,3.785134242E0,-1.267917843E0,-2.005391778E-1,3.996882891E0
5.672230500E0,3.531800700E0,-9.153745937E-1,-8.649335879E-1,3.749618239E0
5.682175500E0,3.692309693E0,-7.786260536E-1,-1.334823439E0,4.002644503E0
5.692121500E0,4.363874690E0,-7.971321988E-1,-1.376681317E0,4.644789931E0
5.702067500E0,5.249838374E0,-8.374803257E-1,-1.187500356E0,5.447231713E0
5.712013500E0,6.069620932E0,-8.322988155E-1,-7.934876293E-1,6.177591941E0
5.721959500E0,6.415622317E0,-5.820157662E-1,-1.068061182E0,6.529908633E0
5.731904500E0,6.292392247E0,3.133464396E-2,-1.802283772E0,6.545487670E0
5.741850500E0,5.541306286E0,5.315224278E-1,-2.272531473E0,6.012735712E0
5.751796500E0,3.978491138E0,5.418170357E-1,-1.939441910E0,4.459079766E0
5.761742500E0,2.053892970E0,2.024270976E-1,-1.123377596E0,2.349772390E0
5.771687500E0,3.348899209E-1,-1.482222390E-1,-3.547705273E-1,5.098854953E-1
5.781633125E0,-9.599601978E-1,-5.334365138E-1,3.042937072E-1,1.139593241E0
5.791579125E0,-2.095980059E0,-9.576297900E-1,8.182206937E-1,2.445336853E0
5.801525125E0,-3.150234210E0,-1.283978975E0,9.783864554E-1,3.539748246E0
5.811471125E0,-4.173283526E0,-1.675192493E0,1.012059401E0,4.609428328E0
5.821416125E0,-4.895262047E0,-2.087196664E0,1.139577307E0,5.442298858E0
5.831362125E0,-5.153041227E0,-2.229786865E0,9.254294658E-1,5.690536270E0
5.841308125E0,-5.060087455E0,-2.215211803E0,4.954041767E-1,5.545906029E0
5.851254125E0,-4.815704831E0,-2.031699863E0,-1.142428994E-1,5.227988982E0
5.861199125E0,-4.448338305E0,-1.931335038E0,-5.905950203E-1,4.885342483E0
5.871145125E0,-3.749168603E0,-1.860477601E0,-8.171367661E-1,4.264428990E0
5.881091125E0,-2.858351730E0,-1.802658579E0,-1.025180626E0,3.531394608E0
5.891037125E0,-2.176027272E0,-1.808437674E0,-1.133069356E0,3.047849681E0
5.900983125E0,-1.809369428E0,-1.796637116E0,-1.304350675E0,2.864097299E0
5.910928125E0,-1.614413903E0,-1.747707323E0,-1.447392281E0,2.784916076E0
5.920874125E0,-1.620099735E0,-1.712801785E0,-1.527757582E0,2.809351586E0
5.930820125E0,-1.951149790E0,-1.677975476E0,-1.635973756E0,3.049425738E0
5.940766125E0,-2.358936363E0,-1.670762643E0,-1.641580651E0,3.324276705E0
5.950711125E0,-2.786269594E0,-1.855925252E0,-1.513008565E0,3.673819771E0
5.960657125E0,-3.153154895E0,-2.130367827E0,-1.329341090E0,4.030880871E0
5.970603125E0,-3.556241477E0,-2.444685196E0,-1.086879203E0,4.450241067E0
5.980549125E0,-3.922684727E0,-2.728968050E0,-7.585727352E-1,4.838404147E0
5.990495125E0,-4.019568998E0,-2.823062322E0,-5.479390705E-1,4.942352985E0
6.000440125E0,-3.880002977E0,-2.730594454E0,-4.914070201E-1,4.769910904E0
6.010386125E0,-3.495199469E0,-2.544148673E0,-5.431565597E-1,4.357078247E0
6.020332125E0,-3.011417803E0,-2.299205009E0,-5.538833499E-1,3.829068767E0
6.030278125E0,-2.521020012E0,-2.109077822E0,-3.907530499E-1,3.310051224E0
6.040223125E0,-2.123630372E0,-1.951817249E0,-1.719292632E-1,2.889456040E0
6.050169125E0,-1.830439285E0,-1.817762522E0,1.565053316E-1,2.584426915E0
6.060115125E0,-1.596502127E0,-1.665470620E0,3.670395937E-1,2.336092783E0
6.070061125E0,-1.376442166E0,-1.432221095E0,3.774868139E-1,2.021966022E0
6.080007125E0,-1.311057431E0,-1.224929114E0,2.881180064E-1,1.817232761E0
6.089952125E0,-1.262537236E0,-1.090189385E0,1.946479619E-1,1.679404953E0
6.099898125E0,-1.151866985E0,-9.687222505E-1,7.919165555E-2,1.507146863E0
6.109844125E0,-9.423296732E-1,-9.300838494E-1,-3.921848137E-2,1.324605326E0
6.119790125E0,-5.288607752E-1,-9.349247593E-1,-1.604482188E-1,1.086057851E0
6.129735125E0,3.092627442E-1,-9.986506391E-1,-3.341315371E-1,1.097538349E0
6.139681125E0,1.397849407E0,-1.080498794E0,-5.573951876E-1,1.852606274E0
6.149627125E0,2.527399909E0,-1.257056056E0,-6.608967519E-1,2.899090330E0
6.159573125E0,3.683141844E0,-1.417925822E0,-6.595085498E-1,4.001374639E0
6.169519125E0,4.366631067E0,-1.582469979E0,-7.249050522E-1,4.700762220E0
6.179464125E0,4.701412230E0,-1.555025488E0,-8.753351998E-1,5.028677056E0
6.189410125E0,4.391283513E0,-1.278129421E0,-1.148925251E0,4.715613952E0
6.199356125E0,3.181730822E0,-9.771989590E-1,-1.269358013E0,3.562246285E0
6.209302125E0,1.780961900E0,-7.346564537E-1,-1.011520288E0,2.175940874E0
6.219247125E0,6.276518226E-1,-4.547636890E-1,-5.244010673E-1,9.358169173E-1
6.229193125E0,-1.905250901E-1,-1.126045096E-1,-2.304859120E-2,2.225102764E-1
6.239139125E0,-8.850047404E-1,2.632007182E-1,3.721442860E-1,9.954895168E-1
6.249085125E0,-1.490844110E0,6.635929030E-1,6.351081920E-1,1.751095119E0
6.259031125E0,-1.904390191E0,1.040849410E0,7.009332222E-1,2.280652730E0
6.268976125E0,-2.124624984E0,1.270206444E0,7.316533238E-1,2.581234650E0
6.278922125E0,-2.247503636E0,1.293624542E0,7.288951921E-1,2.693701032E0
6.288868125E0,-2.263563598E0,1.051403049E0,7.010238540E-1,2.592412579E0
6.298814125E0,-2.076353295E0,6.124163175E-1,5.890613322E-1,2.243499499E0
6.308759125E0,-1.852138302E0,6.199919701E-2,3.364318317E-1,1.883466636E0
6.318705125E0,-1.743670698E0,-5.292186248E-1,-1.452740729E-2,1.822270809E0
6.328651125E0,-1.755300810E0,-1.009505995E0,-4.611611277E-1,2.076740926E0
6.338597125E0,-1.847443573E0,-1.326685869E0,-8.488958448E-1,2.427708241E0
6.348542125E0,-2.056527725E0,-1.633176448E0,-1.165218517E0,2.873030767E0
6.358488125E0,-2.193601078E0,-1.822637345E0,-1.366973185E0,3.162674228E0
6.368434125E0,-2.192878363E0,-1.948420894E0,-1.424764726E0,3.261136921E0
6.378380125E0,-2.150098379E0,-2.039633950E0,-1.493416300E0,3.318632540E0
6.388326125E0,-1.985434939E0,-1.977762222E0,-1.451164320E0,3.155847459E0
6.398271125E0,-1.751262138E0,-1.802227054E0,-1.408470290E0,2.880751636E0
6.408217125E0,-1.433620918E0,-1.505196685E0,-1.255307738E0,2.428308777E0
6.418163125E0,-1.209047492E0,-1.155606864E0,-1.003551775E0,1.950471540E0
6.428109125E0,-1.054481608E0,-8.492215347E-1,-7.221814191E-1,1.534488410E0
6.438055125E0,-9.755553067E-1,-5.273375756E-1,-4.375190806E-1,1.192147651E0
6.448000125E0,-1.087172806E0,-3.158244896E-1,-2.105424482E-1,1.151528524E0
6.457946125E0,-1.269527582E0,-1.649476147E-1,-1.715050478E-2,1.280313296E0
6.467892125E0,-1.581229200E0,-1.342760450E-1,7.802287024E-2,1.588837124E0
6.477838125E0,-1.906085299E0,-1.901748419E-1,1.052843438E-1,1.918440103E0
6.487783125E0,-2.230096475E0,-2.975542796E-1,8.530619860E-2,2.251476401E0
6.497729125E0,-2.440257685E0,-4.312385863E-1,-2.484079935E-2,2.478193163E0
6.507675125E0,-2.582162007E0,-5.530805272E-1,-1.670461073E-1,2.646008901E0
6.517621125E0,-2.620802747E0,-6.950234413E-1,-3.553230160E-1,2.734578408E0
6.527566125E0,-2.616085213E0,-8.701808792E-1,-6.099335897E-1,2.823674130E0
6.537512125E0,-2.569616806E0,-1.125621758E0,-9.067435187E-1,2.948243321E0
6.547458125E0,-2.422406720E0,-1.387579358E0,-1.213808221E0,3.044135540E0
6.557404125E0,-2.193061965E0,-1.681873230E0,-1.511659613E0,3.150132240E0
6.567350125E0,-1.937861407E0,-2.014366377E0,-1.731105616E0,3.287811641E0
6.577295125E0,-1.750982056E0,-2.328371798E0,-1.847225472E0,3.449564514E0
6.587241125E0,-1.630927024E0,-2.513273621E0,-1.957313924E0,3.578763061E0
6.597187125E0,-1.559665253E0,-2.525189661E0,-2.051495612E0,3.608015074E0
6.607133125E0,-1.657841173E0,-2.372398408E0,-2.145745711E0,3.602906635E0
6.617078125E0,-1.861143014E0,-1.944635407E0,-2.195625384E0,3.473648084E0
6.627024125E0,-1.979709345E0,-1.243539632E0,-2.156395245E0,3.180515738E0
6.636970125E0,-2.049235078E0,-3.840749449E-1,-2.094256884E0,2.955129416E0
6.646916125E0,-2.109605241E0,4.346808422E-1,-1.922292026E0,2.886968711E0
6.656862125E0,-2.083395681E0,1.143463951E0,-1.680760505E0,2.910842360E0
6.666807125E0,-2.030257355E0,1.745553501E0,-1.456095861E0,3.047805294E0
6.676753125E0,-1.913624699E0,2.268615008E0,-1.151526165E0,3.183486462E0
6.686699125E0,-1.657928882E0,2.586663778E0,-8.184523165E-1,3.179531707E0
6.696645125E0,-1.194897230E0,2.522684714E0,-4.502321700E-1,2.827441699E0
6.706590125E0,-4.674188179E-1,2.127756168E0,4.094911102E-2,2.178876658E0
6.716536125E0,4.244224870E-1,1.463105503E0,5.562403260E-1,1.621793902E0
6.726482125E0,1.301593128E0,5.717278826E-1,9.733789730E-1,1.722928921E0
6.736428125E0,2.089384400E0,-4.824157566E-1,1.261578292E0,2.487937282E0
6.746374125E0,2.596257890E0,-1.466333751E0,1.371919929E0,3.282202613E0
6.756319125E0,2.955331895E0,-2.228338802E0,1.152666811E0,3.876612078E0
6.766265125E0,3.227046744E0,-2.918347671E0,9.993335208E-1,4.464219002E0
6.776210791E0,3.547782310E0,-3.512677966E0,6.620784011E-1,5.036269812E0
6.786156792E0,4.669643138E0,-3.844794552E0,6.988643311E-2,6.049206254E0
6.796101792E0,6.651097877E0,-4.016050728E0,-5.506317864E-1,7.789028295E0
6.806047792E0,8.108836221E0,-4.176327002E0,-9.694842158E-1,9.172504115E0
6.815993791E0,7.752582913E0,-4.389473215E0,-9.869084068E-1,8.963481753E0
6.825939792E0,6.437255260E0,-3.659471730E0,-1.020571924E0,7.474727800E0
6.835885792E0,5.005090299E0,-2.251196153E0,-1.363553879E0,5.654917523E0
6.845830792E0,3.775341325E0,-1.355536031E0,-1.609795333E0,4.322281928E0
6.855776791E0,3.046800474E0,-9.166773534E-1,-1.624065902E0,3.572237471E0
6.865722792E0,2.456193686E0,-8.998037508E-1,-9.466058151E-1,2.781833349E0
6.875668792E0,2.196365642E0,-9.938290250E-1,2.542339399E-1,2.424119028E0
6.885613792E0,1.948539593E0,-8.176427695E-1,1.455863727E0,2.566103161E0
6.895559791E0,1.553613970E0,-3.362830201E-1,2.377274986E0,2.859762052E0
6.905505792E0,1.243598689E0,3.410862154E-1,2.821896679E0,3.102576087E0
6.915451792E0,1.111096689E0,1.170349741E0,2.953873014E0,3.365950112E0
6.925397791E0,1.174417942E0,1.985279110E0,2.889188191E0,3.697025703E0
6.935342791E0,1.186229902E0,2.666146443E0,2.872081577E0,4.094426800E0
6.945288792E0,1.017785652E0,3.150683861E0,2.759157810E0,4.309947592E0
6.955234792E0,7.109524262E-1,3.470649057E0,2.580034790E0,4.382629091E0
6.965180791E0,3.415118927E-1,3.633655981E0,2.441781469E0,4.391171017E0
6.975125792E0,-1.538636327E-2,3.598687584E0,2.342567668E0,4.293997246E0
6.985071792E0,-4.186255574E-1,3.423527808E0,2.226965291E0,4.105504161E0
6.995017792E0,-7.975362414E-1,3.217473975E0,1.972320219E0,3.857233449E0
7.004963791E0,-1.053972901E0,2.978461141E0,1.548085427E0,3.518331726E0
7.014909792E0,-1.191391824E0,2.764450709E0,1.047152197E0,3.187182129E0
7.024854792E0,-1.291758696E0,2.583359809E0,5.589803678E-1,2.941912216E0
7.034800792E0,-1.323306763E0,2.461497988E0,8.273985565E-2,2.795882511E0
7.044746791E0,-1.179112086E0,2.338956720E0,-2.480002233E-1,2.631069737E0
7.054692792E0,-1.006175421E0,2.228994859E0,-4.973051065E-1,2.495620049E0
7.064637791E0,-9.183508265E-1,2.138611816E0,-6.476691806E-1,2.415885781E0
7.074583792E0,-7.545966285E-1,2.113091351E0,-6.410986644E-1,2.333576360E0
7.084529791E0,-5.553176719E-1,2.124760347E0,-5.837474557E-1,2.272387586E0
7.094475792E0,-4.148657978E-1,2.158792311E0,-4.981301486E-1,2.254025625E0
7.104421792E0,-2.768124515E-1,2.223835276E0,-3.239784318E-1,2.264294701E0
7.114366792E0,-2.216632676E-1,2.302616275E0,-7.968002597E-2,2.314632848E0
7.124312792E0,-3.133195424E-1,2.551646558E0,1.264296480E-1,2.573917976E0
7.134258792E0,-4.953509670E-1,2.799177323E0,3.621110487E-1,2.865639663E0
7.144204792E0,-5.831562656E-1,3.019713540E0,6.555178982E-1,3.144589768E0
7.154149792E0,-5.920071959E-1,3.217536832E0,9.850207794E-1,3.416618463E0
7.164095792E0,-5.492681426E-1,3.285532641E0,1.321966581E0,3.583854890E0
7.174041792E0,-4.621545696E-1,3.298867509E0,1.592820135E0,3.692314947E0
7.183987792E0,-4.431856173E-1,3.259994342E0,1.825058677E0,3.762288635E0
7.193933791E0,-5.498826849E-1,3.140745934E0,1.911132030E0,3.717402537E0
7.203878792E0,-6.061440092E-1,2.910665891E0,1.844236375E0,3.498656070E0
7.213824791E0,-6.279681569E-1,2.469109016E0,1.806993120E0,3.123470422E0
7.223770792E0,-3.611906970E-1,1.935563452E0,1.784305923E0,2.657181255E0
7.233716791E0,3.752216756E-2,1.436689830E0,1.684732518E0,2.214454614E0
7.243661792E0,3.232785201E-1,1.053540791E0,1.467031324E0,1.834840076E0
7.253607791E0,5.833188182E-1,8.215557262E-1,1.213594286E0,1.577347694E0
7.263553792E0,9.630124444E-1,5.894507933E-1,9.156470740E-1,1.453703811E0
7.273499792E0,1.529937424E0,2.391324091E-1,5.435068810E-1,1.641125394E0
7.283445792E0,1.892365977E0,-1.687287167E-1,3.608094585E-1,1.933830870E0
7.293390791E0,1.992296646E0,-5.131677255E-1,2.503602143E-1,2.072502661E0
7.303336792E0,1.779711766E0,-7.839835650E-1,2.988161087E-2,1.944967123E0
7.313282792E0,1.601863439E0,-1.136178613E0,-2.041040607E-1,1.974468735E0
7.323228792E0,1.613630961E0,-1.404868990E0,-3.880376029E-1,2.174404501E0
7.333173791E0,1.356163437E0,-1.442733804E0,-5.205893040E-1,2.047357644E0
7.343119792E0,6.992924935E-1,-1.255702718E0,-5.687329388E-1,1.545721987E0
7.353065792E0,-3.873195648E-2,-8.176088557E-1,-3.587664413E-1,8.936989229E-1
7.363011791E0,-5.011478966E-1,-2.005670983E-1,1.090505719E-2,5.399030427E-1
7.372957792E0,-6.593747216E-1,5.118187729E-1,2.661359839E-1,8.761060676E-1
7.382902792E0,-6.508097202E-1,1.105002721E0,4.552735662E-1,1.360830013E0
7.392848792E0,-6.170689470E-1,1.548668102E0,5.922504401E-1,1.769154476E0
7.402794791E0,-5.588026124E-1,1.776047608E0,7.006087017E-1,1.989336075E0
7.412740792E0,-4.560845751E-1,1.752477482E0,7.080849516E-1,1.944370017E0
7.422685792E0,-3.857583582E-1,1.480860574E0,6.953052771E-1,1.680835202E0
7.432631792E0,-4.257439578E-1,1.145820964E0,6.246557093E-1,1.372719328E0
7.442577791E0,-5.481121480E-1,9.210580873E-1,4.239675736E-1,1.152615908E0
7.452523792E0,-6.749850333E-1,8.517712131E-1,1.478117645E-1,1.096798665E0
7.462469792E0,-6.843569505E-1,8.290366539E-1,1.156931916E-2,1.075072118E0
7.472414792E0,-5.142953610E-1,8.845866644E-1,1.821290731E-2,1.023388976E0
7.482360791E0,-2.155231065E-1,9.992669356E-1,1.018994272E-1,1.027311107E0
7.492306792E0,3.196965158E-2,1.154490631E0,1.491613019E-1,1.164525555E0
7.502252792E0,2.262030458E-1,1.357749202E0,2.053238082E-1,1.391692703E0
7.512197792E0,1.991877401E-1,1.566735706E0,2.717353507E-1,1.602553160E0
7.522143791E0,4.519546866E-2,1.744880194E0,2.280566498E-1,1.760300928E0
7.532089792E0,-1.623976439E-1,1.873147933E0,2.362146850E-1,1.894954762E0
7.542035792E0,-3.331568062E-1,1.923689218E0,2.166311538E-1,1.964307187E0
7.551980792E0,-5.161518520E-1,1.962070342E0,1.883037694E-1,2.037545354E0
7.561926791E0,-6.469856411E-1,1.994755400E0,2.066920932E-1,2.107216446E0
7.571872792E0,-7.679300344E-1,2.100647891E0,2.297933093E-1,2.248386770E0
7.581818792E0,-9.713599294E-1,2.217595420E0,2.536078127E-1,2.434252757E0
7.591764791E0,-1.147927716E0,2.339218383E0,2.960468674E-1,2.622465335E0
7.601709791E0,-1.239803261E0,2.533060014E0,3.701159235E-1,2.844378835E0
7.611655792E0,-1.267728394E0,2.775591409E0,4.017013399E-1,3.077727557E0
7.621601792E0,-1.347449917E0,3.034969802E0,4.386277493E-1,3.349486122E0
7.631547791E0,-1.339936244E0,3.347718072E0,5.167418726E-1,3.642755494E0
7.641493792E0,-1.306846851E0,3.671085177E0,6.313718212E-1,3.947574629E0
7.651438792E0,-1.258497394E0,3.845925111E0,7.646918464E-1,4.118216759E0
7.661384792E0,-9.951966888E-1,4.079887120E0,9.767352748E-1,4.311601461E0
7.671330791E0,-8.409564954E-1,4.230079286E0,1.181372620E0,4.471735665E0
7.681276792E0,-7.811997056E-1,4.319798963E0,1.333390871E0,4.587904454E0
7.691221792E0,-7.499095005E-1,4.301516474E0,1.473274981E0,4.608247758E0
7.701167792E0,-7.748163003E-1,4.154777089E0,1.546618946E0,4.500504763E0
7.711113791E0,-9.136350471E-1,3.829859302E0,1.620692643E0,4.257839348E0
7.721059792E0,-1.027775620E0,3.490567012E0,1.594963725E0,3.972944761E0
7.731004792E0,-1.088156308E0,3.187178673E0,1.446370772E0,3.665266765E0
7.740950792E0,-1.060591949E0,2.910370899E0,1.126036910E0,3.295917653E0
7.750896791E0,-9.309761345E-1,2.664703642E0,8.385889578E-1,2.944587153E0
7.760842792E0,-6.627608442E-1,2.392738240E0,6.705259466E-1,2.571780175E0
7.770788792E0,-2.486224401E-1,2.120257114E0,5.750701511E-1,2.210884218E0
7.780733750E0,3.129809886E-1,1.762105215E0,5.456095397E-1,1.871005520E0
7.790679750E0,1.053658320E0,1.378032901E0,5.574144834E-1,1.822054181E0
7.800625750E0,1.960692446E0,8.518358248E-1,6.732185894E-1,2.241241265E0
7.810571750E0,2.914532363E0,3.128877255E-1,7.914756024E-1,3.036252831E0
7.820517750E0,3.722650310E0,-1.323780388E-1,8.170548320E-1,3.813558427E0
7.830462750E0,4.552049199E0,-5.387574801E-1,7.784503448E-1,4.649451201E0
7.840408750E0,5.045678161E0,-8.426580352E-1,5.825610191E-1,5.148622924E0
7.850354750E0,5.257826840E0,-1.138495865E0,3.335702044E-1,5.390007884E0
7.860300750E0,5.333541850E0,-1.410507167E0,2.468186106E-1,5.522419630E0
7.870245750E0,5.027004493E0,-1.634374543E0,1.362793010E-1,5.287771399E0
7.880191750E0,4.558087034E0,-1.841761541E0,-1.033687959E-1,4.917207347E0
7.890137750E0,3.975202664E0,-2.007338024E0,-4.433002228E-1,4.475282924E0
7.900083750E0,3.334597505E0,-2.139202092E0,-8.860040295E-1,4.059646444E0
7.910028750E0,2.984358643E0,-2.420481817E0,-1.178754821E0,4.019277505E0
7.919974750E0,3.314452093E0,-2.903157189E0,-1.273432353E0,4.586452256E0
7.929920750E0,4.113282908E0,-3.546600587E0,-1.256759017E0,5.574667275E0
7.939866750E0,4.907992605E0,-4.213711175E0,-1.156942953E0,6.571321806E0
7.949812750E0,4.999001008E0,-4.817273639E0,-1.086250116E0,7.026811205E0
7.959757750E0,4.322034354E0,-5.057890071E0,-1.233522767E0,6.766373574E0
7.969703750E0,3.126996206E0,-4.905382993E0,-1.870566387E0,6.110638771E0
7.979649750E0,2.224578457E0,-4.320781880E0,-2.632627571E0,5.527081807E0
7.989595750E0,1.307691774E0,-3.550154525E0,-2.939228663E0,4.790899713E0
7.999541750E0,2.700021994E-1,-2.874376025E0,-2.631215469E0,3.906178895E0
8.009486750E0,-7.003163409E-1,-2.362668641E0,-1.835056247E0,3.072470913E0
8.019432750E0,-1.756426983E0,-1.918619390E0,-1.005605317E0,2.788795110E0
8.029378750E0,-2.621043652E0,-1.500308998E0,-2.518267143E-1,3.030546751E0
8.039324750E0,-3.343653672E0,-1.165683956E0,3.254618704E-1,3.555947749E0
8.049269750E0,-4.023191348E0,-9.403609157E-1,8.006264949E-1,4.208485482E0
8.059215750E0,-4.595541959E0,-7.433696821E-1,1.152573913E0,4.795834756E0
8.069161750E0,-4.991164570E0,-6.489122987E-1,1.402906079E0,5.225031713E0
8.079107750E0,-5.100810388E0,-5.853016090E-1,1.411184567E0,5.324686514E0
8.089052750E0,-5.050812601E0,-6.148984605E-1,1.307024606E0,5.253296239E0
8.098998750E0,-4.793664921E0,-6.324810380E-1,9.468302020E-1,4.927042020E0
8.108944750E0,-4.367395883E0,-6.907900572E-1,4.978705323E-1,4.449630633E0
8.118890750E0,-3.667849036E0,-8.981440187E-1,1.471357533E-1,3.779077686E0
8.128836750E0,-3.073631008E0,-1.222698986E0,-1.913138064E-1,3.313427433E0
8.138781750E0,-2.684091255E0,-1.551442899E0,-3.819084784E-1,3.123647710E0
8.148727750E0,-2.392926228E0,-1.886673127E0,-6.433609521E-1,3.114409212E0
8.158673750E0,-2.272937855E0,-2.175378816E0,-8.380837584E-1,3.255902927E0
8.168619750E0,-2.224773754E0,-2.437226488E0,-1.014139913E0,3.452270409E0
8.178564750E0,-2.310327875E0,-2.661384178E0,-1.106736274E0,3.693974257E0
8.188510750E0,-2.331755581E0,-2.844714854E0,-1.010658481E0,3.814566457E0
8.198456750E0,-2.258137967E0,-2.824190542E0,-9.572207042E-1,3.740522794E0
8.208402750E0,-2.222213843E0,-2.591304129E0,-9.080245706E-1,3.532364658E0
8.218348750E0,-2.117552776E0,-2.266039894E0,-7.355105858E-1,3.187466452E0
8.228293750E0,-1.950387313E0,-1.885803062E0,-5.151151407E-1,2.761450247E0
8.238239750E0,-1.860509176E0,-1.602982596E0,-2.887988050E-1,2.472741869E0
8.248185750E0,-1.836189437E0,-1.451873587E0,2.294915199E-2,2.340951777E0
8.258131750E0,-1.841702777E0,-1.398551658E0,2.614456033E-1,2.327266564E0
8.268076750E0,-1.887036240E0,-1.374918966E0,3.470870666E-1,2.360461261E0
8.278022750E0,-1.894768013E0,-1.313621435E0,3.351578696E-1,2.329823576E0
8.287968750E0,-1.879298619E0,-1.178045554E0,2.024469781E-1,2.227226842E0
8.297914750E0,-1.861132489E0,-9.865667832E-1,3.021855667E-2,2.106665926E0
8.307860750E0,-1.722614874E0,-7.916849327E-1,-1.420534265E-1,1.901143396E0
8.317805750E0,-1.512261876E0,-5.959189832E-1,-2.719083917E-1,1.648025967E0
8.327751750E0,-1.260645077E0,-3.872184080E-1,-4.553003173E-1,1.395156795E0
8.337697750E0,-8.915466052E-1,-2.259334892E-1,-5.212675810E-1,1.057176041E0
8.347643750E0,-4.241809970E-1,-1.197346044E-1,-5.723745847E-1,7.224116270E-1
8.357588750E0,2.229747981E-1,-4.462945819E-2,-5.635955751E-1,6.077413277E-1
8.367534750E0,8.701873112E-1,-2.404024243E-2,-5.347455592E-1,1.021644118E0
8.377480750E0,1.437442074E0,-9.716902971E-3,-5.098048456E-1,1.525200024E0
8.387426750E0,1.770760263E0,1.462093350E-1,-5.043013000E-1,1.846967482E0
8.397372750E0,1.686776120E0,4.521648940E-1,-5.222205310E-1,1.822739985E0
8.407317750E0,1.261558412E0,7.532131773E-1,-5.112909155E-1,1.555724306E0
8.417263750E0,7.395277691E-1,1.002869113E0,-3.977428114E-1,1.307993548E0
8.427209750E0,2.610600525E-1,1.161345029E0,-2.652155225E-1,1.219513797E0
8.437155750E0,-2.235998654E-1,1.250677036E0,-5.638923213E-2,1.271758504E0
8.447100750E0,-7.157588375E-1,1.129508109E0,2.554860480E-1,1.361386207E0
8.457046750E0,-1.062444347E0,8.615486348E-1,6.467861049E-1,1.513071811E0
8.466992750E0,-1.137678716E0,5.649965680E-1,8.589723516E-1,1.533416931E0
8.476938750E0,-1.028482549E0,2.713230854E-1,8.597991478E-1,1.367716032E0
8.486884750E0,-8.092452908E-1,-6.761720181E-3,6.679856238E-1,1.049346680E0
8.496829750E0,-6.991293561E-1,-3.133876625E-1,3.910793245E-1,8.601957461E-1
8.506775750E0,-7.715535539E-1,-5.884342548E-1,3.813203216E-2,9.710838330E-1
8.516721750E0,-1.035036693E0,-8.244115064E-1,-2.532196672E-1,1.347247374E0
8.526667750E0,-1.405894591E0,-1.032360714E0,-4.344810136E-1,1.797521070E0
8.536612750E0,-1.793800632E0,-1.272776880E0,-4.674346054E-1,2.248594406E0
8.546558750E0,-2.166636059E0,-1.484862993E0,-3.705708003E-1,2.652631267E0
8.556504750E0,-2.494701110E0,-1.675944738E0,-2.048139310E-1,3.012353422E0
8.566450750E0,-2.720494266E0,-1.827973514E0,-8.874085307E-2,3.278788062E0
8.576396750E0,-2.825698539E0,-1.952651647E0,2.559223965E-2,3.434832696E0
8.586341750E0,-2.768965344E0,-2.059329711E0,8.104591727E-2,3.451749756E0
8.596287750E0,-2.600759076E0,-2.162240999E0,3.351397432E-2,3.382359694E0
8.606233750E0,-2.448940215E0,-2.380430728E0,9.555753708E-2,3.416561118E0
8.616179750E0,-2.162741228E0,-2.493894486E0,3.849572897E-2,3.301278730E0
8.626124750E0,-2.006286694E0,-2.566271614E0,-6.409491219E-2,3.258073734E0
8.636070750E0,-1.922527669E0,-2.649202966E0,-2.233705815E-1,3.280896739E0
8.646016750E0,-1.914822208E0,-2.557801045E0,-5.137819755E-1,3.236180185E0
8.655962750E0,-2.172914799E0,-2.484321425E0,-6.975962893E-1,3.373433303E0
8.665908750E0,-2.382354462E0,-2.360188545E0,-7.553080885E-1,3.437527172E0
8.675853750E0,-2.639116811E0,-2.276853150E0,-7.796934628E-1,3.571683036E0
8.685799750E0,-2.845039374E0,-2.109050340E0,-8.093808731E-1,3.632828069E0
8.695745750E0,-3.227043820E0,-2.051350893E0,-6.354437491E-1,3.876292180E0
8.705691750E0,-3.505505186E0,-2.090870177E0,-4.446702985E-1,4.105853916E0
8.715636750E0,-3.647924649E0,-1.972462306E0,-2.842694056E-1,4.156774096E0
8.725582750E0,-3.752802063E0,-1.875362858E0,-2.485826790E-1,4.202654223E0
8.735528750E0,-3.827859846E0,-1.934350154E0,-1.234218585E-1,4.290624020E0
8.745474750E0,-3.735135870E0,-2.066614172E0,-1.149599142E-3,4.268739325E0
8.755420750E0,-3.453045722E0,-2.133525031E0,7.000641067E-2,4.059600314E0
8.765365750E0,-3.196048315E0,-2.270082367E0,1.496829100E-1,3.923060509E0
8.775311750E0,-2.893071912E0,-2.437260402E0,2.185081466E-1,3.789175262E0
8.785257875E0,-2.476644323E0,-2.629612747E0,3.438105062E-1,3.628613504E0
8.795203875E0,-2.002104181E0,-2.764249273E0,4.823555303E-1,3.447051211E0
8.805148875E0,-1.271450146E0,-2.736092006E0,4.901253104E-1,3.056633403E0
8.815094875E0,-5.423076171E-1,-2.579417324E0,3.517638159E-1,2.659178269E0
8.825040875E0,1.765075600E-1,-2.411942250E0,2.355340326E-1,2.429834690E0
8.834986875E0,7.197103858E-1,-2.274091510E0,1.747463787E-1,2.391654560E0
8.844932875E0,1.118896290E0,-2.164203032E0,1.111391973E-1,2.438863587E0
8.854877875E0,1.434252418E0,-2.028946409E0,-1.506921029E-1,2.489259255E0
8.864823875E0,1.598784880E0,-1.940617785E0,-4.442404550E-1,2.553323337E0
8.874769875E0,1.692032767E0,-1.987813586E0,-6.040811116E-1,2.679420035E0
8.884715875E0,1.738570172E0,-2.052694291E0,-7.707068771E-1,2.798243946E0
8.894660875E0,1.941138772E0,-2.148649439E0,-9.426863533E-1,3.045221125E0
8.904606875E0,2.336553807E0,-2.112780864E0,-1.276790993E0,3.399047206E0
8.914552875E0,3.346708843E0,-1.995626343E0,-1.731801435E0,4.264049811E0
8.924498875E0,5.091989279E0,-1.878486441E0,-2.224580212E0,5.865647726E0
8.934444875E0,7.414333767E0,-1.765769080E0,-2.493297193E0,8.019153106E0
8.944389875E0,9.779652366E0,-1.291104100E0,-2.583325603E0,1.019716242E1
8.954335875E0,1.118098028E1,-9.702334633E-1,-2.217077065E0,1.143989090E1
8.964281875E0,1.096678391E1,-5.287488011E-1,-1.393330679E0,1.106757855E1
8.974227875E0,8.958585175E0,6.720649338E-1,-1.011619763E0,9.040536165E0
8.984172875E0,6.184067314E0,1.337963394E0,-6.586151683E-1,6.361337008E0
8.994118875E0,3.820001189E0,1.357574371E0,3.243871522E-1,4.067019090E0
9.004064875E0,2.417568149E0,1.305098241E0,1.302221704E0,3.040345135E0
9.014010875E0,1.593231779E0,1.521688465E0,1.974821073E0,2.958689162E0
9.023956875E0,1.244429578E0,2.017828221E0,2.218892040E0,3.247109113E0
9.033901875E0,1.270787657E0,2.627678780E0,2.193147919E0,3.650958071E0
9.043847875E0,1.369154196E0,3.289980618E0,2.089201967E0,4.130777232E0
9.053793875E0,1.312959530E0,3.889770458E0,2.028866887E0,4.579353425E0
9.063739875E0,1.130120021E0,4.152447558E0,2.114795229E0,4.795033978E0
9.073684875E0,7.383138871E-1,4.133711617E0,2.164341027E0,4.724092634E0
9.083630875E0,-7.794338465E-2,3.954492411E0,2.062819330E0,4.460864152E0
9.093576875E0,-1.119357051E0,3.577166907E0,1.922178590E0,4.212345406E0
9.103522875E0,-1.950472097E0,3.174347835E0,1.716657146E0,4.102162520E0
9.113468875E0,-2.521231096E0,2.798226566E0,1.305056434E0,3.986207527E0
9.123413875E0,-2.955382766E0,2.458039652E0,8.735154732E-1,3.941988775E0
9.133359875E0,-3.265086390E0,2.162081662E0,4.335488212E-1,3.939968379E0
9.143305875E0,-3.341583173E0,1.931951042E0,1.147212017E-1,3.861576606E0
9.153251875E0,-3.213074237E0,1.818919393E0,-1.917277893E-1,3.697170994E0
9.163196875E0,-2.803874976E0,1.963515481E0,-5.165944862E-1,3.461788236E0
9.173142875E0,-2.357338319E0,2.289175572E0,-8.020673219E-1,3.382407536E0
9.183088875E0,-2.009105052E0,2.657733176E0,-8.335626912E-1,3.434366828E0
9.193034875E0,-1.758053679E0,2.952828117E0,-6.352390965E-1,3.494778296E0
9.202980875E0,-1.479349068E0,3.238995821E0,-3.624699946E-1,3.579239038E0
9.212925875E0,-1.219155573E0,3.492614999E0,-1.094598039E-1,3.700902768E0
9.222871875E0,-9.929835176E-1,3.679303439E0,1.697633815E-1,3.814722751E0
9.232817875E0,-8.990900981E-1,3.763318280E0,4.959538881E-1,3.900884225E0
9.242763875E0,-8.306197876E-1,3.762578607E0,8.248936824E-1,3.940479234E0
9.252708875E0,-6.968536198E-1,3.740202482E0,1.162340006E0,3.978159608E0
9.262654875E0,-4.799295205E-1,3.664790357E0,1.463729986E0,3.975364912E0
9.272600875E0,-2.790279615E-1,3.592778388E0,1.639590844E0,3.959061920E0
9.282546875E0,-7.810827613E-2,3.479211719E0,1.732655128E0,3.887558216E0
9.292491875E0,-4.332319021E-2,3.283214512E0,1.743817463E0,3.717831865E0
9.302437875E0,-2.475944996E-1,2.939541781E0,1.608146857E0,3.359813274E0
9.312383875E0,-6.467394733E-1,2.469464527E0,1.372784733E0,2.898459059E0
9.322329875E0,-1.079097217E0,1.949653487E0,1.076758915E0,2.474875610E0
9.332275875E0,-1.373254264E0,1.384205222E0,8.235897533E-1,2.116636826E0
9.342220875E0,-1.364460636E0,7.780863556E-1,6.597273088E-1,1.703646479E0
9.352166875E0,-1.093760279E0,1.425498551E-1,4.467027906E-1,1.190031677E0
9.362112875E0,-4.268303704E-1,-4.205359890E-1,2.035463277E-1,6.328236647E-1
9.372058875E0,3.740054548E-1,-9.486402807E-1,-1.096597787E-1,1.025584579E0
9.382004875E0,9.552812558E-1,-1.473840699E0,-4.312591247E-1,1.808522357E0
9.391949875E0,1.399282560E0,-1.963877716E0,-7.205301654E-1,2.516738184E0
9.401895875E0,1.832016864E0,-2.309271868E0,-9.936547049E-1,3.110686744E0
9.411841875E0,2.169460849E0,-2.522198811E0,-1.274257979E0,3.562552542E0
9.421787875E0,2.158031881E0,-2.608023072E0,-1.477530584E0,3.693505459E0
9.431732875E0,1.557105342E0,-2.453631436E0,-1.526538438E0,3.282560567E0
9.441678875E0,8.159725124E-1,-2.100601698E0,-1.342200286E0,2.622944956E0
9.451624875E0,3.958763802E-1,-1.518966001E0,-1.095683940E0,1.914288149E0
9.461570875E0,1.510084373E-1,-7.121302016E-1,-8.488659509E-1,1.118260424E0
9.471516875E0,-4.339744985E-2,-4.273817629E-2,-5.776967204E-1,5.808987787E-1
9.481461875E0,-1.815069294E-1,4.429942672E-1,-2.016670326E-1,5.194788525E-1
9.491407875E0,-1.498044956E-1,8.058986369E-1,1.861835325E-1,8.405821242E-1
9.501353875E0,-8.496706009E-2,9.960476048E-1,5.283896358E-1,1.130719169E0
9.511299875E0,8.051615953E-4,1.199693554E0,7.818453113E-1,1.431973241E0
9.521244875E0,-6.853930771E-2,1.399636316E0,9.828525587E-1,1.711630394E0
9.531190875E0,-3.328410566E-1,1.633434603E0,1.115164597E0,2.005613086E0
9.541136875E0,-5.624512750E-1,1.901415712E0,1.194120719E0,2.314661409E0
9.551082875E0,-7.056794071E-1,2.085839818E0,1.255229970E0,2.534622940E0
9.561028875E0,-8.361845827E-1,2.221927915E0,1.316771915E0,2.714784815E0
9.570973875E0,-9.729760998E-1,2.291055745E0,1.407759268E0,2.859616246E0
9.580919875E0,-1.023815301E0,2.300747651E0,1.508450661E0,2.935483081E0
9.590865875E0,-1.006716873E0,2.389387055E0,1.599945552E0,3.046715466E0
9.600811875E0,-1.011241449E0,2.504097585E0,1.570372674E0,3.123969321E0
9.610756875E0,-8.932171547E-1,2.741017992E0,1.466758844E0,3.234563035E0
9.620702875E0,-8.573292840E-1,2.950671079E0,1.341546714E0,3.352793000E0
9.630648875E0,-8.099235678E-1,3.094279280E0,1.253154355E0,3.435249087E0
9.640594875E0,-6.581836438E-1,3.257816547E0,1.176493776E0,3.525721482E0
9.650540875E0,-6.342375416E-1,3.329591119E0,1.173358426E0,3.586809763E0
9.660485875E0,-5.899033678E-1,3.342472535E0,1.220367701E0,3.606855411E0
9.670431875E0,-6.576404375E-1,3.228217356E0,1.351896139E0,3.561109576E0
9.680377875E0,-4.360438281E-1,3.292726763E0,1.591275301E0,3.682979886E0
9.690323875E0,-5.006655014E-1,3.398358175E0,1.352069217E0,3.691557314E0
9.700268875E0,-4.026381004E-1,3.437852901E0,1.288246858E0,3.693308812E0
9.710214875E0,-3.219851160E-1,3.487254272E0,1.308864141E0,3.738681868E0
9.720160875E0,-1.770770788E-1,3.622087557E0,1.232570840E0,3.830157364E0
9.730106875E0,-2.518530267E-1,3.746272769E0,1.168511084E0,3.932353972E0
9.740052875E0,-1.116993606E-1,3.959827995E0,1.121181382E0,4.117008889E0
9.749997875E0,-1.974511170E-1,4.111853263E0,1.018556900E0,4.240728989E0
9.759943875E0,-2.542188102E-1,4.214792325E0,1.062034457E0,4.353965863E0
9.769889875E0,-2.247576141E-1,4.297212923E0,1.056425807E0,4.430867904E0
9.779836000E0,-1.043026328E-1,4.296332332E0,1.124739997E0,4.442340668E0
9.789781000E0,-1.194627088E-1,4.284100834E0,1.149734505E0,4.437305571E0
9.799727000E0,-1.265267301E-1,4.201862378E0,1.159174250E0,4.360658367E0
9.809673000E0,-1.584367400E-1,4.004949497E0,1.175422493E0,4.176881697E0
9.819619000E0,-1.979744428E-1,3.698139659E0,1.245708364E0,3.907329030E0
9.829565000E0,-1.960688353E-1,3.114152797E0,1.305859841E0,3.382552373E0
9.839510000E0,-2.077878249E-1,2.419517903E0,1.375568007E0,2.790955035E0
9.849456000E0,-2.016938567E-1,1.704124224E0,1.406416163E0,2.218721751E0
9.859402000E0,4.150879920E-2,1.041979676E0,1.372555522E0,1.723761378E0
9.869348000E0,3.265997386E-1,5.896265021E-1,1.176598368E0,1.355990605E0
9.879293000E0,5.543236452E-1,3.230832231E-1,8.314033145E-1,1.050185195E0
9.889239000E0,8.396356094E-1,1.337264067E-1,5.844964474E-1,1.031749391E0
9.899185000E0,1.204345745E0,-1.421896666E-2,4.309468102E-1,1.279205225E0
9.909131000E0,1.672294906E0,-1.563615632E-1,2.647531539E-1,1.700327446E0
9.919077000E0,2.304823891E0,-3.721647513E-1,1.757936150E-1,2.341286647E0
9.929022000E0,2.962556130E0,-5.963879299E-1,1.847170508E-1,3.027629068E0
9.938968000E0,3.337768450E0,-6.668921944E-1,5.761261126E-2,3.404227172E0
9.948914000E0,3.200976933E0,-6.639071909E-1,-3.605048186E-1,3.288919246E0
9.958860000E0,3.202231160E0,-7.622599894E-1,-8.422475606E-1,3.397750086E0
9.968805000E0,4.034589910E0,-1.332649152E0,-1.180040624E0,4.409803326E0
9.978751000E0,6.036323962E0,-2.311445570E0,-1.199019517E0,6.574012124E0
9.988697000E0,8.493702879E0,-3.185066366E0,-1.070261489E0,9.134171884E0
9.998643000E0,9.297651762E0,-4.066825025E0,-8.375592631E-1,1.018267645E1
1.000858900E1,7.866866743E0,-4.545902899E0,-1.029093583E0,9.143952051E0
1.001853400E1,4.890435755E0,-4.224706280E0,-2.531318128E0,6.940610671E0
1.002848000E1,3.381767578E0,-3.500596156E0,-3.962474445E0,6.276283067E0
1.003842600E1,2.859028838E0,-3.107039951E0,-4.417027634E0,6.110472672E0
1.004837200E1,2.069464105E0,-3.076183025E0,-4.002638969E0,5.455886950E0
1.005831700E1,1.056540998E0,-3.221087554E0,-3.087839742E0,4.585459429E0
1.006826300E1,1.858245134E-2,-3.342095682E0,-1.968481522E0,3.878771501E0
1.007820900E1,-8.975142735E-1,-3.477251440E0,-9.403936601E-1,3.712297090E0
1.008815500E1,-1.830782517E0,-3.618117005E0,-8.754800281E-2,4.055884606E0
1.009810100E1,-2.769669349E0,-3.748612825E0,4.953386879E-1,4.687059508E0
1.010804600E1,-3.422306324E0,-3.825390860E0,8.401302838E-1,5.201116678E0
1.011799200E1,-3.821483458E0,-3.776587366E0,9.444177139E-1,5.455114368E0
1.012793800E1,-3.953879623E0,-3.503359258E0,7.185350955E-1,5.331320929E0
1.013788400E1,-3.919088105E0,-2.885198928E0,2.736742691E-1,4.874271436E0
1.014782900E1,-3.685545049E0,-2.050577891E0,-6.966137012E-2,4.218170777E0
1.015777500E1,-3.529395740E0,-1.328765724E0,-1.069490826E-1,3.772756386E0
1.016772100E1,-3.263801172E0,-7.513347593E-1,8.789066792E-2,3.350317415E0
1.017766700E1,-2.875476471E0,-2.439265412E-1,2.132923571E-1,2.893675642E0
1.018761300E1,-2.536576529E0,2.373636264E-1,3.486671305E-1,2.571406375E0
1.019755800E1,-2.402867079E0,5.515456331E-1,4.357930557E-1,2.503575118E0
1.020750400E1,-2.381931124E0,7.501123989E-1,4.029806741E-1,2.529556861E0
1.021745000E1,-2.466740309E0,6.858462363E-1,2.761254767E-1,2.575157877E0
1.022739600E1,-2.635179881E0,3.482186490E-1,1.127120984E-1,2.660476132E0
1.023734100E1,-2.840620633E0,-1.799851915E-1,-8.766386904E-2,2.847666625E0
1.024728700E1,-3.031783070E0,-8.298959023E-1,-3.093597714E-1,3.158502693E0
1.025723300E1,-3.062941128E0,-1.530036242E0,-5.214733664E-1,3.463315424E0
1.026717900E1,-2.910655659E0,-2.132611111E0,-6.602079499E-1,3.668217694E0
1.027712500E1,-2.756438854E0,-2.603334190E0,-7.353762460E-1,3.862134421E0
1.028707000E1,-2.594980273E0,-2.825700586E0,-8.187165376E-1,3.922856509E0
1.029701600E1,-2.434176580E0,-2.735747312E0,-9.157125628E-1,3.774660048E0
1.030696200E1,-2.260603153E0,-2.366298008E0,-9.651262128E-1,3.411914636E0
1.031690800E1,-2.040436188E0,-1.873041806E0,-9.745145023E-1,2.936212519E0
1.032685300E1,-1.790791655E0,-1.382157819E0,-8.801965749E-1,2.427352673E0
1.033679900E1,-1.546200285E0,-9.032272956E-1,-7.337998366E-1,1.935204658E0
1.034674500E1,-1.379446465E0,-4.545520198E-1,-5.592334791E-1,1.556352201E0
1.035669100E1,-1.328746428E0,-1.079249829E-1,-4.375997722E-1,1.403106707E0
1.036663600E1,-1.271957100E0,2.105684683E-1,-2.672412173E-1,1.316674528E0
1.037658200E1,-1.275093547E0,4.213208315E-1,-1.216103911E-1,1.348393074E0
1.038652800E1,-1.321749065E0,4.537407187E-1,7.748255096E-2,1.399608794E0
1.039647400E1,-1.334557976E0,2.897494161E-1,3.009199369E-1,1.398410713E0
1.040642000E1,-1.177325177E0,-1.210724473E-2,4.754277492E-1,1.269753009E0
1.041636500E1,-6.644828492E-1,-4.689209676E-1,5.282572695E-1,9.697835189E-1
1.042631100E1,3.130540788E-1,-1.010269349E0,3.986784025E-1,1.130305924E0
1.043625700E1,1.199347546E0,-1.539184211E0,2.585919793E-1,1.968347627E0
1.044620300E1,1.748607502E0,-1.910788507E0,2.982551415E-2,2.590295441E0
1.045614900E1,2.192654414E0,-2.037621046E0,-2.703343213E-1,3.005447313E0
1.046609400E1,2.355940835E0,-1.823810881E0,-6.259304023E-1,3.044426418E0
1.047604000E1,2.045925554E0,-1.476344769E0,-8.682600689E-1,2.668198043E0
1.048598600E1,1.567758969E0,-1.040762579E0,-9.057524157E-1,2.088406658E0
1.049593200E1,1.156310869E0,-6.495552000E-1,-8.938416374E-1,1.599352887E0
1.050587700E1,9.530084431E-1,-2.944763052E-1,-8.096662903E-1,1.284718214E0
1.051582300E1,8.122548527E-1,8.687793016E-3,-6.765310371E-1,1.057131812E0
1.052576900E1,6.962525260E-1,2.757327631E-1,-5.570361686E-1,9.333195754E-1
1.053571500E1,5.717395771E-1,4.553975272E-1,-3.967218510E-1,8.316617575E-1
1.054566100E1,4.355111468E-1,6.166707516E-1,-1.836037044E-1,7.769575890E-1
1.055560600E1,1.596424359E-1,6.665016004E-1,1.151013072E-1,6.949520859E-1
1.056555200E1,-2.909287995E-1,5.592078245E-1,4.478043695E-1,7.732281104E-1
1.057549800E1,-8.747627574E-1,3.635050249E-1,7.621377826E-1,1.215812397E0
1.058544400E1,-1.412508962E0,1.319795510E-1,1.033784219E0,1.755366053E0
1.059538900E1,-1.904659163E0,-1.706077194E-1,1.257572365E0,2.288738031E0
1.060533500E1,-2.342109831E0,-4.980553043E-1,1.358202946E0,2.752862654E0
1.061528100E1,-2.653930732E0,-8.677879062E-1,1.413434576E0,3.129568897E0
1.062522700E1,-2.921988147E0,-1.313265340E0,1.469329280E0,3.524430325E0
1.063517300E1,-3.071230141E0,-1.733288674E0,1.323837690E0,3.766867457E0
1.064511800E1,-3.050108244E0,-2.067800865E0,1.226806655E0,3.883814528E0
1.065506400E1,-3.004527444E0,-2.354369103E0,8.127629757E-1,3.902668662E0
1.066501000E1,-2.816959291E0,-2.574228213E0,3.018777108E-1,3.827929034E0
1.067495600E1,-2.478459883E0,-2.717622990E0,-1.950853519E-1,3.683245363E0
1.068490100E1,-2.104497113E0,-2.772849942E0,-7.027487826E-1,3.551261854E0
1.069484700E1,-1.893758199E0,-2.809801129E0,-1.133421943E0,3.572946655E0
1.070479300E1,-1.711424473E0,-2.830257321E0,-1.396487006E0,3.590195842E0
1.071473900E1,-1.593887252E0,-2.642086904E0,-1.678486522E0,3.512608260E0
1.072468400E1,-1.776808038E0,-2.463174969E0,-1.699093280E0,3.480114324E0
1.073463000E1,-2.028306139E0,-2.402332936E0,-1.589621708E0,3.523084800E0
1.074457600E1,-2.326781940E0,-2.345833046E0,-1.297479612E0,3.549690158E0
1.075452200E1,-2.567366797E0,-2.268953562E0,-1.037166249E0,3.579837477E0
1.076446800E1,-2.778761770E0,-2.233116269E0,-6.372973895E-1,3.621391060E0
1.077441300E1,-2.809301192E0,-2.184467728E0,-3.600539982E-1,3.576829787E0
1.078435950E1,-2.765263472E0,-2.001297265E0,-1.813525812E-1,3.418298052E0
1.079430550E1,-2.732666999E0,-1.847130162E0,-3.414773941E-2,3.298564056E0
1.080425150E1,-2.752155184E0,-1.742051604E0,1.818390512E-1,3.262233497E0
1.081419650E1,-2.629218060E0,-1.666785659E0,4.372138560E-1,3.143583623E0
1.082414250E1,-2.618573788E0,-1.550195687E0,5.494020438E-1,3.092228640E0
1.083408850E1,-2.658559388E0,-1.504342407E0,6.163269353E-1,3.116222551E0
1.084403450E1,-2.646076752E0,-1.511885023E0,6.391404319E-1,3.113843122E0
1.085398050E1,-2.652501673E0,-1.540247235E0,6.374704671E-1,3.132809484E0
1.086392550E1,-2.566024861E0,-1.659237781E0,5.217026138E-1,3.099956003E0
1.087387150E1,-2.435305093E0,-1.850810400E0,3.540641105E-1,3.079216041E0
1.088381750E1,-2.222617301E0,-2.156100253E0,2.009512603E-1,3.103091584E0
1.089376350E1,-1.846703900E0,-2.516846562E0,-7.178041935E-3,3.121679585E0
1.090370850E1,-1.400749626E0,-2.879564844E0,-2.132988256E-1,3.209281788E0
1.091365450E1,-8.868816966E-1,-3.167966769E0,-4.898382121E-1,3.326035789E0
1.092360050E1,-3.016818291E-1,-3.255346975E0,-7.801074457E-1,3.361080701E0
1.093354650E1,3.901782686E-1,-3.093786068E0,-1.034466589E0,3.285402934E0
1.094349250E1,1.241257464E0,-2.712806054E0,-1.179078757E0,3.207844057E0
1.095343750E1,2.290561363E0,-2.228500185E0,-1.254765701E0,3.433266869E0
1.096338350E1,3.257146456E0,-1.686280276E0,-1.170471656E0,3.850006247E0
1.097332950E1,4.035819579E0,-1.160470870E0,-9.643701679E-1,4.308658972E0
1.098327550E1,4.561046310E0,-6.496969950E-1,-8.631425858E-1,4.687244900E0
1.099322050E1,4.912722418E0,-1.061883599E-1,-8.812215918E-1,4.992260912E0
1.100316650E1,5.366399694E0,2.717253739E-1,-9.632685524E-1,5.458934572E0
1.101311250E1,6.144993296E0,5.144786713E-1,-1.278300744E0,6.297593485E0
1.102305850E1,6.905231903E0,7.626210549E-1,-1.790303997E0,7.174190331E0
1.103300450E1,7.050741618E0,8.636308283E-1,-2.152831513E0,7.422499518E0
1.104294950E1,6.592336283E0,8.487827012E-1,-2.033151142E0,6.950757751E0
1.105289550E1,5.692532825E0,6.120771790E-1,-1.267524326E0,5.863973597E0
1.106284150E1,4.197906736E0,-4.888096869E-2,-7.576178849E-2,4.198874869E0
1.107278750E1,2.624261960E0,-1.061170823E0,1.040785675E0,3.015969027E0
1.108273250E1,1.686094335E0,-1.933602588E0,1.891836804E0,3.187597773E0
1.109267850E1,8.662369323E-1,-2.492138860E0,2.195628308E0,3.432478141E0
1.110262450E1,3.376778734E-1,-2.704266196E0,2.114741435E0,3.449523640E0
1.111257050E1,-1.296444654E-2,-2.465574374E0,1.600104012E0,2.939312491E0
1.112251650E1,-4.527446455E-1,-1.702537290E0,5.936011469E-1,1.859024814E0
1.113246150E1,-4.835688275E-1,-6.492216164E-1,-5.075774584E-1,9.554906564E-1
1.114240750E1,-7.259727538E-2,3.908343261E-1,-1.130467345E0,1.198323101E0
1.115235350E1,2.605291253E-1,1.367974813E0,-1.242862524E0,1.866530945E0
1.116229950E1,3.004942596E-1,2.136216504E0,-1.137153636E0,2.438613570E0
1.117224450E1,3.480017173E-1,2.822682838E0,-8.502564919E-1,2.968430511E0
1.118219050E1,1.618082446E-1,3.345764810E0,-4.867257392E-1,3.384852436E0
1.119213650E1,1.269629323E-1,3.872168585E0,-8.780706187E-2,3.875244407E0
1.120208250E1,-3.769729167E-1,4.383729788E0,-1.641670114E-1,4.402970161E0
1.121202850E1,-9.168744045E-1,4.658613535E0,-1.490443575E-1,4.750321354E0
1.122197350E1,-1.267850600E0,4.670067061E0,4.942652305E-2,4.839360958E0
1.123191950E1,-1.483559648E0,4.572900370E0,3.228692150E-1,4.818361916E0
1.124186550E1,-1.624125543E0,4.279218702E0,6.968477726E-1,4.629804887E0
1.125181150E1,-1.543044543E0,3.916854176E0,1.013379191E0,4.330088969E0
1.126175650E1,-1.296963302E0,3.647049905E0,1.201215731E0,4.052900943E0
1.127170250E1,-1.122823865E0,3.444891779E0,1.235130166E0,3.827996778E0
1.128164850E1,-9.977454901E-1,3.331927374E0,1.210016375E0,3.682577320E0
1.129159450E1,-9.283840638E-1,3.226381623E0,1.195932772E0,3.563943117E0
1.130154050E1,-8.949683958E-1,3.180772464E0,1.260388384E0,3.536504033E0
1.131148550E1,-1.020628569E0,3.182442428E0,1.256686512E0,3.570557866E0
1.132143150E1,-1.166394977E0,3.246587261E0,1.216859956E0,3.658080677E0
1.133137750E1,-1.159458425E0,3.357701023E0,1.165411475E0,3.738540345E0
1.134132350E1,-9.793179899E-1,3.413416510E0,1.057605776E0,3.705267328E0
1.135126850E1,-6.306467664E-1,3.422258962E0,9.247546971E-1,3.600658689E0
1.136121450E1,-1.842352402E-1,3.394633207E0,7.599251962E-1,3.483527456E0
1.137116050E1,2.937518352E-1,3.314747669E0,5.244233233E-1,3.368807218E0
1.138110650E1,6.558921200E-1,3.212055067E0,2.873778037E-1,3.290908420E0
1.139105250E1,8.830114245E-1,3.044885218E0,8.225744208E-2,3.171403704E0
1.140099750E1,6.717690647E-1,2.924287857E0,-1.678425711E-1,3.005146299E0
1.141094350E1,2.560115665E-1,2.767586279E0,-3.393677187E-1,2.800043960E0
1.142088950E1,-1.435859817E-1,2.583529963E0,-3.403553134E-1,2.609805691E0
1.143083550E1,-4.608056170E-1,2.303221754E0,-1.899029464E-1,2.356530372E0
1.144078050E1,-6.719895047E-1,2.036306592E0,7.662951529E-2,2.145690218E0
1.145072650E1,-6.051716173E-1,1.744228230E0,3.732225126E-1,1.883576345E0
1.146067250E1,-2.227134275E-1,1.244396541E0,7.441055542E-1,1.466907325E0
1.147061850E1,1.525287133E-1,6.667717418E-1,1.145576550E0,1.334239558E0
1.148056450E1,5.108063275E-1,-2.310848862E-2,1.373493415E0,1.465585640E0
1.149050950E1,9.019868088E-1,-9.507903019E-1,1.526369453E0,2.011811648E0
1.150045550E1,1.577444882E0,-1.699804594E0,1.381728049E0,2.699414828E0
1.151040150E1,2.410790641E0,-2.223917430E0,9.000309151E-1,3.401143322E0
1.152034750E1,2.944674175E0,-2.508099712E0,3.982918650E-1,3.888483839E0
1.153029250E1,2.812800166E0,-2.710549906E0,1.692242682E-2,3.906304127E0
1.154023850E1,1.882511664E0,-2.759837841E0,-4.123813524E-1,3.366097659E0
1.155018450E1,6.811374736E-1,-2.540460250E0,-7.683305687E-1,2.740112845E0
1.156013050E1,-3.406704783E-2,-2.195238006E0,-8.163362092E-1,2.342356778E0
1.157007650E1,-2.420548475E-1,-1.668903228E0,-8.357156360E-1,1.882086385E0
1.158002150E1,-1.524608856E-1,-1.073694682E0,-8.137131482E-1,1.355800014E0
1.158996750E1,-6.037250161E-2,-5.628222808E-1,-7.084141499E-1,9.067879391E-1
1.159991350E1,-6.042337239E-2,-1.810248265E-1,-4.906474668E-1,5.264559890E-1
1.160985950E1,-2.121024853E-1,1.665096983E-1,-2.480353796E-1,3.663802580E-1
1.161980450E1,-5.417451149E-1,5.035797536E-1,-7.138516584E-2,7.430855803E-1
1.162975050E1,-9.477751851E-1,7.845855358E-1,1.359126989E-1,1.237870965E0
1.163969650E1,-1.277193282E0,1.092111657E0,3.084558284E-1,1.708530230E0
1.164964250E1,-1.511259078E0,1.390487470E0,4.926776201E-1,2.111892669E0
1.165958850E1,-1.614411564E0,1.697694626E0,6.542958301E-1,2.432405142E0
1.166953350E1,-1.618277158E0,1.930021168E0,8.480976999E-1,2.657644141E0
1.167947950E1,-1.625014320E0,2.126496093E0,1.012631332E0,2.861482026E0
1.168942550E1,-1.655266060E0,2.247829033E0,1.233793493E0,3.052030058E0
1.169937150E1,-1.538664393E0,2.384840991E0,1.401006319E0,3.165086629E0
1.170931650E1,-1.336910310E0,2.560054854E0,1.420954680E0,3.218745444E0
1.171926250E1,-1.094943171E0,2.710170129E0,1.422948580E0,3.250954528E0
1.172920850E1,-8.822863698E-1,2.858196194E0,1.336765884E0,3.276378756E0
1.173915450E1,-6.634835601E-1,3.001812289E0,1.250472091E0,3.318850389E0
1.174910050E1,-4.364467013E-1,3.000872349E0,1.174809120E0,3.252060431E0
1.175904550E1,-1.317757756E-1,2.989254809E0,9.637135255E-1,3.143525557E0
1.176899150E1,5.474981904E-2,2.772968933E0,7.521823132E-1,2.873696657E0
1.177893750E1,2.936366451E-1,2.361199528E0,6.801978260E-1,2.474702967E0
1.178888325E1,5.289034599E-1,1.931448181E0,6.906473851E-1,2.118307050E0
1.179882825E1,7.186081856E-1,1.557339523E0,5.354177698E-1,1.796768294E0
1.180877425E1,8.296257609E-1,1.290058910E0,3.687604658E-1,1.577502829E0
1.181872025E1,7.879906619E-1,1.153970521E0,3.092446909E-1,1.431156709E0
1.182866625E1,6.086080259E-1,1.289637326E0,3.103566851E-1,1.459414072E0
1.183861225E1,1.999087018E-1,1.621465352E0,3.518806871E-1,1.671207167E0
1.184855725E1,-2.105465412E-1,2.104584529E0,2.442393672E-1,2.129145076E0
1.185850325E1,-5.131393665E-1,2.807198826E0,1.048902780E-1,2.855639898E0
1.186844925E1,-1.090998055E0,3.376251023E0,1.026099370E-1,3.549630477E0
1.187839525E1,-1.633027929E0,3.742149898E0,2.809587121E-1,4.092603556E0
1.188834025E1,-1.820979075E0,4.010033358E0,6.333721536E-1,4.449437336E0
1.189828625E1,-1.828471697E0,4.252617671E0,9.396329373E-1,4.723449572E0
1.190823225E1,-1.801499661E0,4.472950405E0,1.114369376E0,4.949192405E0
1.191817825E1,-1.703934190E0,4.470862657E0,1.279153853E0,4.952599236E0
1.192812425E1,-1.512658902E0,4.371837721E0,1.554936025E0,4.880463918E0
1.193806925E1,-1.216012110E0,4.236955319E0,1.972668128E0,4.829274829E0
1.194801525E1,-8.242591864E-1,4.122856554E0,2.278749402E0,4.782263921E0
1.195796125E1,-3.538886940E-1,3.878945508E0,2.606546651E0,4.686740968E0
1.196790725E1,4.973010135E-1,3.578531647E0,2.941855232E0,4.659153277E0
1.197785225E1,1.406218527E0,3.060278891E0,3.231312287E0,4.667347912E0
1.198779825E1,1.983117687E0,2.251811572E0,3.505630901E0,4.614418613E0
1.199774425E1,2.611644253E0,1.549315389E0,3.712862656E0,4.796500076E0
1.200769025E1,3.440495843E0,1.145168122E0,3.687171745E0,5.171426993E0
1.201763625E1,4.117483547E0,1.088134089E0,3.487262458E0,5.504426038E0
1.202758125E1,4.473165582E0,1.293825687E0,3.135776385E0,5.613937012E0
1.203752725E1,4.576384726E0,1.641698765E0,2.818247432E0,5.619696663E0
1.204747325E1,4.381336815E0,2.000319026E0,2.579752954E0,5.463745400E0
1.205741925E1,3.988225583E0,2.278152694E0,2.373806418E0,5.170191477E0
1.206736425E1,3.466341705E0,2.331138993E0,2.085754448E0,4.669058303E0
1.207731025E1,2.842832635E0,2.232269300E0,1.899248734E0,4.083120054E0
1.208725625E1,2.005247059E0,1.709353682E0,1.525732691E0,3.044793264E0
1.209720225E1,1.454338773E0,6.714992157E-1,1.457950598E0,2.166017638E0
1.210714825E1,1.099801038E0,-6.732606894E-1,1.618437957E0,2.069343784E0
1.211709325E1,9.772141618E-1,-2.306400008E0,1.182494189E0,2.769967693E0
1.212703925E1,1.342062292E0,-4.404344147E0,3.193422476E-1,4.615339427E0
1.213698525E1,2.876709648E0,-6.840557020E0,-8.898379757E-1,7.473987581E0
1.214693125E1,4.810287386E0,-9.137219952E0,-2.840183262E0,1.070954220E1
1.215687625E1,6.236820894E0,-1.028583238E1,-5.099840920E0,1.306539934E1
1.216682225E1,6.835558235E0,-1.045003389E1,-7.524362578E0,1.457889217E1
1.217676825E1,5.635171055E0,-8.796452994E0,-9.409513090E0,1.405957591E1
1.218671425E1,3.192827668E0,-6.179577822E0,-8.949575200E0,1.133473541E1
1.219666025E1,7.701660097E-1,-4.201312155E0,-7.183589773E0,8.357520059E0
1.220660525E1,-6.036437398E-1,-2.470993281E0,-5.216517431E0,5.803640897E0
1.221655125E1,-1.245066340E0,-1.506647672E0,-3.334771167E0,3.865342952E0
1.222649725E1,-1.889332441E0,-9.834294596E-1,-1.638744752E0,2.687414173E0
1.223644325E1,-2.490506902E0,-6.934578493E-1,-2.894278193E-1,2.601399023E0
1.224638825E1,-2.967579473E0,-3.972817585E-1,6.304421139E-1,3.059708807E0
1.225633425E1,-3.172445444E0,-1.930253595E-1,1.329328226E0,3.445109928E0
1.226628025E1,-3.337705885E0,6.244972497E-2,1.733576649E0,3.761577932E0
1.227622625E1,-3.470908381E0,2.304437390E-1,1.986623093E0,4.005868273E0
1.228617225E1,-3.635484113E0,3.454406369E-1,1.957488756E0,4.143408765E0
1.229611725E1,-3.841879131E0,2.766785502E-1,1.987493159E0,4.334364467E0
1.230606325E1,-4.142620727E0,1.063462347E-2,2.108879017E0,4.648525604E0
1.231600925E1,-4.481684391E0,-3.145968667E-1,2.014929464E0,4.923860976E0
1.232595525E1,-4.770549123E0,-7.295816553E-1,1.855181193E0,5.170311943E0
1.233590025E1,-4.818965823E0,-1.217371588E0,1.720442634E0,5.259690869E0
1.234584625E1,-4.566492407E0,-1.773130432E0,1.504340068E0,5.124439820E0
1.235579225E1,-3.927916231E0,-2.334156741E0,1.192610968E0,4.722195944E0
1.236573825E1,-2.965861561E0,-2.767911969E0,7.318971527E-1,4.122298498E0
1.237568425E1,-1.943846033E0,-2.944717152E0,-1.526123285E-1,3.531739943E0
1.238562925E1,-1.175501431E0,-2.990001206E0,-7.779498231E-1,3.305618966E0
1.239557525E1,-7.485576242E-1,-2.900980856E0,-1.395448540E0,3.305042371E0
1.240552125E1,-6.603512067E-1,-2.615301687E0,-1.918648041E0,3.310147570E0
1.241546725E1,-7.971924251E-1,-2.245206850E0,-2.364086591E0,3.356393149E0
1.242541225E1,-9.548421299E-1,-1.847856094E0,-2.586497133E0,3.319075633E0
1.243535825E1,-1.151906161E0,-1.413953224E0,-2.537747726E0,3.125110406E0
1.244530425E1,-1.318387501E0,-9.960468739E-1,-2.188224564E0,2.742003231E0
1.245525025E1,-1.492876602E0,-6.959192348E-1,-1.679093463E0,2.352092470E0
1.246519625E1,-1.660612169E0,-5.538801339E-1,-1.072462381E0,2.052947037E0
1.247514125E1,-1.762526799E0,-5.346840173E-1,-3.450056406E-1,1.873877426E0
1.248508725E1,-1.918239906E0,-5.336551997E-1,4.015762095E-1,2.031180854E0
1.249503325E1,-2.075288517E0,-5.786156103E-1,9.728024375E-1,2.363887272E0
1.250497925E1,-2.179704001E0,-6.258970731E-1,1.321476585E0,2.624720374E0
1.251492425E1,-2.104907588E0,-7.535777512E-1,1.452929009E0,2.666367958E0
1.252487025E1,-1.643961053E0,-9.347569442E-1,1.228542109E0,2.255148377E0
1.253481625E1,-7.240852726E-1,-1.190782836E0,8.271962428E-1,1.620653223E0
1.254476225E1,3.303653455E-1,-1.390430168E0,3.600937593E-1,1.473806238E0
1.255470825E1,1.080740869E0,-1.458906910E0,-1.182832889E-1,1.819450778E0
1.256465325E1,1.762125095E0,-1.375496671E0,-6.280810082E-1,2.321973664E0
1.257459925E1,2.253245017E0,-1.117326605E0,-9.772018826E-1,2.698231897E0
1.258454525E1,2.232200888E0,-8.236639398E-1,-1.122014025E0,2.630600419E0
1.259449125E1,1.708140677E0,-5.272864124E-1,-1.025436734E0,2.060896899E0
1.260443625E1,9.762376767E-1,-2.053328714E-1,-8.171156430E-1,1.289526876E0
1.261438225E1,4.702149564E-1,7.327847600E-2,-6.216877357E-1,7.829223978E-1
1.262432825E1,5.529361010E-2,1.666690350E-1,-4.202323723E-1,4.554461519E-1
1.263427425E1,-1.973335880E-1,4.162048101E-3,-7.691186272E-2,2.118331943E-1
1.264422025E1,-2.284863836E-1,-2.852406281E-1,3.220097474E-1,4.870919018E-1
1.265416525E1,-2.934980661E-1,-5.387261975E-1,6.025766595E-1,8.599218925E-1
1.266411125E1,-4.767492199E-1,-7.003502548E-1,7.298599827E-1,1.118246794E0
1.267405725E1,-7.230830598E-1,-6.981020004E-1,6.542215705E-1,1.199250340E0
1.268400325E1,-9.643695831E-1,-5.984683692E-1,5.107192039E-1,1.244591173E0
1.269394825E1,-1.194953363E0,-4.329211226E-1,2.694559964E-1,1.299207748E0
1.270389425E1,-1.419942527E0,-3.006448254E-1,4.431959230E-2,1.452097902E0
1.271384025E1,-1.619661194E0,-2.258495817E-1,-1.045867709E-1,1.638672881E0
1.272378625E1,-1.818529091E0,-2.457558426E-1,-1.665392633E-1,1.842601237E0
1.273373225E1,-1.966373016E0,-3.834861302E-1,-1.804614838E-1,2.011529467E0
1.274367725E1,-2.110512144E0,-5.991820219E-1,-9.878523666E-2,2.196141873E0
1.275362325E1,-2.137801099E0,-8.543249846E-1,-1.329773784E-2,2.302225347E0
1.276356925E1,-2.128416903E0,-1.160524080E0,1.454880810E-1,2.428608951E0
1.277351525E1,-2.144907221E0,-1.526755369E0,2.579499551E-1,2.645401127E0
1.278346037E1,-2.241381016E0,-1.893064134E0,3.207817956E-1,2.951335568E0
1.279340637E1,-2.302904250E0,-2.237286796E0,3.307675974E-1,3.227727900E0
1.280335238E1,-2.377744517E0,-2.510802880E0,1.393111006E-1,3.460810262E0
1.281329837E1,-2.540949077E0,-2.805109616E0,-6.774933061E-2,3.785452699E0
1.282324437E1,-2.532510375E0,-3.064333935E0,-3.118308413E-1,3.987604511E0
1.283318937E1,-2.484243364E0,-3.261926262E0,-6.070918429E-1,4.144899099E0
1.284313538E1,-2.430903894E0,-3.305535966E0,-9.545357358E-1,4.212718865E0
1.285308137E1,-2.441602544E0,-3.278481191E0,-1.202536032E0,4.260980499E0
1.286302737E1,-2.504314517E0,-3.208176317E0,-1.349684722E0,4.287847400E0
1.287297237E1,-2.532541950E0,-3.032505201E0,-1.349673613E0,4.175101841E0
1.288291838E1,-2.565155965E0,-2.766837835E0,-1.285465922E0,3.985955264E0
1.289286437E1,-2.667102755E0,-2.447461747E0,-1.137412668E0,3.794366045E0
1.290281037E1,-2.722078861E0,-2.081706128E0,-9.103991979E-1,3.545707324E0
1.291275638E1,-2.835135360E0,-1.675248042E0,-8.069584447E-1,3.390520675E0
1.292270138E1,-3.026924034E0,-1.431981944E0,-5.738784885E-1,3.397378094E0
1.293264737E1,-3.118397291E0,-1.303745488E0,-3.887626576E-1,3.402247840E0
1.294259337E1,-3.167574129E0,-1.254264303E0,-2.721785513E-1,3.417716484E0
1.295253938E1,-3.178233603E0,-1.324735238E0,-9.983654777E-2,3.444714737E0
1.296248438E1,-3.092813383E0,-1.438893937E0,1.010673684E-1,3.412641938E0
1.297243037E1,-2.967060825E0,-1.526471487E0,2.330828432E-1,3.344830750E0
1.298237637E1,-2.677418997E0,-1.575691594E0,2.941640457E-1,3.120562285E0
1.299232238E1,-2.184081227E0,-1.565657772E0,2.330805044E-1,2.697373090E0
1.300226738E1,-1.490623670E0,-1.546069600E0,7.974140346E-2,2.149104191E0
1.301221337E1,-5.468403786E-1,-1.571607606E0,-1.203175718E-1,1.668370818E0
1.302215937E1,5.386069143E-1,-1.577693096E0,-3.204186835E-1,1.697610393E0
1.303210538E1,1.637995139E0,-1.610026444E0,-5.017279404E-1,2.350945374E0
1.304205137E1,2.724334717E0,-1.633438988E0,-6.387416518E-1,3.240079239E0
1.305199637E1,3.782650929E0,-1.659287482E0,-7.183643568E-1,4.192580393E0
1.306194237E1,4.452555901E0,-1.587315859E0,-8.117636865E-1,4.796226222E0
1.307188838E1,4.426762664E0,-1.377340591E0,-8.470949024E-1,4.712840392E0
1.308183437E1,3.921104810E0,-1.151026740E0,-7.130919224E-1,4.148303939E0
1.309177937E1,3.294865090E0,-1.045039817E0,-5.686236689E-1,3.503081080E0
1.310172537E1,2.874064368E0,-1.042079372E0,-4.020919704E-1,3.083480722E0
1.311167138E1,2.726529762E0,-1.014960278E0,-3.759625909E-1,2.933505885E0
1.312161737E1,2.786340346E0,-1.145674491E0,-3.941964751E-1,3.038363609E0
1.313156337E1,3.121523212E0,-1.301307491E0,-4.089408141E-1,3.406543841E0
1.314150837E1,3.817576348E0,-1.429850341E0,-4.650640710E-1,4.103004480E0
1.315145438E1,4.776819093E0,-1.550694747E0,-5.129649733E-1,5.048345066E0
1.316140037E1,5.928121237E0,-1.642439315E0,-5.036937743E-1,6.172028493E0
1.317134637E1,6.985967917E0,-1.546177188E0,-5.817418972E-1,7.178637425E0
1.318129137E1,7.149246152E0,-1.287048471E0,-5.401414429E-1,7.284227281E0
1.319123738E1,6.350964391E0,-9.850871453E-1,-1.954854293E-1,6.429880242E0
1.320118337E1,4.801084453E0,-6.802656537E-1,4.381811316E-1,4.868796154E0
1.321112937E1,2.884429727E0,-2.229113558E-1,8.062941279E-1,3.003287290E0
1.322107538E1,1.209342191E0,3.671107104E-1,8.938889267E-1,1.548003948E0
1.323102038E1,1.067929620E-1,9.843053725E-1,7.477951473E-1,1.240749526E0
1.324096637E1,-4.036683798E-1,1.683344682E0,6.251842976E-1,1.840503432E0
1.325091237E1,-7.861768556E-1,2.318118413E0,5.583453602E-1,2.510676515E0
1.326085838E1,-1.075142745E0,2.778878129E0,5.065828471E-1,3.022370222E0
1.327080437E1,-1.151780446E0,3.126849149E0,5.194099206E-1,3.372472455E0
1.328074938E1,-1.257047285E0,3.611488601E0,5.413199858E-1,3.862129609E0
1.329069537E1,-1.334980729E0,4.023480785E0,5.397582310E-1,4.273395620E0
1.330064138E1,-1.446459650E0,4.282564479E0,4.309614283E-1,4.540741325E0
1.331058737E1,-1.550183993E0,4.505514134E0,3.627220096E-1,4.778524383E0
1.332053238E1,-1.546965101E0,4.596626617E0,2.958129422E-1,4.858969292E0
1.333047837E1,-1.474697024E0,4.635814072E0,2.575038125E-1,4.871530728E0
1.334042438E1,-1.397098625E0,4.552494465E0,3.038909072E-1,4.771733448E0
1.335037037E1,-1.299594550E0,4.336020016E0,4.950211841E-1,4.553576786E0
1.336031538E1,-1.200692990E0,4.044992691E0,7.054794323E-1,4.278005465E0
1.337026137E1,-1.113930835E0,3.704613989E0,9.119919795E-1,3.974510798E0
1.338020738E1,-1.014635757E0,3.396837315E0,1.065526414E0,3.701801724E0
1.339015337E1,-8.132249057E-1,3.105475529E0,1.121385450E0,3.400414436E0
1.340009937E1,-5.980543864E-1,2.856181536E0,1.122201136E0,3.126464042E0
1.341004437E1,-4.437621528E-1,2.676951512E0,1.054024356E0,2.911006972E0
1.341999037E1,-3.307430756E-1,2.572374938E0,9.126860440E-1,2.749454422E0
1.342993638E1,-2.800178951E-1,2.539294315E0,7.315784794E-1,2.657373273E0
1.343988237E1,-2.855370820E-1,2.506841683E0,5.419217008E-1,2.580594075E0
1.344982737E1,-3.145135438E-1,2.465049294E0,3.798421820E-1,2.513894762E0
1.345977337E1,-4.148207742E-1,2.388469188E0,2.828198808E-1,2.440665569E0
1.346971938E1,-5.285573047E-1,2.226908573E0,1.995537758E-1,2.297458667E0
1.347966537E1,-6.232108623E-1,2.094049893E0,1.479368949E-1,2.189822381E0
1.348961138E1,-6.140488601E-1,1.959277419E0,1.685699282E-1,2.060155293E0
1.349955637E1,-6.550308251E-1,1.842601786E0,2.072048392E-1,1.966514828E0
1.350950238E1,-7.245203054E-1,1.713366626E0,3.018303484E-1,1.884583887E0
1.351944837E1,-7.598006505E-1,1.623196713E0,3.908132762E-1,1.834339013E0
1.352939437E1,-7.038369495E-1,1.553188585E0,4.481551659E-1,1.763129117E0
1.353933937E1,-5.245852911E-1,1.418695608E0,5.329930025E-1,1.603735794E0
1.354928538E1,-3.586623609E-2,1.202142515E0,5.838731343E-1,1.336914675E0
1.355923137E1,7.199746799E-1,8.454989049E-1,5.998419167E-1,1.262157781E0
1.356917737E1,1.347643459E0,4.403757378E-1,4.763814666E-1,1.495664730E0
1.357912338E1,1.675593320E0,-1.058524373E-1,4.284038196E-1,1.732728353E0
1.358906838E1,2.031548420E0,-7.793481848E-1,4.416571552E-1,2.220277825E0
1.359901437E1,2.321497226E0,-1.334437523E0,2.279922573E-1,2.687387829E0
1.360896037E1,2.365996292E0,-1.652831864E0,-6.996314127E-2,2.886985705E0
1.361890638E1,1.893717268E0,-1.882475411E0,-2.785642407E-1,2.684674431E0
1.362885138E1,1.128779254E0,-2.109149743E0,-3.817296267E-1,2.422472446E0
1.363879737E1,4.436884779E-1,-2.248262897E0,-3.228265303E-1,2.314252036E0
1.364874337E1,-2.944306970E-2,-2.157738643E0,-1.816022938E-1,2.165567440E0
1.365868938E1,-3.291941482E-1,-1.899569746E0,-1.002744859E-1,1.930489311E0
1.366863537E1,-2.618102503E-1,-1.343390195E0,-4.030251861E-2,1.369257505E0
1.367858037E1,1.784728092E-1,-5.149104881E-1,-1.000564031E-1,5.540727734E-1
1.368852637E1,5.739287746E-1,2.490048480E-1,-6.420652092E-2,6.289039116E-1
1.369847238E1,6.704201120E-1,8.708790368E-1,2.116610022E-1,1.119238046E0
1.370841837E1,5.311990768E-1,1.421933796E0,5.290046167E-1,1.607455774E0
1.371836337E1,1.862893671E-1,1.904367387E0,7.176644450E-1,2.043614721E0
1.372830937E1,-1.826506448E-1,2.383509872E0,8.914366776E-1,2.551301612E0
1.373825538E1,-5.762349164E-1,2.664707735E0,1.063179926E0,2.926271612E0
1.374820137E1,-8.480339652E-1,2.858812491E0,1.249442396E0,3.233121830E0
1.375814737E1,-1.006325694E0,3.045766979E0,1.404937987E0,3.501890723E0
1.376809237E1,-1.009651591E0,3.126445983E0,1.458642324E0,3.594676376E0
1.377803838E1,-9.369952583E-1,3.170105681E0,1.462137204E0,3.614605835E0
1.378798462E1,-7.296874899E-1,3.271122178E0,1.468998327E0,3.659322372E0
1.379793062E1,-4.571207017E-1,3.342471950E0,1.392369981E0,3.649626315E0
1.380787562E1,-3.138791209E-1,3.408928480E0,1.294763580E0,3.660017242E0
1.381782163E1,2.564881146E-2,3.460712298E0,1.313779310E0,3.701783833E0
1.382776762E1,3.993122041E-1,3.470780911E0,1.253811436E0,3.711847719E0
1.383771362E1,6.717924535E-1,3.538745145E0,1.118748356E0,3.771686650E0
1.384765963E1,7.675142974E-1,3.530254404E0,1.015955474E0,3.752857561E0
1.385760462E1,8.110257679E-1,3.586929126E0,9.924373877E-1,3.809036009E0
1.386755063E1,7.089509243E-1,3.670456309E0,9.375361258E-1,3.854067322E0
1.387749662E1,4.072474605E-1,3.709785559E0,8.482128900E-1,3.827247639E0
1.388744263E1,3.948332369E-2,3.794347407E0,7.995856905E-1,3.877881955E0
1.389738762E1,-9.385716677E-2,3.941715075E0,7.624734128E-1,4.015880054E0
1.390733363E1,-2.184993392E-1,4.066107864E0,6.576597333E-1,4.124741380E0
1.391727962E1,-3.172757685E-1,4.144891786E0,7.107588103E-1,4.217341570E0
1.392722563E1,-2.591930366E-1,4.135235986E0,9.203517437E-1,4.244337996E0
1.393717162E1,-2.153096831E-1,4.129487881E0,1.095198694E0,4.277673269E0
1.394711663E1,-2.424682456E-1,4.032049295E0,1.297709992E0,4.242671751E0
1.395706262E1,-2.270362741E-1,3.937862345E0,1.471973391E0,4.210108191E0
1.396700863E1,-2.457742614E-1,3.795557488E0,1.665053714E0,4.151995364E0
1.397695462E1,-2.306732422E-1,3.597300040E0,1.854011750E0,4.053533927E0
1.398689963E1,-3.353571135E-1,3.292532051E0,1.907554119E0,3.819946913E0
1.399684562E1,-4.320718145E-1,2.798203762E0,1.965398285E0,3.446653560E0
1.400679162E1,-4.021188676E-1,2.238650367E0,2.044358500E0,3.058211360E0
1.401673763E1,-1.675776923E-1,1.762063115E0,1.995966359E0,2.667738819E0
1.402668362E1,2.957451510E-1,1.342481245E0,1.820285595E0,2.281043782E0
1.403662862E1,8.023116624E-1,9.571368697E-1,1.588905424E0,2.020998624E0
1.404657462E1,1.267320258E0,5.923086199E-1,1.239290460E0,1.868895659E0
1.405652063E1,1.734770066E0,2.236235467E-1,9.358499350E-1,1.983746399E0
1.406646662E1,2.125985046E0,-1.994444329E-1,6.497554672E-1,2.231988500E0
1.407641162E1,2.491158282E0,-7.671707734E-1,3.751415688E-1,2.633467633E0
1.408635762E1,2.780741637E0,-1.252806884E0,-8.947891787E-2,3.051238374E0
1.409630363E1,3.113924755E0,-1.649139932E0,-4.791746449E-1,3.556093114E0
1.410624962E1,3.182109137E0,-1.965577502E0,-8.018006889E-1,3.825205592E0
1.411619562E1,3.210234244E0,-2.093728589E0,-1.266216888E0,4.036410350E0
1.412614062E1,3.312036608E0,-2.104773687E0,-1.846886918E0,4.337124629E0
1.413608663E1,3.989032499E0,-2.381530589E0,-2.338472278E0,5.201203786E0
1.414603262E1,5.172048771E0,-2.860445910E0,-2.558878979E0,6.440504710E0
1.415597862E1,6.215519487E0,-3.492705631E0,-2.601824439E0,7.589543170E0
1.416592362E1,6.062323022E0,-4.039209503E0,-2.351273587E0,7.654767228E0
1.417586963E1,4.601308483E0,-4.137305316E0,-2.200052896E0,6.567310544E0
1.418581562E1,2.656634485E0,-3.892340602E0,-2.473413736E0,5.322198573E0
1.419576162E1,1.560256991E0,-3.412318988E0,-2.698191231E0,4.621532070E0
1.420570763E1,1.539839099E0,-2.504660672E0,-2.630482228E0,3.945106625E0
1.421565263E1,1.553615139E0,-1.682711428E0,-2.171366456E0,3.155957864E0
1.422559862E1,1.208034169E0,-1.297520250E0,-1.246818166E0,2.167362658E0
1.423554462E1,6.777706468E-1,-1.078684696E0,-1.421523175E-1,1.281850617E0
1.424549063E1,4.449614167E-2,-9.589927760E-1,8.018039779E-1,1.250814403E0
1.425543563E1,-8.853006095E-1,-8.792887947E-1,1.420928367E0,1.891016494E0
1.426538162E1,-1.773117276E0,-9.921804026E-1,1.780381857E0,2.701504466E0
1.427532762E1,-2.492133012E0,-1.235095668E0,1.814161806E0,3.320748608E0
1.428527363E1,-2.969687394E0,-1.544089148E0,1.758043739E0,3.780737005E0
1.429521962E1,-3.329694614E0,-1.729206733E0,1.445208930E0,4.020653057E0
1.430516462E1,-3.418808520E0,-1.719465272E0,9.072042793E-1,3.932916490E0
1.431511062E1,-3.607330354E0,-1.885817680E0,6.398135195E-1,4.120497779E0
1.432505663E1,-3.645201015E0,-2.051303823E0,6.625118259E-1,4.234886036E0
1.433500262E1,-3.408334987E0,-2.040406660E0,5.944707010E-1,4.016640653E0
1.434494762E1,-3.244399526E0,-1.899839303E0,3.853291361E-1,3.779417442E0
1.435489362E1,-3.139839031E0,-1.724635964E0,-1.126137190E-3,3.582312049E0
1.436483963E1,-3.095608937E0,-1.586720612E0,-2.761399851E-1,3.489517199E0
1.437478562E1,-3.161478991E0,-1.558448448E0,-5.292970141E-1,3.564248350E0
1.438473162E1,-3.226672522E0,-1.596310046E0,-7.855196285E-1,3.684652278E0
1.439467662E1,-3.323798282E0,-1.729318122E0,-1.003043652E0,3.878694723E0
1.440462263E1,-3.356170807E0,-1.938149383E0,-1.175034238E0,4.049816166E0
1.441456862E1,-3.291321092E0,-2.200667439E0,-1.348150998E0,4.182492417E0
1.442451462E1,-3.169023653E0,-2.563026994E0,-1.492090736E0,4.340294120E0
1.443445962E1,-3.000893984E0,-2.912529691E0,-1.518214341E0,4.448951415E0
1.444440563E1,-2.713340197E0,-3.072387305E0,-1.489865870E0,4.361362068E0
1.445435162E1,-2.478986133E0,-3.068950896E0,-1.511253231E0,4.224655983E0
1.446429762E1,-2.276263166E0,-2.902618076E0,-1.444170465E0,3.961337404E0
1.447424363E1,-2.232033657E0,-2.657542557E0,-1.140704066E0,3.653178405E0
1.448418863E1,-2.331697694E0,-2.434674763E0,-6.397567284E-1,3.431288972E0
1.449413462E1,-2.346062549E0,-2.090627518E0,-1.496249861E-1,3.145968935E0
1.450408062E1,-2.256751592E0,-1.662264007E0,2.348779933E-1,2.812688580E0
1.451402663E1,-2.176981537E0,-1.212764567E0,5.152455336E-1,2.544705183E0
1.452397163E1,-2.083619630E0,-7.696356672E-1,6.724420792E-1,2.320773184E0
1.453391762E1,-2.051649393E0,-4.257176453E-1,8.201176035E-1,2.250131914E0
1.454386362E1,-2.081984748E0,-2.658278722E-1,8.847620809E-1,2.277746450E0
1.455380963E1,-2.068453707E0,-1.988836849E-1,9.156564295E-1,2.270788883E0
1.456375562E1,-1.726550050E0,-1.308326197E-1,7.927000093E-1,1.904328111E0
1.457370062E1,-1.263729483E0,-1.185756862E-1,5.184948313E-1,1.371097841E0
1.458364662E1,-5.408528298E-1,-2.330969131E-1,2.064394569E-1,6.240778828E-1
1.459359263E1,5.325585544E-1,-5.588113832E-1,2.702465902E-2,7.724112299E-1
1.460353862E1,1.488686487E0,-7.955996436E-1,-9.516694307E-2,1.690627989E0
1.461348362E1,2.178800606E0,-8.269097292E-1,-1.753848946E-1,2.337030518E0
1.462342962E1,2.870202867E0,-6.574293530E-1,-4.156165802E-1,2.973720732E0
1.463337563E1,3.366940793E0,-4.229647762E-1,-6.638402402E-1,3.457726619E0
1.464332162E1,3.698754494E0,-2.518793392E-1,-7.192203891E-1,3.776440914E0
1.465326663E1,3.739879716E0,-1.692149127E-1,-5.116173363E-1,3.778503179E0
1.466321262E1,3.359873264E0,-7.256920874E-2,-1.561545718E-1,3.364282819E0
1.467315863E1,2.715743988E0,1.477608937E-1,1.874161073E-1,2.726210462E0
1.468310462E1,1.884957554E0,3.457692504E-1,4.136133242E-1,1.960534962E0
1.469305062E1,1.090998639E0,4.104663527E-1,6.811246097E-1,1.350070884E0
1.470299562E1,3.763700688E-1,3.278030956E-1,9.340237033E-1,1.059013492E0
1.471294163E1,-2.616944754E-1,1.473948580E-1,1.072689253E0,1.113944108E0
1.472288762E1,-8.202538437E-1,-1.072905600E-1,1.088109530E0,1.366861362E0
1.473283362E1,-1.230779253E0,-4.103078932E-1,9.775761044E-1,1.624446114E0
1.474277862E1,-1.461737840E0,-6.774560666E-1,7.604561234E-1,1.781549255E0
1.475272462E1,-1.664575996E0,-8.456208193E-1,3.932041661E-1,1.908008735E0
1.476267063E1,-1.801855756E0,-9.114236301E-1,-8.258607388E-3,2.019268532E0
1.477261662E1,-1.985759459E0,-8.699621934E-1,-3.585500944E-1,2.197415076E0
1.478256200E1,-2.196329389E0,-7.916884410E-1,-5.885585082E-1,2.407703157E0
1.479250700E1,-2.440594484E0,-6.694676006E-1,-6.917373061E-1,2.623583200E0
1.480245300E1,-2.635851726E0,-5.629582286E-1,-6.834962404E-1,2.780612055E0
1.481239900E1,-2.855073781E0,-4.387306237E-1,-6.139389324E-1,2.953108848E0
1.482234500E1,-3.019736636E0,-3.398045057E-1,-4.790705645E-1,3.076326553E0
1.483229000E1,-3.098046641E0,-2.713026202E-1,-3.936813354E-1,3.134722172E0
1.484223600E1,-3.093760048E0,-2.693180752E-1,-2.543948114E-1,3.115862670E0
1.485218200E1,-2.990626858E0,-3.893959111E-1,-1.900274920E-1,3.021851854E0
1.486212800E1,-2.776749743E0,-6.199446076E-1,-1.624438369E-1,2.849747085E0
1.487207400E1,-2.535660270E0,-9.751401544E-1,-1.955133498E-1,2.723728474E0
1.488201900E1,-2.384084653E0,-1.348646257E0,-2.432570350E-1,2.749887333E0
1.489196500E1,-2.192780714E0,-1.646752514E0,-3.009988743E-1,2.758746350E0
1.490191100E1,-2.227012069E0,-1.936700735E0,-3.647446346E-1,2.973790702E0
1.491185700E1,-2.354574925E0,-2.251347011E0,-3.751602799E-1,3.279227299E0
1.492180200E1,-2.512424605E0,-2.458630806E0,-4.537205458E-1,3.544432982E0
1.493174800E1,-2.783134902E0,-2.640099728E0,-5.738749802E-1,3.878827007E0
1.494169400E1,-3.090368078E0,-2.733972682E0,-5.938105138E-1,4.168643953E0
1.495164000E1,-3.223678163E0,-2.729799525E0,-7.203722906E-1,4.285188745E0
1.496158600E1,-3.298205604E0,-2.730503529E0,-9.247406638E-1,4.380519949E0
1.497153100E1,-3.252916580E0,-2.737750568E0,-1.088735182E0,4.388859618E0
1.498147700E1,-3.020912511E0,-2.595641593E0,-1.219121075E0,4.165275966E0
1.499142300E1,-2.716020561E0,-2.261706523E0,-1.384256970E0,3.795820259E0
1.500136900E1,-2.544326429E0,-1.929699279E0,-1.458513100E0,3.510640504E0
1.501131400E1,-2.312913514E0,-1.521834353E0,-1.333278605E0,3.072975847E0
1.502126000E1,-1.995942970E0,-1.012539530E0,-1.177294260E0,2.528842900E0
1.503120600E1,-1.749058907E0,-5.960686719E-1,-9.332676584E-1,2.070143339E0
1.504115200E1,-1.551155216E0,-1.741540557E-1,-6.779074717E-1,1.701755176E0
1.505109800E1,-1.452806802E0,2.323128015E-1,-4.180706567E-1,1.529509698E0
1.506104300E1,-1.251157969E0,4.565108371E-1,-2.212802750E-1,1.350097540E0
1.507098900E1,-9.952627623E-1,5.348237658E-1,-1.402823414E-1,1.138535709E0
1.508093500E1,-6.436667615E-1,5.275129920E-1,-8.548570812E-2,8.365910966E-1
1.509088100E1,-2.799184924E-1,4.481534117E-1,-8.439001299E-2,5.350864577E-1
1.510082600E1,8.194054127E-2,1.675165889E-1,-6.730919972E-2,1.982588919E-1
1.511077200E1,4.575645053E-1,-2.438122281E-1,-5.596253157E-2,5.214800898E-1
1.512071800E1,9.419244611E-1,-8.237788376E-1,2.403439522E-2,1.251563389E0
1.513066400E1,1.539954874E0,-1.461590490E0,1.213805225E-1,2.126603161E0
1.514061000E1,2.156274793E0,-2.062087258E0,2.879443806E-1,2.997438374E0
1.515055500E1,2.750935455E0,-2.529411059E0,4.416975009E-1,3.763065620E0
1.516050100E1,3.375785292E0,-2.765595594E0,4.405232339E-1,4.386172140E0
1.517044700E1,4.025216238E0,-2.757168879E0,3.070805633E-1,4.888623985E0
1.518039300E1,4.542897137E0,-2.601683814E0,-1.796337739E-3,5.235138613E0
1.519033800E1,4.999310911E0,-2.406509602E0,-3.500629339E-1,5.559401236E0
1.520028400E1,5.299228635E0,-2.270738132E0,-6.451393097E-1,5.801230948E0
1.521023000E1,5.656884690E0,-2.065424264E0,-9.008045018E-1,6.089151873E0
1.522017600E1,5.773790411E0,-1.796940879E0,-1.304047204E0,6.185967293E0
1.523012200E1,5.611348913E0,-1.373775543E0,-1.809694680E0,6.053882284E0
1.524006700E1,5.070280906E0,-9.302993193E-1,-2.221299924E0,5.613143383E0
1.525001300E1,4.123261181E0,-6.595746964E-1,-1.954852393E0,4.610614864E0
1.525995900E1,3.022542715E0,-6.100514111E-1,-1.018873381E0,3.247465189E0
1.526990500E1,1.737505394E0,-7.647047102E-1,1.032125656E-1,1.901144687E0
1.527985000E1,7.337431186E-1,-8.389228338E-1,1.093767296E0,1.561568885E0
1.528979600E1,2.860112911E-1,-5.956263301E-1,1.705949725E0,1.829436429E0
1.529974200E1,2.409280890E-1,-1.123799765E-1,1.812304730E0,1.831699768E0
1.530968800E1,3.422123891E-1,5.544996464E-1,1.502632096E0,1.637828561E0
1.531963400E1,5.185088646E-1,1.299442230E0,1.152244057E0,1.812475632E0
1.532957900E1,7.791256982E-1,2.060430742E0,9.133000016E-1,2.384644332E0
1.533952500E1,9.791396499E-1,2.791605763E0,7.614939310E-1,3.054774983E0
1.534947100E1,8.398806077E-1,3.457879907E0,5.453252920E-1,3.599960078E0
1.535941700E1,7.191595781E-1,4.110953962E0,3.006585664E-1,4.184199869E0
1.536936200E1,6.317477971E-1,4.515808741E0,1.163788873E-1,4.561269331E0
1.537930800E1,1.914109433E-1,4.670628686E0,-9.675329268E-2,4.675550414E0
1.538925400E1,-4.777754062E-1,4.553998661E0,-3.523883716E-1,4.592532058E0
1.539920000E1,-7.925672776E-1,4.389368258E0,-1.962536073E-1,4.464664833E0
1.540914500E1,-1.018386161E0,4.355090418E0,-3.690037465E-1,4.487770793E0
1.541909100E1,-1.278812376E0,4.134745697E0,-3.994006067E-1,4.346378253E0
1.542903700E1,-1.468509500E0,3.892783821E0,-1.914600599E-1,4.164966144E0
1.543898300E1,-1.592393289E0,3.638191373E0,1.060239800E-1,3.972831980E0
1.544892900E1,-1.602311921E0,3.483843299E0,4.211935814E-1,3.857715860E0
1.545887400E1,-1.504168745E0,3.393048904E0,6.588350236E-1,3.769531544E0
1.546882000E1,-1.275891691E0,3.331023979E0,7.613419034E-1,3.647363685E0
1.547876600E1,-9.943084967E-1,3.324656069E0,7.389980114E-1,3.547972015E0
1.548871200E1,-6.578018206E-1,3.287646994E0,6.836096764E-1,3.421790202E0
1.549865700E1,-2.961842769E-1,3.177759978E0,6.498296537E-1,3.257017375E0
1.550860300E1,2.525997162E-4,2.946988210E0,6.659697962E-1,3.021300274E0
1.551854900E1,1.386959553E-1,2.656888546E0,6.466733998E-1,2.737970014E0
1.552849500E1,2.111008573E-1,2.281832931E0,6.540707123E-1,2.383093283E0
1.553844100E1,1.621093762E-1,1.915820036E0,6.505354127E-1,2.029739437E0
1.554838600E1,6.951696217E-2,1.544361336E0,6.155972028E-1,1.663984513E0
1.555833200E1,-1.242825687E-2,1.231351111E0,5.381362134E-1,1.343864057E0
1.556827800E1,-4.922770858E-2,1.025957429E0,4.257351138E-1,1.111873374E0
1.557822400E1,-1.047780114E-1,9.448533314E-1,3.352326409E-1,1.008021415E0
1.558816900E1,-1.325423455E-1,9.133523342E-1,3.449741022E-1,9.852852840E-1
1.559811500E1,-9.409164011E-2,1.037824645E0,3.111116338E-1,1.087531002E0
1.560806100E1,9.691759944E-2,1.263161134E0,1.676900319E-1,1.277923713E0
1.561800700E1,2.682948124E-1,1.431750686E0,1.860233188E-2,1.456790370E0
1.562795300E1,4.987715882E-1,1.501381962E0,-5.955454923E-2,1.583182755E0
1.563789800E1,6.868157047E-1,1.481036282E0,-2.363480381E-1,1.649558934E0
1.564784400E1,5.925761300E-1,1.263538279E0,-3.247607893E-1,1.432879975E0
1.565779000E1,4.582229018E-1,7.493660018E-1,-2.267468369E-1,9.071558634E-1
1.566773600E1,5.186527061E-1,7.357580692E-2,-6.521516562E-2,5.278892372E-1
1.567768100E1,6.215315419E-1,-5.421628985E-1,-9.584638953E-2,8.303183706E-1
1.568762700E1,5.020097762E-1,-1.114855279E0,-9.744618773E-2,1.226544687E0
1.569757300E1,2.811773980E-1,-1.566284301E0,6.342584454E-2,1.592585972E0
1.570751900E1,1.533818221E-1,-1.812109726E0,2.826707768E-1,1.840426692E0
1.571746500E1,2.697525233E-1,-1.880434733E0,4.987224716E-1,1.964058378E0
1.572741000E1,4.049880964E-1,-1.700186417E0,5.246588930E-1,1.824805788E0
1.573735600E1,6.425557905E-1,-1.335288000E0,3.949438224E-1,1.533575108E0
1.574730200E1,1.057240325E0,-8.175325495E-1,1.472123518E-1,1.344540089E0
1.575724800E1,1.216458253E0,-3.480011326E-1,-7.549391292E-2,1.267507317E0
1.576719300E1,1.064187986E0,2.142712176E-2,-1.455320082E-1,1.074306640E0
1.577713900E1,8.131880683E-1,4.120386690E-1,-1.216793883E-1,9.197046116E-1
1.578708525E1,4.795576376E-1,7.552623340E-1,-1.373503648E-2,8.947543642E-1
1.579703125E1,9.933133006E-2,1.014796263E0,1.022683865E-1,1.024761920E0
1.580697725E1,-2.671803331E-1,1.283622295E0,3.144117292E-1,1.348304959E0
1.581692225E1,-4.831396419E-1,1.539038031E0,5.214365655E-1,1.695275218E0
1.582686825E1,-6.311858797E-1,1.854002979E0,7.713955329E-1,2.104940315E0
1.583681425E1,-6.332844454E-1,2.173429939E0,9.804389012E-1,2.467003714E0
1.584676025E1,-5.977848297E-1,2.508181865E0,1.140288255E0,2.819322663E0
1.585670525E1,-5.034259719E-1,2.857660004E0,1.246354482E0,3.158014868E0
1.586665125E1,-3.425018263E-1,3.158929605E0,1.297912890E0,3.432305584E0
1.587659725E1,-1.656451875E-1,3.442390925E0,1.334990669E0,3.695902285E0
1.588654325E1,4.999369383E-3,3.639454372E0,1.370504903E0,3.888950605E0
1.589648925E1,1.942304707E-1,3.839851901E0,1.357994785E0,4.077540672E0
1.590643425E1,3.151754487E-1,4.012309679E0,1.263189785E0,4.218247617E0
1.591638025E1,3.440653718E-1,4.118591595E0,1.152279141E0,4.290562308E0
1.592632625E1,3.421048003E-1,4.152627945E0,1.059357528E0,4.299254925E0
1.593627225E1,2.022358936E-1,4.132761152E0,9.861107735E-1,4.253590079E0
1.594621725E1,7.189794838E-2,4.078994835E0,8.920581635E-1,4.176019151E0
1.595616325E1,-9.930794120E-2,3.945745561E0,7.730474444E-1,4.021986133E0
1.596610925E1,-3.084371173E-1,3.783047663E0,7.239998301E-1,3.864034010E0
1.597605525E1,-4.268221843E-1,3.716658376E0,6.935026536E-1,3.804822281E0
1.598600125E1,-6.726297748E-1,3.618530695E0,6.863824260E-1,3.743970625E0
1.599594625E1,-7.882836074E-1,3.561010466E0,7.270819706E-1,3.718983030E0
1.600589225E1,-7.029487574E-1,3.608840982E0,7.229696238E-1,3.747072893E0
1.601583825E1,-4.914058506E-1,3.691644865E0,7.839658771E-1,3.805827638E0
1.602578425E1,-2.646841568E-1,3.756098138E0,8.160999817E-1,3.852836631E0
1.603572925E1,-8.470510483E-2,3.752160331E0,9.118725501E-1,3.862304189E0
1.604567525E1,2.267947841E-1,3.711465464E0,1.034684106E0,3.859660991E0
1.605562125E1,4.955994737E-1,3.593378897E0,1.019815952E0,3.768025387E0
1.606556725E1,6.728730190E-1,3.283138791E0,9.317859008E-1,3.478503038E0
1.607551325E1,8.181324738E-1,2.726939651E0,8.123781558E-1,2.960658520E0
1.608545825E1,8.826582527E-1,1.928352665E0,7.264989301E-1,2.241747151E0
1.609540425E1,9.301434910E-1,1.061606733E0,5.791923650E-1,1.525660370E0
1.610535025E1,1.064033620E0,2.251224804E-1,3.200222057E-1,1.133693913E0
1.611529625E1,1.199359825E0,-6.082364354E-1,-2.011909962E-2,1.344923912E0
1.612524125E1,1.367170821E0,-1.462007396E0,-3.859390372E-1,2.038521675E0
1.613518725E1,1.556340526E0,-2.205764456E0,-7.199531914E-1,2.793908601E0
1.614513325E1,1.986714894E0,-2.738929952E0,-1.099485873E0,3.557758077E0
1.615507925E1,2.447323460E0,-3.100315361E0,-1.476590937E0,4.216831542E0
1.616502525E1,2.863804843E0,-3.092935590E0,-1.941192712E0,4.640674293E0
1.617497025E1,3.114199575E0,-2.685876410E0,-2.293717251E0,4.708854416E0
1.618491625E1,3.061517916E0,-2.121139458E0,-2.428533432E0,4.446335478E0
1.619486225E1,2.672666965E0,-1.536492153E0,-2.359561431E0,3.882201307E0
1.620480825E1,2.695966365E0,-1.248209803E0,-1.868662095E0,3.509723690E0
1.621475325E1,3.556140904E0,-1.445265064E0,-9.939559096E-1,3.965208391E0
1.622469925E1,4.734819127E0,-2.040436188E0,-9.641824722E-2,5.156664473E0
1.623464525E1,5.612974439E0,-2.839006217E0,7.967006743E-1,6.340360425E0
1.624459125E1,6.126814302E0,-3.570984061E0,1.084414017E0,7.173962254E0
1.625453725E1,5.694760614E0,-3.513020613E0,1.648698467E-1,6.693190147E0
1.626448225E1,4.591821375E0,-3.145118482E0,-7.470152018E-1,5.615569919E0
1.627442825E1,3.295549799E0,-2.945143706E0,-7.825989443E-1,4.488538853E0
1.628437425E1,2.079609025E0,-2.710795489E0,-3.517363340E-1,3.434662185E0
1.629432025E1,7.379496056E-1,-2.490346688E0,1.231278167E-1,2.600299349E0
1.630426525E1,-4.300363988E-1,-2.283842912E0,2.261135834E-1,2.334951199E0
1.631421125E1,-1.214460259E0,-2.081786528E0,2.215229344E-1,2.420293635E0
