"Time (s)","Linear Acceleration x (m/s^2)","Linear Acceleration y (m/s^2)","Linear Acceleration z (m/s^2)","Absolute acceleration (m/s^2)"
1.379041467E-3,-4.769382604E0,-2.605600571E0,3.991369046E0,6.742936424E0
1.132304128E-2,-4.751174959E0,-2.814674783E0,3.821967022E0,6.715913158E0
2.126704156E-2,-4.763113219E0,-3.138238648E0,4.045010233E0,6.992703135E0
3.121004160E-2,-4.473461452E0,-3.394511585E0,4.043689932E0,6.919970702E0
4.115379136E-2,-4.730983354E0,-3.447883800E0,3.829205875E0,6.995207204E0
5.109779164E-2,-5.073343678E0,-3.447528874E0,3.475342909E0,7.049984379E0
6.104079168E-2,-5.346155464E0,-3.341863255E0,3.017178479E0,6.989477394E0
7.098479150E-2,-5.302921152E0,-3.142876074E0,2.699340209E0,6.729419018E0
8.092879131E-2,-4.986081585E0,-2.888929160E0,2.309152000E0,6.207987131E0
9.087279160E-2,-4.902868690E0,-2.527453703E0,1.896283611E0,5.832841087E0
1.008157916E-1,-4.807646198E0,-2.371109682E0,1.571241278E0,5.586091858E0
1.107597915E-1,-4.898289151E0,-2.413975035E0,1.302483659E0,5.613998197E0
1.207037913E-1,-4.869036115E0,-2.434049696E0,1.124176326E0,5.558406519E0
1.306467913E-1,-4.746027655E0,-2.525046989E0,1.008455104E0,5.469700403E0
1.405907916E-1,-4.726472227E0,-2.758768970E0,9.635742156E-1,5.556871531E0
1.505347914E-1,-4.671941679E0,-2.984224741E0,9.352048409E-1,5.622032057E0
1.604777914E-1,-4.567360718E0,-3.052382226E0,8.935374360E-1,5.565629374E0
1.704217913E-1,-4.392706141E0,-2.980937437E0,8.548908488E-1,5.377052502E0
1.803657915E-1,-4.109444211E0,-2.742759878E0,7.581337555E-1,4.998502802E0
1.903087916E-1,-4.507471781E0,-2.806845362E0,5.737323081E-1,5.340866176E0
2.002527914E-1,-4.173754227E0,-2.600929230E0,5.213389901E-1,4.945386896E0
2.101967917E-1,-3.662231616E0,-2.499685276E0,3.334326486E-1,4.446520462E0
2.201407915E-1,-2.934883012E0,-2.613220078E0,2.052934758E-1,3.935048015E0
2.300837915E-1,-1.967294537E0,-2.817141724E0,-5.109289728E-2,3.436443768E0
2.400277914E-1,-9.149044776E-1,-3.135185816E0,-4.188417582E-1,3.292699307E0
2.499717916E-1,2.351206344E-1,-3.519207551E0,-7.461198469E-1,3.605107256E0
2.599147917E-1,1.587221426E0,-3.831111483E0,-1.030221072E0,4.272943073E0
2.698587915E-1,2.608134754E0,-4.018443409E0,-1.359804060E0,4.979891706E0
2.798027913E-1,3.430226378E0,-3.792730359E0,-1.815849313E0,5.426653233E0
2.897457913E-1,4.100656430E0,-3.053700773E0,-2.215187391E0,5.572030756E0
2.996897916E-1,4.096848723E0,-1.930957015E0,-2.498504723E0,5.172551625E0
3.096337914E-1,3.521320735E0,-5.304658359E-1,-2.909055276E0,4.598227520E0
3.195777913E-1,2.666202868E0,8.418265611E-1,-3.411686611E0,4.410999346E0
3.295207913E-1,1.613823919E0,1.809066542E0,-3.806744381E0,4.513142163E0
3.394647916E-1,5.175896823E-1,2.392680060E0,-3.553012644E0,4.314709237E0
3.494087914E-1,-3.800093758E-1,2.523171203E0,-2.752639918E0,3.753375356E0
3.593517914E-1,-1.342869793E0,2.233410677E0,-2.346152888E0,3.506544725E0
3.692957913E-1,-2.243167925E0,1.457153623E0,-2.345848979E0,3.557823275E0
3.792397915E-1,-2.438498257E0,5.214283794E-1,-2.342847165E0,3.421563114E0
3.891827916E-1,-2.297235959E0,-3.295040506E-1,-2.330063836E0,3.288626377E0
3.991267914E-1,-2.290573642E0,-8.836025780E-1,-2.192102291E0,3.291320947E0
4.090707917E-1,-2.388199924E0,-1.093914646E0,-1.882812942E0,3.231893052E0
4.190147915E-1,-2.409720601E0,-1.006595251E0,-1.532800952E0,3.028112635E0
4.289577915E-1,-2.354595975E0,-7.097069693E-1,-1.000311394E0,2.654887771E0
4.389017913E-1,-2.225353798E0,-2.507274377E-1,-3.521612804E-1,2.266954200E0
4.488457916E-1,-1.968931757E0,1.093902951E-1,2.827469368E-1,1.992135621E0
4.587887917E-1,-1.601640075E0,3.217980051E-1,8.011901665E-1,1.819535812E0
4.687327915E-1,-1.125853892E0,4.241564387E-1,1.117517663E0,1.642041838E0
4.786767913E-1,-7.128445852E-1,5.006292486E-1,1.234583744E0,1.510951379E0
4.886197913E-1,-3.239983124E-1,6.271811217E-1,1.202234316E0,1.394165850E0
4.985637916E-1,-2.921795189E-2,7.592030650E-1,1.047616392E0,1.294118653E0
5.085077914E-1,1.986381018E-1,9.192314172E-1,7.979402840E-1,1.233349987E0
5.184517913E-1,2.643730849E-1,1.032494323E0,4.197691266E-1,1.145488444E0
5.283947913E-1,3.089136654E-1,1.051077359E0,1.077383105E-1,1.100817338E0
5.383387916E-1,3.434555072E-1,9.605583680E-1,-3.302507401E-2,1.020649166E0
5.482827914E-1,2.442914075E-1,8.341351336E-1,-9.534820676E-2,8.743860666E-1
5.582257914E-1,4.888330758E-2,6.890931952E-1,-7.965311050E-2,6.954017741E-1
5.681697913E-1,-2.019499648E-1,5.411697489E-1,-9.231437892E-3,5.776968970E-1
5.781137915E-1,-4.543982381E-1,3.438028318E-1,1.417400157E-1,5.871698033E-1
5.880567916E-1,-4.402924150E-1,2.346481794E-1,5.275976305E-1,7.261380299E-1
5.980007914E-1,-4.609979904E-1,1.524661481E-1,6.507212810E-1,8.119133322E-1
6.079447917E-1,-3.578513521E-1,9.820223272E-2,9.324753606E-1,1.003599306E0
6.178887915E-1,-1.419318044E-1,1.608452082E-1,1.197226614E0,1.216292475E0
6.278317915E-1,2.974186242E-2,2.474272692E-1,1.417514617E0,1.439254154E0
6.377757913E-1,3.217857260E-1,3.420925212E-1,1.685680937E0,1.749883872E0
6.477197916E-1,6.272355008E-1,4.136495769E-1,1.939097947E0,2.079574763E0
6.576627917E-1,1.023143456E0,5.382467258E-1,2.224351001E0,2.506844519E0
6.676067915E-1,1.357048706E0,6.183623511E-1,2.384281704E0,2.812250421E0
6.775507913E-1,1.506139841E0,6.823618805E-1,2.481980492E0,2.982331658E0
6.874937913E-1,1.623224487E0,7.446142620E-1,2.563340989E0,3.124103898E0
6.974377916E-1,1.684537221E0,8.591465986E-1,2.629339682E0,3.238707410E0
7.073817914E-1,1.772883387E0,9.278636616E-1,2.623310033E0,3.299363879E0
7.173257913E-1,1.798301818E0,1.015552016E0,2.638875321E0,3.350954832E0
7.272687913E-1,1.711526799E0,1.069199050E0,2.638869474E0,3.322069038E0
7.372127916E-1,1.545122058E0,1.159232723E0,2.645241770E0,3.275442978E0
7.471567914E-1,1.255817031E0,1.218238145E0,2.639055415E0,3.166353435E0
7.570997914E-1,9.223930067E-1,1.248666471E0,2.643853641E0,3.065931977E0
7.670437912E-1,6.127677351E-1,1.249986187E0,2.677116989E0,3.017433535E0
7.769877915E-1,3.733569986E-1,1.231675047E0,2.689922683E0,2.981962929E0
7.869307916E-1,2.881005013E-1,1.230670495E0,2.707010586E0,2.987550515E0
7.968747914E-1,2.322648543E-1,1.200432204E0,2.703912731E0,2.967512173E0
8.068187917E-1,2.623113567E-1,1.184713719E0,2.771126475E0,3.025143928E0
8.167627915E-1,3.228481650E-1,1.199227678E0,2.911184832E0,3.165023710E0
8.267057915E-1,3.861080217E-1,1.237699433E0,3.054826362E0,3.318575507E0
8.366497913E-1,5.173973089E-1,1.311437500E0,3.299249332E0,3.587842589E0
8.465937916E-1,5.587745458E-1,1.411720172E0,3.473531442E0,3.790857886E0
8.565367917E-1,6.932084656E-1,1.527523109E0,3.567213192E0,3.941937947E0
8.664807915E-1,7.925625998E-1,1.626456243E0,3.685888281E0,4.106006308E0
8.764247913E-1,9.076884288E-1,1.790101098E0,3.806525695E0,4.303254361E0
8.863687916E-1,1.009525291E0,1.924791126E0,3.900562956E0,4.465238355E0
8.963117916E-1,1.119758754E0,2.016068501E0,4.059501972E0,4.668827276E0
9.062557914E-1,1.257578212E0,2.190093334E0,4.247568308E0,4.941644291E0
9.161997912E-1,1.350751255E0,2.255328965E0,4.363830836E0,5.094512465E0
9.261427913E-1,1.399306533E0,2.238101313E0,4.520664562E0,5.234841386E0
9.360867916E-1,1.582151890E0,2.168737548E0,4.759641727E0,5.464505149E0
9.460307914E-1,1.739205179E0,2.023642400E0,4.906110971E0,5.584790782E0
9.559737914E-1,1.887927940E0,1.860199274E0,5.076347977E0,5.726597771E0
9.659177912E-1,1.948589294E0,1.647119134E0,5.106838868E0,5.708748103E0
9.758617915E-1,2.037181628E0,1.465205238E0,5.066397185E0,5.653787741E0
9.858057913E-1,2.216499944E0,1.145146780E0,4.849148566E0,5.453299456E0
9.957487914E-1,2.407129700E0,6.459892756E-1,4.579147536E0,5.213460241E0
1.005692792E0,2.659182116E0,6.972044528E-2,4.251460215E0,5.015079703E0
1.015636791E0,2.892243946E0,-3.679746366E-1,3.856397767E0,4.834489023E0
1.025579792E0,2.640320168E0,-4.153037542E-1,3.313259261E0,4.256930200E0
1.035523791E0,1.698882780E0,-3.462721109E-3,2.638502269E0,3.138137810E0
1.045467625E0,8.369909137E-1,6.535199046E-1,2.068199937E0,2.324885596E0
1.055410625E0,4.217684358E-1,1.102612964E0,1.692309486E0,2.063384443E0
1.065354625E0,3.894058514E-1,1.346241882E0,1.373288909E0,1.962122970E0
1.075298625E0,1.113725597E0,1.451298221E0,1.123638382E0,2.146908113E0
1.085242625E0,2.619773637E0,1.249728910E0,9.271203344E-1,3.047062253E0
1.095185625E0,4.564351741E0,5.260324770E-1,7.951277733E-1,4.662858046E0
1.105129625E0,6.068735079E0,-3.760467178E-1,7.664343166E-1,6.128489059E0
1.115073625E0,7.102195947E0,-1.183833713E0,7.585313661E-1,7.240028961E0
1.125016625E0,7.746092504E0,-2.021467820E0,5.921897753E-1,8.027388738E0
1.134960625E0,7.206781000E0,-2.630165309E0,2.334116395E-1,7.675281293E0
1.144904625E0,6.766784454E0,-2.815763535E0,3.443097854E-1,7.337332305E0
1.154847625E0,5.801217946E0,-2.407309794E0,1.001861930E-1,6.281664379E0
1.164791625E0,3.423794441E0,-1.677771993E0,-7.263031214E-2,3.813471174E0
1.174735625E0,1.239389863E0,-9.266269755E-1,2.771394570E-1,1.572110385E0
1.184679625E0,-5.054075933E-1,-5.597364128E-2,4.026147115E-1,6.485896158E-1
1.194622625E0,-1.740457653E0,5.400809973E-1,6.813851032E-1,1.945550304E0
1.204566625E0,-2.393453062E0,9.396539873E-1,1.194630743E0,2.835261855E0
1.214510625E0,-2.684703459E0,1.272934170E0,1.675463804E0,3.411036942E0
1.224453625E0,-2.749329810E0,1.467689136E0,2.092524062E0,3.753875697E0
1.234397625E0,-2.720841005E0,1.610903819E0,2.407115374E0,3.973939018E0
1.244341625E0,-2.636459836E0,1.768433656E0,2.557731755E0,4.076796512E0
1.254284625E0,-2.605187173E0,2.043772025E0,2.620421509E0,4.222631073E0
1.264228625E0,-2.417937108E0,2.414020643E0,2.830007937E0,4.436536988E0
1.274172625E0,-2.244888761E0,2.768366590E0,2.886399947E0,4.586358444E0
1.284116625E0,-2.290518093E0,3.194073710E0,2.971600895E0,4.927371701E0
1.294059625E0,-2.333479341E0,3.583598260E0,3.025745820E0,5.238553244E0
1.304003625E0,-2.472465318E0,3.938419585E0,3.054917579E0,5.563879491E0
1.313947625E0,-2.625714993E0,4.168743748E0,3.105441030E0,5.823793236E0
1.323890625E0,-2.793868636E0,4.257420866E0,3.102864455E0,5.963145329E0
1.333834625E0,-2.778940110E0,4.177492352E0,3.087209119E0,5.891078902E0
1.343778625E0,-2.521829851E0,3.815915739E0,3.160696926E0,5.559752133E0
1.353722625E0,-2.134585716E0,3.120895221E0,3.250788778E0,4.986388557E0
1.363665625E0,-1.696547402E0,2.283504358E0,3.248696644E0,4.318181924E0
1.373609625E0,-1.252473008E0,1.350255411E0,3.156088735E0,3.654144827E0
1.383553625E0,-4.940043533E-1,3.889649713E-1,3.169147614E0,3.230917927E0
1.393496625E0,3.121705645E-1,-6.131478041E-1,3.137104580E0,3.211670257E0
1.403440625E0,1.050992575E0,-1.485183420E0,3.019448369E0,3.525255116E0
1.413384625E0,1.651370060E0,-2.014462271E0,3.033809130E0,3.998634661E0
1.423327625E0,1.570038798E0,-2.105830278E0,2.803702483E0,3.841912363E0
1.433271625E0,8.692271984E-1,-1.550932437E0,2.386342409E0,2.975832226E0
1.443215625E0,-8.077109814E-2,-6.389369488E-1,2.006808851E0,2.107616227E0
1.453159625E0,-5.707946670E-1,4.211340129E-2,2.053469339E0,2.131740232E0
1.463102625E0,-5.703093481E-1,3.898502398E-1,2.324136075E0,2.424632850E0
1.473046625E0,-5.706063867E-2,2.220146853E-1,2.831668254E0,2.840931456E0
1.482990625E0,9.907235688E-1,-4.286582100E-1,3.459122733E0,3.623646110E0
1.492933625E0,2.154753347E0,-1.239610303E0,3.827849321E0,4.564211445E0
1.502877625E0,3.009694628E0,-2.191871472E0,3.741687967E0,5.278521682E0
1.512821625E0,3.699467854E0,-3.505412216E0,3.282129562E0,6.061876910E0
1.522764625E0,4.935244723E0,-5.096824341E0,2.564322152E0,7.543872145E0
1.532708625E0,6.575250719E0,-6.646352277E0,1.642174436E0,9.492347312E0
1.542652625E0,7.849884675E0,-7.916191515E0,5.245978627E-1,1.116073387E1
1.552596625E0,8.147184016E0,-8.583685096E0,-4.815266874E-1,1.184432882E1
1.562539625E0,6.964247265E0,-8.000819437E0,-1.209773716E0,1.067602005E1
1.572483625E0,4.370938126E0,-5.609182520E0,-2.310672276E0,7.477114083E0
1.582427625E0,2.140917665E0,-3.050153852E0,-3.815956962E0,5.333713013E0
1.592370625E0,8.130535823E-1,-1.590691749E0,-4.044018253E0,4.421022506E0
1.602314625E0,2.990499973E-1,-4.086987394E-1,-4.079898815E0,4.111209055E0
1.612258625E0,-1.169899213E-1,8.161069983E-1,-4.172014388E0,4.252695772E0
1.622201625E0,-2.262808138E-1,1.632885257E0,-3.957680021E0,4.287277506E0
1.632145625E0,-8.157099724E-2,2.161104593E0,-3.172334639E0,3.839366348E0
1.642089625E0,3.027395904E-2,2.436226029E0,-2.167178388E0,3.260793760E0
1.652033625E0,3.248145837E-1,2.171764652E0,-1.133825255E0,2.471361148E0
1.661976625E0,9.143291116E-1,1.449367470E0,1.743636784E-1,1.722517483E0
1.671920625E0,1.297212979E0,7.894472033E-1,1.186863155E0,1.927338203E0
1.681864625E0,9.530195528E-1,3.933521372E-1,1.758862495E0,2.038766649E0
1.691807625E0,1.726653546E-1,3.506966990E-1,1.989339709E0,2.027381064E0
1.701751625E0,-8.267278808E-1,6.106744319E-1,2.094394586E0,2.333000415E0
1.711695625E0,-1.827613910E0,9.940775317E-1,2.080472366E0,2.942231808E0
1.721638625E0,-2.790146298E0,1.388367562E0,2.104292607E0,3.760389372E0
1.731582625E0,-3.516458191E0,1.825066863E0,2.106650497E0,4.487128656E0
1.741526625E0,-4.224906839E0,2.328304555E0,2.110854498E0,5.265600309E0
1.751470625E0,-4.717023711E0,2.850905886E0,2.136244132E0,5.911134921E0
1.761413625E0,-4.967844120E0,3.319167872E0,2.150859978E0,6.350003875E0
1.771357625E0,-5.075445752E0,3.702595530E0,2.129522904E0,6.633568499E0
1.781301625E0,-4.994882230E0,4.077230730E0,2.082054330E0,6.775515416E0
1.791244625E0,-4.748841920E0,4.386118083E0,2.087196079E0,6.793078749E0
1.801188625E0,-4.402642899E0,4.720126829E0,2.058890878E0,6.775093610E0
1.811132625E0,-3.929916564E0,4.983150961E0,2.009103006E0,6.656765925E0
1.821075625E0,-3.339919056E0,5.143426065E0,1.960909670E0,6.438560221E0
1.831019625E0,-2.657769429E0,5.214265083E0,1.961965384E0,6.172649906E0
1.840963625E0,-1.967389262E0,5.071852638E0,2.124377646E0,5.840144696E0
1.850907625E0,-1.435295561E0,4.703276322E0,2.331556484E0,5.442153723E0
1.860850625E0,-1.012238984E0,4.130736846E0,2.782930834E0,5.082550411E0
1.870794625E0,-2.921625620E-1,3.484916555E0,3.322415123E0,4.823737618E0
1.880738625E0,3.929977959E-1,2.682511337E0,3.614748716E0,4.518486763E0
1.890681625E0,7.653268540E-1,1.813160763E0,3.675013629E0,4.168813059E0
1.900625625E0,1.102877258E0,1.112787704E0,3.655406746E0,3.977013100E0
1.910569625E0,9.698957866E-1,3.056158358E-1,3.358716977E0,3.509284629E0
1.920512625E0,6.026239854E-1,-5.227504349E-1,3.097037412E0,3.198134521E0
1.930456625E0,8.561645186E-1,-1.015270180E0,3.120898730E0,3.391725240E0
1.940400625E0,1.464977782E0,-1.557969561E0,3.167780535E0,3.822075689E0
1.950344625E0,1.920965878E0,-2.483813594E0,3.018487086E0,4.355537184E0
1.960287625E0,3.045415269E0,-3.559919375E0,2.815925503E0,5.465987244E0
1.970231625E0,4.597383832E0,-5.127017609E0,2.101134964E0,7.199792761E0
1.980175625E0,6.265862260E0,-7.077104375E0,1.194097184E0,9.527450041E0
1.990118625E0,7.913080212E0,-8.940724854E0,2.914660124E-1,1.194312990E1
2.000062625E0,9.834529070E0,-1.040366781E1,-7.018717003E-1,1.433341863E1
2.010006625E0,1.073729590E1,-1.121916494E1,-2.067420211E0,1.566631455E1
2.019949625E0,9.491281723E0,-9.832827530E0,-3.683632133E0,1.415408322E1
2.029893625E0,6.691679308E0,-5.697077866E0,-5.563649082E0,1.040141621E1
2.039837625E0,3.991200061E0,-1.695138223E0,-6.493151718E0,7.807956888E0
2.049781625E0,2.583303968E0,5.974147010E-1,-6.392020615E0,6.920136651E0
2.059724625E0,1.500880271E0,2.064677575E0,-6.471310029E0,6.956535673E0
2.069668625E0,9.637030005E-2,2.562349302E0,-6.469364076E0,6.958993657E0
2.079612625E0,-8.972067100E-1,2.000697926E0,-5.775362143E0,6.177586904E0
2.089555625E0,-9.102641273E-1,7.138643396E-1,-4.594328077E0,4.737724512E0
2.099499625E0,-4.943698043E-1,-9.571494412E-1,-3.279730157E0,3.452124919E0
2.109443625E0,-1.137903249E-1,-2.272207537E0,-2.121811011E0,3.110941545E0
2.119386625E0,2.501415467E-1,-2.790463802E0,-1.103409355E0,3.011107974E0
2.129330625E0,3.000855392E-1,-2.488207192E0,-1.142766671E-1,2.508841469E0
2.139274625E0,-3.747123832E-1,-1.598208345E0,6.514536448E-1,1.766089220E0
2.149218625E0,-1.558925580E0,-3.001516128E-1,1.233123987E0,2.010207632E0
2.159161625E0,-2.714493853E0,9.004735494E-1,1.523907191E0,3.240620715E0
2.169105625E0,-3.218453676E0,1.933532129E0,1.814353595E0,4.169996346E0
2.179049625E0,-3.645610905E0,2.754584702E0,2.028426884E0,4.999273085E0
2.188992625E0,-4.065487182E0,3.407290090E0,2.200241469E0,5.742723596E0
2.198936625E0,-4.496570233E0,3.980127774E0,2.332674618E0,6.442199300E0
2.208880625E0,-4.725774654E0,4.380871376E0,2.316720490E0,6.847786060E0
2.218824625E0,-4.964565586E0,4.739985727E0,2.267397033E0,7.228794191E0
2.228767625E0,-5.175455943E0,4.979022827E0,2.228307081E0,7.519399243E0
2.238711625E0,-5.388663552E0,5.105802156E0,2.158538396E0,7.730860143E0
2.248655625E0,-5.596877639E0,5.135147578E0,2.073468279E0,7.873630081E0
2.258598625E0,-5.759577000E0,5.052974902E0,2.042724934E0,7.929565419E0
2.268542625E0,-5.765228918E0,4.838882024E0,2.112591121E0,7.817652139E0
2.278486625E0,-5.685475820E0,4.342779690E0,2.045697659E0,7.441051650E0
2.288429625E0,-5.328401563E0,3.601035826E0,1.910084209E0,6.708781106E0
2.298373625E0,-5.049246717E0,2.702074367E0,1.894375226E0,6.031977768E0
2.308317625E0,-4.672085520E0,1.676913621E0,1.968372617E0,5.339935689E0
2.318260625E0,-3.790604312E0,7.092421156E-1,2.086032922E0,4.384431409E0
2.328204625E0,-2.747278022E0,-3.657983029E-1,2.111391127E0,3.484152324E0
2.338148625E0,-1.635972587E0,-1.502292373E0,2.049562815E0,3.022250223E0
2.348092625E0,-5.234257883E-1,-2.778100449E0,2.047646828E0,3.490655267E0
2.358035625E0,4.906796265E-1,-3.841589109E0,2.118576039E0,4.414401184E0
2.367979625E0,1.214088961E0,-4.429740066E0,2.398229799E0,5.181516692E0
2.377923625E0,1.546413124E0,-4.557272517E0,2.432575174E0,5.392360181E0
2.387866625E0,1.471758213E0,-3.964958342E0,2.811396250E0,5.078475733E0
2.397810625E0,2.976150906E-1,-2.601454310E0,2.853431883E0,3.872752610E0
2.407754625E0,-9.717587095E-1,-1.419690512E0,2.499719775E0,3.034540343E0
2.417698625E0,-1.045026076E0,-1.477251672E0,2.201128199E0,2.849441586E0
2.427641625E0,1.411079317E-1,-2.942297282E0,1.662503889E0,3.382446441E0
2.437585625E0,2.190762255E0,-4.721413801E0,8.756030023E-1,5.278055338E0
2.447529625E0,3.860676759E0,-6.458353769E0,-4.163967450E-1,7.535817453E0
2.457472625E0,5.538110198E0,-8.338064616E0,-1.500350951E0,1.012151368E1
2.467416625E0,7.469713331E0,-9.606279498E0,-2.553117718E0,1.243364923E1
2.477360625E0,8.720467842E0,-9.861761892E0,-3.381437795E0,1.359172647E1
2.487303625E0,8.857496756E0,-8.903806704E0,-4.384820001E0,1.330261888E1
2.497247625E0,7.270516235E0,-6.101314595E0,-5.507616384E0,1.097361765E1
2.507191625E0,5.209672095E0,-2.792801519E0,-6.137521724E0,8.521126485E0
2.517135625E0,3.183217769E0,-5.239888752E-1,-6.247487969E0,7.031254912E0
2.527078625E0,1.821611159E0,7.739263541E-1,-6.011111938E0,6.328561918E0
2.537022625E0,7.877860093E-1,1.366541076E0,-5.789873178E0,6.000889328E0
2.546966625E0,6.861590624E-2,1.153279088E0,-5.081349685E0,5.211034007E0
2.556909625E0,-1.987147003E-1,-2.512782454E-2,-4.046613539E0,4.051567607E0
2.566853625E0,1.058831352E-1,-1.219035705E0,-2.909815122E0,3.156625307E0
2.576797625E0,6.022094178E-1,-1.850074820E0,-1.805282224E0,2.654143352E0
2.586740625E0,4.915789282E-1,-1.826410553E0,-7.391126168E-1,2.030692693E0
2.596684625E0,-2.734929872E-1,-1.094573627E0,2.593462336E-1,1.157648612E0
2.606628625E0,-1.243703939E0,-7.536476254E-3,9.341583355E-1,1.555476802E0
2.616571625E0,-2.045135595E0,1.160754168E0,1.342172220E0,2.707647708E0
2.626515625E0,-2.673952768E0,1.973048197E0,1.628567673E0,3.700699293E0
2.636459625E0,-3.082677235E0,2.667818454E0,1.850002753E0,4.476903441E0
2.646403625E0,-3.570323326E0,3.305235711E0,2.011779130E0,5.264888131E0
2.656346625E0,-4.130895891E0,3.916108949E0,2.119470663E0,6.073908630E0
2.666290625E0,-4.397769245E0,4.333990740E0,2.122421168E0,6.529052127E0
2.676234625E0,-4.692278295E0,4.725784010E0,2.116013643E0,6.987705191E0
2.686177625E0,-4.858227537E0,5.132382429E0,2.022012781E0,7.350663908E0
2.696121625E0,-4.889599603E0,5.490497491E0,1.885070990E0,7.589943321E0
2.706065625E0,-4.844150950E0,5.752155713E0,1.824808270E0,7.738411917E0
2.716009625E0,-4.588821754E0,5.976774164E0,1.726189423E0,7.730384494E0
2.725952625E0,-4.213214747E0,6.067590778E0,1.498522089E0,7.537400401E0
2.735896625E0,-3.604273430E0,5.924966664E0,1.317743576E0,7.059211362E0
2.745840625E0,-2.718127313E0,5.575957471E0,1.157681091E0,6.310288687E0
2.755783625E0,-1.653334140E0,5.128877608E0,1.119269562E0,5.503786301E0
2.765727625E0,-8.656732607E-1,4.518586169E0,1.150492378E0,4.742430165E0
2.775671625E0,-1.728495419E-2,3.574329838E0,1.532590160E0,3.889082817E0
2.785614625E0,4.280752426E-1,2.426415571E0,1.768766363E0,3.033030726E0
2.795558625E0,7.451498669E-1,1.370777968E0,2.040882769E0,2.568945900E0
2.805502625E0,9.673744673E-1,4.325308210E-1,1.989144266E0,2.253794840E0
2.815445625E0,7.311463702E-1,-2.622359276E-2,2.221506915E0,2.338879147E0
2.825389625E0,1.500921786E-2,-7.962387443E-2,2.420061986E0,2.421418026E0
2.835333625E0,-1.069222439E0,-2.735882968E-1,2.383251425E0,2.626399538E0
2.845277625E0,-1.955853875E0,-4.337885571E-1,2.375574031E0,3.107553518E0
2.855220625E0,-2.176675143E0,-5.931298614E-1,2.420462082E0,3.308829763E0
2.865164625E0,-1.593963851E0,-8.064509064E-1,2.830116695E0,3.346736370E0
2.875108625E0,-5.992062879E-1,-1.206361281E0,3.330640694E0,3.592704155E0
2.885051625E0,5.521233380E-1,-1.761157966E0,3.502422534E0,3.958974762E0
2.894995625E0,2.049180699E0,-2.672728946E0,3.116972909E0,4.588915086E0
2.904939625E0,3.930650974E0,-4.427995257E0,2.252030404E0,6.334729672E0
2.914883625E0,6.518936770E0,-6.499394206E0,1.724218765E0,9.365446706E0
2.924826625E0,8.998997621E0,-8.344465563E0,1.076889747E0,1.231956798E1
2.934770625E0,1.106851611E1,-9.808445225E0,-6.782945573E-1,1.480465231E1
2.944714625E0,1.085760353E1,-9.751292785E0,-2.955842357E0,1.489000569E1
2.954657625E0,8.300031987E0,-7.161838716E0,-5.266915752E0,1.216235447E1
2.964601625E0,5.351055431E0,-3.798081146E0,-6.782839154E0,9.437484920E0
2.974545625E0,3.491404041E0,-1.221811379E0,-7.460651901E0,8.327307609E0
2.984488625E0,2.295720361E0,5.369427967E-1,-7.647443544E0,8.002626587E0
2.994432625E0,1.221170524E0,1.630824113E0,-7.638872695E0,7.905897848E0
3.004376625E0,4.640478981E-1,1.765588401E0,-7.070549061E0,7.302417879E0
3.014320625E0,1.349478900E-1,1.049193386E0,-6.325461760E0,6.413305245E0
3.024263625E0,7.195390624E-1,-4.433668810E-1,-4.972424828E0,5.043740609E0
3.034207625E0,1.194989616E0,-1.726292773E0,-3.242035496E0,3.862496742E0
3.044151625E0,1.074435232E0,-2.253474813E0,-1.780032632E0,3.066117409E0
3.054094625E0,8.215226895E-1,-2.008042613E0,-5.205787790E-1,2.231173891E0
3.064038625E0,-2.069738925E-2,-1.269512379E0,5.303740346E-1,1.376003881E0
3.073982625E0,-1.356344701E0,-2.442381978E-1,1.162659191E0,1.803080597E0
3.083925625E0,-2.395996601E0,7.825416416E-1,1.607119063E0,2.989314773E0
3.093869625E0,-3.023005815E0,1.618930877E0,1.863243334E0,3.902714064E0
3.103813625E0,-3.370417548E0,2.466006483E0,1.962124283E0,4.614199185E0
3.113757625E0,-3.922119886E0,3.229209044E0,2.068389387E0,5.485348677E0
3.123700625E0,-4.286811896E0,3.827354647E0,2.085570699E0,6.113510037E0
3.133644625E0,-4.511095301E0,4.287752713E0,2.010310163E0,6.540347934E0
3.143588625E0,-4.803164307E0,4.699584391E0,1.942412295E0,6.994958637E0
3.153531625E0,-5.068676430E0,4.952144346E0,1.765178511E0,7.302812441E0
3.163475625E0,-5.288444615E0,5.032235413E0,1.658195515E0,7.486030461E0
3.173419625E0,-5.619095889E0,4.966679354E0,1.465119284E0,7.641251006E0
3.183362625E0,-5.879696935E0,4.782635318E0,1.368022760E0,7.701683122E0
3.193306625E0,-5.821504276E0,4.478291836E0,1.375983160E0,7.472505568E0
3.203250625E0,-5.817310068E0,3.911889013E0,1.350648344E0,7.139203249E0
3.213194625E0,-5.646128152E0,3.206724161E0,1.253154209E0,6.613035492E0
3.223137625E0,-5.143155339E0,2.390042381E0,1.212378066E0,5.799500841E0
3.233081625E0,-4.598491879E0,1.576107624E0,1.253375380E0,5.020078948E0
3.243025625E0,-3.945788246E0,5.923124206E-1,1.220580686E0,4.172516758E0
3.252968625E0,-2.970069217E0,-4.267409080E-1,1.254214747E0,3.252149072E0
3.262912625E0,-1.829249377E0,-1.491116590E0,1.199106055E0,2.647156455E0
3.272856625E0,-9.283659375E-1,-2.691739998E0,1.195203624E0,3.088015420E0
3.282799625E0,-6.296457231E-2,-3.640720294E0,1.459741015E0,3.922964775E0
3.292743625E0,6.653675330E-1,-4.182974117E0,1.917437522E0,4.649360501E0
3.302687625E0,9.195652932E-1,-4.247249635E0,2.415173714E0,4.971699293E0
3.312631625E0,8.932972616E-1,-3.671062081E0,2.840082690E0,4.726599886E0
3.322574625E0,9.787011087E-2,-2.547782718E0,2.866133205E0,3.836078060E0
3.332518625E0,-6.336235839E-1,-1.617762603E0,2.928004932E0,3.404680245E0
3.342462625E0,-5.968826044E-1,-1.490651736E0,3.043779802E0,3.441352485E0
3.352405625E0,1.120595491E-1,-2.298142278E0,2.735399988E0,3.574413010E0
3.362349625E0,1.793173810E0,-3.385267721E0,2.251185043E0,4.443348282E0
3.372293625E0,3.335852317E0,-4.724454938E0,1.267950003E0,5.920817710E0
3.382236625E0,4.752955436E0,-6.398520380E0,1.271863691E-1,7.971688956E0
3.392180625E0,6.092271876E0,-7.840392305E0,-8.841153789E-1,9.968409507E0
3.402124625E0,7.219701008E0,-8.450013068E0,-1.535603961E0,1.121984327E1
3.412068625E0,8.125889626E0,-7.932994659E0,-2.412625498E0,1.160961878E1
3.422011625E0,7.606569167E0,-5.945171717E0,-3.614098506E0,1.030857261E1
3.431955625E0,6.039567413E0,-3.365203001E0,-4.648337638E0,8.331146894E0
3.441899625E0,4.575132837E0,-1.203275120E0,-5.707235649E0,7.412978500E0
3.451842625E0,3.221636315E0,1.219968921E-1,-6.531714106E0,7.284031366E0
3.461786625E0,2.169552065E0,7.027856201E-1,-6.512805380E0,6.900543290E0
3.471730625E0,1.313767616E0,8.493478346E-1,-6.207682464E0,6.401773088E0
3.481673625E0,5.113401783E-1,5.176844072E-1,-5.511519985E0,5.559345148E0
3.491617625E0,2.899008590E-1,-3.769454348E-1,-4.408509411E0,4.434082272E0
3.501561625E0,3.800982535E-1,-1.188829574E0,-3.069697001E0,3.313733561E0
3.511505625E0,4.454098982E-1,-1.501409444E0,-1.817399994E0,2.399075454E0
3.521448625E0,2.160657281E-1,-1.290841268E0,-6.732998657E-1,1.471831609E0
3.531392625E0,-5.343197358E-1,-5.093725902E-1,2.072627449E-1,7.667567157E-1
3.541336625E0,-1.506946757E0,5.184094620E-1,7.910206890E-1,1.779143229E0
3.551279625E0,-2.169349751E0,1.446364340E0,1.236393896E0,2.885605312E0
3.561223625E0,-2.648990420E0,2.243749723E0,1.519157059E0,3.789380059E0
3.571167625E0,-3.149071784E0,2.928599594E0,1.760986058E0,4.646979727E0
3.581110625E0,-3.714048471E0,3.541086078E0,1.971814435E0,5.497408374E0
3.591054625E0,-4.115003743E0,4.098960153E0,2.100274254E0,6.176235268E0
3.600998625E0,-4.434900818E0,4.510590686E0,2.146535085E0,6.679924137E0
3.610942625E0,-4.735285150E0,4.988695291E0,2.064035550E0,7.181242853E0
3.620885625E0,-4.942724481E0,5.402541919E0,1.934989840E0,7.573781761E0
3.630829625E0,-4.972679767E0,5.666448981E0,1.914512891E0,7.778274084E0
3.640773625E0,-4.742609373E0,5.877760922E0,1.849369061E0,7.775640362E0
3.650716625E0,-4.726759325E0,6.078519225E0,1.587687596E0,7.862022741E0
3.660660625E0,-4.136799240E0,6.145153509E0,1.560280380E0,7.570369507E0
3.670604625E0,-3.532137499E0,6.006734712E0,1.446959002E0,7.116919809E0
3.680547625E0,-2.883731570E0,5.792290417E0,1.500577970E0,6.642158556E0
3.690491625E0,-1.906256622E0,5.491590920E0,1.607056936E0,6.031087559E0
3.700435625E0,-8.316383725E-1,5.117021209E0,1.536566412E0,5.407084684E0
3.710379625E0,2.575487995E-1,4.372249657E0,1.589498917E0,4.659335280E0
3.720322625E0,1.405526217E0,3.188170361E0,1.722996697E0,3.886984926E0
3.730266625E0,2.465715877E0,1.925051327E0,1.719493046E0,3.569626554E0
3.740210625E0,3.315208722E0,6.166105253E-1,1.764944623E0,3.806027711E0
3.750153625E0,3.341023010E0,-5.870967042E-1,2.046385145E0,3.961667510E0
3.760097625E0,2.236406790E0,-1.254746990E0,2.448488810E0,3.545560998E0
3.770041625E0,6.522124672E-1,-1.439768096E0,2.759851874E0,3.180423815E0
3.779984625E0,-7.620933437E-1,-1.444102637E0,2.905644010E0,3.333014522E0
3.789928625E0,-1.790118055E0,-1.355488669E0,3.181784617E0,3.894306810E0
3.799872625E0,-1.978244618E0,-1.408257451E0,3.392307769E0,4.171857238E0
3.809816625E0,-1.369223778E0,-1.955637528E0,3.448970797E0,4.194602657E0
3.819759625E0,-2.085888934E-1,-2.913964013E0,3.437495052E0,4.511215782E0
3.829703625E0,1.207638313E0,-4.178441355E0,3.178356979E0,5.386995038E0
3.839647625E0,3.344530170E0,-5.910743312E0,2.759276508E0,7.330509901E0
3.849590625E0,6.308582602E0,-7.867975375E0,2.639012146E0,1.042437701E1
3.859534625E0,8.871281567E0,-9.574820893E0,1.862514771E0,1.318505946E1
3.869478625E0,1.053490739E1,-1.037510416E1,3.368767317E-1,1.478987985E1
3.879421625E0,9.619553263E0,-9.003424548E0,-1.740297439E0,1.329007501E1
3.889365625E0,7.088220516E0,-5.396394156E0,-4.408888310E0,9.939931394E0
3.899309625E0,5.133141983E0,-2.288171021E0,-6.432603800E0,8.541853715E0
3.909253625E0,4.152194958E0,-2.012471294E-1,-7.081926574E0,8.211875996E0
3.919196625E0,3.304059252E0,1.324194371E0,-7.675624784E0,8.460822306E0
3.929140625E0,1.989564827E0,2.178725762E0,-7.965406945E0,8.494287606E0
3.939084625E0,8.870196909E-1,2.315547100E0,-7.728563136E0,8.116603381E0
3.949027625E0,7.474238491E-1,1.696314683E0,-6.869850401E0,7.115544283E0
3.958971625E0,1.088786053E0,3.347805780E-1,-5.553387219E0,5.669007206E0
3.968915625E0,1.143540550E0,-9.579095793E-1,-3.974282312E0,4.245020100E0
3.978858625E0,7.985448861E-1,-1.700022402E0,-2.575851692E0,3.187908726E0
3.988802625E0,5.695328379E-1,-1.538348644E0,-1.300631261E0,2.093448323E0
3.998746625E0,4.937798202E-2,-9.127141106E-1,-1.461008692E-1,9.256514986E-1
4.008690625E0,-1.158332251E0,-1.118069494E-1,6.516394401E-1,1.333742238E0
4.018633625E0,-2.161882272E0,8.261653787E-1,1.279847771E0,2.644672855E0
4.028577625E0,-2.834513217E0,1.701269029E0,1.570905941E0,3.660126631E0
4.038521625E0,-3.398587094E0,2.485734989E0,1.757194723E0,4.562565722E0
4.048464291E0,-3.901919510E0,3.246177664E0,1.924295282E0,5.428218642E0
4.058408292E0,-4.163108202E0,3.770402766E0,1.966554279E0,5.951028705E0
4.068352291E0,-4.572354240E0,4.193230133E0,1.913548246E0,6.492400876E0
4.078295291E0,-4.882461323E0,4.603121704E0,1.746508352E0,6.933790407E0
4.088239292E0,-5.246013125E0,4.865178707E0,1.487548034E0,7.307764139E0
4.098183291E0,-5.496335351E0,4.880933445E0,1.160708560E0,7.441804751E0
4.108127291E0,-5.887985948E0,4.876481375E0,8.833879852E-1,7.696026472E0
4.118070291E0,-5.895846360E0,4.785706860E0,7.764108360E-1,7.633269827E0
4.128014292E0,-5.849921159E0,4.521788689E0,6.007593083E-1,7.418157606E0
4.137958291E0,-5.994632145E0,4.121591801E0,4.605267413E-1,7.289390812E0
4.147901291E0,-5.732920713E0,3.595617211E0,4.456748136E-1,6.781848500E0
4.157845291E0,-5.426627769E0,2.863589081E0,3.967032130E-1,6.148642518E0
4.167789292E0,-5.039025784E0,2.020832228E0,3.114858190E-1,5.438066491E0
4.177732292E0,-4.319385565E0,1.180416015E0,3.250103923E-1,4.489555143E0
4.187676291E0,-3.503418900E0,1.125910610E-1,2.538510203E-1,3.514407642E0
4.197620291E0,-2.488604802E0,-1.017220227E0,3.167459377E-1,2.707068311E0
4.207564292E0,-1.290865241E0,-2.314469458E0,5.217482221E-1,2.700985589E0
4.217507292E0,2.858762205E-2,-3.539265255E0,1.119616594E0,3.712244216E0
4.227451291E0,9.876081723E-1,-4.515712847E0,1.746646346E0,4.941437633E0
4.237395292E0,1.793404191E0,-4.882653696E0,2.510357029E0,5.775681615E0
4.247338291E0,2.145810615E0,-4.177549070E0,3.212848535E0,5.690238583E0
4.257282292E0,1.733816970E0,-2.651364389E0,3.535198517E0,4.746944592E0
4.267226291E0,7.766230899E-1,-1.079918166E0,3.669123144E0,3.902797883E0
4.277169291E0,-7.720254242E-2,-3.572180986E-2,3.800883132E0,3.801834934E0
4.287113292E0,-6.302813154E-1,3.454108161E-1,3.788878798E0,3.856444699E0
4.297057291E0,-5.912739551E-1,-3.538325608E-2,3.605744004E0,3.654072617E0
4.307001291E0,5.701152205E-1,-1.599408193E0,3.280229509E0,3.693649085E0
4.316944291E0,2.715926421E0,-3.464670571E0,2.645017236E0,5.135787639E0
4.326888292E0,4.609050781E0,-5.225619791E0,1.757230976E0,7.185980240E0
4.336832291E0,6.277543243E0,-7.200594061E0,7.856482673E-1,9.585058539E0
4.346775291E0,7.995090335E0,-8.721572381E0,-4.540479898E-1,1.184033166E1
4.356719291E0,9.274009715E0,-8.879636069E0,-2.056607248E0,1.300326214E1
4.366663292E0,9.567235885E0,-7.402625887E0,-3.649315116E0,1.263520373E1
4.376606292E0,7.519850866E0,-5.123034486E0,-5.455521201E0,1.060925780E1
4.386550291E0,5.666039091E0,-3.273077779E0,-6.314668969E0,9.093518643E0
4.396494291E0,4.076660627E0,-1.688373579E0,-6.699105856E0,8.021707205E0
4.406437291E0,2.475617552E0,-4.907573944E-1,-7.361350976E0,7.781967186E0
4.416381292E0,3.897824121E-1,1.443888044E-1,-7.442778132E0,7.454376217E0
4.426325291E0,-1.169081188E0,2.803377378E-1,-6.876018044E0,6.980326941E0
4.436269292E0,-1.861900229E0,1.017707884E-2,-5.774567506E0,6.067322797E0
4.446212291E0,-1.748824434E0,-6.766865730E-1,-4.364619040E0,4.750388509E0
4.456156292E0,-1.127034445E0,-1.628415061E0,-2.780634048E0,3.413776202E0
4.466100291E0,-4.147506076E-1,-1.980397562E0,-1.353387179E0,2.434265686E0
4.476043291E0,-1.115683830E-1,-1.593417721E0,-1.339760828E-1,1.602927674E0
4.485987292E0,-3.915535337E-1,-5.625009763E-1,8.946742078E-1,1.127015287E0
4.495931291E0,-7.822305697E-1,7.011577553E-1,1.626814678E0,1.936500157E0
4.505874292E0,-1.203735296E0,1.956854918E0,1.987700150E0,3.037961771E0
4.515818291E0,-1.821212963E0,2.792473490E0,2.129070622E0,3.955713155E0
4.525762292E0,-2.443464882E0,3.581038349E0,2.129134941E0,4.829862512E0
4.535706291E0,-2.770142974E0,4.241727524E0,2.101309211E0,5.484655403E0
4.545649291E0,-3.084096939E0,4.719445628E0,2.028044769E0,5.991476158E0
4.555593291E0,-3.520506218E0,5.134118468E0,1.676581500E0,6.447019621E0
4.565537292E0,-4.018366810E0,5.566508955E0,1.697564818E0,7.072129812E0
4.575480292E0,-3.997219770E0,5.818518103E0,1.503060697E0,7.217486423E0
4.585424291E0,-4.146649459E0,5.919662654E0,1.298735594E0,7.343284130E0
4.595368291E0,-4.191085374E0,5.981164838E0,1.252882898E0,7.410077259E0
4.605311291E0,-4.009560319E0,6.026243362E0,1.097636983E0,7.320996514E0
4.615255292E0,-3.640116277E0,5.991640125E0,9.421174192E-1,7.073738978E0
4.625199291E0,-3.101342717E0,5.765891992E0,8.521860731E-1,6.602276745E0
4.635143292E0,-2.336276064E0,5.357189745E0,7.325953102E-1,5.890192161E0
4.645086291E0,-1.378973426E0,4.919057291E0,7.852389622E-1,5.168683833E0
4.655030292E0,-2.928443474E-1,4.404837944E0,7.762494528E-1,4.482289408E0
4.664974291E0,5.724359804E-1,3.659201589E0,7.407814121E-1,3.777061863E0
4.674917291E0,1.206166568E0,2.819846646E0,8.898129058E-1,3.193452662E0
4.684861292E0,1.590110536E0,1.857621236E0,1.052620440E0,2.662182932E0
4.694805291E0,1.612902398E0,8.925587583E-1,1.179799646E0,2.188616569E0
4.704748292E0,1.336557139E0,2.620610958E-1,1.475234967E0,2.007829478E0
4.714692291E0,6.325050116E-1,-4.179718387E-1,2.025098941E0,2.162357225E0
4.724636292E0,-2.847564787E-1,-1.070239270E0,2.657418011E0,2.878952732E0
4.734580291E0,-1.068910782E0,-1.757678288E0,2.976857250E0,3.618519353E0
4.744523291E0,-1.213275613E0,-2.646548038E0,3.336270393E0,4.427974070E0
4.754467291E0,-7.772487420E-1,-3.569768425E0,3.772162778E0,5.251340233E0
4.764411292E0,-1.323259985E-1,-4.285211513E0,4.018320032E0,5.876005766E0
4.774354292E0,6.744798338E-1,-4.872536843E0,3.938958113E0,6.301740185E0
4.784298291E0,2.154082087E0,-5.537886250E0,3.845786240E0,7.078017064E0
4.794242291E0,4.286749331E0,-6.317561586E0,3.605071574E0,8.443005702E0
4.804185291E0,6.295098923E0,-7.043127959E0,2.785904728E0,9.848613458E0
4.814129292E0,7.834105963E0,-7.500324674E0,1.274916376E0,1.092032501E1
4.824073291E0,8.531261884E0,-7.374772090E0,-7.045006084E-1,1.129893861E1
4.834017292E0,7.111763161E0,-5.836227565E0,-2.449267659E0,9.520380219E0
4.843960291E0,4.843870284E0,-3.135783402E0,-4.573862822E0,7.363181241E0
4.853904292E0,3.693173912E0,-1.044529647E0,-5.518136694E0,6.721637323E0
4.863848291E0,3.552910318E0,3.115186000E-1,-5.693398798E0,6.718259107E0
4.873791291E0,2.887310650E0,1.400715128E0,-6.015551144E0,6.818021797E0
4.883735292E0,2.138722621E0,2.201573757E0,-6.637110168E0,7.312475151E0
4.893679291E0,1.554686349E0,2.515595550E0,-6.647234037E0,7.275368785E0
4.903622292E0,1.241987196E0,2.045137934E0,-5.789549242E0,6.264503316E0
4.913566291E0,1.253001596E0,9.154739964E-1,-4.717109081E0,4.965805445E0
4.923510292E0,1.153734586E0,-3.070922577E-1,-3.518449752E0,3.715494289E0
4.933454291E0,6.517078525E-1,-1.121039879E0,-2.526359689E0,2.839708931E0
4.943397291E0,2.190489775E-1,-1.251955529E0,-1.431674526E0,1.914436484E0
4.953341291E0,-3.509036905E-1,-9.830964607E-1,-4.281728911E-1,1.128248233E0
4.963285292E0,-1.279626308E0,-4.403204817E-1,4.330939809E-1,1.420878605E0
4.973228292E0,-2.107917734E0,2.639544243E-1,1.156952382E0,2.418993164E0
4.983172291E0,-2.667864062E0,9.513542658E-1,1.608881267E0,3.257464125E0
4.993116291E0,-3.298485101E0,1.657031334E0,1.831973594E0,4.120908159E0
5.003059291E0,-3.958598326E0,2.319367670E0,1.991547764E0,5.001622696E0
5.013003292E0,-4.230298557E0,2.908327882E0,2.044118764E0,5.525596662E0
5.022947291E0,-4.416589678E0,3.428319601E0,2.033536474E0,5.949362172E0
5.032891292E0,-4.758231379E0,3.895815602E0,2.006448662E0,6.468692394E0
5.042834875E0,-4.959539319E0,4.312875275E0,1.904902407E0,6.842994708E0
5.052778875E0,-5.105972310E0,4.508501476E0,1.719295410E0,7.025205727E0
5.062722875E0,-5.593255289E0,4.705957271E0,1.315832852E0,7.427109442E0
5.072665875E0,-5.754503955E0,4.672955586E0,1.019996485E0,7.482728280E0
5.082609875E0,-5.745224424E0,4.423716849E0,6.753019524E-1,7.282369612E0
5.092553875E0,-5.653051840E0,3.931177808E0,5.505843508E-1,6.907553633E0
5.102496875E0,-5.225639087E0,3.293424336E0,4.849166473E-1,6.195893146E0
5.112440875E0,-4.742987103E0,2.488689002E0,3.768132512E-1,5.369496050E0
5.122384875E0,-4.149668376E0,1.612612960E0,3.311699224E-1,4.464296329E0
5.132328875E0,-3.286608821E0,6.221542704E-1,2.890711391E-1,3.357444803E0
5.142271875E0,-2.208023236E0,-4.484217989E-1,2.520536228E-1,2.267152343E0
5.152215875E0,-1.146924918E0,-1.502888204E0,4.067101745E-1,1.933784603E0
5.162159875E0,-3.039926487E-1,-2.526745605E0,8.908455972E-1,2.696379195E0
5.172102875E0,5.943583614E-1,-3.303751103E0,1.433385276E0,3.650017337E0
5.182046875E0,1.173936131E0,-3.632983258E0,1.925663531E0,4.276081551E0
5.191990875E0,1.417659774E0,-3.239436409E0,2.467157800E0,4.311678918E0
5.201933875E0,9.611980534E-1,-2.061557500E0,2.850094292E0,3.646499486E0
5.211877875E0,5.722903848E-2,-7.788257360E-1,3.094443587E0,3.191461390E0
5.221821875E0,-5.747976708E-1,1.658071554E-1,3.374189587E0,3.426811892E0
5.231765875E0,-8.240960491E-1,5.087679881E-1,3.577731164E0,3.706499621E0
5.241708875E0,-5.385086811E-1,1.142481619E-1,3.613580443E0,3.655271243E0
5.251652875E0,7.507304496E-1,-1.202997962E0,3.565363133E0,3.837005939E0
5.261596875E0,2.422235981E0,-2.750148420E0,3.219549444E0,4.878118705E0
5.271539875E0,3.711236545E0,-4.291972649E0,2.538316076E0,6.215895303E0
5.281483875E0,4.892000470E0,-6.129039752E0,1.639657502E0,8.011571232E0
5.291427875E0,5.849417129E0,-7.777639402E0,6.658341408E-1,9.754521542E0
5.301370875E0,6.843222765E0,-8.630642915E0,-9.569740248E-1,1.105592575E1
5.311314875E0,7.929510303E0,-8.390898303E0,-2.494754319E0,1.181135501E1
5.321258875E0,7.815956206E0,-6.785154067E0,-4.815404284E0,1.141558608E1
5.331201875E0,6.572800736E0,-4.820145206E0,-6.433366277E0,1.038381967E1
5.341145875E0,5.561870944E0,-3.130273570E0,-6.988311481E0,9.464117412E0
5.351089875E0,4.301319423E0,-1.420611448E0,-7.346720073E0,8.630978015E0
5.361033875E0,2.736309230E0,-2.919924080E-2,-7.908148670E0,8.368217026E0
5.370976875E0,9.882665688E-1,6.863362330E-1,-7.679769291E0,7.773453839E0
5.380920875E0,-2.472372347E-1,7.030861670E-1,-6.570511551E0,6.612645344E0
5.390864875E0,-9.428629392E-1,1.107474339E-1,-4.825327009E0,4.917828409E0
5.400807875E0,-1.070469650E0,-7.796250504E-1,-3.214829571E0,3.476902309E0
5.410751875E0,-7.523898894E-1,-1.429520851E0,-1.870527796E0,2.471536899E0
5.420695875E0,-5.643715006E-1,-1.549602780E0,-5.798004755E-1,1.748128301E0
5.430639875E0,-8.645418245E-1,-1.200217611E0,4.824467468E-1,1.555863022E0
5.440582875E0,-1.305776811E0,-4.091308486E-1,1.140060799E0,1.781061413E0
5.450526875E0,-1.720129808E0,4.994592208E-1,1.493329761E0,2.332024838E0
5.460470875E0,-2.158911302E0,1.460312288E0,1.632104069E0,3.075251808E0
5.470413875E0,-2.733779724E0,2.290898747E0,1.690380929E0,3.947043999E0
5.480357875E0,-3.203470770E0,3.043981531E0,1.704691404E0,4.736456621E0
5.490301875E0,-3.439652089E0,3.688083910E0,1.871196717E0,5.379084177E0
5.500244875E0,-3.741017584E0,4.187137919E0,1.942823939E0,5.941540320E0
5.510188875E0,-4.026355276E0,4.565486686E0,1.879374633E0,6.370812703E0
5.520132875E0,-4.390723935E0,5.064816098E0,1.859055558E0,6.956069749E0
5.530075875E0,-4.261750730E0,5.387498202E0,1.732409545E0,7.084412396E0
5.540019875E0,-4.216523101E0,5.601365377E0,1.402791474E0,7.149977977E0
5.549963875E0,-4.043813308E0,5.758554906E0,1.422503607E0,7.178920336E0
5.559907875E0,-3.793603349E0,5.822934505E0,1.246432250E0,7.060565556E0
5.569850875E0,-3.239770870E0,5.828412761E0,1.186262062E0,6.773014711E0
5.579794875E0,-2.363818789E0,5.658239490E0,1.170365821E0,6.242841464E0
5.589738875E0,-1.309735960E0,5.355710984E0,1.171739917E0,5.636667709E0
5.599681875E0,-9.521781385E-2,4.888859931E0,1.104789298E0,5.013040719E0
5.609625875E0,1.158379029E0,4.309537684E0,9.583844463E-1,4.564258732E0
5.619569875E0,2.208265311E0,3.502112047E0,7.976351324E-1,4.216330902E0
5.629512875E0,2.572856163E0,2.363764409E0,6.230851471E-1,3.548972544E0
5.639456875E0,2.204366387E0,1.346048924E0,7.514654446E-1,2.689940369E0
5.649400875E0,1.508896803E0,3.957138276E-1,1.160758919E0,1.944407433E0
5.659344875E0,7.010326248E-1,-2.239524525E-1,1.711427397E0,1.862950664E0
5.669287875E0,-5.103800654E-1,-7.461275214E-1,2.200810111E0,2.379235010E0
5.679231875E0,-2.011198356E0,-1.283282572E0,2.408063500E0,3.389764417E0
5.689175875E0,-2.662063040E0,-1.814430778E0,2.712006447E0,4.211142083E0
5.699118875E0,-2.572918144E0,-2.678109553E0,2.919708903E0,4.724074368E0
5.709062875E0,-1.759931220E0,-3.411864951E0,3.253376756E0,5.032160635E0
5.719006875E0,-7.393090832E-1,-4.326529108E0,3.371958289E0,5.534937646E0
5.728949875E0,8.569574010E-1,-5.310903770E0,3.412170761E0,6.370477544E0
5.738893875E0,2.716816952E0,-6.361797527E0,3.236431525E0,7.637280350E0
5.748837875E0,4.844305317E0,-7.536959819E0,2.983185107E0,9.443116578E0
5.758781875E0,7.116991741E0,-8.378868241E0,2.644784517E0,1.130716099E1
5.768724875E0,8.241090884E0,-8.511091329E0,1.643065259E0,1.196051496E1
5.778668875E0,8.382782367E0,-7.269568402E0,1.880944026E-1,1.109743414E1
5.788612875E0,7.242407500E0,-4.386133286E0,-2.148780416E0,8.735438677E0
5.798555875E0,5.583480499E0,-1.516539114E0,-4.127584612E0,7.107186511E0
5.808499875E0,4.633209722E0,4.967981529E-1,-4.931468006E0,6.784748885E0
5.818443875E0,4.018320032E0,2.088128418E0,-5.838677548E0,7.389000723E0
5.828386875E0,2.990560784E0,3.213664806E0,-6.616412194E0,7.940277426E0
5.838330875E0,2.185905558E0,3.584055512E0,-6.962351013E0,8.130065723E0
5.848274875E0,1.210361361E0,3.071392109E0,-6.580737162E0,7.362372288E0
5.858218875E0,8.814396930E-1,1.782005628E0,-5.661036798E0,5.999984801E0
5.868161875E0,1.136537924E0,-7.475372851E-2,-4.483998134E0,4.626396637E0
5.878105875E0,1.110628912E0,-1.781227364E0,-3.441881633E0,4.031478225E0
5.888049875E0,9.787718600E-1,-2.572317635E0,-2.347781192E0,3.617580530E0
5.897992875E0,6.453601152E-1,-2.320430110E0,-1.170969108E0,2.678069122E0
5.907936875E0,-2.449112123E-1,-1.514330036E0,-1.049551090E-1,1.537593098E0
5.917880875E0,-1.414138581E0,-5.067816889E-1,6.955122685E-1,1.655401136E0
5.927823875E0,-2.348407867E0,5.081166083E-1,1.193019104E0,2.682628670E0
5.937767875E0,-2.726788793E0,1.398672110E0,1.687833881E0,3.498634592E0
5.947711875E0,-3.164748169E0,2.204444740E0,1.918004848E0,4.307429649E0
5.957654875E0,-3.586686759E0,2.891132390E0,2.041903839E0,5.039081235E0
5.967598875E0,-3.945216388E0,3.441812636E0,2.046259869E0,5.621208590E0
5.977542875E0,-4.352079102E0,3.865184378E0,1.903247645E0,6.123936184E0
5.987486875E0,-4.588465074E0,4.082349383E0,1.769629412E0,6.391492507E0
5.997429875E0,-4.854917428E0,4.115478537E0,1.534689456E0,6.546957962E0
6.007373875E0,-5.256936309E0,4.184595550E0,1.347661586E0,6.852912594E0
6.017317875E0,-5.335100133E0,4.187608035E0,1.144211226E0,6.878122841E0
6.027260875E0,-5.441841640E0,3.990308946E0,9.533605186E-1,6.815064357E0
6.037204875E0,-5.609859627E0,3.703308890E0,8.273927823E-1,6.772709989E0
6.047148750E0,-5.565785070E0,3.376807970E0,7.610840412E-1,6.554391233E0
6.057091750E0,-5.435873972E0,2.844098557E0,6.086355809E-1,6.165067697E0
6.067035750E0,-5.066066233E0,2.323926744E0,5.710613000E-1,5.602836210E0
6.076979750E0,-4.693610875E0,1.700504798E0,4.921401148E-1,5.016363375E0
6.086923750E0,-4.146824875E0,1.074547498E0,3.984691087E-1,4.302276898E0
6.096866750E0,-3.519184163E0,4.247195256E-1,3.590143633E-1,3.562854917E0
6.106810750E0,-2.798694343E0,-3.620970154E-1,2.895750229E-1,2.836839433E0
6.116754750E0,-1.775376055E0,-1.189933528E0,4.630011003E-1,2.186840634E0
6.126697750E0,-7.771972865E-1,-1.938088864E0,7.873521459E-1,2.231624401E0
6.136641750E0,-1.634536511E-1,-2.579269974E0,1.326944755E0,2.905190713E0
6.146585750E0,3.731307113E-1,-2.768053764E0,2.050372800E0,3.464877600E0
6.156528750E0,5.378456068E-1,-2.393969956E0,2.589303796E0,3.567192761E0
6.166472750E0,5.357353467E-1,-1.678018160E0,2.938768487E0,3.426239561E0
6.176416750E0,3.327913553E-1,-1.022204978E0,3.282529804E0,3.454078027E0
6.186360750E0,3.315663636E-2,-6.263747907E-1,3.391595871E0,3.449111087E0
6.196303750E0,3.904349613E-1,-8.165864700E-1,3.555740955E0,3.669134320E0
6.206247750E0,1.275027473E0,-1.669539698E0,3.511583952E0,4.091977482E0
6.216191750E0,2.679412898E0,-2.941466392E0,3.225092604E0,5.121786829E0
6.226134750E0,4.618060171E0,-4.591662916E0,2.523009235E0,6.983940412E0
6.236078750E0,6.702151086E0,-6.610317056E0,1.324628234E0,9.506301106E0
6.246022750E0,8.365166461E0,-8.614865373E0,-1.005849000E-1,1.200841508E1
6.255965750E0,1.000444682E1,-9.734311886E0,-1.130538096E0,1.400442432E1
6.265909750E0,1.097369883E1,-9.330944638E0,-2.858830032E0,1.468541804E1
6.275853750E0,8.320149917E0,-7.018887157E0,-4.887201076E0,1.193207467E1
6.285796750E0,4.825786600E0,-3.891016207E0,-6.187728256E0,8.758778705E0
6.295740750E0,2.264109728E0,-1.962687516E0,-6.436250124E0,7.099552859E0
6.305684750E0,4.032485497E-1,-5.835491985E-1,-6.552649477E0,6.590929693E0
6.315628750E0,-9.742116165E-1,5.103566766E-1,-6.553680925E0,6.645320600E0
6.325571750E0,-1.810444146E0,1.269289016E0,-6.363463984E0,6.736651726E0
6.335515750E0,-1.980285296E0,1.506103004E0,-5.669119989E0,6.191025566E0
6.345459750E0,-1.431436399E0,1.036814246E0,-4.531614350E0,4.864105525E0
6.355402750E0,3.357822061E-2,-9.078153133E-2,-3.401631739E0,3.403008562E0
6.365346750E0,1.357354515E0,-9.290418756E-1,-2.304924463E0,2.831643845E0
6.375290750E0,1.685631235E0,-1.071720369E0,-1.204488929E0,2.332537415E0
6.385233750E0,1.181812915E0,-6.599068183E-1,-1.446566069E-1,1.361280393E0
6.395177750E0,5.580173314E-2,1.655604029E-1,7.766482329E-1,7.960568812E-1
6.405121750E0,-1.268890820E0,1.157054635E0,1.409223411E0,2.221434213E0
6.415065750E0,-2.345275514E0,1.990450096E0,1.743946102E0,3.536036881E0
6.425008750E0,-3.321914894E0,2.570218484E0,1.923379608E0,4.619581230E0
6.434952750E0,-3.818583823E0,3.032088295E0,2.082164258E0,5.301938310E0
6.444896750E0,-4.040759892E0,3.456648776E0,2.019841125E0,5.688226387E0
6.454839750E0,-4.252816184E0,3.735601308E0,1.954114913E0,5.988299235E0
6.464783750E0,-4.574652196E0,4.160221431E0,1.859260211E0,6.456913628E0
6.474727750E0,-4.790525551E0,4.413852012E0,1.527471653E0,6.690619873E0
6.484670750E0,-4.696218148E0,4.561109460E0,1.541978595E0,6.725762588E0
6.494614750E0,-4.512936589E0,4.654802320E0,1.359151365E0,6.624279110E0
6.504558750E0,-4.140548474E0,4.640010619E0,1.252246721E0,6.343655260E0
6.514502750E0,-3.622105098E0,4.575139269E0,1.102366211E0,5.938581981E0
6.524445750E0,-2.924367380E0,4.354218013E0,1.077702656E0,5.354678524E0
6.534389750E0,-2.064135538E0,4.047675979E0,1.061849685E0,4.666032694E0
6.544333750E0,-1.127587007E0,3.737384124E0,1.015131601E0,4.033606912E0
6.554276750E0,-1.010854948E-1,3.392461551E0,1.131051482E0,3.577469931E0
6.564220750E0,7.370128816E-1,3.039939936E0,1.178116890E0,3.342511362E0
6.574164750E0,1.447243761E0,2.703969449E0,1.023500209E0,3.233190060E0
6.584107750E0,2.082722082E0,2.251666269E0,9.846945778E-1,3.221390332E0
6.594051750E0,2.399315481E0,1.819835359E0,9.011880791E-1,3.143350993E0
6.603995750E0,2.340306550E0,1.423313447E0,8.352537791E-1,2.863652351E0
6.613938750E0,1.594986529E0,1.058296332E0,1.100415653E0,2.207914800E0
6.623882750E0,6.218046069E-1,9.305668294E-1,1.504261715E0,1.874939706E0
6.633826750E0,-2.981039178E-1,5.762337470E-1,2.019280962E0,2.120944808E0
6.643770750E0,-1.406075270E0,1.940433598E-1,2.333554770E0,2.731332707E0
6.653713750E0,-1.762500486E0,-7.490984917E-2,2.970617101E0,3.454936383E0
6.663657750E0,-1.630625893E0,-6.655318397E-1,3.365735682E0,3.798690579E0
6.673601750E0,-9.936962932E-1,-1.285294599E0,3.874856257E0,4.201657476E0
6.683544750E0,8.596751869E-2,-2.030391256E0,4.098128679E0,4.574334677E0
6.693488750E0,2.135535888E0,-3.309427580E0,3.910026090E0,5.549876437E0
6.703432750E0,4.759896081E0,-5.307400703E0,3.361413420E0,7.881891468E0
6.713375750E0,7.648901839E0,-7.406916574E0,2.924111856E0,1.104167300E1
6.723319750E0,9.619104196E0,-9.497048832E0,2.110552490E0,1.368121098E1
6.733263750E0,1.035876353E1,-1.022800926E1,7.886631647E-1,1.457868804E1
6.743207750E0,9.555830891E0,-8.241161635E0,-1.167868914E0,1.267259117E1
6.753150750E0,6.814335181E0,-3.913796375E0,-3.892372177E0,8.769465616E0
6.763094750E0,4.312985787E0,-4.778379714E-1,-5.253519781E0,6.813930262E0
6.773038750E0,3.179044027E0,1.586073618E0,-5.629202217E0,6.656565785E0
6.782981750E0,1.980923812E0,3.075709108E0,-6.380570598E0,7.354979729E0
6.792925750E0,8.740482277E-1,3.777299557E0,-6.881341349E0,7.898405599E0
6.802869750E0,-1.112432778E-2,3.466462743E0,-7.080467108E0,7.883495555E0
6.812812750E0,-4.312537891E-1,2.255418427E0,-6.496058954E0,6.889969089E0
6.822756750E0,-4.138366878E-2,1.891860777E-1,-5.279663851E0,5.283214397E0
6.832700750E0,2.265831149E-1,-1.948330262E0,-4.110749601E0,4.554733033E0
6.842643750E0,3.678769881E-1,-3.339306852E0,-2.909586203E0,4.444321726E0
6.852587750E0,3.662081927E-1,-3.601973720E0,-1.709749392E0,4.003943818E0
6.862531750E0,6.318618178E-2,-2.957638037E0,-5.196467328E-1,3.003605829E0
6.872475750E0,-8.925570041E-1,-1.697908634E0,2.643666530E-1,1.936347454E0
6.882418750E0,-1.926479802E0,-3.583337474E-1,8.576883030E-1,2.139008351E0
6.892362750E0,-2.393205140E0,8.685255325E-1,1.308209252E0,2.862372948E0
6.902306750E0,-2.687035913E0,1.896933821E0,1.475357759E0,3.604885634E0
6.912249750E0,-3.096479588E0,2.811146573E0,1.685073996E0,4.508902889E0
6.922193750E0,-3.525942374E0,3.562395086E0,1.840518715E0,5.339516600E0
6.932137750E0,-3.882344787E0,4.052367784E0,1.874795094E0,5.916852402E0
6.942080750E0,-4.208036453E0,4.388865105E0,1.896678883E0,6.369230603E0
6.952024750E0,-4.535152500E0,4.580167290E0,1.864961246E0,6.709964311E0
6.961968750E0,-4.989848362E0,4.704929915E0,1.687891184E0,7.062855572E0
6.971912750E0,-5.170123867E0,4.668605842E0,1.597776235E0,7.146953911E0
6.981855750E0,-5.135745163E0,4.406612574E0,1.456630297E0,6.922130061E0
6.991799750E0,-5.218375091E0,4.044216181E0,1.356095463E0,6.739890060E0
7.001743750E0,-5.270687791E0,3.552063056E0,1.134842817E0,6.456405343E0
7.011686750E0,-5.112573232E0,2.930795808E0,9.320088259E-1,5.966289431E0
7.021630750E0,-4.959064525E0,2.159327039E0,7.147906847E-1,5.455817075E0
7.031574750E0,-4.571616907E0,1.411288063E0,6.894755300E-1,4.833920939E0
7.041517750E0,-4.055883715E0,5.919621724E-1,6.378517056E-1,4.148188366E0
7.051461542E0,-3.426188875E0,-2.279607189E-1,6.083349609E-1,3.487234968E0
7.061405541E0,-2.817869702E0,-1.143207259E0,5.530224936E-1,3.090816457E0
7.071349542E0,-2.188541483E0,-1.929824409E0,4.774776368E-1,2.956673970E0
7.081292541E0,-1.669494089E0,-2.619988815E0,5.797678041E-1,3.160329510E0
7.091236542E0,-1.225996816E0,-2.993236470E0,9.281905941E-1,3.365125635E0
7.101180541E0,-9.345943916E-1,-2.912272414E0,1.452632994E0,3.385991717E0
7.111123541E0,-6.281833345E-1,-2.198843107E0,2.035136272E0,3.061258721E0
7.121067542E0,-6.596448630E-1,-1.179758204E0,2.413055706E0,2.765826930E0
7.131011541E0,-1.109455376E0,-4.014078462E-1,2.860626297E0,3.094382378E0
7.140954542E0,-1.502996378E0,1.313869357E-1,3.193625228E0,3.532067771E0
7.150898541E0,-1.483767809E0,1.267202729E-1,3.485991858E0,3.790747179E0
7.160842542E0,-9.714154780E-1,-6.946907347E-1,3.812426705E0,3.995102080E0
7.170785542E0,7.478705764E-2,-1.991933534E0,3.756089952E0,4.252246940E0
7.180729541E0,1.842995596E0,-3.578072056E0,3.118087388E0,5.091335912E0
7.190673541E0,3.920319529E0,-5.587640793E0,1.962981631E0,7.102389156E0
7.200617542E0,6.504927426E0,-7.990768658E0,8.409150533E-1,1.033796898E1
7.210560542E0,8.895728191E0,-9.799686681E0,-5.863529384E-1,1.324808095E1
7.220504541E0,1.066843441E1,-1.022070843E1,-2.128706925E0,1.492681368E1
7.230448541E0,1.074120418E1,-8.617494282E0,-4.293229215E0,1.442451011E1
7.240391541E0,8.632331591E0,-5.331505265E0,-6.355664967E0,1.197232535E1
7.250335542E0,6.496032642E0,-2.686414939E0,-7.289164760E0,1.012655856E1
7.260279541E0,4.571988789E0,-1.167843332E0,-7.523268564E0,8.880681811E0
7.270222541E0,2.687489072E0,-1.429644227E-2,-7.964520507E0,8.405735471E0
7.280166541E0,9.857353091E-1,7.130153239E-1,-8.020318147E0,8.112063124E0
7.290110542E0,7.186052620E-2,9.059453738E-1,-7.333893621E0,7.389986238E0
7.300053542E0,-2.426898551E-1,3.417522132E-1,-6.014132609E0,6.028721588E0
7.309997541E0,1.813233268E-1,-8.459891939E-1,-4.336199234E0,4.421673853E0
7.319941542E0,1.045030754E0,-1.757077779E0,-2.604087896E0,3.310692581E0
7.329885541E0,1.354512768E0,-1.922934635E0,-1.179951673E0,2.631476468E0
7.339828542E0,8.574526602E-1,-1.349360787E0,-6.127180338E-2,1.599923070E0
7.349772541E0,-1.804737264E-1,-3.156017107E-1,9.245805231E-1,9.934909911E-1
7.359716542E0,-1.105916056E0,7.582382745E-1,1.602162817E0,2.089234619E0
7.369659542E0,-1.818351336E0,1.691334609E0,1.997276574E0,3.186868063E0
7.379603541E0,-2.205348135E0,2.396010050E0,2.207919302E0,3.934378248E0
7.389547541E0,-2.772355560E0,2.980075557E0,2.309830277E0,4.679970255E0
7.399490541E0,-3.324646128E0,3.615015349E0,2.505633941E0,5.513602207E0
7.409434542E0,-3.760049686E0,4.122507475E0,2.457815119E0,6.097039994E0
7.419378541E0,-4.025986317E0,4.602596624E0,2.295523310E0,6.531606906E0
7.429322541E0,-4.245894250E0,4.888609085E0,2.264799700E0,6.859696382E0
7.439265541E0,-4.573575724E0,5.182264441E0,1.949565779E0,7.181522566E0
7.449209542E0,-4.745127769E0,5.463600299E0,1.718950424E0,7.437873105E0
7.459153541E0,-4.743121004E0,5.555326740E0,1.570296661E0,7.471591775E0
7.469096541E0,-4.717387408E0,5.626552843E0,1.392402141E0,7.473327544E0
7.479040541E0,-4.514482008E0,5.669655009E0,1.244744743E0,7.353565475E0
7.488984542E0,-4.128482745E0,5.653904949E0,1.137048386E0,7.092523527E0
7.498927542E0,-3.531935771E0,5.540542640E0,1.083685527E0,6.659321088E0
7.508871541E0,-2.642645021E0,5.381436979E0,1.001486539E0,6.078356024E0
7.518815542E0,-1.550866948E0,5.124861156E0,9.535756230E-1,5.438630032E0
7.528759541E0,-4.080929679E-1,4.674267701E0,8.232974656E-1,4.763731429E0
7.538702541E0,5.660063821E-1,4.010322796E0,6.059410378E-1,4.095145503E0
7.548646541E0,1.106722972E0,3.146960939E0,7.142244550E-1,3.411497539E0
7.558590542E0,1.319356384E0,2.230154947E0,7.875895429E-1,2.708244753E0
7.568533542E0,1.816224704E0,1.528185598E0,1.055672759E0,2.597781433E0
7.578477541E0,1.988024670E0,8.238989979E-1,1.664006770E0,2.720288621E0
7.588421541E0,1.260312955E0,-1.037471473E-2,2.252375536E0,2.581025365E0
7.598364541E0,2.220293033E-1,-5.948466039E-1,2.559377747E0,2.636959223E0
7.608308542E0,-4.493596923E-1,-1.125589598E0,3.014050219E0,3.248595820E0
7.618252541E0,-4.975483507E-1,-1.662237695E0,3.663644303E0,4.053748647E0
7.628195541E0,-1.386842608E-2,-2.181831803E0,4.159334993E0,4.696876615E0
7.638139541E0,2.078556526E-1,-3.110373157E0,4.134957951E0,5.178368701E0
7.648083542E0,9.925549167E-1,-4.320083722E0,3.973884702E0,5.953154479E0
7.658027541E0,2.727802116E0,-6.035790111E0,4.074461489E0,7.776432542E0
7.667970541E0,5.329523644E0,-8.001232835E0,3.703636919E0,1.030244998E1
7.677914542E0,8.222437096E0,-9.720588471E0,3.080529553E0,1.309915930E1
7.687858541E0,1.010194212E1,-1.057826333E1,1.317958900E0,1.468624885E1
7.697801542E0,9.757897215E0,-9.916807580E0,-1.440426493E0,1.398693888E1
7.707745541E0,7.708217749E0,-6.938707797E0,-4.169470557E0,1.117795918E1
7.717689542E0,5.062439790E0,-3.164314306E0,-6.840386281E0,9.079210655E0
7.727632542E0,4.105009682E0,-8.036062360E-1,-7.020088760E0,8.171813365E0
7.737576541E0,3.411495407E0,1.123614993E0,-7.445611693E0,8.266676784E0
7.747520541E0,1.908460438E0,2.232553475E0,-7.893525953E0,8.422248407E0
7.757464542E0,4.914947283E-1,2.696272175E0,-7.865718935E0,8.329524900E0
7.767407542E0,-2.072615755E-1,2.435857070E0,-7.151965692E0,7.558238570E0
7.777351541E0,-5.334999561E-2,1.311528717E0,-5.878996439E0,6.023749076E0
7.787295541E0,4.536579806E-1,-2.493252754E-1,-4.630003109E0,4.658851516E0
7.797238541E0,5.522718573E-1,-1.660723266E0,-3.108686235E0,3.567483157E0
7.807182542E0,4.701711023E-1,-2.172690850E0,-1.718606608E0,2.809849653E0
7.817126541E0,7.688737750E-2,-1.966028030E0,-5.282395086E-1,2.037207614E0
7.827069541E0,-7.334536815E-1,-1.262929584E0,4.241022058E-1,1.520791938E0
7.837013541E0,-1.899675581E0,-1.975744933E-1,1.163752474E0,2.236542603E0
7.846957542E0,-2.835983791E0,8.374715549E-1,1.610551086E0,3.367200242E0
7.856900542E0,-3.329880556E0,1.699293255E0,1.970863677E0,4.226109998E0
7.866844541E0,-3.607268373E0,2.462371269E0,2.223313559E0,4.900895894E0
7.876788542E0,-3.968973625E0,3.031017085E0,2.284417108E0,5.491664386E0
7.886732541E0,-4.561126417E0,3.611457319E0,2.275130853E0,6.246816674E0
7.896675542E0,-4.667457449E0,4.061658425E0,2.232990847E0,6.577877798E0
7.906619541E0,-4.911192786E0,4.368754776E0,2.076902787E0,6.893428614E0
7.916563542E0,-5.223190273E0,4.522979767E0,1.866130689E0,7.156920172E0
7.926506542E0,-5.449562888E0,4.585764245E0,1.669212838E0,7.315274491E0
7.936450541E0,-5.742013718E0,4.634518329E0,1.464743893E0,7.522961940E0
7.946394541E0,-5.808981294E0,4.450847930E0,1.189407937E0,7.414108322E0
7.956337541E0,-5.730720990E0,4.155388708E0,1.157035266E0,7.172666797E0
7.966281542E0,-5.451592457E0,3.749348697E0,1.084700603E0,6.704778249E0
7.976225541E0,-5.073221471E0,3.196195080E0,1.094695834E0,6.095211075E0
7.986168541E0,-4.701775342E0,2.536502270E0,1.059013858E0,5.446287312E0
7.996112541E0,-4.100252388E0,1.772703293E0,1.081360674E0,4.596073054E0
8.006056542E0,-3.297185850E0,7.747999281E-1,9.968884344E-1,3.530656597E0
8.016000541E0,-2.340839231E0,-3.254238635E-1,1.032699049E0,2.579127047E0
8.025943541E0,-1.441426951E0,-1.608498275E0,1.013178704E0,2.385688463E0
8.035887541E0,-5.032528943E-1,-2.703596397E0,1.097320064E0,2.960879646E0
8.045831542E0,1.028244567E-1,-3.507409040E0,1.173407689E0,3.699915762E0
8.055774542E0,6.878816521E-1,-3.825002312E0,1.492891220E0,4.163237688E0
8.065718541E0,1.298322195E0,-3.324359615E0,1.834911089E0,4.012967241E0
8.075662542E0,1.477286755E0,-2.244859525E0,2.011451394E0,3.356740555E0
8.085605541E0,1.000366212E0,-1.152832360E0,2.326434031E0,2.782454008E0
8.095549542E0,5.655491298E-1,-3.607422155E-1,2.680520360E0,2.763181168E0
8.105493541E0,6.581263411E-1,-2.594432974E-1,3.084603893E0,3.164683599E0
8.115437542E0,1.336058371E0,-9.478412586E-1,3.332177342E0,3.713066235E0
8.125380542E0,2.600787143E0,-2.067541541E0,3.156521137E0,4.582842728E0
8.135324541E0,3.910017904E0,-3.547899839E0,2.394862972E0,5.797516876E0
8.145268541E0,5.420771783E0,-5.458965796E0,1.482871431E0,7.834793039E0
8.155211541E0,6.906759780E0,-7.519488339E0,4.088840961E-1,1.021827881E1
8.165155542E0,8.324965099E0,-8.793350462E0,-8.805626106E-1,1.214098212E1
8.175099541E0,9.027409827E0,-8.737036512E0,-2.449151884E0,1.279954219E1
8.185042541E0,8.125184451E0,-6.790674423E0,-5.067598203E0,1.173935403E1
8.194986541E0,6.374375473E0,-4.388436504E0,-6.623887274E0,1.018660494E1
8.204930542E0,4.785956537E0,-2.727315043E0,-7.061412202E0,8.955845555E0
8.214873542E0,2.676398073E0,-1.470327399E0,-7.259687777E0,7.875787956E0
8.224817541E0,6.812199193E-1,-6.183290219E-1,-7.346031271E0,7.403415887E0
8.234761541E0,-7.149677092E-1,-8.421452343E-2,-7.000481876E0,7.037401325E0
8.244705542E0,-1.358701714E0,2.493831629E-1,-5.852814946E0,6.013626618E0
8.254648542E0,-1.256231598E0,7.281128347E-2,-4.445839205E0,4.620487588E0
8.264592541E0,-4.935763371E-1,-6.546273673E-1,-3.032230382E0,3.141110581E0
8.274536542E0,6.249907547E-1,-1.140920997E0,-1.812323442E0,2.230881087E0
8.284479541E0,1.009544587E0,-1.046327081E0,-7.924238746E-1,1.655873253E0
8.294423542E0,5.255734706E-1,-4.138062823E-1,9.263626814E-2,6.753107362E-1
8.304367541E0,-3.883223623E-1,5.196093106E-1,8.277609377E-1,1.051654060E0
8.314310541E0,-1.182177197E0,1.490090988E0,1.361558956E0,2.339178674E0
8.324254542E0,-1.818997453E0,2.200734681E0,1.689574013E0,3.317626443E0
8.334198541E0,-2.314889873E0,2.667483993E0,1.971152530E0,4.044703731E0
8.344141542E0,-2.937416026E0,3.173992617E0,2.084601231E0,4.800854542E0
8.354085541E0,-3.373676201E0,3.607604004E0,2.084090331E0,5.360963557E0
8.364029542E0,-3.983907999E0,4.066844906E0,2.139392273E0,6.081755481E0
8.373973541E0,-4.284805132E0,4.288954316E0,2.124639602E0,6.424077955E0
8.383916541E0,-4.557627443E0,4.498595708E0,2.043680077E0,6.722050246E0
8.393860541E0,-4.776011007E0,4.765447428E0,1.952709242E0,7.023734314E0
8.403804542E0,-4.953675731E0,4.978269120E0,1.809195181E0,7.252258537E0
8.413747542E0,-4.875247028E0,5.167660435E0,1.637156063E0,7.290612315E0
8.423691541E0,-4.785294047E0,5.306078648E0,1.275857778E0,7.258190050E0
8.433635541E0,-4.508055333E0,5.381341669E0,1.153197153E0,7.114159453E0
8.443578541E0,-3.958615283E0,5.397668265E0,1.100324437E0,6.783522058E0
8.453522542E0,-3.200016235E0,5.224854975E0,1.069296699E0,6.219534456E0
8.463466541E0,-2.132219347E0,4.947405762E0,1.080422781E0,5.494587929E0
8.473409541E0,-6.349023700E-1,4.535142560E0,1.046596638E0,4.697444367E0
8.483353541E0,9.211452109E-1,3.823472680E0,8.466370654E-1,4.022964847E0
8.493297542E0,2.269863389E0,2.800631526E0,9.188313214E-1,3.720224152E0
8.503241541E0,2.966629885E0,1.651140264E0,8.289502613E-1,3.494898508E0
8.513184541E0,3.106234497E0,6.730373257E-1,7.849090330E-1,3.273798128E0
8.523128542E0,2.864502416E0,-2.573868316E-1,1.014311675E0,3.049663957E0
8.533072541E0,2.196938084E0,-1.039258382E0,1.792483693E0,3.019866341E0
8.543015542E0,8.192019296E-1,-1.688596358E0,2.435077782E0,3.074419176E0
8.552959541E0,-3.828300726E-1,-1.841910353E0,2.859616190E0,3.422951558E0
8.562903542E0,-9.637831074E-1,-1.857210762E0,3.500440328E0,4.078135871E0
8.572846542E0,-7.558426702E-1,-1.917905445E0,3.979191635E0,4.481475818E0
8.582790541E0,-5.230463040E-1,-2.393204556E0,4.019208809E0,4.706914587E0
8.592734541E0,3.924709618E-2,-3.175411736E0,4.034112192E0,5.134086210E0
8.602678542E0,1.417410682E0,-4.191310492E0,4.138561006E0,6.058368087E0
8.612621542E0,3.634097153E0,-5.332496953E0,3.901205273E0,7.540662335E0
8.622565541E0,6.044738690E0,-6.502553456E0,3.235988013E0,9.449533624E0
8.632509541E0,8.049526159E0,-7.507724326E0,1.892030200E0,1.116873199E1
8.642452541E0,9.648235610E0,-7.981142387E0,-6.364603606E-1,1.253763000E1
8.652396542E0,9.640185163E0,-7.264156803E0,-3.605804815E0,1.259773680E1
8.662340541E0,7.684965127E0,-5.515152860E0,-5.718827169E0,1.105353266E1
8.672283541E0,5.862659903E0,-3.276211887E0,-7.147881997E0,9.807984630E0
8.682227541E0,4.528917030E0,-1.066641478E0,-7.916575677E0,9.182645804E0
8.692171542E0,2.793837646E0,6.362653559E-1,-8.350418029E0,8.828354527E0
8.702114542E0,1.355576377E0,1.770674894E0,-8.371733469E0,8.663648086E0
8.712058541E0,1.387322080E-1,2.118888865E0,-7.718698883E0,8.005451211E0
8.722002542E0,-6.440292889E-1,1.740845323E0,-6.317345824E0,6.584388690E0
8.731946541E0,-1.023708882E0,8.399297243E-1,-5.000858084E0,5.173204364E0
8.741889542E0,-7.941378397E-1,-4.038502282E-1,-3.489199933E0,3.601147885E0
8.751833541E0,-4.580784756E-1,-1.358194175E0,-2.009286901E0,2.468149339E0
8.761777542E0,-3.881112778E-1,-1.542249321E0,-8.532374024E-1,1.804765192E0
8.771720542E0,-7.582417828E-1,-1.082554091E0,2.930580631E-2,1.322010889E0
8.781664541E0,-1.434162955E0,-3.584951305E-1,7.976710197E-1,1.679768197E0
8.791608541E0,-2.087009845E0,4.378096873E-1,1.497504965E0,2.605726106E0
8.801551541E0,-2.761104932E0,1.092019563E0,1.903521295E0,3.526981782E0
8.811495542E0,-3.166591212E0,1.724513465E0,2.168800113E0,4.207723912E0
8.821439541E0,-3.498691426E0,2.249109866E0,2.340103505E0,4.772360139E0
8.831382541E0,-3.883884943E0,2.782254896E0,2.409555856E0,5.350837690E0
8.841326541E0,-4.402852814E0,3.225939866E0,2.383931018E0,5.956083278E0
8.851270542E0,-4.705736246E0,3.431192923E0,2.265906139E0,6.249109466E0
8.861214541E0,-4.976546531E0,3.630057896E0,2.238515442E0,6.553952021E0
8.871157541E0,-5.307887192E0,3.733415034E0,2.215539393E0,6.857161881E0
8.881101541E0,-5.575882627E0,3.754338711E0,2.086875798E0,7.038506718E0
8.891045542E0,-5.856684049E0,3.745105373E0,1.950686252E0,7.220231240E0
8.900988542E0,-6.050898732E0,3.664585120E0,1.815877379E0,7.303421816E0
8.910932541E0,-6.091348016E0,3.534494512E0,1.583043591E0,7.218254575E0
8.920876542E0,-6.056652977E0,3.284971601E0,1.361015457E0,7.023278919E0
8.930819542E0,-5.776529832E0,2.848215582E0,1.111605835E0,6.535770531E0
8.940763541E0,-5.284705905E0,2.185762301E0,9.894624706E-1,5.803852972E0
8.950707541E0,-4.725370027E0,1.467306143E0,8.867676759E-1,5.026774922E0
8.960650541E0,-3.946809754E0,7.416409528E-1,7.960202046E-1,4.094018406E0
8.970594542E0,-2.877466278E0,-1.090564191E-1,7.186742592E-1,2.967860875E0
8.980538541E0,-1.763054218E0,-9.716826957E-1,7.403671369E-1,2.144917465E0
8.990482541E0,-7.118084586E-1,-1.830624642E0,9.104141083E-1,2.164881454E0
9.000425541E0,4.132934815E-1,-2.353934070E0,1.315325021E0,2.727984058E0
9.010369542E0,1.144272621E0,-2.421531392E0,1.735823442E0,3.191591630E0
9.020313541E0,1.572392887E0,-2.059360117E0,2.159548356E0,3.372985708E0
9.030256541E0,1.588263400E0,-1.298629759E0,2.687705419E0,3.381239462E0
9.040200541E0,1.192951276E0,-5.328187555E-1,2.991316537E0,3.264200239E0
9.050144542E0,9.733327800E-1,-3.023320395E-1,3.222999301E0,3.380311503E0
9.060087542E0,1.822030404E0,-9.338003397E-1,3.302758831E0,3.885871043E0
9.070031541E0,3.461507812E0,-2.208348926E0,3.017634562E0,5.095582367E0
9.079975542E0,5.308008229E0,-3.946858286E0,2.168168760E0,6.960861833E0
9.089919541E0,7.431967215E0,-6.286275474E0,1.026216899E0,9.787978195E0
9.099862542E0,9.986090069E0,-8.642983464E0,-4.044365577E-1,1.321312707E1
9.109806541E0,1.182194388E1,-9.946369933E0,-2.017655290E0,1.558074339E1
9.119750542E0,1.163616848E1,-9.153817858E0,-3.367824308E0,1.518338035E1
9.129693542E0,9.076881949E0,-5.954731915E0,-5.093076861E0,1.199116550E1
9.139637541E0,4.484300435E0,-3.125213390E0,-6.486509281E0,8.482376541E0
9.149581541E0,5.815354174E-1,-1.887484136E0,-6.694764884E0,6.980018385E0
9.159524541E0,-1.894939921E0,-8.810683948E-1,-6.397898237E0,6.730540889E0
9.169468542E0,-3.239984293E0,-3.094387454E-1,-6.392928103E0,7.173756358E0
9.179412541E0,-3.419606665E0,1.347596097E-1,-6.244095415E0,7.120435200E0
9.189355541E0,-2.678255149E0,3.398220474E-1,-5.464817104E0,6.095306034E0
9.199299541E0,-9.588065422E-1,1.043131578E-1,-4.487416416E0,4.589890774E0
9.209243542E0,1.499451211E0,-3.961588007E-1,-3.496895746E0,3.825385678E0
9.219186542E0,3.087097145E0,-7.737795889E-1,-2.771300722E0,4.220072432E0
9.229130541E0,3.549307848E0,-7.650555432E-1,-1.995901455E0,4.143249788E0
9.239074541E0,3.079489918E0,-2.112429446E-1,-9.914562249E-1,3.242046758E0
9.249018542E0,1.703726029E0,5.920335084E-1,-1.728415020E-1,1.811921698E0
9.258961542E0,8.652709723E-2,1.437656667E0,5.562001629E-1,1.543924302E0
9.268905541E0,-1.003759351E0,1.964490797E0,1.184631712E0,2.504018614E0
9.278849542E0,-1.894345259E0,2.183483056E0,1.640408285E0,3.323715024E0
9.288792541E0,-2.733750488E0,2.434805741E0,1.985774077E0,4.164729212E0
9.298736542E0,-3.614461618E0,2.727633131E0,2.214350069E0,5.040601305E0
9.308680541E0,-4.152431186E0,2.929335759E0,2.267040353E0,5.564455472E0
9.318623541E0,-4.360038332E0,3.164994337E0,2.479114187E0,5.930693936E0
9.328567542E0,-4.719244484E0,3.466080920E0,2.405666434E0,6.330261956E0
9.338511541E0,-4.916457034E0,3.829225756E0,2.350262896E0,6.660199347E0
9.348454542E0,-4.944981506E0,4.071676460E0,2.163645354E0,6.761120655E0
9.358398541E0,-4.890936862E0,4.345634885E0,2.020314896E0,6.847443188E0
9.368342542E0,-4.839429908E0,4.641153165E0,1.934310540E0,6.978677654E0
9.378286541E0,-4.693220866E0,4.893106763E0,1.819199767E0,7.019850688E0
9.388229541E0,-4.392616678E0,5.038723483E0,1.800336503E0,6.922790416E0
9.398173541E0,-4.032161561E0,5.155297083E0,1.795195777E0,6.786614970E0
9.408117542E0,-3.484178637E0,5.069966326E0,1.785709255E0,6.405686291E0
9.418060542E0,-2.592067190E0,4.929599821E0,1.788807110E0,5.849751925E0
9.428004541E0,-1.355872831E0,4.680889673E0,1.646705736E0,5.144002240E0
9.437948541E0,-1.488245022E-1,4.147507246E0,1.579337626E0,4.440526142E0
9.447891541E0,7.662442821E-1,3.576760526E0,1.491653803E0,3.950364189E0
9.457835542E0,1.633631362E0,2.918389186E0,1.247425107E0,3.569568078E0
9.467779541E0,2.299256757E0,2.068695197E0,1.080962040E0,3.276363896E0
9.477723542E0,2.605353234E0,1.365216097E0,1.159725350E0,3.161746883E0
9.487666541E0,2.241274597E0,6.104376197E-1,1.396294194E0,2.710273673E0
9.497610542E0,1.459930465E0,-2.438955510E-1,1.965447986E0,2.460460890E0
9.507554541E0,4.193839413E-1,-8.959863961E-1,2.452781836E0,2.644770925E0
9.517497541E0,-5.296489799E-1,-1.464536902E0,2.745238513E0,3.156220979E0
9.527441542E0,-8.812303627E-1,-2.013881058E0,3.122569864E0,3.818733615E0
9.537385541E0,-3.914254797E-1,-2.677303807E0,3.666515286E0,4.556808524E0
9.547328542E0,3.581899059E-1,-3.772151669E0,3.664204759E0,5.271036400E0
9.557272541E0,1.958709655E0,-5.395284939E0,3.513430502E0,6.729772432E0
9.567216542E0,4.164529660E0,-7.557339120E0,2.606023325E0,9.013769435E0
9.577159542E0,7.017497274E0,-9.852810974E0,1.711868130E0,1.221694088E1
9.587103541E0,9.303646912E0,-1.130802858E1,-2.068417454E-1,1.464486735E1
9.597047541E0,1.019002809E1,-1.129102605E1,-2.900494952E0,1.548343672E1
9.606990541E0,8.060663350E0,-8.702554312E0,-4.912048234E0,1.283888481E1
9.616934542E0,5.476475283E0,-4.690784916E0,-5.718710225E0,9.203200057E0
9.626878541E0,4.061788818E0,-1.100703263E0,-6.079904430E0,7.394248708E0
9.636822541E0,3.199186515E0,1.461146686E0,-6.214388051E0,7.140613618E0
9.646765541E0,2.142674754E0,3.266042994E0,-6.424099610E0,7.518453813E0
9.656709542E0,1.005747989E0,4.252925527E0,-6.554512399E0,7.877851062E0
9.666653541E0,-1.414219272E-1,4.159613321E0,-6.267451533E0,7.523518582E0
9.676596541E0,-6.891920131E-1,2.543668617E0,-5.250483906E0,5.874761009E0
9.686540541E0,-3.198900586E-1,1.502769506E-1,-3.908162875E0,3.924111348E0
9.696484542E0,-1.701797032E-1,-1.956753761E0,-2.946760461E0,3.541361833E0
9.706427542E0,-1.770817566E-1,-3.143426297E0,-2.323964459E0,3.913220878E0
9.716371541E0,-1.684120899E-1,-3.776489133E0,-1.576289180E0,4.095719764E0
9.726315542E0,-3.626869994E-1,-3.486652009E0,-6.907362628E-1,3.572870089E0
9.736258541E0,-9.412210411E-1,-2.367854537E0,1.160928123E-1,2.550707685E0
9.746202542E0,-1.842128454E0,-7.618150163E-1,7.699367988E-1,2.136960934E0
9.756146541E0,-2.539141703E0,7.078346908E-1,1.240551266E0,2.913286457E0
9.766090542E0,-2.982541913E0,1.928505862E0,1.597310943E0,3.894366877E0
9.776033542E0,-3.270310877E0,2.912189384E0,1.851679734E0,4.754418795E0
9.785977541E0,-3.571886287E0,3.676282475E0,2.007037038E0,5.504690923E0
9.795921541E0,-4.001820944E0,4.312365983E0,2.121934680E0,6.254092901E0
9.805864541E0,-4.286982050E0,4.697759475E0,2.083561450E0,6.692412681E0
9.815808542E0,-4.634572708E0,4.887681132E0,2.073729064E0,7.047626783E0
9.825752541E0,-4.777311428E0,5.056753957E0,2.034396307E0,7.247912348E0
9.835695541E0,-4.987164490E0,5.082125611E0,1.815189893E0,7.348110282E0
9.845639541E0,-5.140389022E0,5.041363501E0,1.737195930E0,7.406537311E0
9.855583542E0,-5.304446105E0,4.855448940E0,1.582171186E0,7.363137820E0
9.865526542E0,-5.447133955E0,4.553026269E0,1.450843015E0,7.246120478E0
9.875470541E0,-5.478252252E0,4.030192804E0,1.183165522E0,6.903157424E0
9.885414541E0,-5.371666281E0,3.372616686E0,9.926022792E-1,6.419859907E0
9.895358542E0,-5.207252517E0,2.552195612E0,7.377265343E-1,5.845803765E0
9.905301542E0,-4.923947902E0,1.723987800E0,4.986878268E-1,5.240809711E0
9.915245541E0,-4.464484806E0,7.568232483E-1,3.442956059E-1,4.541249330E0
9.925189542E0,-3.566718518E0,-3.805397183E-1,1.896975629E-1,3.591973918E0
9.935132541E0,-2.561803172E0,-1.600475895E0,-1.727092087E-1,3.025588711E0
9.945076542E0,-1.471913164E0,-2.873266223E0,-2.309262805E-1,3.236589887E0
9.955020541E0,-3.383947420E-1,-3.915022536E0,9.082933232E-2,3.930669463E0
9.964963541E0,5.217587471E-1,-4.481137092E0,7.554298568E-1,4.574220818E0
9.974907542E0,9.862212127E-1,-4.245935181E0,1.345748231E0,4.561977218E0
9.984851541E0,1.171219515E0,-3.156721112E0,2.028410950E0,3.930788001E0
9.994794542E0,6.047734219E-1,-1.759417834E0,2.773196390E0,3.339449090E0
1.000473854E1,-3.697551137E-1,-3.441536647E-1,3.422012794E0,3.459094123E0
1.001468254E1,-1.005760853E0,3.490045148E-1,3.843671887E0,3.988379699E0
1.002462554E1,-1.143606623E0,2.842202890E-1,4.065084894E0,4.232438124E0
1.003456954E1,-2.414011288E-1,-7.753022039E-1,4.177902242E0,4.256082137E0
1.004451354E1,1.736347645E0,-2.508500538E0,3.855307846E0,4.916388581E0
1.005445750E1,3.984569319E0,-4.401402120E0,2.776735125E0,6.554341403E0
1.006440050E1,6.382015445E0,-6.779607983E0,1.533736360E0,9.436395114E0
1.007434450E1,8.852640059E0,-9.059263119E0,2.637656323E-1,1.266921689E1
1.008428850E1,1.095210155E1,-1.013122732E1,-1.493680594E0,1.499404472E1
1.009423150E1,1.136206387E1,-8.975163785E0,-3.776514276E0,1.496369341E1
1.010417550E1,9.652561380E0,-5.785448590E0,-5.813481896E0,1.266648840E1
1.011411950E1,7.473863685E0,-2.834433694E0,-7.326480521E0,1.084296867E1
1.012406250E1,4.711446637E0,-1.207986222E0,-7.808072405E0,9.199073584E0
1.013400650E1,1.920320930E0,-5.292765123E-1,-7.729746612E0,7.982277168E0
1.014395050E1,-4.847283304E-2,-2.721124595E-1,-7.549533087E0,7.554590964E0
1.015389350E1,-1.263316669E0,-1.357735169E-1,-7.089485854E0,7.202444941E0
1.016383750E1,-1.657927127E0,-6.060229719E-2,-5.798552785E0,6.031219561E0
1.017378150E1,-1.552328752E0,-3.500324553E-1,-4.191302598E0,4.483220354E0
1.018372550E1,-4.826169008E-1,-9.019838852E-1,-2.886819484E0,3.062714603E0
1.019366850E1,7.005063754E-1,-1.197732545E0,-1.847529527E0,2.310549238E0
1.020361250E1,1.057522745E0,-1.016939560E0,-7.595639844E-1,1.652107101E0
1.021355650E1,6.244066179E-1,-3.306805104E-1,2.756530217E-1,7.584311523E-1
1.022349950E1,-1.811490798E-1,6.520300341E-1,1.156412026E0,1.339868250E0
1.023344350E1,-1.148888998E0,1.654510015E0,1.526799223E0,2.527541332E0
1.024338750E1,-1.923442758E0,2.350223427E0,1.819700289E0,3.540408358E0
1.025333050E1,-2.760245976E0,2.925500570E0,2.048517040E0,4.513749384E0
1.026327450E1,-3.424217194E0,3.332880762E0,2.098428873E0,5.218885063E0
1.027321850E1,-3.853972927E0,3.708805858E0,2.075756879E0,5.737343883E0
1.028316150E1,-4.327436011E0,4.050132394E0,2.010637608E0,6.258828839E0
1.029310550E1,-4.650144428E0,4.265532709E0,2.000438894E0,6.619695481E0
1.030304950E1,-4.893992032E0,4.530650144E0,1.883785772E0,6.930122479E0
1.031299250E1,-4.817501680E0,4.704362150E0,1.603456221E0,6.921735153E0
1.032293650E1,-5.203113858E0,4.996348711E0,1.348653274E0,7.338580239E0
1.033288050E1,-5.054356599E0,5.264002084E0,1.283180830E0,7.409641801E0
1.034282450E1,-4.672851505E0,5.411494006E0,1.012632501E0,7.221165636E0
1.035276750E1,-4.217216581E0,5.582995765E0,8.166244769E-1,7.044262412E0
1.036271150E1,-3.647991307E0,5.575496126E0,6.154299724E-1,6.691244404E0
1.037265550E1,-2.605415214E0,5.444357697E0,6.154661521E-1,6.066961163E0
1.038259850E1,-1.381080177E0,5.265427635E0,4.647869130E-1,5.463344902E0
1.039254250E1,-4.466337204E-2,4.864106328E0,4.857469884E-1,4.888504406E0
1.040248650E1,1.170370499E0,4.127667643E0,4.757493460E-1,4.316682142E0
1.041242950E1,2.115925496E0,3.401315405E0,7.408818381E-1,4.073695262E0
1.042237350E1,2.597330854E0,2.470215309E0,7.714652610E-1,3.666503769E0
1.043231750E1,2.966466163E0,1.301620025E0,9.738527437E-1,3.382680202E0
1.044226050E1,2.436173404E0,1.286656415E-1,1.992221217E0,3.149673171E0
1.045220450E1,9.538182825E-1,-1.201803376E0,2.356761199E0,2.812192031E0
1.046214850E1,-6.709849530E-1,-2.350737398E0,2.850841566E0,3.755460658E0
1.047209250E1,-1.612512973E0,-3.379091892E0,3.525246556E0,5.142550280E0
1.048203550E1,-1.798630432E0,-4.160449473E0,3.915667484E0,5.989729801E0
1.049197950E1,-1.388335987E0,-4.840865985E0,4.301187276E0,6.622814528E0
1.050192350E1,-7.827275831E-1,-5.507775428E0,4.219673581E0,6.982399141E0
1.051186650E1,1.887884670E-1,-6.587503560E0,4.236477309E0,7.834448559E0
1.052181050E1,1.638037239E0,-7.514303613E0,4.203474455E0,8.764537767E0
1.053175450E1,3.492867014E0,-8.414214075E0,3.697689131E0,9.832193214E0
1.054169750E1,5.433534501E0,-9.170615739E0,3.249193658E0,1.114364167E1
1.055164150E1,6.953708244E0,-9.229024161E0,1.820144531E0,1.169794304E1
1.056158550E1,7.664391698E0,-8.325504797E0,-3.729601188E-1,1.132236855E1
1.057152850E1,7.056455517E0,-6.166961870E0,-2.569713285E0,9.717428134E0
1.058147250E1,6.321481560E0,-3.247445340E0,-5.212907360E0,8.813707137E0
1.059141650E1,5.579086316E0,-6.251135463E-1,-6.446964562E0,8.548703009E0
1.060135950E1,5.332372407E0,1.627639720E0,-6.966311917E0,8.922606585E0
1.061130350E1,4.572846576E0,2.964379876E0,-7.836510923E0,9.545123221E0
1.062124750E1,3.250284163E0,3.894402330E0,-8.306131217E0,9.732550152E0
1.063119150E1,1.831869514E0,4.154166055E0,-8.505883799E0,9.641727061E0
1.064113450E1,1.018263370E0,3.347139782E0,-7.601374501E0,8.367861096E0
1.065107850E1,6.248743951E-1,1.635507733E0,-6.027271303E0,6.276412424E0
1.066102250E1,3.739960992E-1,-6.934388459E-2,-4.516891061E0,4.532878392E0
1.067096550E1,4.099512130E-1,-1.319204357E0,-3.052949406E0,3.350949150E0
1.068090950E1,2.009495062E-1,-1.771067827E0,-1.682908333E0,2.451375616E0
1.069085350E1,-2.673499024E-1,-1.434063553E0,-5.236191849E-1,1.549900414E0
1.070079650E1,-1.010915759E0,-6.842101854E-1,4.135184531E-1,1.288833488E0
1.071074050E1,-2.008082374E0,2.619827431E-1,1.143821655E0,2.325802605E0
1.072068450E1,-2.871609707E0,1.108098822E0,1.608880098E0,3.473113945E0
1.073062750E1,-3.358433095E0,1.864157254E0,1.912178828E0,4.290755527E0
1.074057150E1,-3.642566260E0,2.450023119E0,2.089009008E0,4.861569796E0
1.075051550E1,-3.901772161E0,2.981004095E0,2.189481715E0,5.376247910E0
1.076045850E1,-4.180842807E0,3.366946641E0,2.211475578E0,5.805721358E0
1.077040250E1,-4.521016272E0,3.649724422E0,2.204976983E0,6.214660085E0
1.078034650E1,-4.801709520E0,3.764698223E0,2.136231122E0,6.464739007E0
1.079029050E1,-5.002236273E0,3.842992440E0,1.922887273E0,6.594577628E0
1.080023350E1,-5.162393264E0,3.779326787E0,1.586478245E0,6.591701479E0
1.081017750E1,-5.512785323E0,3.809899539E0,1.465885416E0,6.859661549E0
1.082012150E1,-5.369794587E0,3.568585533E0,1.213556864E0,6.560656742E0
1.083006450E1,-5.204463980E0,3.295272056E0,9.618215858E-1,6.234610173E0
1.084000850E1,-5.117966119E0,2.915288408E0,8.439311202E-1,5.950185159E0
1.084995250E1,-4.945224166E0,2.337198170E0,6.735735154E-1,5.511028817E0
1.085989550E1,-4.416877361E0,1.791647102E0,4.478290375E-1,4.787416402E0
1.086983950E1,-3.762786183E0,1.168435071E0,2.515706062E-2,3.940105741E0
1.087978350E1,-3.148382397E0,3.661719400E-1,-2.651234289E-1,3.180673520E0
1.088972650E1,-2.382129344E0,-4.637660623E-1,-5.116243529E-1,2.480197301E0
1.089967050E1,-1.618091217E0,-1.149231060E0,-5.653930092E-1,2.063642525E0
1.090961450E1,-8.517311597E-1,-1.789414051E0,-3.139346695E-1,2.006490366E0
1.091955850E1,-3.406330562E-1,-2.365151954E0,3.460709667E-1,2.414485402E0
1.092950150E1,3.822675705E-2,-2.506890215E0,1.019784815E0,2.706643845E0
1.093944550E1,1.248643667E-1,-2.301260013E0,1.548007221E0,2.776277204E0
1.094938950E1,2.562863857E-1,-1.746418889E0,2.259111675E0,2.866922951E0
1.095933250E1,8.564416766E-3,-1.060269182E0,3.004549663E0,3.186151717E0
1.096927650E1,-4.879121393E-1,-3.097527409E-1,3.655793831E0,3.701193531E0
1.097922050E1,-5.753221661E-1,8.498226285E-2,4.065845032E0,4.107226972E0
1.098916350E1,-1.044722021E-2,-1.759555829E-1,4.317076499E0,4.320673444E0
1.099910750E1,8.811303753E-1,-9.009787488E-1,4.404183640E0,4.580937348E0
1.100905150E1,2.506397880E0,-2.312327623E0,3.956262363E0,5.223112219E0
1.101899450E1,4.669157234E0,-4.244877419E0,2.970154002E0,6.974369389E0
1.102893850E1,7.355363427E0,-6.473672889E0,1.625731773E0,9.932412377E0
1.103888250E1,9.757380322E0,-8.692039849E0,1.120502666E-1,1.306792190E1
1.104882675E1,1.156991368E1,-9.969030232E0,-1.513650005E0,1.534716921E1
1.105876975E1,1.164217357E1,-8.816949239E0,-3.768467338E0,1.508244494E1
1.106871375E1,8.422558637E0,-5.082675249E0,-5.467013319E0,1.125439098E1
1.107865775E1,4.898779732E0,-2.335272097E0,-6.378657389E0,8.374891564E0
1.108860075E1,1.124192113E0,-1.182108200E0,-6.457342200E0,6.660214411E0
1.109854475E1,-1.226018450E0,-5.122745633E-1,-6.489983697E0,6.624608279E0
1.110848875E1,-1.914667257E0,-8.454079807E-2,-6.459736050E0,6.738047766E0
1.111843175E1,-1.730848923E0,3.914371741E-1,-6.253962007E0,6.500853931E0
1.112837575E1,-1.044589289E0,5.196525800E-1,-5.935257179E0,6.048841489E0
1.113831975E1,-1.588454604E-2,1.258075225E-1,-5.234449672E0,5.235985410E0
1.114826275E1,1.252467746E0,-5.070617706E-1,-4.235549941E0,4.445859916E0
1.115820675E1,2.046886836E0,-9.936939543E-1,-3.057602620E0,3.811313052E0
1.116815075E1,1.905078993E0,-1.088899489E0,-1.684375692E0,2.766251893E0
1.117809375E1,1.155118037E0,-8.991380453E-1,-1.639978807E-1,1.472970539E0
1.118803775E1,-1.039529693E-1,-1.759970981E-1,1.091276236E0,1.110254485E0
1.119798175E1,-1.400892298E0,6.540163332E-1,1.823855466E0,2.390959087E0
1.120792475E1,-2.530238147E0,1.388571630E0,2.227475607E0,3.645803592E0
1.121786875E1,-3.264715092E0,1.920078855E0,2.552004408E0,4.567033385E0
1.122781275E1,-3.805819352E0,2.413847566E0,2.633937932E0,5.220014372E0
1.123775675E1,-4.289636101E0,2.995101732E0,2.425368773E0,5.766630381E0
1.124769975E1,-4.375569121E0,3.451268168E0,2.235947053E0,6.004691193E0
1.125764375E1,-4.565100769E0,3.994009649E0,1.978398253E0,6.380150293E0
1.126758775E1,-4.819528325E0,4.482335771E0,1.920650128E0,6.856244173E0
1.127753075E1,-4.701021636E0,4.796214892E0,1.652809060E0,6.916289431E0
1.128747475E1,-4.659391800E0,5.157300923E0,1.459897721E0,7.102040982E0
1.129741875E1,-4.676033560E0,5.454432449E0,1.378812042E0,7.315548226E0
1.130736175E1,-4.499150024E0,5.658338892E0,1.325741544E0,7.349608194E0
1.131730575E1,-4.080307535E0,5.786799881E0,1.178202260E0,7.178030580E0
1.132724975E1,-3.469352437E0,5.768572356E0,1.087161039E0,6.818706071E0
1.133719275E1,-2.737794423E0,5.625640093E0,9.755096253E-1,6.332058416E0
1.134713675E1,-1.818834316E0,5.381986617E0,7.058524847E-1,5.724697891E0
1.135708075E1,-7.867235702E-1,4.800478681E0,4.879046110E-1,4.888924264E0
1.136702475E1,3.437923068E-1,4.094286473E0,4.510811126E-1,4.133382277E0
1.137696775E1,1.308221532E0,3.344292188E0,2.714221226E-1,3.601305844E0
1.138691175E1,2.268556536E0,2.426565844E0,-9.629538260E-2,3.323227852E0
1.139685575E1,3.157505223E0,1.413381951E0,-1.087886167E-1,3.461115822E0
1.140679875E1,3.352537932E0,-3.288240194E-2,4.848853281E-1,3.387581087E0
1.141674275E1,2.437881961E0,-1.006829140E0,1.298348654E0,2.939843975E0
1.142668675E1,8.569462913E-1,-1.653061075E0,2.117667528E0,2.819837517E0
1.143662975E1,-7.182234389E-1,-2.182946282E0,2.612574545E0,3.479460466E0
1.144657375E1,-1.471289266E0,-2.343855810E0,3.446300958E0,4.419880367E0
1.145651775E1,-1.762343781E0,-2.626568686E0,4.153677227E0,5.220895821E0
1.146646075E1,-1.985723206E0,-3.120893467E0,4.501268470E0,5.826190052E0
1.147640475E1,-1.931293815E0,-3.444822198E0,4.490081577E0,5.979759890E0
1.148634875E1,-9.938354570E-1,-3.945623354E0,4.633902325E0,6.166741711E0
1.149629175E1,8.687576669E-1,-4.566286000E0,4.810120740E0,6.689018557E0
1.150623575E1,3.186569978E0,-5.244517992E0,4.274961344E0,7.478936535E0
1.151617975E1,5.710994239E0,-6.116778726E0,3.816835506E0,9.197753555E0
1.152612375E1,8.181775559E0,-6.906920578E0,2.852060126E0,1.108067011E1
1.153606675E1,9.962495384E0,-7.480395609E0,1.168969579E0,1.251295819E1
1.154601075E1,1.031038834E1,-7.149840814E0,-1.063068171E0,1.259184043E1
1.155595475E1,9.292672858E0,-5.158418326E0,-3.899054375E0,1.132102793E1
1.156589775E1,7.214422141E0,-2.367805420E0,-5.997519500E0,9.675982095E0
1.157584175E1,5.482578022E0,-9.332682431E-2,-7.135056714E0,8.998689125E0
1.158578575E1,3.657283117E0,1.635938088E0,-8.041328362E0,8.984151326E0
1.159572875E1,1.788627600E0,2.823375440E0,-8.581965430E0,9.209819119E0
1.160567275E1,4.680596727E-1,2.992966914E0,-8.597519023E0,9.115605529E0
1.161561675E1,-6.627643526E-1,2.330563334E0,-7.798837312E0,8.166556525E0
1.162555975E1,-1.342269868E0,1.317119824E0,-6.525951090E0,6.791504300E0
1.163550375E1,-1.028672583E0,7.261774063E-2,-5.146854873E0,5.249148093E0
1.164544775E1,-5.722096932E-1,-1.104252523E0,-3.435795851E0,3.653969170E0
1.165539075E1,-2.117902440E-1,-1.616706596E0,-2.052824245E0,2.621580193E0
1.166533475E1,-2.345207101E-1,-1.449854543E0,-7.835736752E-1,1.664651875E0
1.167527875E1,-9.353147686E-1,-9.512437534E-1,1.282972670E-1,1.340200949E0
1.168522175E1,-1.544860103E0,-2.223462224E-1,9.722799888E-1,1.838847182E0
1.169516575E1,-2.240457156E0,6.210649341E-1,1.601854230E0,2.823350296E0
1.170510975E1,-2.855877188E0,1.424412723E0,1.899785070E0,3.714050273E0
1.171505375E1,-3.295463845E0,2.263591665E0,2.150020172E0,4.539440044E0
1.172499675E1,-3.522403055E0,2.861106353E0,2.128655469E0,5.012427252E0
1.173494075E1,-3.889635680E0,3.377759897E0,2.044405132E0,5.542392983E0
1.174488475E1,-4.175432963E0,3.768700057E0,2.016837849E0,5.975364044E0
1.175482775E1,-4.437478271E0,4.011709170E0,1.939589260E0,6.288642967E0
1.176477175E1,-4.653593116E0,4.145130937E0,1.776819148E0,6.480364624E0
1.177471575E1,-5.205929877E0,4.405513297E0,1.591685776E0,7.003121940E0
1.178465875E1,-5.200458053E0,4.446460764E0,1.463101849E0,6.996888187E0
1.179460275E1,-5.296646504E0,4.341604984E0,1.214398936E0,6.955484369E0
1.180454675E1,-5.497539293E0,4.135644414E0,1.038692518E0,6.957397153E0
1.181448975E1,-5.469845125E0,3.783074852E0,9.619338524E-1,6.719834653E0
1.182443375E1,-5.226413258E0,3.299714770E0,8.689430237E-1,6.241680470E0
1.183437775E1,-5.083481580E0,2.705338283E0,7.141742420E-1,5.802644660E0
1.184432175E1,-4.549378776E0,2.022665330E0,5.636039805E-1,5.010556030E0
1.185426475E1,-3.774282979E0,1.144285485E0,5.173581326E-1,3.977720542E0
1.186420875E1,-2.987554146E0,1.245351684E-1,3.590283966E-1,3.011625836E0
1.187415275E1,-1.998330388E0,-1.036213152E0,2.108786631E-1,2.260869710E0
1.188409575E1,-8.585612923E-1,-2.149373324E0,3.596256897E-2,2.314784328E0
1.189403975E1,1.274868429E-1,-3.274755346E0,3.055673039E-1,3.291450569E0
1.190398375E1,8.211285871E-1,-4.067909684E0,9.657251139E-1,4.260841037E0
1.191392675E1,1.018627651E0,-4.083807094E0,1.665549119E0,4.526492741E0
1.192387075E1,5.549814570E-1,-3.280703133E0,2.192191461E0,3.984560310E0
1.193381475E1,-7.794396937E-2,-1.953983350E0,2.702765215E0,3.336025480E0
1.194375775E1,-6.001675701E-1,-7.458918786E-1,3.207611768E0,3.347436192E0
1.195370175E1,-8.108485973E-1,-8.140844464E-2,3.549505484E0,3.641852820E0
1.196364575E1,-5.288865030E-1,2.313918650E-2,3.951356842E0,3.986662419E0
1.197358975E1,1.814379323E-1,-5.816868603E-1,4.134518241E0,4.179177001E0
1.198353275E1,1.625949875E0,-1.707598055E0,3.982321064E0,4.628010930E0
1.199347675E1,3.280782071E0,-3.100901837E0,3.275079281E0,5.577209651E0
1.200342075E1,4.895431616E0,-4.847852823E0,2.349172683E0,7.279116704E0
1.201336375E1,6.787099435E0,-6.843739659E0,1.223217561E0,9.715850579E0
1.202330775E1,8.306395512E0,-8.308792870E0,-1.196059656E-1,1.174932130E1
1.203325175E1,9.407131519E0,-8.566551585E0,-1.785252002E0,1.284784239E1
1.204319475E1,9.468278777E0,-6.721072091E0,-4.633714921E0,1.250169697E1
1.205313825E1,8.024708821E0,-3.850501435E0,-6.967794771E0,1.130364883E1
1.206308225E1,6.538099850E0,-2.015948049E0,-7.763485047E0,1.034806727E1
1.207302525E1,3.924976836E0,-7.546860909E-1,-8.063523223E0,8.999744498E0
1.208296925E1,1.377380644E0,-1.450647426E-1,-7.871408275E0,7.992326911E0
1.209291325E1,-4.542707688E-1,-4.289809763E-2,-7.706365936E0,7.719862571E0
1.210285625E1,-1.627130427E0,-7.577816069E-2,-6.811248436E0,7.003313574E0
1.211280025E1,-2.035333323E0,-3.923978716E-1,-5.404397825E0,5.788270353E0
1.212274425E1,-1.344061455E0,-1.218617629E0,-3.885438548E0,4.288142119E0
1.213268725E1,8.622655034E-2,-1.945179198E0,-2.530155702E0,3.192623530E0
1.214263125E1,1.011152571E0,-2.018661157E0,-1.476727031E0,2.697803757E0
1.215257525E1,1.174450686E0,-1.599124019E0,-3.015128446E-1,2.006848783E0
1.216251825E1,5.348869157E-1,-6.530579746E-1,8.058445501E-1,1.167036490E0
1.217246225E1,-2.267211092E-1,5.898273540E-1,1.585295792E0,1.706593542E0
1.218240625E1,-9.450375187E-1,1.602324200E0,1.937088990E0,2.685675429E0
1.219235025E1,-1.765270897E0,2.433256813E0,2.030694873E0,3.627759877E0
1.220229325E1,-2.496283366E0,3.165862064E0,2.095438461E0,4.543674239E0
1.221223725E1,-3.053042961E0,3.679025404E0,2.053198321E0,5.203068574E0
1.222218125E1,-3.486979453E0,4.061718067E0,2.034457118E0,5.726743850E0
1.223212425E1,-3.700059593E0,4.323044752E0,2.152371776E0,6.083737436E0
1.224206825E1,-4.085991613E0,4.556985419E0,2.004460463E0,6.440442944E0
1.225201225E1,-4.608599961E0,4.821221094E0,2.010019995E0,6.965884497E0
1.226195525E1,-4.633310879E0,4.907366953E0,1.792885835E0,6.983141108E0
1.227189925E1,-4.754498516E0,5.024829329E0,1.594547403E0,7.099066653E0
1.228184325E1,-4.745735294E0,5.148354684E0,1.453956950E0,7.151332061E0
1.229178625E1,-4.536517825E0,5.259086330E0,1.298171922E0,7.065637504E0
1.230173025E1,-4.162270880E0,5.358879590E0,1.067794037E0,6.868935394E0
1.231167425E1,-3.518314682E0,5.393876345E0,9.042533357E-1,6.503084985E0
1.232161825E1,-2.697136978E0,5.330926391E0,9.432446162E-1,6.048391064E0
1.233156125E1,-1.695802467E0,5.168795965E0,6.949064970E-1,5.484076292E0
1.234150525E1,-3.689587229E-1,4.921234794E0,4.589597972E-1,4.956342052E0
1.235144925E1,7.895816892E-1,4.422667274E0,4.084994955E-1,4.511130335E0
1.236139225E1,1.606166405E0,3.661427039E0,4.370116154E-1,4.022038990E0
1.237133625E1,2.459606121E0,2.893425084E0,3.006078418E-1,3.809453512E0
1.238128025E1,2.859055150E0,1.820220106E0,5.864374307E-1,3.439666619E0
1.239122325E1,2.565790388E0,6.024778050E-1,1.478346856E0,3.021881739E0
1.240116725E1,1.147779197E0,-5.449692696E-1,2.161796172E0,2.507538889E0
1.241111125E1,-2.326940399E-1,-1.580324636E0,2.494319286E0,2.961959009E0
1.242105425E1,-1.041863317E0,-2.450989664E0,3.297737242E0,4.238856028E0
1.243099825E1,-1.273299621E0,-3.098883963E0,4.056558484E0,5.261182421E0
1.244094225E1,-1.688886380E0,-3.315505761E0,4.389750373E0,5.754548114E0
1.245088525E1,-1.982054079E0,-3.415227100E0,4.677560853E0,6.121428759E0
1.246082925E1,-1.569372801E0,-3.433275701E0,4.760123538E0,6.075285106E0
1.247077325E1,-8.726045501E-1,-3.689637516E0,4.465167761E0,5.857694669E0
1.248071625E1,4.510834515E-1,-4.288325155E0,4.353370167E0,6.127400814E0
1.249066025E1,2.474541079E0,-5.174063137E0,4.137011493E0,7.071714572E0
1.250060425E1,5.120745885E0,-6.209495101E0,3.067317184E0,8.613263176E0
1.251054825E1,7.683289899E0,-7.241742087E0,1.374607894E0,1.064731511E1
1.252049125E1,9.259281748E0,-7.957603251E0,-4.721462917E-1,1.221804690E1
1.253043525E1,9.077349726E0,-7.549965196E0,-2.062542171E0,1.198558854E1
1.254037925E1,8.643796812E0,-5.011562582E0,-4.830557928E0,1.109798508E1
1.255032225E1,7.112091774E0,-2.017741390E0,-6.698412377E0,9.976064259E0
1.256026625E1,6.103113783E0,-2.382629281E-1,-7.417031672E0,9.608180155E0
1.257021025E1,4.955139289E0,9.850704807E-1,-8.058660679E0,9.511350123E0
1.258015325E1,3.272691863E0,1.687153850E0,-9.080993711E0,9.799053369E0
1.259009725E1,1.782175782E0,1.490371655E0,-9.352111559E0,9.636355577E0
1.260004125E1,9.095554447E-1,7.667231691E-1,-8.560758748E0,8.643017174E0
1.260998425E1,4.439013165E-1,-3.047481090E-1,-6.818619436E0,6.839845817E0
1.261992825E1,5.038721144E-1,-1.604574793E0,-5.097333634E0,5.367621219E0
1.262987225E1,6.696038407E-1,-2.623973692E0,-3.374618772E0,4.326853256E0
1.263981525E1,3.878978544E-1,-2.739703538E0,-1.831598057E0,3.318311569E0
1.264975925E1,-3.891012114E-1,-2.137486519E0,-5.609771188E-1,2.243868022E0
1.265970325E1,-1.387081175E0,-1.172957307E0,7.852086297E-1,1.978983482E0
1.266964725E1,-2.559085971E0,-5.450014293E-2,1.626574942E0,3.032760675E0
1.267959025E1,-3.352252003E0,9.974472821E-1,2.025633084E0,4.041742689E0
1.268953425E1,-3.577310749E0,1.818757133E0,2.237870933E0,4.594898912E0
1.269947825E1,-3.645719664E0,2.445407912E0,2.368752669E0,4.988214202E0
1.270942125E1,-3.944331120E0,2.960989076E0,2.276725681E0,5.432189624E0
1.271936525E1,-4.288556120E0,3.434421170E0,2.128244995E0,5.892061535E0
1.272930925E1,-4.385765496E0,3.815904629E0,1.872412938E0,6.107536110E0
1.273925225E1,-4.356720037E0,4.019233367E0,1.712069421E0,6.169799676E0
1.274919625E1,-4.819905471E0,4.190055095E0,1.377846082E0,6.533491430E0
1.275914025E1,-5.093004355E0,4.314048811E0,1.376355042E0,6.814988167E0
1.276908325E1,-4.966189942E0,4.279124562E0,1.175272878E0,6.659971163E0
1.277902725E1,-4.967871017E0,4.155022087E0,1.024352806E0,6.556923795E0
1.278897125E1,-5.066013608E0,3.894685920E0,9.609781981E-1,6.461930933E0
1.279891425E1,-5.125902545E0,3.463454935E0,8.922009818E-1,6.250313558E0
1.280885825E1,-4.956357849E0,3.005816755E0,8.342116591E-1,5.856306565E0
1.281880225E1,-4.752394103E0,2.447382517E0,6.482503939E-1,5.384715357E0
1.282874525E1,-4.313710842E0,1.931355795E0,5.418521921E-1,4.757293373E0
1.283868925E1,-3.833452123E0,1.480536638E0,4.674780209E-1,4.135925485E0
1.284863325E1,-3.441680489E0,8.768414426E-1,2.440452397E-1,3.559996289E0
1.285857725E1,-2.746857022E0,2.209768045E-1,2.647385359E-2,2.755858326E0
1.286852025E1,-1.989604588E0,-4.416261649E-1,1.836391166E-2,2.038111214E0
1.287846425E1,-1.219389462E0,-1.268607230E0,2.565489256E-1,1.778227296E0
1.288840825E1,-3.027308196E-1,-2.192829246E0,9.349534837E-1,2.402974005E0
1.289835125E1,5.021144414E-1,-3.040481973E0,1.454558043E0,3.407695503E0
1.290829525E1,1.233271921E0,-3.349338335E0,1.845925343E0,4.018266702E0
1.291823925E1,1.810422512E0,-2.996450100E0,2.330503546E0,4.205661619E0
1.292818225E1,1.791868127E0,-2.394209692E0,2.792854729E0,4.091829538E0
1.293812625E1,1.216951758E0,-1.873812761E0,3.239322388E0,3.935143629E0
1.294807025E1,5.494236785E-1,-1.288752058E0,3.665865076E0,3.924450917E0
1.295801325E1,4.654529840E-1,-1.248879894E0,3.936837913E0,4.156325327E0
1.296795725E1,1.131789985E0,-1.726468774E0,4.036767998E0,4.533998111E0
1.297790125E1,2.793090956E0,-2.631497304E0,3.824842683E0,5.418076845E0
1.298784425E1,4.986915983E0,-4.078330591E0,2.992138363E0,7.103168548E0
1.299778825E1,6.902046340E0,-5.861418539E0,1.938765972E0,9.260306931E0
1.300773225E1,9.061644689E0,-7.501587673E0,6.240967885E-1,1.178035309E1
1.301767525E1,1.102711665E1,-7.864862317E0,-1.158873777E0,1.359398210E1
1.302761925E1,1.089830015E1,-5.575279779E0,-4.136086464E0,1.292145123E1
1.303756325E1,8.756393135E0,-2.148237795E0,-6.466517651E0,1.109527813E1
1.304750750E1,5.839164037E0,-6.615645039E-1,-6.982442046E0,9.126226009E0
1.305745050E1,1.955842180E0,-4.886909884E-1,-6.920603063E0,7.208251124E0
1.306739450E1,-1.111647497E0,-6.453975374E-1,-7.173313876E0,7.287573678E0
1.307733850E1,-2.586576655E0,-1.011551936E0,-7.481006058E0,7.979916526E0
1.308728150E1,-2.975222368E0,-1.250583773E0,-6.946016232E0,7.659180727E0
1.309722550E1,-2.349886043E0,-1.412451659E0,-5.788976215E0,6.405406289E0
1.310716950E1,-1.081171224E0,-1.728639261E0,-4.504172198E0,4.944157369E0
1.311711250E1,4.052477127E-1,-1.873766568E0,-3.121371185E0,3.663084074E0
1.312705650E1,1.507160765E0,-1.655046204E0,-1.660997500E0,2.787404565E0
1.313700050E1,1.394028836E0,-1.034170720E0,-2.984758008E-1,1.761224937E0
1.314694350E1,3.786276788E-1,1.481690294E-1,9.610645907E-1,1.043531565E0
1.315688750E1,-7.827018553E-1,1.494648893E0,1.699486213E0,2.394754871E0
1.316683150E1,-1.689023205E0,2.468400918E0,1.966374039E0,3.579445396E0
1.317677450E1,-2.405847990E0,3.162045001E0,2.205726449E0,4.544432012E0
1.318671850E1,-3.047596865E0,3.548744177E0,2.236599748E0,5.184960011E0
1.319666250E1,-3.522864985E0,3.871794655E0,2.164951476E0,5.664661194E0
1.320660650E1,-3.822166412E0,4.129638739E0,1.987992511E0,5.967829289E0
1.321654950E1,-4.098915129E0,4.259921721E0,1.813733790E0,6.183661421E0
1.322649350E1,-4.719721617E0,4.481005529E0,1.669057302E0,6.718700393E0
1.323643750E1,-4.722816548E0,4.525733805E0,1.457080532E0,6.701518208E0
1.324638050E1,-4.770969538E0,4.596699123E0,1.232372035E0,6.738733857E0
1.325632450E1,-4.792387889E0,4.647445353E0,1.129038870E0,6.770558231E0
1.326626850E1,-4.573121980E0,4.685328879E0,1.051654406E0,6.631118181E0
1.327621150E1,-4.230496777E0,4.709313573E0,9.810961282E-1,6.406035195E0
1.328615550E1,-3.819342207E0,4.665983950E0,8.970446690E-1,6.096184894E0
1.329609950E1,-3.205072907E0,4.557229832E0,8.517954791E-1,5.636168169E0
1.330604250E1,-2.337235007E0,4.398794847E0,7.058267570E-1,5.030929834E0
1.331598650E1,-1.459727567E0,4.150184101E0,6.543572990E-1,4.447810261E0
1.332593050E1,-5.905073851E-1,3.891690976E0,5.065654881E-1,3.968698303E0
1.333587350E1,2.851733851E-1,3.324724481E0,4.533066360E-1,3.367581275E0
1.334581750E1,1.127854224E0,2.577799984E0,4.839869765E-1,2.855057145E0
1.335576150E1,1.905521627E0,1.835924558E0,4.678778974E-1,2.687106507E0
1.336570450E1,2.456931020E0,1.067003421E0,2.173679030E-1,2.687425374E0
1.337564850E1,2.302592009E0,3.059333396E-1,5.229621041E-1,2.380969242E0
1.338559250E1,1.488179533E0,-4.995773345E-1,1.341274087E0,2.064769240E0
1.339553650E1,2.733339429E-1,-1.199178561E0,2.048781334E0,2.389612023E0
1.340547950E1,-8.930148411E-1,-1.795336695E0,2.517172544E0,3.218208659E0
1.341542350E1,-1.478908773E0,-2.133077134E0,3.209192855E0,4.127482041E0
1.342536750E1,-1.816013619E0,-2.240192277E0,3.899049697E0,4.849634568E0
1.343531050E1,-2.155959043E0,-2.433294235E0,4.217649275E0,5.325189728E0
1.344525450E1,-1.893599154E0,-2.510042449E0,4.506816308E0,5.495218293E0
1.345519850E1,-1.063481643E0,-2.759222129E0,4.275844274E0,5.198763720E0
1.346514150E1,3.081125969E-1,-3.598867679E0,4.094450780E0,5.459973364E0
1.347508550E1,2.335665030E0,-4.857215969E0,3.778698796E0,6.582282483E0
1.348502950E1,4.957159503E0,-6.217315167E0,3.235291318E0,8.584611123E0
1.349497250E1,7.628517861E0,-7.681176715E0,1.812712866E0,1.097636955E1
1.350491650E1,9.821885051E0,-8.817041041E0,4.698261166E-1,1.320720921E1
1.351486050E1,1.052349597E1,-9.056586848E0,-1.092082129E0,1.392689398E1
1.352480350E1,1.045376441E1,-7.035678021E0,-3.437683332E0,1.306137903E1
1.353474750E1,8.495482771E0,-3.496929075E0,-5.706395988E0,1.081502176E1
1.354469150E1,6.516323065E0,-8.743516982E-1,-6.298212565E0,9.104638306E0
1.355463450E1,4.877669529E0,8.046365154E-1,-6.854580982E0,8.451294599E0
1.356457850E1,3.261059412E0,1.720392932E0,-7.336471074E0,8.210850635E0
1.357452250E1,1.800726659E0,2.030180172E0,-7.685499562E0,8.150530752E0
1.358446550E1,4.654781270E-1,1.730205145E0,-7.209032178E0,7.428352756E0
1.359440950E1,-5.877463299E-1,9.181011504E-1,-6.074406878E0,6.171448322E0
1.360435350E1,-7.609075284E-1,-3.178072804E-1,-4.774636327E0,4.845320814E0
1.361429750E1,-2.085011852E-1,-1.557924537E0,-3.222712787E0,3.585593301E0
1.362424050E1,1.024408793E-1,-2.021963664E0,-1.924940815E0,2.793604900E0
1.363418450E1,1.318441880E-1,-1.825637552E0,-6.670315775E-1,1.948144370E0
1.364412850E1,-5.080698305E-1,-1.163484818E0,5.654633220E-1,1.389813168E0
1.365407150E1,-1.607682003E0,-1.593266863E-1,1.215940262E0,2.022013140E0
1.366401550E1,-2.576383204E0,8.509429550E-1,1.684649488E0,3.193727951E0
1.367395950E1,-3.136537693E0,1.701995838E0,1.951470802E0,4.067296008E0
1.368390250E1,-3.591249926E0,2.395744001E0,2.126258111E0,4.812238451E0
1.369384650E1,-4.038572448E0,2.984214801E0,2.152919075E0,5.463576296E0
1.370379050E1,-4.351727099E0,3.346887183E0,2.146772482E0,5.894727700E0
1.371373350E1,-4.922051650E0,3.599286339E0,1.918193274E0,6.392254691E0
1.372367750E1,-5.490955328E0,3.857026343E0,1.928865466E0,6.981959940E0
1.373362150E1,-5.708923155E0,3.871550826E0,1.634693216E0,7.088930195E0
1.374356450E1,-5.965701876E0,3.905238390E0,1.450111821E0,7.276215366E0
1.375350850E1,-6.121486904E0,3.891444224E0,1.327577569E0,7.374171293E0
1.376345250E1,-6.229378558E0,3.756541942E0,1.178795167E0,7.369282368E0
1.377339650E1,-6.249563731E0,3.604079887E0,1.017905666E0,7.285778655E0
1.378333950E1,-6.215734080E0,3.298010892E0,8.801345944E-1,7.091323071E0
1.379328350E1,-5.973718409E0,2.727880468E0,7.418724295E-1,6.608859068E0
1.380322750E1,-5.591280684E0,2.097802636E0,6.272939730E-1,6.004722585E0
1.381317050E1,-5.039055605E0,1.523431812E0,6.329400444E-1,5.302220193E0
1.382311450E1,-4.397447648E0,8.342333668E-1,3.725636045E-1,4.491357787E0
1.383305850E1,-3.580568233E0,7.145648360E-2,7.606993675E-2,3.582088990E0
1.384300150E1,-2.518831984E0,-8.152556437E-1,-1.847906526E-1,2.653922364E0
1.385294550E1,-1.436058623E0,-1.810515482E0,-2.432231212E-1,2.323658358E0
1.386288950E1,-4.399468446E-1,-2.580424799E0,-3.650526367E-2,2.617914820E0
1.387283250E1,5.918306100E-1,-3.064336274E0,5.284736896E-1,3.165391715E0
1.388277650E1,1.491691371E0,-3.213786428E0,1.143240588E0,3.722978027E0
1.389272050E1,2.211430408E0,-2.700914864E0,1.776343331E0,3.916728377E0
1.390266350E1,2.301995008E0,-1.905224004E0,2.349446332E0,3.801178448E0
1.391260750E1,1.627729182E0,-1.170200345E0,2.938520565E0,3.557214395E0
1.392255150E1,1.153280257E0,-4.810311359E-1,3.577094986E0,3.789070446E0
1.393249450E1,9.796068424E-1,-4.548332709E-1,3.944514138E0,4.089705937E0
1.394243850E1,1.476897916E0,-1.208818281E0,4.107032819E0,4.528817469E0
1.395238250E1,2.839340678E0,-2.585147595E0,3.936434455E0,5.499123548E0
1.396232550E1,4.586293418E0,-4.168697555E0,3.146949245E0,6.950929159E0
1.397226950E1,6.178041174E0,-6.060320935E0,2.034290764E0,8.890108070E0
1.398221350E1,7.281382701E0,-7.548798677E0,7.825153291E-1,1.051737732E1
1.399215750E1,8.119993293E0,-7.739447143E0,-6.503085407E-1,1.123637995E1
1.400210050E1,8.642073637E0,-6.295161488E0,-3.007593724E0,1.110675987E1
1.401204450E1,7.365524719E0,-3.970596812E0,-5.672751110E0,1.010923828E1
1.402198850E1,6.048854545E0,-3.047020914E0,-6.851968446E0,9.634440790E0
1.403193150E1,4.266548955E0,-2.560470006E0,-7.370780196E0,8.893134843E0
1.404187550E1,2.278990892E0,-1.864082410E0,-8.039067829E0,8.561262423E0
1.405181942E1,6.555155593E-1,-1.470615082E0,-8.012016270E0,8.172197629E0
1.406176242E1,-5.669676644E-1,-1.112308232E0,-7.395841362E0,7.500476744E0
1.407170642E1,-1.049215021E0,-5.518368244E-1,-6.191814290E0,6.304279518E0
1.408165042E1,-1.041762160E0,-1.263226622E-1,-4.608286550E0,4.726259699E0
1.409159342E1,-3.411242223E-1,-2.157020313E-1,-2.966595386E0,2.993924062E0
1.410153742E1,7.722745156E-1,-6.223571688E-1,-1.590310510E0,1.874252889E0
1.411148142E1,1.304414409E0,-7.283034539E-1,-3.839854825E-1,1.542519926E0
1.412142442E1,9.873392004E-1,-5.184942466E-1,6.562459496E-1,1.293960481E0
1.413136842E1,5.668700159E-2,9.008103490E-2,1.425765184E0,1.429732272E0
1.414131242E1,-1.009872615E0,8.417721820E-1,1.817456127E0,2.243116109E0
1.415125542E1,-1.898979177E0,1.459804750E0,2.070223074E0,3.165908306E0
1.416119942E1,-2.640615453E0,1.903850493E0,2.205917069E0,3.932374191E0
1.417114342E1,-3.277172585E0,2.511790767E0,2.214904239E0,4.685590015E0
1.418108642E1,-3.763759160E0,3.045942103E0,2.118104753E0,5.284885434E0
1.419103042E1,-3.926618149E0,3.444070246E0,1.959883776E0,5.578628358E0
1.420097442E1,-4.635659705E0,4.003808413E0,1.826383656E0,6.391830721E0
1.421091842E1,-4.819582120E0,4.320643301E0,1.762585856E0,6.708430460E0
1.422086142E1,-4.971798592E0,4.601139498E0,1.435262232E0,6.924539233E0
1.423080542E1,-4.941171461E0,4.795352427E0,1.316055046E0,7.010176973E0
1.424074942E1,-4.857816478E0,4.961196420E0,1.199442855E0,7.046312086E0
1.425069242E1,-4.650871822E0,5.100852488E0,9.730749178E-1,6.971096012E0
1.426063642E1,-4.258856943E0,5.070183842E0,8.109246111E-1,6.670998829E0
1.427058042E1,-3.695491748E0,4.837756435E0,6.959730291E-1,6.127391373E0
1.428052342E1,-2.943901173E0,4.565034696E0,4.433651268E-1,5.450015461E0
1.429046742E1,-1.910818620E0,4.272640584E0,2.588948286E-1,4.687612600E0
1.430041142E1,-9.964941859E-1,3.805008928E0,2.027392658E-1,3.938552629E0
1.431035442E1,-1.593237627E-1,3.342509372E0,2.532733154E-1,3.355875495E0
1.432029842E1,8.089587772E-1,2.955323124E0,-1.245492017E-1,3.066571632E0
1.433024242E1,1.534542691E0,2.493045178E0,-3.671630430E-1,2.950407469E0
1.434018542E1,1.881296613E0,2.031398731E0,7.591578953E-2,2.769769116E0
1.435012942E1,1.569534768E0,1.526607435E0,6.459186704E-1,2.282801038E0
1.436007342E1,9.514858282E-1,1.059013200E0,1.458991402E0,2.038501938E0
1.437001742E1,1.403331757E-5,5.654321855E-1,2.498683648E0,2.561861341E0
1.437996042E1,-1.320099565E0,-1.471995610E-1,3.415996009E0,3.665154745E0
1.438990442E1,-2.033005546E0,-6.643822771E-1,4.559201806E0,5.035954375E0
1.439984842E1,-2.119481773E0,-1.195716425E0,5.125348814E0,5.673723752E0
1.440979142E1,-2.041746549E0,-1.490327216E0,5.407771668E0,5.969405213E0
1.441973542E1,-1.887889933E0,-2.255723067E0,5.253278875E0,6.020743633E0
1.442967942E1,-7.215341324E-1,-3.720324873E0,5.466400530E0,6.651538425E0
1.443962242E1,1.904630511E0,-5.605648463E0,5.332068937E0,7.967551143E0
1.444956642E1,5.602388640E0,-7.677011744E0,4.719459661E0,1.061115297E1
1.445951042E1,9.050782317E0,-9.675683609E0,3.405497918E0,1.367965387E1
1.446945342E1,1.107745416E1,-1.073600249E1,1.159835059E0,1.546987258E1
1.447939742E1,1.129033725E1,-9.568432226E0,-2.023744726E0,1.493727395E1
1.448934142E1,8.450686668E0,-5.589686149E0,-5.969875034E0,1.176002144E1
1.449928442E1,5.695467542E0,-2.431739461E0,-7.486060392E0,9.715596097E0
1.450922842E1,4.329010082E0,2.429564881E-1,-7.641500434E0,8.785891248E0
1.451917242E1,3.416919869E0,2.316876172E0,-8.089503572E0,9.082033067E0
1.452911542E1,1.687868380E0,3.715634821E0,-8.539978913E0,9.464992426E0
1.453905942E1,-4.943236113E-2,4.116812287E0,-8.526558384E0,9.468515450E0
1.454900342E1,-1.061588314E0,3.777628171E0,-7.581062443E0,8.536389876E0
1.455894642E1,-1.142099211E0,2.854622961E0,-5.989622251E0,6.732669423E0
1.456889042E1,-4.252153695E-2,1.152222496E0,-4.632598980E0,4.773928998E0
1.457883442E1,1.405935522E0,-9.713225073E-1,-3.232044651E0,3.655986150E0
1.458877842E1,1.827243782E0,-2.570578673E0,-2.169074932E0,3.827738316E0
1.459872142E1,1.918818780E0,-3.112796243E0,-1.240409471E0,3.861344535E0
1.460866542E1,1.759095068E0,-2.971732165E0,-2.808346049E-1,3.464747551E0
1.461860942E1,9.376747048E-1,-2.172513680E0,5.866792130E-1,2.437876543E0
1.462855242E1,-3.859349442E-1,-7.709156227E-1,1.386666023E0,1.632819444E0
1.463849642E1,-1.971312159E0,6.477317458E-1,1.937319224E0,2.838808521E0
1.464844042E1,-2.985679529E0,1.615324314E0,2.137358319E0,4.011465502E0
1.465838342E1,-3.485218856E0,2.285293606E0,2.302764502E0,4.761516743E0
1.466832742E1,-4.057822652E0,2.680646076E0,2.304687066E0,5.381762772E0
1.467827142E1,-4.487231060E0,3.042005172E0,2.171257259E0,5.839811310E0
1.468821442E1,-4.655930248E0,3.235893581E0,1.929898084E0,5.989424042E0
1.469815842E1,-5.103193129E0,3.460417306E0,1.854235260E0,6.438575653E0
1.470810242E1,-5.136899403E0,3.486817485E0,1.786987456E0,6.460569311E0
1.471804542E1,-5.109121621E0,3.470699050E0,1.503224419E0,6.356772710E0
1.472798942E1,-4.942545556E0,3.457641633E0,1.402783142E0,6.192886466E0
1.473793342E1,-5.180350063E0,3.220227721E0,1.176290366E0,6.212048967E0
1.474787642E1,-5.238869582E0,3.001416140E0,1.032314375E0,6.125351117E0
1.475782042E1,-5.326188392E0,2.677644115E0,7.683195321E-1,6.010688455E0
1.476776442E1,-5.207664161E0,2.305047839E0,4.511408273E-1,5.712839890E0
1.477770742E1,-5.051982629E0,1.900879523E0,1.724308813E-1,5.400518851E0
1.478765142E1,-4.733078411E0,1.541079878E0,-3.796348616E-2,4.977790641E0
1.479759542E1,-4.495637602E0,1.151843596E0,-2.596420296E-1,4.648108766E0
1.480753942E1,-4.032819373E0,7.994979823E-1,-2.536311650E-1,4.119121009E0
1.481748242E1,-3.504350946E0,2.459689736E-1,-1.712904549E-1,3.517146103E0
1.482742642E1,-2.895592647E0,-2.489551467E-1,2.066604817E-1,2.913613563E0
1.483737042E1,-2.479057469E0,-6.704417467E-1,7.994102740E-1,2.689660732E0
1.484731342E1,-1.973075679E0,-9.697197855E-1,1.601893845E0,2.720192638E0
1.485725742E1,-1.077579280E0,-1.041220123E0,2.316649446E0,2.759018141E0
1.486720142E1,-2.137116390E-1,-1.123329064E0,2.703421565E0,2.935307311E0
1.487714442E1,5.725342137E-1,-9.983939463E-1,3.173127229E0,3.375399578E0
1.488708842E1,6.618165189E-1,-8.049779928E-1,3.616378920E0,3.763533867E0
1.489703242E1,1.966588193E-1,-5.984601831E-1,3.953267419E0,4.003142837E0
1.490697542E1,-1.125787818E-1,-7.104004490E-1,4.064550458E0,4.127700717E0
1.491691942E1,2.799032897E-1,-1.451245596E0,3.792380111E0,4.070209643E0
1.492686342E1,1.567080692E0,-2.629208120E0,3.103438944E0,4.358877207E0
1.493680642E1,3.705992762E0,-4.066649024E0,2.119746652E0,5.896214252E0
1.494675042E1,6.702642837E0,-6.104051676E0,1.371462092E0,9.168739070E0
1.495669442E1,9.830002155E0,-8.158646312E0,3.726922432E-1,1.278011547E1
1.496663742E1,1.258962248E1,-9.392891795E0,-1.314351168E0,1.576237702E1
1.497658142E1,1.401647291E1,-8.335654394E0,-4.852819448E0,1.701453800E1
1.498652542E1,1.238929102E1,-5.214807705E0,-7.020234940E0,1.516484257E1
1.499646842E1,8.679345544E0,-2.598389785E0,-7.914320991E0,1.202992707E1
1.500641242E1,4.530284693E0,-1.382519762E0,-8.182885945E0,9.454864498E0
1.501635642E1,1.186354448E0,-1.471826041E0,-8.525062666E0,8.732147630E0
1.502630042E1,-5.200835198E-1,-1.587164124E0,-7.967827692E0,8.140998400E0
1.503624342E1,-1.636818679E0,-1.308141425E0,-6.727333875E0,7.046093275E0
1.504618742E1,-2.118784785E0,-1.234958258E0,-5.049897512E0,5.613896663E0
1.505613262E1,-1.676316036E0,-1.719324061E0,-3.403994014E0,4.165727539E0
1.506607562E1,-2.032644188E-1,-2.497698977E0,-2.080138782E0,3.256807326E0
1.507601962E1,1.242964266E0,-2.788668707E0,-9.690670900E-1,3.203236543E0
1.508596362E1,1.598620573E0,-2.517460227E0,-3.357683189E-2,2.982334846E0
1.509590662E1,9.548017842E-1,-1.534565495E0,9.838560140E-1,2.057792595E0
1.510585062E1,-4.666311979E-1,-1.000943917E-1,1.610246154E0,1.679480943E0
1.511579462E1,-1.665650715E0,1.072568216E0,1.910739244E0,2.752402467E0
1.512573762E1,-2.312294294E0,2.082257228E0,2.070975026E0,3.737838630E0
1.513568162E1,-2.804423445E0,2.856011090E0,2.113990653E0,4.526648504E0
1.514562562E1,-3.074772384E0,3.502708463E0,2.026241487E0,5.082208807E0
1.515556862E1,-3.376758268E0,4.006022753E0,1.877698821E0,5.565650686E0
1.516551262E1,-4.099999788E0,4.533432249E0,1.765889533E0,6.362418727E0
1.517545662E1,-4.251605811E0,4.814917211E0,1.560556369E0,6.610212999E0
1.518539962E1,-4.473415843E0,5.004906696E0,1.393076910E0,6.855742383E0
1.519534362E1,-4.648069836E0,5.160680029E0,1.218897711E0,7.051445468E0
1.520528762E1,-4.743827348E0,5.296871622E0,1.201685920E0,7.211435082E0
1.521523062E1,-4.716641303E0,5.390847487E0,1.100040189E0,7.246932471E0
1.522517462E1,-4.596728359E0,5.526747889E0,1.068312027E0,7.267471666E0
1.523511862E1,-4.286866275E0,5.683815211E0,1.017948790E0,7.191606048E0
1.524506162E1,-3.757276352E0,5.818318128E0,9.385658935E-1,6.989338836E0
1.525500562E1,-3.136937642E0,5.901389521E0,8.117152277E-1,6.732433264E0
1.526494962E1,-2.187690713E0,5.897653150E0,6.989177600E-1,6.329043322E0
1.527489362E1,-1.162764441E0,5.781486517E0,5.246765077E-1,5.920548363E0
1.528483662E1,-2.214323026E-1,5.345397665E0,3.150082183E-1,5.359247955E0
1.529478062E1,9.062827581E-1,4.718646898E0,6.513213515E-2,4.805332370E0
1.530472462E1,1.727751068E0,3.612611559E0,5.116103927E-1,4.037057248E0
1.531466762E1,1.975977067E0,2.502679635E0,1.040612451E0,3.354216004E0
1.532461162E1,1.575085530E0,1.252017510E0,1.582706645E0,2.559961444E0
1.533455562E1,8.832178313E-1,-1.245468628E-1,2.068860673E0,2.252946990E0
1.534449862E1,-1.336386985E-1,-1.414851356E0,2.200790230E0,2.619759779E0
1.535444262E1,-1.158108888E0,-2.699087024E0,2.224942739E0,3.684651565E0
1.536438662E1,-1.368164847E0,-3.813790276E0,3.224804921E0,5.178439736E0
1.537432962E1,-1.202603275E0,-4.470079422E0,3.762092704E0,5.964998423E0
1.538427362E1,-7.883110893E-1,-4.714745636E0,4.048628490E0,6.264315879E0
1.539421762E1,-6.116690433E-1,-4.746701254E0,3.781011955E0,6.099292026E0
1.540416062E1,4.288032210E-1,-4.969025257E0,3.927328001E0,6.348148505E0
1.541410462E1,2.522450241E0,-5.533354073E0,3.903349739E0,7.226126328E0
1.542404862E1,5.029003072E0,-6.427842997E0,3.291083111E0,8.799958269E0
1.543399162E1,7.435975481E0,-7.440336335E0,2.596760166E0,1.083492037E1
1.544393562E1,9.566165260E0,-8.329973824E0,1.359732578E0,1.275730592E1
1.545387962E1,1.020760248E1,-8.209854473E0,-6.513119960E-1,1.311568016E1
1.546382262E1,9.613965663E0,-5.970221774E0,-3.501257769E0,1.184612552E1
1.547376662E1,8.098419406E0,-2.637163841E0,-5.387343836E0,1.007782236E1
1.548371062E1,6.761486292E0,6.847966611E-2,-6.439912820E0,9.337818989E0
1.549365462E1,5.504655354E0,1.980641976E0,-6.779402161E0,8.954577983E0
1.550359762E1,4.172814580E0,3.369751550E0,-7.334355551E0,9.086274174E0
1.551354162E1,2.544296023E0,3.762452307E0,-7.933529094E0,9.141683297E0
1.552348562E1,6.467195928E-1,2.989449813E0,-7.645379477E0,8.234493534E0
1.553342862E1,-5.886649275E-1,1.871952177E0,-6.312570988E0,6.610543384E0
1.554337262E1,-9.207575405E-1,4.692449033E-1,-4.619309429E0,4.733498159E0
1.555331662E1,-6.500729710E-1,-1.169769405E0,-3.358045424E0,3.614889265E0
1.556325962E1,-3.851385534E-1,-2.258061368E0,-2.066209545E0,3.084865432E0
1.557320362E1,-4.785571790E-1,-2.403525476E0,-1.054626034E0,2.667993208E0
1.558314762E1,-6.705066508E-1,-2.122086123E0,-3.351550922E-3,2.225497678E0
1.559309063E1,-1.025378847E0,-1.317819736E0,1.020120445E0,1.956705486E0
1.560303462E1,-1.877154445E0,-1.913969100E-1,1.671804324E0,2.520966340E0
1.561297862E1,-2.877966215E0,8.667204970E-1,1.808357860E0,3.507713230E0
1.562292162E1,-3.364946893E0,1.778383278E0,1.896718644E0,4.252417699E0
1.563286562E1,-3.677108102E0,2.577079023E0,1.992616489E0,4.912533028E0
1.564280962E1,-4.015311640E0,3.156325255E0,1.958879224E0,5.470130208E0
1.565275262E1,-4.278494232E0,3.550908231E0,1.853922873E0,5.861014603E0
1.566269662E1,-4.953928916E0,3.941241451E0,1.705479609E0,6.556176979E0
1.567264062E1,-5.203260038E0,4.144551478E0,1.601546520E0,6.842234521E0
1.568258362E1,-5.370296863E0,4.197231967E0,1.268742886E0,6.933004623E0
1.569252762E1,-5.624540817E0,4.197862882E0,1.093085511E0,7.102981635E0
1.570247162E1,-5.808032876E0,4.176763789E0,9.462232610E-1,7.216227553E0
1.571241562E1,-5.843013843E0,3.974068304E0,7.699380413E-1,7.108223002E0
1.572235862E1,-5.934954293E0,3.612136765E0,6.302058864E-1,6.976272208E0
1.573230262E1,-5.822504150E0,3.046124536E0,5.265078557E-1,6.592240877E0
1.574224663E1,-5.513336130E0,2.342775244E0,2.693087927E-1,5.996498842E0
1.575218962E1,-5.203017964E0,1.568778723E0,5.959628373E-3,5.434381118E0
1.576213362E1,-4.580440355E0,7.670003271E-1,-2.206201243E-1,4.649451213E0
1.577207762E1,-3.632075770E0,-1.878166598E-1,-5.442855839E-1,3.677430665E0
1.578202062E1,-2.604458610E0,-1.209510006E0,-6.537898998E-1,2.945090888E0
1.579196463E1,-1.794500543E0,-2.070475089E0,-5.421399482E-1,2.793029720E0
1.580190862E1,-9.469349402E-1,-2.577670761E0,-1.925363861E-2,2.746168792E0
1.581185162E1,9.549672604E-2,-2.938697151E0,6.925056303E-1,3.020699359E0
1.582179562E1,1.249517825E0,-2.862061788E0,1.511758869E0,3.469597578E0
1.583173962E1,2.114107597E0,-2.295889345E0,2.274131856E0,3.861636249E0
1.584168263E1,2.514568194E0,-1.342105561E0,3.096948534E0,4.208965522E0
1.585162662E1,2.363090225E0,-3.579840839E-1,3.859100350E0,4.539273458E0
1.586157062E1,1.940238301E0,3.751287049E-1,4.500301341E0,4.915074604E0
1.587151362E1,1.510808258E0,6.975196177E-1,4.988242131E0,5.258482174E0
1.588145762E1,1.233911022E0,3.440735579E-1,5.367781391E0,5.518514301E0
1.589140162E1,1.519520025E0,-8.328785670E-1,5.492900112E0,5.759737793E0
1.590134462E1,2.712274835E0,-2.456504173E0,4.701656059E0,5.957886977E0
1.591128862E1,4.033032796E0,-4.274580690E0,3.606317031E0,6.895137138E0
1.592123262E1,5.685391620E0,-6.447480286E0,2.639523193E0,8.992261262E0
1.593117562E1,7.377761772E0,-8.308352575E0,1.207050010E0,1.117663013E1
1.594111962E1,8.277897352E0,-9.064301080E0,-7.197055618E-1,1.229646757E1
1.595106362E1,8.227385595E0,-8.190231217E0,-3.264509854E0,1.205930287E1
1.596100662E1,6.320591029E0,-5.281970578E0,-6.434688917E0,1.045247844E1
1.597095062E1,3.989544715E0,-3.268083088E0,-7.616907045E0,9.198592666E0
1.598089462E1,2.323971183E0,-2.307642834E0,-7.462116044E0,8.149186055E0
1.599083863E1,6.485316449E-1,-1.381342133E0,-8.095210454E0,8.237786820E0
1.600078162E1,-2.416531438E-1,-8.636852074E-1,-8.558328645E0,8.605192478E0
1.601072562E1,-6.105177265E-1,-4.591116786E-1,-7.793882382E0,7.831227108E0
1.602066962E1,-5.513398111E-1,-2.176205027E-1,-6.672382911E0,6.698658671E0
1.603061262E1,-4.480779827E-2,-5.159436911E-1,-5.354239240E0,5.379227032E0
1.604055662E1,1.066328067E0,-1.215393475E0,-3.710128498E0,4.047133593E0
1.605050062E1,1.810486246E0,-1.674446096E0,-2.056646862E0,3.211140996E0
1.606044300E1,1.752788261E0,-1.773199137E0,-7.631551250E-1,2.607471498E0
1.607038700E1,9.787087101E-1,-1.431946861E0,3.414914274E-1,1.767755341E0
1.608033100E1,-1.053340816E-1,-7.022488457E-1,1.420982162E0,1.588533605E0
1.609027400E1,-1.308060148E0,3.228510886E-1,2.036781678E0,2.442075712E0
1.610021800E1,-2.039232246E0,1.093867868E0,2.351041453E0,3.298849948E0
1.611016200E1,-2.770124263E0,1.935657007E0,2.389588637E0,4.138899653E0
1.612010500E1,-3.348154274E0,2.707552623E0,2.312711785E0,4.887700282E0
1.613004900E1,-3.542319256E0,3.265802674E0,2.196469138E0,5.295089186E0
1.613999300E1,-4.161967995E0,3.926560262E0,1.987295523E0,6.057160768E0
1.614993600E1,-4.334932142E0,4.403619384E0,1.969607695E0,6.485588241E0
1.615988000E1,-4.409856024E0,4.746728736E0,1.796665767E0,6.723560941E0
1.616982400E1,-4.577454182E0,5.063008139E0,1.625593779E0,7.016387485E0
1.617976700E1,-4.733995839E0,5.297730578E0,1.466293551E0,7.254425040E0
1.618971100E1,-4.692242042E0,5.488032889E0,1.426613177E0,7.360085973E0
1.619965500E1,-4.500982541E0,5.627627562E0,1.366631123E0,7.334624492E0
1.620959800E1,-4.132050716E0,5.757913467E0,1.273044097E0,7.200559137E0
1.621954200E1,-3.625587115E0,5.814919142E0,1.157628247E0,6.949695656E0
1.622948600E1,-2.942472113E0,5.871895580E0,1.024445046E0,6.647314307E0
1.623943000E1,-1.911492219E0,5.808280213E0,8.706176662E-1,6.176398356E0
1.624937300E1,-7.047520387E-1,5.633141486E0,6.567697140E-1,5.714919500E0
1.625931700E1,3.911658633E-1,5.105983420E0,3.773676038E-1,5.134830448E0
1.626926100E1,1.735813794E0,4.630076784E0,2.278917217E-1,4.950009615E0
1.627920400E1,2.949920881E0,3.776282727E0,2.383162840E-1,4.797826496E0
1.628914800E1,3.090010228E0,2.655094328E0,4.817475660E-1,4.102410245E0
1.629909200E1,2.287402112E0,1.417731695E0,9.929824944E-1,2.868481447E0
1.630903500E1,1.667270393E0,1.902140182E-1,1.825725260E0,2.479767058E0
1.631897900E1,4.061405826E-1,-1.012847679E0,2.211260254E0,2.465863440E0
1.632892300E1,-6.877500898E-1,-1.886234002E0,2.837085407E0,3.475619729E0
1.633886600E1,-1.392034351E0,-2.636334121E0,3.380046158E0,4.506964529E0
1.634881000E1,-1.753643124E0,-2.968506256E0,4.057006673E0,5.324152209E0
1.635875400E1,-2.122276742E0,-3.129247969E0,4.370527067E0,5.779079361E0
1.636869700E1,-2.313269024E0,-3.106995220E0,4.415692130E0,5.873922869E0
1.637864100E1,-1.497057361E0,-3.485590739E0,4.454972556E0,5.851265164E0
1.638858500E1,5.176177490E-1,-4.108861828E0,4.365615406E0,6.017414023E0
1.639852800E1,3.078521619E0,-5.103450991E0,3.872898610E0,7.107872468E0
1.640847200E1,5.880007423E0,-6.630291730E0,2.981625069E0,9.350152072E0
1.641841600E1,8.872257468E0,-8.354512834E0,1.501557963E0,1.227882379E1
1.642835900E1,1.112487976E1,-1.000387847E1,-9.518786880E-1,1.499155119E1
1.643830300E1,1.158248519E1,-1.028236381E1,-4.410155987E0,1.610374008E1
1.644824700E1,9.747131907E0,-7.991317711E0,-6.830085826E0,1.433589242E1
1.645819000E1,7.334183058E0,-4.311404116E0,-7.667395413E0,1.145283367E1
1.646813400E1,5.807121879E0,-8.600967711E-1,-7.865598482E0,9.814788355E0
1.647807800E1,4.195926869E0,1.521245538E0,-8.183421550E0,9.321393594E0
1.648802100E1,2.216449658E0,2.783458838E0,-8.133662914E0,8.877880636E0
1.649796500E1,4.424412668E-1,3.234159297E0,-7.495212454E0,8.175191151E0
1.650790900E1,-7.682639104E-1,3.143097099E0,-6.332940348E0,7.111639914E0
1.651785200E1,-1.489508606E0,2.544564995E0,-4.760857948E0,5.599929937E0
1.652779600E1,-1.242624543E0,1.088517081E0,-3.338826503E0,3.725150683E0
