"Time (s)","Linear Acceleration x (m/s^2)","Linear Acceleration y (m/s^2)","Linear Acceleration z (m/s^2)","Absolute acceleration (m/s^2)"
-5.439999513E-4,-6.192859188E-2,-7.467052263E-1,-1.041130661E0,1.282714660E0
9.401000105E-3,7.459146827E-1,-2.523541331E-1,-2.611079997E-1,8.296075638E-1
1.934662508E-2,1.571033848E0,9.751810849E-2,5.182796538E-1,1.657187658E0
2.929162513E-2,2.210614722E0,3.223283476E-1,1.180558687E0,2.526743324E0
3.923662473E-2,2.557714798E0,4.533702976E-1,1.736649946E0,3.124644404E0
4.918262502E-2,2.608030089E0,5.721506363E-1,2.158136254E0,3.433180652E0
5.912762508E-2,2.418715519E0,6.519388175E-1,2.320529805E0,3.414684108E0
6.907362491E-2,1.917571861E0,6.632432395E-1,2.119952766E0,2.934480051E0
7.901862497E-2,1.421690990E0,7.111085469E-1,1.799723861E0,2.401226065E0
8.896362502E-2,8.550194876E-1,3.033400995E-1,1.336995680E0,1.615744716E0
9.890962485E-2,1.138368103E-1,-7.276947588E-1,9.533382261E-1,1.204720820E0
1.088546249E-1,-4.169652405E-1,-2.026193540E0,6.997117388E-1,2.183784969E0
1.188006247E-1,-3.242941815E-1,-3.185137995E0,5.179893395E-1,3.243236612E0
1.287456248E-1,9.080690825E-1,-4.024463702E0,5.254673436E-1,4.158967838E0
1.386906249E-1,2.453938123E0,-4.968603088E0,7.069049835E-1,5.586460741E0
1.486366247E-1,3.323318226E0,-6.030796589E0,8.476378164E-1,6.937826850E0
1.585816247E-1,2.833168065E0,-6.724994988E0,7.018605906E-1,7.331098633E0
1.685276250E-1,1.497474267E0,-6.285673211E0,3.214155972E-1,6.469576871E0
1.784726251E-1,4.703795555E-1,-4.391684048E0,-1.276745385E-1,4.418647586E0
1.884176247E-1,8.849746272E-2,-1.936580282E0,-5.777312189E-1,2.022856483E0
1.983636250E-1,-7.911882117E-2,2.102898484E-1,-9.562182721E-1,9.822601449E-1
2.083086250E-1,-2.490355459E-1,1.840339206E0,-1.164786408E0,2.192166616E0
2.182546249E-1,-4.902777766E-1,3.007590800E0,-1.314955185E0,3.318897687E0
2.281996249E-1,-7.276421338E-1,3.687890368E0,-1.396053143E0,4.009858204E0
2.381446250E-1,-9.166839315E-1,3.907901797E0,-1.465457253E0,4.273121908E0
2.480906248E-1,-9.895197733E-1,3.771375158E0,-1.395428075E0,4.141212320E0
2.580356249E-1,-1.220956808E0,3.400157656E0,-1.203651096E0,3.807963179E0
2.679816247E-1,-1.431153101E0,2.859218872E0,-9.999712327E-1,3.350115554E0
2.779266248E-1,-1.554776835E0,2.165883522E0,-8.365819010E-1,2.794324912E0
2.878716248E-1,-1.546457562E0,1.342825354E0,-7.289755914E-1,2.173963278E0
2.978176251E-1,-1.527356025E0,4.702096939E-1,-5.349632218E-1,1.685259396E0
3.077626247E-1,-1.427229473E0,-2.617283893E-1,-2.651358542E-1,1.475053470E0
3.177086250E-1,-1.378249394E0,-7.954119480E-1,-5.730739117E-2,1.592336553E0
3.276536250E-1,-1.514852485E0,-1.091890340E0,1.349478900E-1,1.872221541E0
3.375986251E-1,-1.815451994E0,-1.177602335E0,2.736526161E-1,2.181169172E0
3.475446249E-1,-2.080456432E0,-1.005971938E0,3.930407730E-1,2.344090347E0
3.574896250E-1,-2.161726006E0,-6.251521379E-1,4.185942748E-1,2.288907094E0
3.674356248E-1,-2.119384855E0,-1.905578345E-1,3.469843018E-1,2.156038626E0
3.773806249E-1,-1.865257262E0,1.322453070E-1,5.638829657E-1,1.953109693E0
3.873256249E-1,-1.480830607E0,2.438505274E-1,6.620957235E-1,1.640333232E0
3.972716248E-1,-1.335990543E0,2.638263702E-2,4.266341963E-1,1.402705783E0
4.072166248E-1,-1.528758479E0,-3.218962383E-1,2.224543959E-2,1.562438650E0
4.171626251E-1,-1.745966022E0,-4.503472871E-1,-7.422630966E-2,1.804638350E0
4.271076247E-1,-1.970347807E0,-2.585714775E-1,-2.787484646E-2,1.987437218E0
4.370526248E-1,-2.247337867E0,1.748071897E-1,-6.214830101E-2,2.254982806E0
4.469986251E-1,-2.524471039E0,7.018143976E-1,-1.141186461E-1,2.622693375E0
4.569436251E-1,-2.802146539E0,1.209097193E0,-1.575093716E-2,3.051915684E0
4.668896249E-1,-3.056300445E0,1.601645923E0,1.844796538E-2,3.450591601E0
4.768346250E-1,-3.169352852E0,1.871702501E0,2.493077338E-2,3.680854424E0
4.867796251E-1,-3.206376836E0,1.958189253E0,5.105437875E-2,3.757387938E0
4.967256249E-1,-3.181469744E0,1.887847833E0,-3.415095538E-2,3.699579092E0
5.066706249E-1,-2.965691699E0,1.666905527E0,-2.729252225E-1,3.412973699E0
5.166166248E-1,-2.608876181E0,1.376840361E0,-4.986072814E-1,2.991744229E0
5.265616248E-1,-2.291296650E0,1.133982106E0,-6.959379458E-1,2.649582114E0
5.365066249E-1,-1.797483647E0,9.612951171E-1,-8.473252827E-1,2.207486330E0
5.464526247E-1,-1.149554850E0,8.618047428E-1,-6.998551418E-1,1.598117951E0
5.563976248E-1,-5.503354056E-1,7.255271959E-1,-3.824684224E-1,9.876947225E-1
5.663436251E-1,-2.030255601E-2,5.506977868E-1,-1.299955907E-1,5.661970503E-1
5.762886251E-1,5.349747701E-1,2.981407553E-1,1.257332629E-1,6.252157772E-1
5.862336247E-1,1.048908919E0,-8.255683780E-3,3.453334866E-1,1.104324814E0
5.961796250E-1,1.341297769E0,-4.146523744E-1,6.403204000E-1,1.543057520E0
6.061246251E-1,1.608134578E0,-7.782076854E-1,7.987860838E-1,1.956978086E0
6.160706249E-1,1.949823495E0,-1.132834298E0,7.449729887E-1,2.374891569E0
6.260156250E-1,2.256752323E0,-1.349387099E0,5.873900883E-1,2.694216715E0
6.359606250E-1,2.291812082E0,-1.363070753E0,8.087370215E-1,2.786470898E0
6.459066248E-1,2.153795281E0,-1.207944707E0,9.837291294E-1,2.658136100E0
6.558516249E-1,2.107456097E0,-9.489691865E-1,7.808886337E-1,2.439610783E0
6.657976247E-1,2.075939604E0,-6.924085665E-1,2.845030019E-1,2.206784272E0
6.757426248E-1,1.941035861E0,-4.189892542E-1,-1.571635088E-1,1.991951951E0
6.856876248E-1,1.677285358E0,-1.765163308E-1,-5.567756751E-1,1.776075263E0
6.956336247E-1,1.438259515E0,3.542418659E-2,-8.020862523E-1,1.647175662E0
7.055786247E-1,1.227254113E0,2.344745171E-1,-9.464636546E-1,1.567457944E0
7.155246250E-1,1.050344996E0,3.590582174E-1,-9.198632088E-1,1.441629542E0
7.254696251E-1,8.371474729E-1,3.936228633E-1,-7.529977074E-1,1.192795203E0
7.354146247E-1,5.454345618E-1,2.837080729E-1,-4.934573463E-1,7.883459167E-1
7.453606250E-1,3.764627472E-1,1.208642864E-1,-1.989330938E-1,4.426135465E-1
7.553056250E-1,1.644826148E-1,-6.614838123E-2,1.570620596E-2,1.779798411E-1
7.652516249E-1,-5.081288874E-2,-2.061359864E-1,2.250283402E-1,3.093731541E-1
7.751966249E-1,-2.139839731E-1,-2.235215127E-1,3.585147187E-1,4.735861178E-1
7.851416250E-1,-3.235714656E-1,-1.037448084E-1,3.730684385E-1,5.046201922E-1
7.950876248E-1,-3.490355051E-1,2.072411102E-1,3.842743349E-1,5.589646018E-1
8.050326249E-1,-3.081263378E-1,5.482624215E-1,3.479423681E-1,7.187471144E-1
8.149786247E-1,-2.680575617E-1,8.325423521E-1,3.679556331E-1,9.488798514E-1
8.249236248E-1,-2.919937237E-1,1.036045337E0,4.300268970E-1,1.159126140E0
8.348686248E-1,-2.742383610E-1,1.156502658E0,5.024567959E-1,1.290413851E0
8.448146251E-1,-3.585408850E-1,1.190403060E0,6.531486064E-1,1.404355408E0
8.547596247E-1,-4.467813626E-1,1.168284212E0,8.040444848E-1,1.486939515E0
8.647056250E-1,-5.317234258E-1,1.061224617E0,9.954235607E-1,1.549127353E0
8.746506250E-1,-6.813997212E-1,9.203201687E-1,1.227931367E0,1.679020618E0
8.845956251E-1,-8.499843040E-1,7.934847057E-1,1.429090203E0,1.842387067E0
8.945416249E-1,-9.916638011E-1,6.516131276E-1,1.593915319E0,1.987099093E0
9.044866250E-1,-1.115078643E0,5.796479362E-1,1.785311498E0,2.183284053E0
9.144326248E-1,-1.226370453E0,5.614706969E-1,1.962462105E0,2.381279351E0
9.243776249E-1,-1.179036803E0,6.336452186E-1,2.004272036E0,2.410132868E0
9.343226249E-1,-1.009533915E0,8.512142658E-1,1.976642773E0,2.377149786E0
9.442686248E-1,-7.304236543E-1,1.076601040E0,1.945201125E0,2.340170065E0
9.542136248E-1,-3.790632963E-1,1.085265445E0,1.740493321E0,2.085858832E0
9.641586249E-1,-2.229250968E-3,8.717847705E-1,1.500969148E0,1.735777071E0
9.741046247E-1,3.373359574E-1,7.170434707E-1,1.349098247E0,1.564612721E0
9.840496248E-1,4.771327972E-1,6.693559188E-1,1.262687509E0,1.506676076E0
9.939956251E-1,4.704888985E-1,5.923428261E-1,1.280855978E0,1.487555667E0
1.003940625E0,5.204257281E-1,3.090586764E-1,1.264991312E0,1.402342049E0
1.013885625E0,6.894465132E-1,-1.527573395E-1,1.153146794E0,1.352190382E0
1.023831708E0,7.978284560E-1,-8.058398724E-1,1.037075617E0,1.536695799E0
1.033776708E0,9.580702315E-1,-1.826217011E0,1.030887070E0,2.305579166E0
1.043722708E0,9.971961442E-1,-3.092958394E0,1.147720871E0,3.446455422E0
1.053667708E0,1.059250305E0,-4.223059704E0,1.121908629E0,4.496100916E0
1.063612708E0,1.073209948E0,-4.920467640E0,1.006187554E0,5.135678609E0
1.073558708E0,1.183079130E0,-5.055814894E0,9.029955997E-1,5.270326510E0
1.083503708E0,1.532905471E0,-4.658296031E0,6.838505816E-1,4.951481871E0
1.093449708E0,2.022732866E0,-3.766046006E0,2.362349676E-1,4.281396703E0
1.103394708E0,2.412881606E0,-2.586217636E0,-3.008345675E-1,3.549791647E0
1.113339708E0,2.571263674E0,-1.197925503E0,-7.732778978E-1,2.940132837E0
1.123285708E0,2.699939548E0,1.828459418E-1,-1.052472505E0,2.903584780E0
1.133230708E0,2.760887124E0,1.406041356E0,-1.165003486E0,3.310088085E0
1.143176708E0,2.712180110E0,2.469240578E0,-1.103600997E0,3.830274813E0
1.153121708E0,2.623506792E0,3.261128994E0,-9.541335936E-1,4.292798751E0
1.163066708E0,2.496424869E0,3.873126651E0,-6.437161705E-1,4.652700043E0
1.173012708E0,2.479802696E0,4.370061629E0,-3.309880739E-1,5.035515183E0
1.182957708E0,2.508634440E0,4.712793835E0,-8.741265804E-2,5.339598623E0
1.192903708E0,2.476256652E0,4.833580354E0,9.406123459E-2,5.431776281E0
1.202848708E0,2.235760380E0,4.725788687E0,2.696903966E-1,5.234924651E0
1.212793708E0,2.114456383E0,4.546403713E0,6.815343533E-1,5.060158257E0
1.222739708E0,2.458481117E0,4.009353912E0,1.063576660E0,4.821850631E0
1.232684708E0,2.441167950E0,2.995460166E0,9.970273058E-1,3.990757574E0
1.242629708E0,1.779657387E0,1.761863725E0,1.161923026E0,2.760690007E0
1.252575708E0,1.219578473E0,3.223809725E-1,1.682583082E0,2.102947211E0
1.262520708E0,5.234826525E-1,-1.345617984E0,2.272841668E0,2.692681023E0
1.272466708E0,-4.333725277E-1,-3.018822716E0,2.549941510E0,3.975336973E0
1.282411708E0,-1.280638169E0,-4.408426380E0,2.833850727E0,5.394901965E0
1.292356708E0,-2.098130519E0,-5.444472302E0,2.960217828E0,6.542730310E0
1.302302708E0,-2.768480026E0,-6.016962662E0,2.962561685E0,7.255693837E0
1.312247708E0,-2.942245241E0,-6.001415500E0,2.774575455E0,7.236854567E0
1.322193708E0,-2.454843564E0,-5.314817312E0,2.231573482E0,6.265258190E0
1.332138708E0,-2.201521132E0,-4.202517850E0,1.150963005E0,4.881861061E0
1.342083708E0,-2.367218652E0,-3.086514178E0,1.978738707E-1,3.894797554E0
1.352029708E0,-2.844603172E0,-2.281170149E0,-5.406300509E-1,3.686161324E0
1.361974708E0,-3.223298678E0,-1.911582851E0,-1.212457588E0,3.938763355E0
1.371920708E0,-3.160875558E0,-1.797045836E0,-1.824558740E0,4.068110450E0
1.381865708E0,-2.858507851E0,-1.834524150E0,-2.391135811E0,4.153802650E0
1.391810708E0,-2.596698770E0,-2.046038405E0,-2.932651715E0,4.419226599E0
1.401756708E0,-2.375223636E0,-2.266959661E0,-3.517060454E0,4.811497445E0
1.411701708E0,-2.034924456E0,-2.347093413E0,-4.123799710E0,5.162895416E0
1.421647708E0,-1.451856922E0,-2.188792328E0,-4.593156295E0,5.291104339E0
1.431592708E0,-6.026887433E-1,-1.796522511E0,-5.376916496E0,5.701048839E0
1.441537708E0,7.838169924E-1,-1.241172679E0,-7.484436620E0,7.627035480E0
1.451483708E0,2.312217403E0,-5.124312687E-1,-9.359579038E0,9.654566530E0
1.461428708E0,3.086120953E0,2.278753495E-1,-7.906187514E0,8.490222065E0
1.471374708E0,3.093054873E0,7.791368079E-1,-5.623771323E0,6.465357415E0
1.481319708E0,2.096823081E0,1.007488121E0,-3.645382864E0,4.324409274E0
1.491264708E0,1.870945287E-1,1.055939319E0,-2.287903803E0,2.526759985E0
1.501210708E0,-1.502640429E0,1.187977050E0,-1.382664188E0,2.362409360E0
1.511155708E0,-2.616922535E0,1.347783793E0,-5.542680967E-1,2.995332674E0
1.521100708E0,-3.252121066E0,1.425873942E0,1.592272836E-1,3.554540935E0
1.531046708E0,-3.798907358E0,1.340785845E0,7.206319070E-1,4.092519290E0
1.540991708E0,-4.006434982E0,1.083749846E0,1.200202408E0,4.320476920E0
1.550937708E0,-3.909206311E0,8.206777668E-1,1.509006146E0,4.269953808E0
1.560882708E0,-3.703101022E0,5.855015838E-1,1.589384311E0,4.072089362E0
1.570827708E0,-3.262077413E0,4.176794779E-1,1.455495937E0,3.596397310E0
1.580773708E0,-2.415012623E0,3.983000511E-1,1.001255574E0,2.644511604E0
1.590718708E0,-1.545329050E0,3.726342827E-1,6.820215726E-1,1.729754782E0
1.600664708E0,-9.284230940E-1,2.449919039E-1,3.886749494E-1,1.035885462E0
1.610609708E0,-4.108838439E-2,1.129161662E-1,2.150290167E-1,2.463245703E-1
1.620554708E0,8.676803906E-1,-1.539998728E-1,2.866498071E-1,9.266894479E-1
1.630500708E0,1.272942648E0,-6.317957443E-1,-2.029621178E-1,1.435528638E0
1.640445708E0,1.445848323E0,-8.888317430E-1,-9.175357246E-1,1.929344720E0
1.650390708E0,1.908218071E0,-8.509850550E-1,-1.589155685E0,2.625050011E0
1.660336708E0,2.819442603E0,-5.152426100E-1,-1.667928790E0,3.316129971E0
1.670281708E0,3.589498100E0,-3.682488710E-1,-1.585167300E0,3.941174852E0
1.680227708E0,3.770738689E0,-4.313847667E-1,-1.601030796E0,4.119206560E0
1.690172708E0,3.589960030E0,-4.131777066E-1,-1.426541694E0,3.885041833E0
1.700117708E0,3.224091853E0,-4.774567330E-1,-1.404702344E0,3.549073384E0
1.710063708E0,2.977189372E0,-4.676258093E-1,-1.355994453E0,3.304701410E0
1.720008708E0,2.750809155E0,-4.521891600E-1,-1.038516955E0,2.974885462E0
1.729954708E0,2.332323492E0,-4.626352108E-1,-6.474996114E-1,2.464349804E0
1.739899708E0,1.843157710E0,-4.684175223E-1,-2.595011848E-1,1.919371299E0
1.749844708E0,1.182676037E0,-4.445018256E-1,1.121636295E-1,1.268418370E0
1.759790708E0,5.577555954E-1,-3.879113030E-1,4.969601208E-1,8.417457127E-1
1.769735708E0,1.118351622E-1,-3.117635983E-1,7.931385505E-1,8.595187055E-1
1.779681708E0,-1.528161771E-1,-2.977215099E-1,8.651405793E-1,9.276093485E-1
1.789626708E0,-2.744424288E-1,-2.966035223E-1,8.573035562E-1,9.477666821E-1
1.799571708E0,-3.150020787E-1,-2.885694480E-1,8.800275904E-1,9.782367790E-1
1.809517708E0,-3.095008720E-1,-2.770457554E-1,8.414599407E-1,9.384028837E-1
1.819462708E0,-1.340933195E-1,-2.637860245E-1,7.086386830E-1,7.679406670E-1
1.829407708E0,1.495128657E-1,-2.005986732E-1,5.086685854E-1,5.668665226E-1
1.839353708E0,4.640509678E-1,-1.288515830E-1,2.324180514E-1,5.347561891E-1
1.849298708E0,9.202323143E-1,1.765157461E-2,6.105896473E-2,9.224246785E-1
1.859244708E0,1.674894578E0,2.553303659E-1,4.066329181E-2,1.694732706E0
1.869189708E0,1.292786052E0,-2.357620740E-1,-5.048380744E-1,1.407743234E0
1.879134708E0,4.549196635E-1,-1.309268183E0,-9.835279852E-1,1.699547697E0
1.889080708E0,4.844076106E-1,-2.200144113E0,-8.836063787E-1,2.419926669E0
1.899025708E0,1.411823522E0,-2.694421531E0,-5.420409840E-1,3.089815767E0
1.908971708E0,2.981930294E0,-2.911058532E0,-1.179827785E-1,4.168943510E0
1.918916708E0,4.301049866E0,-2.946611942E0,4.358909234E-1,5.231782945E0
1.928861708E0,4.587121384E0,-3.126385172E0,8.786499864E-1,5.620319620E0
1.938807708E0,3.887942326E0,-3.529472923E0,1.188812032E0,5.383915740E0
1.948752708E0,2.976584185E0,-3.666056864E0,1.172078471E0,4.865572349E0
1.958698708E0,1.834270088E0,-3.023323903E0,8.846609241E-1,3.645224154E0
1.968643708E0,7.636044104E-1,-1.600585822E0,5.460282004E-1,1.855562844E0
1.978588708E0,4.493789881E-2,-8.165051937E-2,2.275093138E-1,2.458591262E-1
1.988534708E0,-5.064205503E-1,1.157209586E0,-4.628568202E-2,1.264016679E0
1.998479708E0,-1.027832557E0,1.980452526E0,-2.381886685E-1,2.243962080E0
2.008424708E0,-1.482930488E0,2.353268073E0,-3.216290206E-1,2.800071192E0
2.018371208E0,-1.792969889E0,2.222495679E0,-2.963327962E-1,2.870895538E0
2.028316208E0,-1.984828144E0,1.533680812E0,-1.669233888E-1,2.513878082E0
2.038262208E0,-2.246804017E0,6.667375356E-1,4.737677246E-2,2.344122819E0
2.048207208E0,-2.470237236E0,-4.745892584E-2,3.212515828E-1,2.491490906E0
2.058152208E0,-2.865943170E0,-4.355497384E-1,5.031584617E-1,2.942193445E0
2.068098208E0,-3.152335992E0,-4.114206183E-1,4.205375969E-1,3.206764881E0
2.078043208E0,-3.146450477E0,2.579323769E-2,3.212904668E-1,3.162916923E0
2.087989208E0,-2.950631903E0,8.226371688E-1,3.402971336E-1,3.082006275E0
2.097934208E0,-2.596594689E0,1.702192304E0,2.330746937E-1,3.113532790E0
2.107879208E0,-2.149707638E0,2.490810372E0,2.719218403E-2,3.290306772E0
2.117825208E0,-1.727800624E0,3.060907466E0,-2.954165375E-1,3.527282303E0
2.127770208E0,-1.245481346E0,3.303846998E0,-5.123950160E-1,3.567797278E0
2.137715208E0,-7.663395917E-1,3.049017738E0,-4.857752743E-1,3.181157518E0
2.147661208E0,-4.494839457E-1,2.377800066E0,-4.284748998E-1,2.457551568E0
2.157606208E0,-2.541189690E-1,1.542376791E0,-2.205455723E-1,1.578652262E0
2.167552208E0,-2.065262881E-1,5.569355965E-1,2.582481265E-2,5.945563785E-1
2.177497208E0,-4.974733602E-1,-4.003325433E-1,2.045101681E-1,6.705000359E-1
2.187442208E0,-1.023682277E0,-1.227905347E0,4.357950291E-1,1.656983480E0
2.197388208E0,-1.406825760E0,-1.776249045E0,6.033765221E-1,2.344841704E0
2.207333208E0,-1.426082688E0,-1.888655918E0,7.663217577E-1,2.487565486E0
2.217278208E0,-1.425920135E0,-1.633441912E0,9.313187814E-1,2.359816812E0
2.227224208E0,-1.489186863E0,-1.047830400E0,1.088103098E0,2.121224743E0
2.237169208E0,-1.687906972E0,-2.802184546E-1,1.039830240E0,2.002198605E0
2.247115208E0,-1.734733521E0,4.192962331E-1,7.713182035E-1,1.944232880E0
2.257060208E0,-1.547878143E0,9.157406294E-1,4.882951319E-1,1.863582513E0
2.267005208E0,-1.306099577E0,1.201147318E0,3.108876854E-1,1.801472214E0
2.276951208E0,-1.065292671E0,1.235426620E0,1.568740717E-1,1.638821798E0
2.286896208E0,-7.692253388E-1,1.044941291E0,1.124507278E-2,1.297588677E0
2.296842208E0,-5.868265629E-1,6.840745300E-1,-6.798236042E-2,9.038500865E-1
2.306787208E0,-4.861955430E-1,3.272212976E-1,-2.426828384E-2,5.865567604E-1
2.316732208E0,-4.559274311E-1,1.595599902E-1,9.866328567E-2,4.930148648E-1
2.326678208E0,-4.116230781E-1,1.529555601E-1,2.346657211E-1,4.978925210E-1
2.336623208E0,-3.328145979E-1,7.308259428E-2,1.667222446E-1,3.793453954E-1
2.346568208E0,-2.564723271E-1,-1.207882726E-1,5.871861666E-2,2.895094771E-1
2.356514208E0,-1.929284419E-1,-3.069337982E-1,-1.250042613E-1,3.834785594E-1
2.366459208E0,-2.702985071E-1,-4.986768633E-1,-3.033345446E-1,6.432353713E-1
2.376405208E0,-2.270902146E-1,-5.982853514E-1,-3.563316607E-1,7.324531246E-1
2.386350208E0,-5.507273152E-2,-4.832589251E-1,-9.501991484E-1,1.067450522E0
2.396295208E0,-6.694389492E-2,-2.224064487E-1,-1.285571465E0,1.306384363E0
2.406241208E0,-7.251132131E-3,1.234815001E-1,-1.394800084E0,1.400274093E0
2.416186208E0,6.709855378E-2,4.511805153E-1,-1.461389346E0,1.530922889E0
2.426132208E0,-5.554270148E-3,6.617633092E-1,-1.461722052E0,1.604553796E0
2.436077208E0,-2.290351447E-1,7.095771611E-1,-1.279404699E0,1.480821808E0
2.446022208E0,-3.770072691E-1,5.990659547E-1,-9.715192661E-1,1.202025034E0
2.455968208E0,-3.921848868E-1,3.580753005E-1,-6.664425436E-1,8.521575970E-1
2.465913208E0,-4.528604203E-1,3.945350289E-2,-2.625282884E-1,5.249383215E-1
2.475858208E0,-5.372584002E-1,-2.422700250E-1,1.846863529E-1,6.176167117E-1
2.485804208E0,-5.922495630E-1,-4.484288156E-1,6.036627433E-1,9.572129623E-1
2.495749208E0,-5.888575932E-1,-4.695729321E-1,9.732629058E-1,1.230647264E0
2.505695208E0,-4.610884760E-1,-3.504967242E-1,1.273577071E0,1.399088665E0
2.515640208E0,-2.418044405E-1,-2.279367453E-1,1.561690144E0,1.596652953E0
2.525585208E0,8.086845428E-3,-2.116013789E-1,1.857616851E0,1.869647268E0
2.535531208E0,3.093776420E-1,-2.331588936E-1,1.882753739E0,1.922196461E0
2.545476208E0,5.820406169E-1,-1.870074052E-1,1.851877517E0,1.950177783E0
2.555421208E0,7.673173924E-1,2.205511272E-2,1.759059400E0,1.919258289E0
2.565367208E0,8.262093790E-1,4.576960677E-1,1.435305794E0,1.718199741E0
2.575312208E0,8.779964139E-1,1.046869703E0,8.624273251E-1,1.615733508E0
2.585258208E0,8.645432863E-1,1.628940725E0,4.175705735E-1,1.890832664E0
2.595203208E0,8.264418058E-1,2.070023099E0,3.413461241E-1,2.254887772E0
2.605148208E0,8.741295040E-1,2.197502341E0,3.644689384E-1,2.392897101E0
2.615094208E0,9.812342687E-1,1.997656789E0,4.871435228E-1,2.278324417E0
2.625039208E0,9.342944294E-1,1.546830030E0,8.331288278E-1,1.989897703E0
2.634984208E0,7.520944588E-1,9.950288737E-1,1.152907789E0,1.698506669E0
2.644930208E0,5.484488015E-1,5.172751021E-1,1.293014093E0,1.496748163E0
2.654875208E0,3.725082752E-1,2.874385965E-1,1.316327380E0,1.397891675E0
2.664821208E0,2.275221777E-1,2.902803433E-1,1.251608790E0,1.304819367E0
2.674766208E0,9.514443129E-2,4.851481605E-1,1.161097838E0,1.261970439E0
2.684711208E0,3.200181127E-3,6.533450729E-1,1.116292525E0,1.293436905E0
2.694657208E0,-1.812636852E-5,6.840739453E-1,1.126635665E0,1.318053521E0
2.704602208E0,1.896681806E-1,5.400429904E-1,1.177507464E0,1.309253329E0
2.714548208E0,4.244131315E-1,3.080225497E-1,1.349566609E0,1.447872380E0
2.724493208E0,6.801221046E-1,1.825717074E-1,1.586089698E0,1.735390168E0
2.734438208E0,1.000149280E0,1.977744681E-1,1.707986164E0,1.989127965E0
2.744384208E0,1.389889008E0,2.270538157E-1,1.608835074E0,2.138152283E0
2.754329208E0,1.746609216E0,8.939515650E-2,1.370085658E0,2.221659280E0
2.764274208E0,2.011720804E0,-1.535636705E-1,1.226570427E0,2.361160183E0
2.774220208E0,2.189391375E0,-4.372869462E-1,1.221794275E0,2.545080690E0
2.784165208E0,2.282496298E0,-7.469391149E-1,1.245735846E0,2.705469495E0
2.794111208E0,2.425890199E0,-1.050704892E0,1.262274696E0,2.929549698E0
2.804056208E0,2.633330699E0,-1.248664716E0,1.273549443E0,3.180490894E0
2.814001208E0,2.729864429E0,-1.208472710E0,1.190907821E0,3.214160470E0
2.823947208E0,2.759351060E0,-1.081647772E0,1.057505350E0,3.146791658E0
2.833892208E0,2.709544477E0,-9.939114708E-1,9.402026023E-1,3.035370195E0
2.843837208E0,2.626300007E0,-9.857779938E-1,8.628369226E-1,2.934910141E0
2.853783208E0,2.485832930E0,-8.500407296E-1,8.940382500E-1,2.775110627E0
2.863728208E0,2.282084362E0,-6.563107806E-1,9.733583616E-1,2.566335788E0
2.873674208E0,2.023085745E0,-3.700346106E-1,1.003834780E0,2.288555398E0
2.883619208E0,1.680850259E0,-1.387485802E-1,1.038358934E0,1.980580228E0
2.893564208E0,1.327769358E0,1.259197891E-1,1.058423216E0,1.702670540E0
2.903510208E0,9.750542003E-1,4.671188557E-1,9.928564869E-1,1.467887844E0
2.913455208E0,6.928802906E-1,8.186271483E-1,9.131902201E-1,1.408598553E0
2.923400208E0,4.836701305E-1,9.867527246E-1,9.654236899E-1,1.462757887E0
2.933346208E0,5.181081842E-1,1.069017786E0,1.102896992E0,1.620992564E0
2.943291208E0,4.408673425E-1,1.123833094E0,1.300113782E0,1.774164785E0
2.953237208E0,2.513617145E-1,1.049650054E0,1.531339002E0,1.873485278E0
2.963182208E0,2.680100530E-2,8.625110865E-1,1.768058119E0,1.967402648E0
2.973127208E0,-1.102068588E-1,6.356321025E-1,2.106620822E0,2.203185196E0
2.983073208E0,-1.553537956E-1,2.779655224E-1,2.418873832E0,2.439743890E0
2.993018208E0,-4.535860598E-1,-2.020680785E-1,2.883132230E0,2.925580845E0
3.002963208E0,-2.909985276E-1,-8.849854445E-1,3.043644147E0,3.183025145E0
3.012909208E0,-3.591127427E-1,-1.802706526E0,2.700683899E0,3.266864904E0
3.022854208E0,-8.599942987E-1,-2.597799801E0,2.418763320E0,3.652200706E0
3.032800208E0,-1.463138248E0,-3.110264983E0,2.185774288E0,4.073343962E0
3.042745208E0,-2.007939995E0,-3.351858485E0,1.593283527E0,4.219636326E0
3.052690208E0,-2.285526033E0,-3.265369980E0,8.093482018E-1,4.067101531E0
3.062636208E0,-2.443539873E0,-2.959939501E0,8.823448420E-4,3.838245659E0
3.072581208E0,-2.469980836E0,-2.442584292E0,-8.986968729E-1,3.588130352E0
3.082526208E0,-2.286629987E0,-1.771119282E0,-1.620599380E0,3.315400814E0
3.092472208E0,-2.058574397E0,-1.079581951E0,-2.402196988E0,3.342719867E0
3.102417208E0,-2.163361326E0,-7.277567393E-1,-3.278892835E0,3.995109551E0
3.112363208E0,-2.388010181E0,-6.952169842E-1,-3.389352002E0,4.204001222E0
3.122308208E0,-2.212913408E0,-8.377715170E-1,-3.884322607E0,4.548275386E0
3.132253208E0,-2.019135658E0,-1.109261833E0,-4.312782889E0,4.889526242E0
3.142199208E0,-1.567151151E0,-1.367040428E0,-4.606230084E0,5.053921037E0
3.152144208E0,-9.528958842E-1,-1.493979971E0,-4.902642403E0,5.213049899E0
3.162089208E0,-4.885793066E-1,-1.449006112E0,-4.977125990E0,5.206737133E0
3.172035208E0,1.526722625E-2,-1.275266624E0,-4.975620332E0,5.136471137E0
3.181980208E0,6.690091789E-1,-1.045817204E0,-4.926309593E0,5.080337893E0
3.191926208E0,1.067171601E0,-7.360404897E-1,-4.646930798E0,4.824373190E0
3.201871208E0,1.111836070E0,-4.536573958E-1,-4.270015769E0,4.435653181E0
3.211816208E0,6.149457499E-1,-3.023858339E-1,-3.788840792E0,3.850312976E0
3.221762208E0,-1.935432035E-1,-2.994113553E-1,-3.364444617E0,3.383281501E0
3.231707208E0,-7.902127500E-1,-2.765078115E-1,-2.985145678E0,3.100320544E0
3.241652208E0,-1.229584082E0,-2.045221549E-1,-2.607056528E0,2.889714530E0
3.251598208E0,-1.626861748E0,-1.232651532E-1,-2.281382988E0,2.804742730E0
3.261543208E0,-1.995778956E0,-3.745141625E-2,-1.927104869E0,2.774575540E0
3.271489208E0,-2.181695270E0,1.520971888E-1,-1.570403080E0,2.692414092E0
3.281434208E0,-2.089399895E0,4.084753758E-1,-1.134441698E0,2.412343677E0
3.291379208E0,-1.968372179E0,6.444596440E-1,-9.075211984E-1,2.261285473E0
3.301325208E0,-1.929360433E0,8.270728666E-1,-7.362784714E-1,2.224542019E0
3.311270208E0,-1.490893372E0,1.127910358E0,5.580465674E-2,1.870309863E0
3.321215208E0,-1.212552897E0,1.427601210E0,9.238407773E-1,2.088495038E0
3.331161208E0,-1.163538393E0,1.211799191E0,6.746476489E-1,1.810366903E0
3.341106208E0,-6.653334729E-1,1.081816757E0,8.474398881E-1,1.526810561E0
3.351051208E0,-2.859645134E-1,9.043011367E-1,7.538370752E-1,1.211530678E0
3.360997208E0,1.437963353E-1,7.202401435E-1,7.233286428E-1,1.030838288E0
3.370942208E0,3.420134376E-1,3.924312007E-1,8.694774592E-1,1.013393552E0
3.380888208E0,5.881569506E-1,8.129266977E-2,1.045952275E0,1.202727425E0
3.390833208E0,7.859809738E-1,-1.665994531E-1,1.279050357E0,1.510460620E0
3.400778208E0,8.864066834E-1,-3.512820053E-1,1.371631077E0,1.670475282E0
3.410724208E0,9.198739531E-1,-4.420559353E-1,1.377123951E0,1.714074653E0
3.420669208E0,1.013098013E0,-4.513781512E-1,1.026093376E0,1.510952493E0
3.430614208E0,1.141921967E0,-4.509507197E-1,4.503285760E-1,1.307722508E0
3.440560208E0,1.053005625E0,-5.325544614E-1,-2.355211687E-1,1.203289376E0
3.450505208E0,8.791749202E-1,-6.715053552E-1,-7.579704720E-1,1.341039604E0
3.460451208E0,8.932209554E-1,-8.013749385E-1,-1.054285727E0,1.597361531E0
3.470396208E0,9.362392133E-1,-9.990611136E-1,-1.197494563E0,1.818972293E0
3.480341208E0,1.000160171E0,-1.238580024E0,-1.076544907E0,1.921808986E0
3.490287208E0,1.142145916E0,-1.359037344E0,-7.140286463E-1,1.913456742E0
3.500232208E0,1.090795595E0,-1.318669921E0,-3.304980773E-1,1.742972854E0
3.510177208E0,1.077815288E0,-1.059976822E0,-2.977986932E-3,1.511702856E0
3.520123208E0,1.209076728E0,-6.447970283E-1,2.190057081E-1,1.387657465E0
3.530068208E0,1.427761277E0,-1.086535460E-1,3.051813877E-1,1.464050388E0
3.540014208E0,1.676429764E0,4.832103932E-1,2.571780860E-1,1.763533274E0
3.549959208E0,1.787415180E0,1.041523594E0,2.438160288E-1,2.083043609E0
3.559904208E0,1.701639011E0,1.488652573E0,3.543553019E-1,2.288499397E0
3.569850208E0,1.498023321E0,1.800820799E0,4.143448108E-1,2.378804541E0
3.579795208E0,1.362042667E0,1.932531086E0,2.896552759E-1,2.381960705E0
3.589740208E0,1.326490572E0,1.806001432E0,1.366985464E-1,2.244973252E0
3.599686208E0,1.130367138E0,1.465802239E0,8.256239265E-2,1.852868754E0
3.609631208E0,2.339359885E-1,4.834296638E-1,-3.859162331E-2,5.384418260E-1
3.619577208E0,-8.704307015E-1,-9.910504282E-1,-2.140572095E-1,1.336282547E0
3.629522208E0,-1.291800357E0,-2.523388134E0,-2.500567621E-1,2.845832782E0
3.639467208E0,-1.283614402E0,-4.038713951E0,-1.690430045E-1,4.241161615E0
3.649413208E0,-9.122944267E-1,-5.436285031E0,-5.148005605E-2,5.512542631E0
3.659358208E0,-3.305210276E-1,-6.588563660E0,2.726214597E-1,6.602479664E0
3.669303208E0,1.360112062E-1,-7.253162284E0,9.036503416E-1,7.310502452E0
3.679249208E0,2.886309899E-1,-6.991214039E0,8.599540991E-1,7.049815788E0
3.689194208E0,2.114258163E-1,-5.499341404E0,3.792930919E-1,5.516459010E0
3.699139208E0,2.140864456E-1,-3.679530603E0,-3.091060388E-1,3.698692338E0
3.709085208E0,2.587727679E-1,-2.070938188E0,-9.001867434E-1,2.272902219E0
3.719030208E0,4.284195706E-1,-4.521996850E-1,-1.268132144E0,1.412864826E0
3.728976208E0,6.630033575E-1,1.093811150E0,-1.522100986E0,1.988161888E0
3.738921208E0,8.260386403E-1,2.412425523E0,-1.687294768E0,3.057629862E0
3.748866208E0,9.499668677E-1,3.378357482E0,-1.694330138E0,3.896984853E0
3.758812208E0,1.070020365E0,3.952113764E0,-1.522328150E0,4.368252486E0
3.768757208E0,1.056526891E0,4.022286783E0,-1.300511101E0,4.357335099E0
3.778702208E0,8.921419980E-1,3.415879065E0,-1.033757907E0,3.678695766E0
3.788648208E0,4.679615857E-1,2.334603760E0,-6.745768976E-1,2.474755898E0
3.798593208E0,-1.746083844E-1,1.140078998E0,-2.030998197E-1,1.171118161E0
3.808539208E0,-7.801021832E-1,1.895690703E-1,2.096855387E-1,8.297372318E-1
3.818484208E0,-1.151812898E0,-3.192509580E-1,4.546517149E-1,1.278789392E0
3.828429208E0,-1.376029791E0,-3.530385089E-1,6.473861754E-1,1.561154392E0
3.838375208E0,-1.612159801E0,-3.921493649E-2,6.031598827E-1,1.721742977E0
3.848320208E0,-1.578812253E0,4.875642300E-1,3.379556161E-1,1.686588571E0
3.858265208E0,-1.466855615E0,1.089789435E0,-5.735767722E-2,1.828276870E0
3.868211208E0,-1.213500000E0,1.556375610E0,-4.463366818E-1,2.023389167E0
3.878156208E0,-9.265769818E-1,1.652220245E0,-7.160257629E-1,2.025109759E0
3.888101208E0,-8.173625417E-1,1.404364375E0,-8.077560049E-1,1.814604801E0
3.898047208E0,-9.162312108E-1,1.056875458E0,-7.399945231E-1,1.582421328E0
3.907992208E0,-1.178300785E0,6.528118068E-1,-4.418460202E-1,1.417668474E0
3.917938208E0,-1.496961467E0,2.769843596E-1,-4.867938593E-2,1.523149254E0
3.927883208E0,-1.920665185E0,-4.472476780E-2,5.771084905E-1,2.005993337E0
3.937828208E0,-2.096262772E0,-2.857025582E-1,1.124420009E0,2.395884788E0
3.947774208E0,-2.137272511E0,-3.861045134E-1,1.478756161E0,2.627495055E0
3.957719208E0,-2.232485940E0,-2.971145689E-1,1.694493568E0,2.818435557E0
3.967664208E0,-2.391469979E0,2.782456040E-2,1.894044420E0,3.050787952E0
3.977610208E0,-2.535154486E0,4.192477012E-1,1.984118146E0,3.246459875E0
3.987555208E0,-2.610163446E0,6.448309422E-1,1.941035130E0,3.316078638E0
3.997500208E0,-2.738691970E0,7.742859578E-1,1.754774414E0,3.343528929E0
4.007446208E0,-2.771350716E0,7.998330277E-1,1.566481791E0,3.282374577E0
4.017391208E0,-2.670526592E0,8.238966590E-1,1.383591557E0,3.118468146E0
4.027336875E0,-2.446034734E0,8.706229287E-1,1.159846534E0,2.843644525E0
4.037281875E0,-2.125919119E0,8.990111607E-1,9.419075042E-1,2.492978723E0
4.047226875E0,-1.733013124E0,8.684565353E-1,8.129663126E-1,2.102014621E0
4.057172875E0,-1.265567117E0,7.057261848E-1,6.609739351E-1,1.592669494E0
4.067117875E0,-7.915175562E-1,3.941660696E-1,5.838267951E-1,1.059585135E0
4.077062875E0,-3.728205165E-1,7.737912834E-2,3.470217240E-1,5.151764202E-1
4.087008875E0,-1.571135151E-1,-1.983141661E-1,1.816735750E-1,3.114778531E-1
4.096953875E0,3.387774423E-2,-3.056614441E-1,2.614395368E-1,4.036424796E-1
4.106898875E0,2.230551973E-1,-3.306015730E-1,3.654229116E-1,5.409111992E-1
4.116844875E0,4.207394721E-1,-3.599540108E-1,3.929040943E-1,6.789419862E-1
4.126789875E0,6.070346864E-1,-4.322372907E-1,4.188715790E-1,8.548529614E-1
4.136735875E0,7.603222221E-1,-4.939493895E-1,4.088265011E-1,9.945928759E-1
4.146680875E0,8.726441650E-1,-5.155951971E-1,2.479187277E-1,1.043460561E0
4.156625875E0,9.287331426E-1,-5.232936412E-1,-1.493998682E-1,1.076430121E0
4.166571875E0,8.477452590E-1,-5.074728298E-1,-6.338212198E-1,1.173852647E0
4.176516875E0,5.909495808E-1,-4.978874892E-1,-1.010500168E0,1.272094316E0
4.186461875E0,3.460148335E-1,-4.582462907E-1,-1.361607487E0,1.477731666E0
4.196407875E0,1.061784196E-1,-4.284839630E-1,-1.505443730E0,1.568831791E0
4.206352875E0,2.677893206E-2,-3.562451220E-1,-1.608647379E0,1.647839218E0
4.216297875E0,1.267530173E-3,-2.468577504E-1,-1.588889783E0,1.607952455E0
4.226243875E0,-1.205194469E-1,-1.581747848E-1,-1.407859548E0,1.421834275E0
4.236188875E0,-7.935563341E-2,-1.144820505E-1,-1.105876587E0,1.114614948E0
4.246134875E0,7.143777251E-2,-2.897529244E-2,-6.269421168E-1,6.316639460E-1
4.256079875E0,2.914733215E-1,1.198860472E-1,-4.605223194E-2,3.185124323E-1
4.266024875E0,5.590413250E-1,2.874830353E-1,4.861594364E-1,7.946852813E-1
4.275970875E0,8.737669766E-1,4.217210734E-1,9.954918270E-1,1.390079627E0
4.285915875E0,1.149276522E0,5.394658703E-1,1.450943733E0,1.927977611E0
4.295860875E0,1.424936488E0,6.721526420E-1,1.736365625E0,2.344610576E0
4.305806875E0,1.670159356E0,8.302262700E-1,1.860380976E0,2.634335839E0
4.315751875E0,1.898719415E0,9.613734698E-1,1.862284683E0,2.827981366E0
4.325696875E0,2.020983379E0,1.083484383E0,1.828019415E0,2.932570068E0
4.335642875E0,2.019916993E0,1.193142480E0,1.761939007E0,2.933953425E0
4.345587875E0,1.903948434E0,1.379841737E0,1.805117041E0,2.964360030E0
4.355533875E0,1.703406332E0,1.566110054E0,1.943143782E0,3.021605797E0
4.365478875E0,1.480304650E0,1.535126243E0,2.037789738E0,2.949661244E0
4.375423875E0,1.135024957E0,1.298935568E0,2.032862582E0,2.666091810E0
4.385369875E0,7.536505491E-1,9.952335262E-1,1.888132300E0,2.263519937E0
4.395314875E0,3.910071114E-1,7.390787029E-1,1.641735895E0,1.842395354E0
4.405259875E0,2.259963468E-2,6.073894662E-1,1.348912890E0,1.479526509E0
4.415205875E0,-2.891012523E-1,6.161041564E-1,1.118106331E0,1.308940653E0
4.425150875E0,-5.214919679E-1,6.838763094E-1,8.967352782E-1,1.242487359E0
4.435095875E0,-8.067764501E-1,7.848793584E-1,7.676550691E-1,1.362430972E0
4.445041875E0,-1.040740505E0,9.290015298E-1,8.029126100E-1,1.609612780E0
4.454986875E0,-1.089907988E0,9.911223489E-1,8.980566028E-1,1.725319853E0
4.464932875E0,-9.936060999E-1,9.158213210E-1,1.116685896E0,1.752988638E0
4.474877875E0,-8.372017059E-1,8.484391773E-1,1.347923541E0,1.799348106E0
4.484822875E0,-5.761482315E-1,7.722137046E-1,1.527718406E0,1.806151798E0
4.494768875E0,-2.029593404E-1,6.140669864E-1,1.598341369E0,1.724229071E0
4.504713875E0,3.155030389E-1,2.555747795E-1,1.500706170E0,1.554663836E0
4.514658875E0,8.435143599E-1,-1.839756238E-1,1.366653342E0,1.616510088E0
4.524604875E0,1.224317495E0,-5.858196723E-1,1.387484633E0,1.940940912E0
4.534549875E0,1.529057564E0,-9.423682648E-1,1.496273103E0,2.337714307E0
4.544494875E0,1.952173930E0,-1.176095508E0,1.645235015E0,2.810868540E0
4.554440875E0,2.431884764E0,-1.287610096E0,1.772182014E0,3.273015789E0
4.564385875E0,2.806680762E0,-1.239692164E0,1.884563452E0,3.600815598E0
4.574330875E0,3.010014471E0,-1.034330934E0,1.905690612E0,3.709674420E0
4.584276875E0,3.098066522E0,-6.206217152E-1,1.829082731E0,3.650853479E0
4.594221875E0,3.113658415E0,-4.557261407E-2,1.715537843E0,3.555279972E0
4.604167875E0,2.995315448E0,5.073324966E-1,1.594192477E0,3.430852743E0
4.614112875E0,2.762850911E0,9.328314561E-1,1.526442251E0,3.291435193E0
4.624057875E0,2.328345339E0,1.250635813E0,1.415191226E0,2.998007365E0
4.634003875E0,1.686030454E0,1.478842700E0,1.362129936E0,2.623942146E0
4.643948875E0,1.208978494E0,1.528834639E0,1.465467925E0,2.438557072E0
4.653893875E0,7.725405639E-1,1.438444287E0,1.783302541E0,2.417872792E0
4.663839875E0,3.619821176E-1,1.281496832E0,2.116246508E0,2.500352869E0
4.673784875E0,3.666014180E-2,1.100406809E0,2.240069486E0,2.496026926E0
4.683729875E0,-4.806265086E-3,9.872666949E-1,2.350530260E0,2.549453104E0
4.693675875E0,2.345338663E-1,1.053290530E0,2.508878269E0,2.731098175E0
4.703620875E0,1.046045976E0,1.339863739E0,3.081657481E0,3.519383448E0
4.713565875E0,1.216641271E0,1.245048798E0,3.659710296E0,4.052633952E0
4.723511875E0,-1.787295020E-1,7.493622011E-1,3.227573285E0,3.318240084E0
4.733456875E0,-1.492503257E0,-3.146000826E-1,2.933546339E0,3.306392794E0
4.743402875E0,-2.480519857E0,-2.259626083E0,2.899117641E0,4.434385176E0
4.753347875E0,-3.570675036E0,-4.614711471E0,2.991640180E0,6.557071994E0
4.763292875E0,-4.074055400E0,-6.816574080E0,2.722256032E0,8.394896514E0
4.773238875E0,-3.615827528E0,-8.186357437E0,2.368422009E0,9.257433748E0
4.783183875E0,-2.178714506E0,-8.060872096E0,1.635400437E0,8.508759629E0
4.793128875E0,-8.969441700E-1,-7.030389799E0,4.774649191E-1,7.103440175E0
4.803074875E0,-1.370118110E-1,-6.269806792E0,-5.811635345E-1,6.298174378E0
4.813019875E0,6.632525951E-2,-6.056292788E0,-1.657104132E0,6.279257558E0
4.822964875E0,-3.624075025E-2,-6.115802826E0,-2.768964175E0,6.713532617E0
4.832910875E0,1.749657954E-1,-6.200964013E0,-3.811718023E0,7.280917663E0
4.842855875E0,5.234683999E-1,-6.108020182E0,-5.013845335E0,7.919632235E0
4.852800875E0,6.776826462E-1,-5.531809239E0,-7.319348672E0,9.199621308E0
4.862746875E0,1.365512258E0,-3.949525786E0,-1.720074025E1,1.770109722E1
4.872691875E0,2.469275077E0,-2.329648830E0,-1.614679600E1,1.649980619E1
4.882637875E0,2.022436412E0,-1.623527958E0,-1.089478480E1,1.119921551E1
4.892582875E0,9.573472233E-1,-8.029168493E-1,-8.565840563E0,8.656489688E0
4.902527875E0,-6.077933626E-1,1.064853984E-1,-6.070396857E0,6.101677631E0
4.912473875E0,-2.246935287E0,8.661731976E-1,-3.868961095E0,4.557173921E0
4.922418875E0,-3.164113162E0,1.692198828E0,-2.557455182E0,4.406327947E0
4.932363875E0,-3.620294216E0,2.542072912E0,-1.506925707E0,4.673274011E0
4.942309875E0,-3.896122581E0,3.367036103E0,-6.481597620E-1,5.190068820E0
4.952254875E0,-3.891603853E0,4.043717414E0,1.040593886E-1,5.613114948E0
4.962199875E0,-3.532454126E0,4.433639574E0,7.471595550E-1,5.717835205E0
4.972145875E0,-3.042270051E0,4.355284545E0,1.294361876E0,5.468023702E0
4.982090875E0,-2.838289056E0,3.595032490E0,1.861132489E0,4.944083081E0
4.992035875E0,-2.452613436E0,2.718951770E0,2.839327229E0,4.633550529E0
5.001981875E0,-2.709806725E0,1.685858107E0,2.868734631E0,4.291247887E0
5.011926875E0,-2.696513957E0,6.438544571E-1,1.996986113E0,3.416678156E0
5.021873083E0,-1.630243339E0,1.657288027E-1,1.905933271E0,2.513511690E0
5.031818083E0,-1.190815288E0,-2.388681149E-1,1.338282067E0,1.807234882E0
5.041763083E0,-7.748955300E-1,-5.444360036E-1,8.228885990E-1,1.254599255E0
5.051709083E0,-1.536968409E-1,-7.207558680E-1,4.998287648E-1,8.904720850E-1
5.061654083E0,5.475264032E-1,-7.506228608E-1,2.383605766E-1,9.591848653E-1
5.071599083E0,1.317624147E0,-6.363454628E-1,-1.262238443E-2,1.463293636E0
5.081545083E0,1.911168283E0,-5.253156084E-1,-4.705505866E-1,2.037139796E0
5.091490083E0,2.172398782E0,-4.580018771E-1,-1.051054555E0,2.456379015E0
5.101435083E0,1.938496269E0,-4.623919666E-1,-1.653904828E0,2.589782866E0
5.111381083E0,1.420716698E0,-3.614579147E-1,-2.458458313E0,2.862360047E0
5.121326083E0,1.255586943E0,-1.501728702E-1,-2.939031612E0,3.199524539E0
5.131271083E0,1.093942566E0,-7.313404977E-2,-2.998217713E0,3.192392267E0
5.141217083E0,6.330624705E-1,-3.603048438E-1,-3.061060663E0,3.146534611E0
5.151162083E0,1.364838074E-1,-6.666094816E-1,-3.172227927E0,3.244383771E0
5.161107083E0,-1.872901911E-1,-8.976791650E-1,-3.012873759E0,3.149335452E0
5.171053083E0,-1.943281922E-1,-1.072355962E0,-2.680624441E0,2.893692822E0
5.180998083E0,-9.883402437E-2,-1.217618340E0,-2.264609081E0,2.573094805E0
5.190944083E0,9.590559259E-2,-1.364917304E0,-1.773127801E0,2.239682863E0
5.200889083E0,5.622590478E-1,-1.479869471E0,-1.114516141E0,1.936051424E0
5.210834083E0,1.014094744E0,-1.545068849E0,-1.919073719E-1,1.858078130E0
5.220780083E0,1.305724186E0,-1.485790946E0,6.793248367E-1,2.091404461E0
5.230725083E0,1.582292224E0,-1.182613984E0,1.357385505E0,2.396814537E0
5.240670083E0,1.797724991E0,-6.854299146E-1,1.771989348E0,2.615640564E0
5.250616083E0,1.860236550E0,-1.150129777E-1,1.922810674E0,2.677855279E0
5.260561083E0,1.882618960E0,4.339756680E-1,1.914028741E0,2.719576263E0
5.270506083E0,1.811064244E0,8.784734005E-1,1.825058677E0,2.717077177E0
5.280452083E0,1.571228853E0,1.103905783E0,1.673422249E0,2.547098371E0
5.290397083E0,1.305935124E0,1.103926249E0,1.522050700E0,2.289270199E0
5.300342083E0,1.128821208E0,9.936524391E-1,1.416098567E0,2.065651868E0
5.310288083E0,1.191199597E0,8.965266788E-1,1.534822773E0,2.139719026E0
5.320233083E0,7.142740832E-1,2.873315924E-1,1.246809103E0,1.465359972E0
5.330178083E0,-2.861611260E-1,-1.060318299E0,6.680946743E-1,1.285501295E0
5.340124083E0,-7.411844315E-1,-2.360959500E0,4.383897310E-1,2.513099616E0
5.350069083E0,-5.776632451E-1,-3.366737895E0,3.601604176E-1,3.434870362E0
5.360015083E0,5.344933981E-1,-4.042543293E0,4.901188785E-1,4.107073895E0
5.369960083E0,2.040260772E0,-4.674647185E0,9.553879675E-1,5.189196131E0
5.379905083E0,2.833887565E0,-5.233966691E0,1.319022508E0,6.096322370E0
5.389851083E0,2.353182119E0,-5.152847099E0,1.244108566E0,5.799750463E0
5.399796083E0,3.424550486E-1,-4.336809683E0,8.540788168E-1,4.433355875E0
5.409741083E0,-1.021603446E0,-2.762921078E0,3.206618911E-1,2.963145378E0
5.419687083E0,-1.000593523E0,-1.078980272E0,-3.236843169E-1,1.506704139E0
5.429632083E0,-6.562882689E-1,3.256133133E-1,-8.916869384E-1,1.154055422E0
5.439577083E0,-3.328952895E-1,1.525353207E0,-1.249159099E0,1.999479966E0
5.449523083E0,-1.097719721E-1,2.540441539E0,-1.366553647E0,2.886756306E0
5.459468083E0,-4.874706745E-2,3.268081334E0,-1.296848989E0,3.516326091E0
5.469413083E0,-2.503456146E-2,3.610308341E0,-1.162068622E0,3.792803254E0
5.479359083E0,2.012757808E-3,3.522415334E0,-1.039433799E0,3.672578993E0
5.489304083E0,7.292062640E-3,3.052062383E0,-8.963822526E-1,3.180980841E0
5.499249083E0,-2.931558578E-1,2.340096635E0,-6.537280655E-1,2.447315468E0
5.509195083E0,-7.430862384E-1,1.589403023E0,-4.692954817E-1,1.816209618E0
5.519140083E0,-1.126802310E0,1.067116857E0,-3.818918869E-1,1.598206259E0
5.529086083E0,-1.459105423E0,7.464292377E-1,-3.412686485E-1,1.674099619E0
5.539031083E0,-1.791403858E0,5.053380114E-1,-3.718796995E-1,1.898101367E0
5.548976083E0,-2.022665038E0,2.564618021E-1,-4.965458456E-1,2.098452832E0
5.558922083E0,-2.169578670E0,4.615616620E-2,-6.453504673E-1,2.263996295E0
5.568867083E0,-2.362725505E0,-2.162317890E-1,-6.973898095E-1,2.472969985E0
5.578812083E0,-2.482311737E0,-5.061677313E-1,-6.033771068E-1,2.604254454E0
5.588758083E0,-2.286377972E0,-7.628242457E-1,-2.760882738E-1,2.426035819E0
5.598703083E0,-1.901966081E0,-9.211422873E-1,2.748635745E-1,2.131086125E0
5.608648083E0,-1.549385117E0,-9.600560921E-1,7.202948150E-1,1.959879221E0
5.618594083E0,-1.188415591E0,-9.212229788E-1,9.011550424E-1,1.753015632E0
5.628539083E0,-7.570067047E-1,-7.947892195E-1,1.129456215E0,1.574935045E0
5.638484083E0,-1.075737553E0,-6.183828163E-1,1.309093351E0,1.803700084E0
5.648430083E0,-1.188678277E0,-1.918477303E-1,1.089984440E0,1.624139057E0
5.658375083E0,-9.210412766E-1,4.360765725E-1,9.266535804E-1,1.377376734E0
5.668320083E0,-7.735616340E-1,1.006653138E0,6.282011685E-1,1.416469149E0
5.678266083E0,-9.257199262E-1,1.290011548E0,1.896611640E-1,1.599080527E0
5.688211083E0,-1.006899452E0,1.431491362E0,-2.778117406E-1,1.772059082E0
5.698156083E0,-1.378635895E0,1.380325302E0,-6.262707102E-1,2.048938719E0
5.708102083E0,-2.019393228E0,1.154975365E0,-7.791651669E-1,2.453368187E0
5.718047083E0,-2.539058965E0,9.262966079E-1,-8.403144711E-1,2.830366450E0
5.727992083E0,-2.977339645E0,6.611826807E-1,-6.720313123E-1,3.123033779E0
5.737938083E0,-3.097065771E0,3.233831853E-1,-5.410335088E-1,3.160555383E0
5.747883083E0,-2.989982787E0,9.144460559E-3,-5.319138989E-1,3.036941403E0
5.757828083E0,-2.523978411E0,-1.505967933E-1,-5.878612277E-1,2.595905860E0
5.767774083E0,-1.955793941E0,-1.120203727E-1,-5.814544335E-1,2.043469540E0
5.777719083E0,-1.507208712E0,1.645231068E-1,-4.548724473E-1,1.582926056E0
5.787665083E0,-9.201776429E-1,4.925326091E-1,-3.545734030E-1,1.102287423E0
5.797610083E0,-3.374371143E-1,7.733100575E-1,-2.205967355E-1,8.720866762E-1
5.807555083E0,1.661438088E-1,9.737227893E-1,-3.138493001E-2,9.882939084E-1
5.817501083E0,6.228705543E-1,1.153790719E0,1.895795953E-1,1.324817411E0
5.827446083E0,1.046050508E0,1.235420773E0,8.760356963E-2,1.621160244E0
5.837391083E0,1.243017183E0,1.174245449E0,2.978849396E-2,1.710213860E0
5.847337083E0,1.287363490E0,1.052372518E0,2.888939685E-1,1.687676627E0
5.857282083E0,1.393148538E0,7.667372024E-1,4.239538327E-1,1.645747745E0
5.867227083E0,1.301046413E0,3.595973307E-1,6.470971768E-1,1.496919091E0
5.877173083E0,1.209807630E0,-1.471738333E-1,6.714135540E-1,1.391434798E0
5.887118083E0,1.149894427E0,-5.609999961E-1,6.232289886E-1,1.423162872E0
5.897063083E0,1.088594703E0,-8.740008652E-1,6.559985393E-1,1.542481774E0
5.907009083E0,9.687352605E-1,-1.088225890E0,6.377134189E-1,1.590396805E0
5.916954083E0,9.294479647E-1,-1.189591466E0,4.176125273E-1,1.566333808E0
5.926899083E0,8.222499369E-1,-1.080407578E0,5.009792045E-1,1.447188881E0
5.936845083E0,7.123461100E-1,-8.033302474E-1,7.748177621E-1,1.324054014E0
5.946790083E0,6.768932721E-1,-5.041147739E-1,7.389257982E-1,1.121751997E0
5.956735083E0,5.778795920E-1,-2.784572732E-1,6.461720011E-1,9.105061949E-1
5.966681083E0,5.668520357E-1,-1.580654418E-1,4.586181736E-1,7.460807888E-1
5.976626083E0,5.193913557E-1,-3.063122392E-2,3.223043740E-1,6.120341181E-1
5.986571083E0,4.965538855E-1,9.748068631E-2,2.687631744E-1,5.729763427E-1
5.996517083E0,3.752491575E-1,2.125357640E-1,2.914796072E-1,5.205225669E-1
6.006462083E0,2.431536855E-1,3.405289757E-1,2.666684094E-1,4.961811551E-1
6.016408083E0,3.985783786E-2,5.012244952E-1,3.294906020E-1,6.011478176E-1
6.026353000E0,-2.034665863E-1,6.609248185E-1,4.317779920E-1,8.152622289E-1
6.036298000E0,-3.722732171E-1,8.204772073E-1,4.418840271E-1,1.003509686E0
6.046244000E0,-5.769906691E-1,1.019576070E0,4.062019783E-1,1.239940983E0
6.056189000E0,-7.064361830E-1,1.210754294E0,3.423116456E-1,1.442967534E0
6.066134000E0,-7.472534028E-1,1.315033538E0,2.580854277E-1,1.534375750E0
6.076080000E0,-7.360837591E-1,1.317601050E0,1.957998633E-1,1.521916362E0
6.086025000E0,-6.255950645E-1,1.208073345E0,2.400379966E-1,1.381458878E0
6.095970000E0,-4.919626518E-1,9.743268067E-1,4.606483269E-1,1.184709609E0
6.105916000E0,-3.900182010E-1,6.493765676E-1,7.100974171E-1,1.038288238E0
6.115861000E0,-2.567851532E-1,3.162191767E-1,9.049050079E-1,9.923639735E-1
6.125806000E0,-1.520675142E-1,1.010732156E-1,1.151588073E0,1.165974019E0
6.135752000E0,-2.098083302E-2,7.463386059E-3,1.348659706E0,1.348843541E0
6.145697000E0,1.186514077E-1,1.684933662E-2,1.460983256E0,1.465890218E0
6.155642000E0,2.703848997E-1,4.355123162E-2,1.555104133E0,1.579035645E0
6.165588000E0,4.328910094E-1,1.187563652E-1,1.626736764E0,1.687533762E0
6.175533000E0,5.622434065E-1,2.291868800E-1,1.748129054E0,1.850567335E0
6.185478000E0,6.722383037E-1,4.375582570E-1,1.892708477E0,2.055652438E0
6.195424000E0,7.586769618E-1,6.511804336E-1,1.956941457E0,2.197554676E0
6.205369000E0,8.851232927E-1,7.566197652E-1,1.983045620E0,2.299649244E0
6.215314000E0,1.026049815E0,6.542356038E-1,1.817188910E0,2.187002053E0
6.225260000E0,1.189646722E0,4.109019703E-1,1.567947396E0,2.010611546E0
6.235205000E0,1.331315694E0,1.016883427E-1,1.391636741E0,1.928573259E0
6.245150000E0,1.447699552E0,-1.831102359E-1,1.294766357E0,1.950841683E0
6.255096000E0,1.498031507E0,-3.399927860E-1,1.273614786E0,1.995441834E0
6.265041000E0,1.628768232E0,-4.336786294E-1,1.258779084E0,2.103684361E0
6.274986000E0,1.755817704E0,-4.517570508E-1,1.205773051E0,2.177353644E0
6.284932000E0,1.906847776E0,-3.485308903E-1,1.112011047E0,2.234750722E0
6.294877000E0,1.933680063E0,-2.436926526E-1,1.027974133E0,2.203459896E0
6.304822000E0,1.805103007E0,-3.141703123E-1,9.059738789E-1,2.043988386E0
6.314768000E0,1.727495545E0,-5.747450459E-1,8.893568230E-1,2.026210326E0
6.324713000E0,1.500834955E0,-8.969085020E-1,1.049155380E0,2.039038360E0
6.334659000E0,9.416429177E-1,-1.452026199E0,1.493874722E0,2.286204967E0
6.344604000E0,2.368239284E-1,-2.111244800E0,2.102800836E0,2.989182419E0
6.354549000E0,-2.941301501E-1,-2.356938955E0,2.386891901E0,3.367332287E0
6.364495000E0,-3.773105934E-1,-1.877900550E0,2.086908835E0,2.832677575E0
6.374440000E0,-1.883332613E-1,-7.264855546E-1,1.657763405E0,1.819733548E0
6.384385000E0,3.043010893E-1,7.809664017E-1,1.201968414E0,1.465344922E0
6.394331000E0,7.555155185E-1,2.193298777E0,8.007094523E-1,2.454078005E0
6.404276000E0,1.030998313E0,3.352677096E0,6.835756894E-1,3.573608394E0
6.414221000E0,1.161603184E0,4.256532090E0,7.334548509E-1,4.472733326E0
6.424167000E0,1.213541954E0,4.907780351E0,8.446205069E-1,5.125658577E0
6.434112000E0,1.077135768E0,5.268065899E0,1.014108850E0,5.471851290E0
6.444057000E0,6.795215955E-1,5.187758485E0,1.101216649E0,5.346706071E0
6.454003000E0,2.271938565E-1,4.634929973E0,1.152662645E0,4.781508556E0
6.463948000E0,-1.558875002E-1,3.471241087E0,6.626976943E-1,3.537369621E0
6.473893000E0,-8.490505037E-1,1.902826061E0,2.067411733E-1,2.093890085E0
6.483839000E0,-1.735451998E0,1.330194783E-1,4.472802763E-1,1.797094172E0
6.493784000E0,-1.710321980E0,-1.876631704E0,1.243731421E0,2.827333669E0
6.503729000E0,-1.620204547E0,-4.004103697E0,1.292086140E0,4.508591330E0
6.513675000E0,-2.009855396E0,-5.857221408E0,1.159101745E0,6.300006206E0
6.523620000E0,-1.985706396E0,-7.224099868E0,9.189764786E-1,7.548189621E0
6.533565000E0,-1.450564249E0,-7.468991784E0,6.983271182E-1,7.640525877E0
6.543511000E0,-4.181779531E-1,-6.392891850E0,6.896711925E-1,6.443569303E0
6.553456000E0,1.560651094E-2,-5.251145811E0,-1.319842288E-1,5.252827403E0
6.563401000E0,5.099999964E-1,-4.443578671E0,-5.848268151E-1,4.510821855E0
6.573347000E0,5.961704135E-1,-3.924741193E0,-1.069538773E0,4.111316794E0
6.583292000E0,5.762879799E-1,-3.460877482E0,-1.735133763E0,3.914137192E0
6.593237000E0,6.155722059E-1,-3.004999314E0,-2.259713207E0,3.809888948E0
6.603183000E0,5.968289562E-1,-2.691458162E0,-2.737224611E0,3.884913180E0
6.613128000E0,4.765314111E-1,-2.606204588E0,-3.154447714E0,4.119456872E0
6.623073000E0,1.626679315E-1,-2.653822559E0,-3.544544706E0,4.430917761E0
6.633019000E0,-3.371159559E-1,-2.697359757E0,-3.935788922E0,4.783286659E0
6.642964000E0,-1.024679520E0,-2.545921549E0,-4.477734597E0,5.251836990E0
6.652909000E0,-1.460618390E0,-2.049899907E0,-5.802316638E0,6.324743004E0
6.662855000E0,-1.412347140E0,-1.204645708E0,-7.352873683E0,7.583577462E0
6.672800000E0,-1.651287322E0,-3.216050470E-1,-6.971901855E0,7.172000774E0
6.682745000E0,-1.915608366E0,2.654080421E-1,-5.535426911E0,5.863526919E0
6.692691000E0,-2.112975430E0,7.874989110E-1,-3.997903894E0,4.589995125E0
6.702636000E0,-2.284929909E0,1.380840442E0,-2.754144992E0,3.835744993E0
6.712581000E0,-2.532360102E0,2.011355646E0,-2.017302264E0,3.811549245E0
6.722527000E0,-2.749941428E0,2.672000967E0,-1.406331378E0,4.084058640E0
6.732472000E0,-2.815352768E0,3.207725204E0,-6.998181581E-1,4.324980653E0
6.742417000E0,-2.578081235E0,3.565419851E0,-5.359674811E-2,4.400181153E0
6.752363000E0,-2.269654351E0,3.564930439E0,3.132002592E-1,4.237706256E0
6.762308000E0,-2.240206895E0,2.948160285E0,4.750283843E-1,3.733072189E0
6.772254000E0,-2.198240990E0,2.180863504E0,6.749867874E-1,3.169232752E0
6.782199000E0,-1.978346798E0,1.470287638E0,8.930037314E-1,2.621651666E0
6.792144000E0,-1.453711220E0,8.588595003E-1,8.318389320E-1,1.882251833E0
6.802090000E0,-7.312480386E-1,3.766793865E-1,5.143035471E-1,9.701129794E-1
6.812035000E0,2.295178324E-2,-4.626141608E-2,2.444136143E-4,5.164264429E-2
6.821980000E0,4.731026039E-1,-5.926843035E-1,-9.790344000E-2,7.646475273E-1
6.831926000E0,1.085367625E0,-1.118802150E0,3.027314043E-1,1.587887727E0
6.841871000E0,1.819694149E0,-1.409574829E0,1.837195158E-3,2.301780044E0
6.851816000E0,2.593891522E0,-1.757402299E0,-6.504606414E-1,3.199974236E0
6.861762000E0,3.052648274E0,-1.913118914E0,-7.289139032E-1,3.675595319E0
6.871707000E0,3.002544653E0,-1.669687048E0,-4.455022842E-1,3.464332766E0
6.881652000E0,2.662412118E0,-9.593129110E-1,2.921736717E-2,2.830118938E0
6.891598000E0,2.463074397E0,-1.599055606E-1,-2.592363060E-1,2.481835759E0
6.901543000E0,2.111913868E0,3.767056990E-1,-7.849115181E-1,2.284332169E0
6.911488000E0,1.402465784E0,6.106101125E-1,-1.085211065E0,1.875483415E0
6.921434000E0,8.486818367E-1,6.236043799E-1,-1.288405902E0,1.664071228E0
6.931379000E0,3.728619587E-1,4.666376299E-1,-1.394408321E0,1.516954608E0
6.941324000E0,-1.216585576E-1,8.829880357E-2,-1.484409834E0,1.492002023E0
6.951270000E0,-2.649341983E-1,-3.342636842E-1,-1.523402576E0,1.581985382E0
6.961215000E0,-1.924780601E-1,-6.562096238E-1,-1.359115112E0,1.521464019E0
6.971160000E0,-1.196220455E-1,-8.928674912E-1,-1.158931006E0,1.467870181E0
6.981106000E0,4.464911945E-2,-9.959638435E-1,-9.358380944E-1,1.367380876E0
6.991051000E0,3.333718376E-1,-9.767025304E-1,-6.868958116E-1,1.239721933E0
7.000996000E0,7.004996511E-1,-8.554850721E-1,-4.608798766E-1,1.197900134E0
7.010942000E0,1.204990693E0,-7.121411651E-1,-1.629958141E-1,1.409154089E0
7.020887000E0,1.804092608E0,-5.752321190E-1,2.558805889E-1,1.910789629E0
7.030831833E0,2.241656713E0,-5.900717676E-1,6.959876472E-1,2.420249639E0
7.040777833E0,2.433891675E0,-7.430355138E-1,1.086644218E0,2.767078986E0
7.050722833E0,2.571541709E0,-8.475755435E-1,1.321881212E0,3.013068370E0
7.060667833E0,2.846904928E0,-7.845197546E-1,1.456771215E0,3.292798398E0
7.070613833E0,2.855901162E0,-6.422628450E-1,1.411295957E0,3.249681413E0
7.080558833E0,2.488342263E0,-3.329837286E-1,1.137806185E0,2.756325143E0
7.090503833E0,2.190981672E0,7.707858145E-2,8.379098037E-1,2.347005461E0
7.100449833E0,1.727287238E0,1.877347988E-1,4.904217643E-1,1.805347353E0
7.110394833E0,1.108658985E0,-2.008319771E-1,2.788578075E-1,1.160698025E0
7.120339833E0,5.522893989E-1,-8.408091456E-1,3.471199572E-1,1.064178493E0
7.130285833E0,2.371440634E-1,-1.604886450E0,5.429940802E-1,1.710771871E0
7.140230833E0,4.302913374E-1,-2.331932752E0,7.401680392E-1,2.484131583E0
7.150175833E0,1.033634969E0,-3.131399744E0,8.856546584E-1,3.414447214E0
7.160121833E0,1.790264382E0,-4.124005532E0,1.137155975E0,4.637412198E0
7.170066833E0,2.035814256E0,-5.261194836E0,1.554022690E0,5.851469671E0
7.180011833E0,1.084776471E0,-6.073600547E0,1.915637018E0,6.460265380E0
7.189957833E0,-5.523333992E-1,-5.526490027E0,1.985241103E0,5.898164667E0
7.199902833E0,-1.323844853E0,-3.642952176E0,1.577589600E0,4.184788489E0
7.209847833E0,-1.488725517E0,-1.487535170E0,1.009037925E0,2.333928466E0
7.219793833E0,-1.792843296E0,4.672638667E-1,4.932620493E-1,1.917271513E0
7.229738833E0,-1.960610731E0,2.181657556E0,1.212887943E-2,2.933218580E0
7.239683833E0,-1.983168119E0,3.514579480E0,-4.334695914E-1,4.058709228E0
7.249629833E0,-1.864539370E0,4.318155311E0,-8.847158879E-1,4.785989401E0
7.259574833E0,-1.539675523E0,4.413663731E0,-1.414770957E0,4.883912889E0
7.269519833E0,-1.327064038E0,3.857257892E0,-1.781610941E0,4.451255436E0
7.279465833E0,-1.505383065E0,2.821517780E0,-1.778581207E0,3.659302101E0
7.289410833E0,-1.921184125E0,1.647376412E0,-1.598489596E0,2.993320309E0
7.299355833E0,-2.335841616E0,6.755814493E-1,-1.423471029E0,2.817594030E0
7.309301833E0,-2.670143307E0,3.818699598E-2,-1.125655233E0,2.897968811E0
7.319246833E0,-2.791738495E0,-1.713853991E-1,-7.883549434E-1,2.905973210E0
7.329191833E0,-2.549590385E0,5.968253016E-2,-5.462141418E-1,2.608126343E0
7.339137833E0,-1.981900443E0,7.685515934E-1,-5.127139816E-1,2.186658763E0
7.349082833E0,-1.472247040E0,1.685464590E0,-6.281359720E-1,2.324404661E0
7.359027833E0,-1.091993251E0,2.359801167E0,-5.832191232E-1,2.664818071E0
7.368973833E0,-6.804803927E-1,2.622437629E0,-3.148392338E-1,2.727518364E0
7.378918833E0,-4.488951311E-2,2.441537640E0,1.523034494E-1,2.446695211E0
7.388863833E0,4.311115555E-1,1.759397954E0,5.924460295E-1,1.905867422E0
7.398809833E0,7.022557162E-1,8.889826012E-1,6.485231665E-1,1.305387090E0
7.408754833E0,2.734101029E-1,3.287538528E-2,6.378686625E-1,6.947735645E-1
7.418699833E0,-2.646265617E-1,-6.903135091E-1,2.434131557E-1,7.783379230E-1
7.428645833E0,-5.017827581E-1,-1.142474602E0,2.152959421E-1,1.266248987E0
7.438590833E0,-7.420180982E-1,-1.246408861E0,5.053090677E-1,1.536054413E0
7.448535833E0,-1.106968847E0,-1.185970286E0,7.522232437E-1,1.788224079E0
7.458481833E0,-1.412346555E0,-9.585708994E-1,1.026653978E0,1.991883368E0
7.468426833E0,-1.772001335E0,-6.277974182E-1,1.240666310E0,2.252414532E0
7.478371833E0,-2.063249977E0,-2.838063061E-1,1.098749124E0,2.354739078E0
7.488317833E0,-1.929089268E0,6.645536005E-2,6.650824812E-1,2.041601437E0
7.498262833E0,-1.472688213E0,3.067841095E-1,1.381363767E-1,1.510631894E0
7.508207833E0,-1.041324935E0,3.433151740E-1,-2.826649296E-1,1.132308434E0
7.518153833E0,-8.421763708E-1,1.542016017E-1,-5.233208308E-1,1.003445995E0
7.528098833E0,-7.784196469E-1,-1.136488223E-1,-6.117935890E-1,9.965664037E-1
7.538043833E0,-7.646403909E-1,-2.148378128E-1,-4.945610082E-1,9.356392489E-1
7.547989833E0,-8.045232256E-1,-6.414278626E-2,-3.051957133E-1,8.628536034E-1
7.557934833E0,-9.383313471E-1,1.143007869E-1,-1.047420511E-1,9.510527241E-1
7.567879833E0,-1.099059757E0,2.783432525E-1,2.296362385E-2,1.133990584E0
7.577825833E0,-1.178295669E0,4.542257452E-1,5.093027160E-2,1.263841605E0
7.587770833E0,-1.147057065E0,6.534017909E-1,-1.013714236E-1,1.323990173E0
7.597715833E0,-1.037029131E0,7.909481835E-1,-3.460724285E-1,1.349368213E0
7.607661833E0,-7.985285139E-1,8.740493971E-1,-8.006501761E-1,1.429213364E0
7.617606833E0,-7.238360350E-1,9.416449642E-1,-7.428399244E-1,1.400872941E0
7.627551833E0,-3.897512756E-1,1.046552199E0,-6.526814139E-1,1.293510955E0
7.637497833E0,4.817871809E-2,1.128141907E0,-8.420984566E-1,1.408600427E0
7.647442833E0,2.452278391E-1,1.131145037E0,-7.230263418E-1,1.364695160E0
7.657387833E0,3.637872992E-1,1.005505915E0,-4.746401292E-1,1.169900250E0
7.667333833E0,4.542314462E-1,7.757237881E-1,-1.602727658E-1,9.131051208E-1
7.677278833E0,6.117028110E-1,4.867543906E-1,2.758742657E-1,8.289853896E-1
7.687223833E0,7.764656536E-1,1.590495282E-1,7.401902586E-1,1.084470969E0
7.697169833E0,7.834456211E-1,-1.181465006E-1,1.206841337E0,1.443679899E0
7.707114833E0,6.779162425E-1,-3.586910123E-1,1.679753614E0,1.846564886E0
7.717059833E0,6.163818991E-1,-5.547610170E-1,2.031822655E0,2.194536336E0
7.727005833E0,6.136278605E-1,-6.973307526E-1,2.161954778E0,2.353052866E0
7.736950833E0,7.016173464E-1,-7.602929860E-1,2.123128096E0,2.361775866E0
7.746895833E0,7.903741331E-1,-7.537645698E-1,1.986585671E0,2.267018951E0
7.756841833E0,8.672148791E-1,-6.464886278E-1,1.844474357E0,2.138245740E0
7.766786833E0,9.674003412E-1,-4.353257900E-1,1.724681134E0,2.024820233E0
7.776731833E0,1.073395012E0,-1.373136735E-1,1.453311417E0,1.811945356E0
7.786677833E0,1.149709655E0,2.256206632E-1,1.118840742E0,1.620043697E0
7.796622833E0,1.139064360E0,5.621121365E-1,8.850190660E-1,1.548126745E0
7.806567833E0,1.164216012E0,7.622623283E-1,5.905041692E-1,1.511667276E0
7.816513833E0,1.127405889E0,7.961720860E-1,2.992499721E-1,1.412262219E0
7.826458833E0,8.745950885E-1,6.371149564E-1,1.844239591E-1,1.097653968E0
7.836403833E0,4.257419112E-1,3.182768118E-1,9.089189753E-2,5.392751069E-1
7.846349833E0,-8.977142483E-2,-7.987647414E-2,2.586954385E-2,1.229162037E-1
7.856294833E0,-5.882993303E-1,-3.468118089E-1,6.581275105E-2,6.860800617E-1
7.866239833E0,-1.043605202E0,-3.794223154E-1,1.500492015E-1,1.120530176E0
7.876185833E0,-1.290643486E0,-1.751334643E-1,7.351002574E-2,1.304544388E0
7.886130833E0,-1.509957488E0,3.043832427E-1,2.459631264E-2,1.540527752E0
7.896075833E0,-1.583842905E0,8.555692720E-1,2.001256335E-1,1.811244709E0
7.906021833E0,-1.400280241E0,1.261808088E0,4.861562204E-1,1.946610458E0
7.915966833E0,-1.149744007E0,1.412374476E0,8.998736250E-1,2.031375269E0
7.925911833E0,-9.488082419E-1,1.415802113E0,1.438906217E0,2.230512005E0
7.935857833E0,-7.555760372E-1,1.276471735E0,1.856768128E0,2.376523326E0
7.945802833E0,-4.789366633E-1,1.053385255E0,2.071148103E0,2.372478723E0
7.955747833E0,-7.143353328E-2,7.360393202E-1,2.098885540E0,2.225348769E0
7.965693833E0,4.280926381E-1,3.323878974E-1,1.841533207E0,1.919632667E0
7.975638833E0,1.000876966E0,1.260074973E-2,1.525924334E0,1.824926999E0
7.985583833E0,1.485276976E0,-1.601926589E-1,1.328593085E0,1.999217088E0
7.995529833E0,1.908959351E0,-3.003948569E-1,1.316752034E0,2.338418011E0
8.005474833E0,2.261262719E0,-4.401164138E-1,1.551071016E0,2.777198739E0
8.015419833E0,2.586660270E0,-5.484314060E-1,1.861423096E0,3.233648760E0
8.025366458E0,2.852908265E0,-4.983383095E-1,1.998633274E0,3.518801160E0
8.035311458E0,3.000498712E0,-4.288874209E-1,1.901529733E0,3.578093384E0
8.045256458E0,2.877237360E0,-4.353766608E-1,1.729781222E0,3.385290347E0
8.055202458E0,2.636098478E0,-5.217967540E-1,1.529514086E0,3.092038224E0
8.065147458E0,2.315883899E0,-5.512632126E-1,1.261849603E0,2.694341067E0
8.075092458E0,2.137546161E0,-7.661402017E-1,9.236636066E-1,2.451372851E0
8.085037458E0,1.916697703E0,-1.244768132E0,6.482486397E-1,2.375584998E0
8.094983458E0,1.459254819E0,-1.724697652E0,4.920642471E-1,2.312170808E0
8.104928458E0,9.207163176E-1,-1.860710905E0,4.324004281E-1,2.120597496E0
8.114873458E0,4.669506021E-1,-1.347890212E0,5.054673810E-1,1.513389626E0
8.124819458E0,2.054264268E-1,-2.564606327E-1,5.634378465E-1,6.522532329E-1
8.134764458E0,1.988924557E-1,9.759289438E-1,5.904441621E-1,1.157851381E0
8.144709458E0,2.130226909E-1,2.063211093E0,6.273442590E-1,2.166974735E0
8.154655458E0,1.412057264E-1,3.037768865E0,6.545109346E-1,3.110685342E0
8.164600458E0,1.067178252E-1,3.834336222E0,8.687350090E-1,3.932966244E0
8.174545458E0,3.261367853E-1,4.342078024E0,9.558249738E-1,4.457982520E0
8.184491458E0,1.548452340E-1,4.637520289E0,9.162282141E-1,4.729698259E0
8.194436458E0,-8.687237531E-2,4.701031576E0,1.041102594E0,4.815717943E0
8.204381458E0,-2.349988662E-1,4.329376118E0,1.155248430E0,4.487016934E0
8.214327458E0,5.283310175E-2,3.456918333E0,1.006245587E0,3.600778510E0
8.224272458E0,3.279571697E-1,2.123578917E0,8.476509726E-1,2.309903784E0
8.234217458E0,-4.006509241E-1,4.880460405E-1,6.178523277E-1,8.834317175E-1
8.244163458E0,-1.094634000E0,-1.370527707E0,3.515613560E-1,1.788900550E0
8.254108458E0,-1.317334271E0,-3.372045997E0,8.355478209E-1,3.715400914E0
8.264053458E0,-1.748844314E0,-4.993492346E0,1.205786938E0,5.426540739E0
8.273999458E0,-1.751214775E0,-6.065277035E0,1.976123248E0,6.615088948E0
8.283944458E0,-6.632832929E-1,-6.271701289E0,2.212884026E0,6.683639540E0
8.293889458E0,-1.837344262E-1,-5.597586322E0,1.631432809E0,5.833378436E0
8.303835458E0,-6.413109183E-2,-4.598131106E0,7.967866284E-1,4.667096677E0
8.313780458E0,-2.599685235E-1,-3.675642205E0,-1.806497276E-3,3.684824625E0
8.323725458E0,-5.586017606E-1,-2.934771915E0,-8.221155971E-1,3.098515157E0
8.333671458E0,-7.271005355E-1,-2.399494990E0,-1.577286715E0,2.962108164E0
8.343616458E0,-8.914922261E-1,-2.089427084E0,-2.383719787E0,3.292807913E0
8.353561458E0,-1.224747119E0,-1.955021231E0,-3.064816330E0,3.836041274E0
8.363507458E0,-1.689290130E0,-1.952114580E0,-3.440061979E0,4.300985806E0
8.373452458E0,-2.098071462E0,-1.963763988E0,-3.587066828E0,4.596229029E0
8.383397458E0,-2.336815177E0,-1.891729800E0,-3.667321617E0,4.742214108E0
8.393343458E0,-2.165632238E0,-1.728933375E0,-3.806575104E0,4.708416680E0
8.403288458E0,-1.745229127E0,-1.562209961E0,-4.123617861E0,4.742420156E0
8.413233458E0,-1.132531412E0,-1.354387638E0,-4.417960265E0,4.757663941E0
8.423179458E0,-4.195785074E-1,-1.009896589E0,-4.435502497E0,4.568327883E0
8.433124458E0,2.420763360E-1,-5.467327899E-1,-4.357971341E0,4.398798916E0
8.443069458E0,6.127284126E-1,-3.039675057E-2,-4.220605043E0,4.264958030E0
8.453015458E0,7.223248221E-1,4.361625266E-1,-4.078614181E0,4.164983138E0
8.462960458E0,6.804332495E-1,8.567182499E-1,-3.931514608E0,4.080902189E0
8.472905458E0,3.954467560E-1,1.206034421E0,-3.636779855E0,3.851891078E0
8.482851458E0,-3.264164284E-2,1.448548275E0,-3.071840006E0,3.396403775E0
8.492796458E0,-5.949354815E-1,1.496086138E0,-2.436865715E0,2.920708214E0
8.502741458E0,-1.202495248E0,1.335721571E0,-1.840888259E0,2.572744939E0
8.512687458E0,-1.620773188E0,1.086052480E0,-1.330952582E0,2.361747339E0
8.522632458E0,-1.849693581E0,8.042845130E-1,-8.723537046E-1,2.197553392E0
8.532577458E0,-1.951519041E0,5.948045039E-1,-4.699921775E-1,2.093588215E0
8.542522458E0,-1.999224281E0,4.279851955E-1,-5.900717676E-2,2.045373047E0
8.552468458E0,-2.070907052E0,2.973069423E-1,2.610793483E-1,2.108366634E0
8.562413458E0,-1.963018614E0,2.840811253E-1,6.273091757E-1,2.080303095E0
8.572358458E0,-1.630191152E0,6.101896977E-1,1.605456553E0,2.367983405E0
8.582304458E0,-1.214577934E0,6.525247085E-1,1.407352302E0,1.970184904E0
8.592249458E0,-3.842357433E-1,2.759762996E-1,7.801594859E-1,9.123863479E-1
8.602194458E0,9.758842126E-2,-6.223893285E-2,9.062248707E-2,1.470021084E-1
8.612140458E0,6.415104546E-1,-1.635296649E-1,-1.426527661E-1,6.772203676E-1
8.622085458E0,1.206614757E0,-1.066608149E-1,4.239582181E-2,1.212061512E0
8.632030458E0,1.589272483E0,-8.481678665E-2,9.957457423E-2,1.594646045E0
8.641976458E0,2.022959153E0,1.973435283E-3,1.708702594E-1,2.030163608E0
8.651921458E0,2.673390266E0,1.434462333E-1,3.308266908E-1,2.697598679E0
8.661866458E0,3.115866908E0,2.124223280E-1,2.543278608E-1,3.133437808E0
8.671812458E0,3.443868517E0,3.240462595E-1,2.728293282E-1,3.469823076E0
8.681757458E0,3.694797683E0,3.846976733E-1,4.940102005E-1,3.747474923E0
8.691702458E0,3.628746951E0,2.118206495E-1,6.395883286E-1,3.690764914E0
8.701648458E0,3.322114869E0,-1.480322045E-1,7.040494958E-1,3.399124362E0
8.711593458E0,2.660848573E0,-6.457062703E-1,6.504109401E-1,2.814264754E0
8.721538458E0,2.235701177E0,-9.053606522E-1,7.084264290E-1,2.513942257E0
8.731484458E0,1.891379113E0,-8.477416044E-1,9.227353612E-1,2.268792922E0
8.741429458E0,1.400936152E0,-6.605231148E-1,1.142114414E0,1.924405940E0
8.751374458E0,1.068089249E0,-3.397056878E-1,1.245009622E0,1.675190603E0
8.761320458E0,9.171981941E-1,9.173755109E-2,1.183066558E0,1.499771578E0
8.771265458E0,8.000875278E-1,5.782791030E-1,8.167656872E-1,1.281270058E0
8.781210458E0,6.022408466E-1,9.491124433E-1,2.532008100E-1,1.152223554E0
8.791156458E0,6.527407631E-1,1.020041508E0,-2.672692108E-1,1.240156447E0
8.801101458E0,7.549306507E-1,6.607230896E-1,-6.273585847E-1,1.183238810E0
8.811046458E0,5.046648507E-1,-1.889124280E-1,-8.848480350E-1,1.036016680E0
8.820992458E0,1.815494679E-1,-1.323623682E0,-9.201020676E-1,1.622198408E0
8.830937458E0,8.207254216E-2,-2.536619214E0,-6.895697433E-1,2.629958055E0
8.840882458E0,3.913873266E-1,-3.674279804E0,-4.448740008E-1,3.721750797E0
8.850828458E0,1.327194284E0,-4.528658583E0,-1.048891085E-1,4.720296066E0
8.860773458E0,2.527801028E0,-5.214204272E0,2.819389978E-1,5.801482037E0
8.870718458E0,3.442623644E0,-5.793676792E0,7.260323954E-1,6.778308887E0
8.880664458E0,3.210738274E0,-6.007860301E0,1.085835548E0,6.897989889E0
8.890609458E0,1.756372020E0,-5.217674010E0,1.011737292E0,5.597550991E0
8.900554458E0,4.982308669E-1,-3.402045137E0,5.804235694E-1,3.486981020E0
8.910499458E0,-2.877208708E-1,-1.401968186E0,1.487490731E-1,1.438896932E0
8.920445458E0,-9.414280325E-1,3.275516653E-1,-1.535958302E-1,1.008547725E0
8.930390458E0,-1.384423615E0,1.836047934E0,-3.289707845E-1,2.322912513E0
8.940335458E0,-1.685492364E0,2.978488623E0,-4.474131542E-1,3.451442817E0
8.950281458E0,-1.835564954E0,3.533366584E0,-6.526673806E-1,4.034842355E0
8.960226458E0,-1.799651940E0,3.457314774E0,-8.715596527E-1,3.993918975E0
8.970171458E0,-1.873591737E0,2.966346880E0,-9.714891529E-1,3.640515208E0
8.980117458E0,-2.017922800E0,2.222316170E0,-1.059977699E0,3.183434357E0
8.990062458E0,-2.108447346E0,1.441384851E0,-1.146144900E0,2.799426483E0
9.000007458E0,-2.115680206E0,7.898138237E-1,-1.216083154E0,2.564910689E0
9.009953458E0,-2.036684614E0,2.939535642E-1,-1.148536119E0,2.356613700E0
9.019898458E0,-1.876775838E0,7.490341723E-2,-9.923084566E-1,2.124282029E0
9.029842625E0,-1.598992164E0,1.276295149E-1,-7.294249499E-1,1.762136768E0
9.039788625E0,-1.235170951E0,3.793199891E-1,-5.096199274E-1,1.388972067E0
9.049733625E0,-1.013073820E0,7.614998513E-1,-2.485423332E-1,1.291500631E0
9.059678625E0,-1.037580524E0,9.807868105E-1,1.228409377E-1,1.433040825E0
9.069624625E0,-1.232341629E0,8.197322720E-1,4.829430293E-1,1.556875351E0
9.079569625E0,-1.625197630E0,2.686906689E-1,6.795970246E-1,1.781941113E0
9.089514625E0,-2.143975028E0,-4.866275060E-1,6.493414843E-1,2.292396042E0
9.099460625E0,-2.313400002E0,-9.524225521E-1,9.344008487E-1,2.670586683E0
9.109405625E0,-2.357690468E0,-1.016935467E0,1.068264957E0,2.781016380E0
9.119350625E0,-2.170100388E0,-7.681756175E-1,6.665200192E-1,2.396597256E0
9.129296625E0,-2.067749994E0,-3.033821994E-1,3.998032241E-1,2.127786036E0
9.139241625E0,-2.181065525E0,1.193475187E-1,2.098554003E-1,2.194386006E0
9.149186625E0,-2.268478768E0,5.203215015E-1,4.790565312E-2,2.327880009E0
9.159131625E0,-2.315885653E0,8.593822414E-1,1.403729367E-1,2.474180422E0
9.169077625E0,-2.470576082E0,9.725527614E-1,3.512906300E-1,2.678247591E0
9.179022625E0,-2.699199876E0,1.002277667E0,4.717925352E-1,2.917675219E0
9.188967625E0,-2.937592904E0,9.830186927E-1,4.471399431E-1,3.129810210E0
9.198913625E0,-3.085651129E0,9.558648080E-1,1.916363534E-1,3.235992106E0
9.208858625E0,-3.156364139E0,9.180298144E-1,-5.942496032E-2,3.287695948E0
9.218803625E0,-3.154973379E0,8.349227536E-1,-2.891718574E-1,3.276365881E0
9.228749625E0,-2.960783546E0,7.246255553E-1,-5.755151242E-1,3.102021770E0
9.238694625E0,-2.501699057E0,6.888236386E-1,-8.631000473E-1,2.734578189E0
9.248639625E0,-1.850465560E0,7.393757415E-1,-1.026146586E0,2.241400476E0
9.258585625E0,-1.200707608E0,8.021783459E-1,-9.509551933E-1,1.729018403E0
9.268530625E0,-6.066918933E-1,8.421744704E-1,-6.369696531E-1,1.217810835E0
9.278475625E0,-3.542506367E-2,8.079904783E-1,9.225766093E-2,8.140116855E-1
9.288421625E0,6.858460902E-1,7.932227504E-1,4.678406945E-1,1.148243052E0
9.298366625E0,1.299743946E0,7.869650602E-1,6.794147377E-1,1.664407617E0
9.308311625E0,1.729831654E0,7.237145591E-1,9.853447151E-1,2.118250344E0
9.318257625E0,1.946895356E0,6.031274307E-1,1.400474076E0,2.472952054E0
9.328202625E0,1.969371175E0,4.410443670E-1,1.927221521E0,2.790542197E0
9.338147625E0,2.049354946E0,2.819831443E-1,1.969475841E0,2.856257214E0
9.348093625E0,2.160511685E0,1.031793827E-1,1.698800334E0,2.750341670E0
9.358038625E0,2.119692126E0,-7.671137631E-2,1.473250276E0,2.582527003E0
9.367983625E0,1.893079629E0,-1.934814423E-1,1.148353101E0,2.222588670E0
9.377929625E0,1.637988561E0,-3.535589111E-1,7.701879367E-1,1.844234228E0
9.387874625E0,1.388141860E0,-4.674310970E-1,4.459051573E-1,1.531097993E0
9.397819625E0,1.142463054E0,-5.348196727E-1,2.896931367E-1,1.294285914E0
9.407764625E0,1.020350095E0,-4.824268663E-1,3.248865044E-1,1.174479135E0
9.417710625E0,8.592800613E-1,-3.379567856E-1,3.465995550E-1,9.862597346E-1
9.427655625E0,7.385058220E-1,-9.805254400E-2,4.252846590E-1,8.578299316E-1
9.437600625E0,6.916216774E-1,4.299691558E-2,5.017139071E-1,8.555151220E-1
9.447546625E0,6.921110894E-1,8.511791825E-2,4.876490146E-1,8.509197268E-1
9.457491625E0,6.320948294E-1,6.051926672E-2,4.104299538E-1,7.560814784E-1
9.467436625E0,4.840709572E-1,6.191031933E-2,3.119410613E-1,5.791932363E-1
9.477382625E0,3.277015002E-1,9.733392119E-2,1.156228423E-1,3.608750575E-1
9.487327625E0,1.653608666E-1,1.858438092E-1,-5.472438365E-2,2.547094341E-1
9.497272625E0,-1.476626605E-2,3.040739250E-1,-1.587793869E-1,3.433509694E-1
9.507218625E0,-2.758304116E-1,3.434455669E-1,-2.597420901E-1,5.113738620E-1
9.517163625E0,-5.806654979E-1,3.090528291E-1,-3.086851855E-1,7.266172413E-1
9.527108625E0,-8.242928079E-1,2.560571748E-1,-2.762271452E-1,9.062700181E-1
9.537054625E0,-1.022538415E0,1.955724066E-1,-1.205906367E-1,1.048034102E0
9.546999625E0,-1.094755476E0,1.757807511E-1,1.867530513E-1,1.124395449E0
9.556944625E0,-1.093228621E0,2.425512761E-1,6.173712480E-1,1.278720923E0
9.566890625E0,-9.137012668E-1,3.016987860E-1,1.068445636E0,1.437862386E0
9.576835625E0,-8.107050481E-1,3.492986298E-1,1.520074048E0,1.757804688E0
9.586780625E0,-8.202804485E-1,4.019814581E-1,1.966772673E0,2.168558012E0
9.596725625E0,-6.823725517E-1,4.305439371E-1,2.266053050E0,2.405409904E0
9.606671625E0,-4.590754259E-1,4.124520671E-1,2.498077292E0,2.573180349E0
9.616616625E0,-2.466219614E-1,3.831978625E-1,2.655825230E0,2.694637387E0
9.626561625E0,9.173535839E-2,5.674114680E-1,2.629014577E0,2.691112929E0
9.636507625E0,4.496235479E-1,9.345388430E-1,2.468662874E0,2.677652062E0
9.646452625E0,7.526813731E-1,1.174244279E0,2.271755255E0,2.665755206E0
9.656397625E0,1.148819562E0,1.055531183E0,1.864434412E0,2.431059058E0
9.666343625E0,1.626444257E0,7.836625528E-1,1.457590410E0,2.320348620E0
9.676288625E0,2.004682072E0,4.415296859E-1,1.500606036E0,2.542738121E0
9.686233625E0,2.305686063E0,8.607452273E-2,1.805699277E0,2.929871486E0
9.696179625E0,2.481960027E0,-2.184917378E-1,2.079782102E0,3.245513489E0
9.706124625E0,2.518938988E0,-3.654819685E-1,2.157253616E0,3.336521221E0
9.716069625E0,2.606273293E0,-4.571704030E-1,2.050170048E0,3.347366499E0
9.726015625E0,2.674933931E0,-5.879217464E-1,1.858395993E0,3.309767239E0
9.735960625E0,2.650393167E0,-7.993664199E-1,1.746424152E0,3.273158708E0
9.745905625E0,2.502115379E0,-1.013435324E0,1.682574896E0,3.180988966E0
9.755851625E0,2.294212218E0,-1.209319387E0,1.551931726E0,3.022309574E0
9.765796625E0,2.101873614E0,-1.295786258E0,1.473131139E0,2.875247827E0
9.775741625E0,1.809523064E0,-1.110801405E0,1.371903557E0,2.527918679E0
9.785687625E0,1.415977822E0,-4.948995620E-1,1.275061972E0,1.968680218E0
9.795632625E0,1.078364268E0,4.436241585E-1,1.188309830E0,1.664857994E0
9.805577625E0,8.593515435E-1,1.475706253E0,1.038808658E0,1.998829020E0
9.815522625E0,7.612662551E-1,2.450776241E0,9.133333308E-1,2.723969212E0
9.825468625E0,6.008204117E-1,3.253041710E0,9.119778731E-1,3.431467496E0
9.835413625E0,3.796038714E-1,3.863640713E0,1.002930728E0,4.009699328E0
9.845358625E0,1.123630196E-2,4.225823683E0,1.170240837E0,4.384880348E0
9.855304625E0,-4.649372596E-1,4.352016537E0,1.408654038E0,4.597882207E0
9.865249625E0,-5.715999748E-1,4.136924370E0,1.549156637E0,4.454296360E0
9.875194625E0,-6.390052150E-1,3.427455382E0,1.892147437E0,3.966862738E0
9.885140625E0,-1.206923929E0,2.355829738E0,2.047136951E0,3.346246975E0
9.895085625E0,-1.962786918E0,8.867214829E-1,2.049330972E0,2.972972403E0
9.905030625E0,-2.591787109E0,-9.366444254E-1,2.114635454E0,3.473664679E0
9.914976625E0,-3.144114222E0,-2.864372608E0,2.403874555E0,4.885560107E0
9.924921625E0,-3.783708106E0,-5.001011281E0,2.620860927E0,6.796725157E0
9.934866625E0,-3.870793612E0,-6.943915912E0,2.499510152E0,8.333580406E0
9.944812625E0,-2.758955496E0,-7.689080982E0,1.864686719E0,8.379191986E0
9.954757625E0,-1.195027330E0,-6.977269599E0,1.171475623E0,7.175147143E0
9.964702625E0,-7.234569892E-2,-5.573616246E0,5.611736584E-1,5.602262742E0
9.974647625E0,5.332803932E-1,-4.598158003E0,-3.084610909E-2,4.629081602E0
9.984593625E0,7.883170827E-1,-4.258416647E0,-7.583236438E-1,4.396659063E0
9.994538625E0,9.435254288E-1,-4.313497419E0,-1.593958588E0,4.694380065E0
1.000448362E1,6.738475306E-1,-4.588377950E0,-2.376375977E0,5.210992755E0
1.001442963E1,7.979033004E-1,-4.797196054E0,-2.943256225E0,5.684408225E0
1.002437462E1,1.069012378E0,-4.788399503E0,-4.084839712E0,6.384157951E0
1.003432021E1,1.645090589E0,-4.425272208E0,-5.867631206E0,7.531165456E0
1.004426621E1,1.660315861E0,-3.677552490E0,-8.277786840E0,9.208843361E0
1.005421121E1,1.287527212E0,-2.413014337E0,-1.349285124E1,1.376725822E1
1.006415621E1,1.460775826E0,-1.508237822E0,-1.255869656E1,1.273300854E1
1.007410221E1,9.789345588E-1,-1.046829357E0,-8.648385122E0,8.766340730E0
1.008404721E1,1.405444063E-1,-6.518002385E-1,-6.175053247E0,6.210948308E0
1.009399221E1,-1.324501349E0,-5.501750457E-1,-4.859799854E0,5.067015988E0
1.010393821E1,-2.867028998E0,-4.679871672E-1,-4.109776332E0,5.032805258E0
1.011388321E1,-3.454184175E0,-1.408068001E-1,-3.634018800E0,5.015706083E0
1.012382821E1,-3.376597470E0,3.754093713E-1,-3.162742574E0,4.641689699E0
1.013377321E1,-3.241125085E0,9.276712883E-1,-2.540711095E0,4.221454572E0
1.014371921E1,-3.163339283E0,1.449426527E0,-1.841499878E0,3.936835592E0
1.015366421E1,-2.938329361E0,1.796878021E0,-1.305885569E0,3.683461304E0
1.016360921E1,-2.672042482E0,1.860124429E0,-9.757459259E-1,3.398816564E0
1.017355521E1,-2.503621037E0,1.599189507E0,-7.590317416E-1,3.066211761E0
1.018350021E1,-2.380706132E0,1.286944683E0,-6.190265948E-1,2.776181231E0
1.019344521E1,-1.677133184E0,1.223707046E0,-1.114450067E-1,2.079099479E0
1.020339121E1,-7.554944685E-1,1.488654327E0,1.004698999E0,1.948405419E0
1.021333621E1,-3.026984406E-1,1.340490561E0,1.510675526E0,2.042224727E0
1.022328121E1,-1.339107402E-2,9.250985134E-1,1.538832209E0,1.795547590E0
1.023322721E1,4.286495123E-1,5.843327254E-1,1.535265407E0,1.697711698E0
1.024317221E1,8.322094262E-1,3.195099896E-1,1.511657274E0,1.754926459E0
1.025311721E1,1.285398533E0,1.711427397E-1,1.474984707E0,1.963954967E0
1.026306321E1,1.582284037E0,6.479358137E-2,1.303153165E0,2.050860589E0
1.027300821E1,1.782749102E0,9.171533167E-2,1.140331598E0,2.118245079E0
1.028295321E1,1.958390251E0,2.000887960E-1,1.072103362E0,2.241591738E0
1.029289821E1,1.890808863E0,1.663959700E-1,7.992722797E-1,2.059534402E0
1.030284421E1,1.850831450E0,6.328558445E-2,5.152233142E-1,1.922247951E0
1.031278921E1,1.789118181E0,-6.368845761E-2,3.511258847E-1,1.824360018E0
1.032273421E1,1.720356972E0,-3.182738882E-1,7.910756528E-2,1.751337884E0
1.033268021E1,1.602552680E0,-6.840271676E-1,-1.138932359E-1,1.746150030E0
1.034262521E1,1.501287822E0,-1.127923806E0,-3.015093362E-1,1.901837300E0
1.035257021E1,1.503685326E0,-1.474971843E0,-4.453666288E-1,2.152896405E0
1.036251621E1,1.565521971E0,-1.659409397E0,-5.544768423E-1,2.347752788E0
1.037246121E1,1.557715207E0,-1.598498951E0,-6.503910595E-1,2.324797646E0
1.038240621E1,1.487267660E0,-1.182373663E0,-6.903491771E-1,2.021522832E0
1.039235221E1,1.412807316E0,-5.097386259E-1,-7.686205906E-1,1.687197555E0
1.040229721E1,1.319606353E0,2.293242896E-1,-9.102068245E-1,1.619390941E0
1.041224221E1,1.171760821E0,8.998385417E-1,-1.026045429E0,1.798750134E0
1.042218821E1,9.468814382E-1,1.452914976E0,-1.070177289E0,2.037848330E0
1.043213321E1,8.347470447E-1,1.738117597E0,-1.040338948E0,2.190926867E0
1.044207821E1,8.879371190E-1,1.674616250E0,-9.873909482E-1,2.137220812E0
1.045202321E1,7.381826171E-1,1.285102810E0,-8.116765630E-1,1.689740114E0
1.046196921E1,6.070528127E-1,7.150840688E-1,-4.608190656E-1,1.045089735E0
1.047191421E1,4.331548651E-1,-2.190489775E-1,-8.655107081E-2,4.930483541E-1
1.048185921E1,-2.027729604E-1,-1.859492930E0,2.612044787E-1,1.888665828E0
1.049180521E1,-7.281242368E-1,-3.715789188E0,7.334194753E-1,3.856832679E0
1.050175021E1,-5.748138969E-1,-5.115606768E0,1.339969574E0,5.319338500E0
1.051169521E1,3.364670612E-1,-5.902420970E0,1.748031259E0,6.165013923E0
1.052164121E1,1.578046853E0,-6.426703960E0,2.029103699E0,6.921706255E0
1.053158621E1,2.311682236E0,-6.680017036E0,2.444014813E0,7.479285445E0
1.054153121E1,1.691247778E0,-6.149419053E0,2.305835459E0,6.781780806E0
1.055147721E1,2.986596957E-1,-4.957841288E0,1.468537567E0,5.179381279E0
1.056142221E1,-6.454022151E-1,-3.113098544E0,6.238637039E-1,3.239927852E0
1.057136721E1,-9.204526082E-1,-1.024084858E0,4.542789549E-2,1.377696082E0
1.058131321E1,-9.569298783E-1,8.305735946E-1,-3.704342678E-1,1.320147278E0
1.059125821E1,-9.421928483E-1,2.411355482E0,-7.031729981E-1,2.682687997E0
1.060120321E1,-8.919105944E-1,3.684952142E0,-9.968596369E-1,3.920217587E0
1.061114921E1,-8.380289407E-1,4.501588313E0,-1.277406413E0,4.753772921E0
1.062109421E1,-6.059731244E-1,4.760944487E0,-1.577712392E0,5.052026546E0
1.063103921E1,-1.952098793E-1,4.359171774E0,-1.810600559E0,4.724273472E0
1.064098421E1,1.099997212E-1,3.477484159E0,-1.845887629E0,3.938565368E0
1.065093021E1,1.606591205E-1,2.260604323E0,-1.742751808E0,2.858903132E0
1.066087521E1,-3.496167183E-2,9.144378698E-1,-1.453912803E0,1.717929386E0
1.067082021E1,-3.338352294E-1,-3.219459397E-1,-1.043140056E0,1.141593766E0
1.068076621E1,-5.583693337E-1,-1.256007650E0,-4.308605638E-1,1.440476433E0
1.069071121E1,-8.371454264E-1,-1.821807625E0,7.347611189E-2,2.006288670E0
1.070065621E1,-1.316246104E0,-1.917247049E0,1.959805423E-1,2.333826991E0
1.071060221E1,-1.848009437E0,-1.381163793E0,8.056337580E-2,2.308515272E0
1.072054721E1,-2.079437263E0,-3.200438404E-1,-1.253885695E-1,2.107655020E0
1.073049221E1,-2.076016203E0,6.019480473E-1,-3.597312319E-1,2.191253359E0
1.074043821E1,-1.879738330E0,1.220903891E0,-6.144181117E-1,2.324119643E0
1.075038321E1,-1.648450545E0,1.565186194E0,-7.400888094E-1,2.390591656E0
1.076032821E1,-1.512185570E0,1.556511265E0,-7.982089636E-1,2.312265137E0
1.077027421E1,-1.410815023E0,1.341395710E0,-8.055045345E-1,2.106793543E0
1.078021921E1,-1.442848263E0,9.950546014E-1,-5.972790456E-1,1.851671415E0
1.079016421E1,-1.701404246E0,5.117032903E-1,-2.050191683E-1,1.788476873E0
1.080010921E1,-1.995610556E0,1.529584837E-1,1.876931374E-1,2.010245383E0
1.081005521E1,-2.380947476E0,1.097873211E-2,6.145373949E-1,2.459001347E0
1.082000021E1,-2.805340288E0,4.360911906E-2,9.505491042E-1,2.962326702E0
1.082994521E1,-3.136612245E0,2.401603496E-1,1.090120972E0,3.329320817E0
1.083989121E1,-3.403699899E0,5.423655045E-1,1.153318118E0,3.634484286E0
1.084983621E1,-3.649726176E0,9.185215652E-1,1.201153750E0,3.950563676E0
1.085978121E1,-3.544227203E0,1.259451075E0,9.511290018E-1,3.879743529E0
1.086972721E1,-3.208695842E0,1.479341467E0,4.940927924E-1,3.567675415E0
1.087967221E1,-2.797032857E0,1.529765516E0,-2.907381803E-3,3.188037608E0
1.088961721E1,-2.270624111E0,1.394667352E0,-5.189889210E-1,2.714807614E0
1.089956321E1,-1.701694852E0,1.118814429E0,-8.175822508E-1,2.194527702E0
1.090950821E1,-1.237195842E0,8.444385123E-1,-7.597714144E-1,1.679578088E0
1.091945321E1,-8.409613194E-1,5.843426657E-1,-4.825556512E-1,1.132047812E0
1.092939921E1,-4.776531994E-1,3.775184619E-1,-6.441234291E-2,6.122268517E-1
1.093934421E1,-9.364959061E-2,8.024017096E-2,6.690080094E-1,6.802796833E-1
1.094928921E1,3.229038598E-1,-2.869456762E-1,1.204318264E0,1.279448007E0
1.095923521E1,5.856033254E-1,-7.070078945E-1,1.370484438E0,1.649551155E0
1.096918021E1,6.969163312E-1,-1.021797427E0,1.500313529E0,1.944403004E0
1.097912521E1,8.259007922E-1,-1.161718959E0,1.557199336E0,2.111059646E0
1.098907021E1,9.543666051E-1,-1.170369914E0,1.537341753E0,2.154994436E0
1.099901621E1,1.020895202E0,-1.096581561E0,1.503896849E0,2.122833923E0
1.100896121E1,1.180186951E0,-9.646537578E-1,1.175409629E0,1.924833995E0
1.101890621E1,1.374632745E0,-7.623430198E-1,6.978632878E-1,1.719824186E0
1.102885258E1,1.470120262E0,-5.673214209E-1,2.852219170E-1,1.601392744E0
1.103879758E1,1.441798688E0,-3.478034967E-1,5.360171825E-2,1.484123941E0
1.104874258E1,1.351852139E0,-4.644443393E-3,-2.289714101E-1,1.371114030E0
1.105868858E1,1.390601930E0,4.021685690E-1,-6.352099335E-1,1.580824134E0
1.106863358E1,1.346066465E0,7.171036971E-1,-9.379471850E-1,1.790496457E0
1.107857858E1,1.267157559E0,8.121004862E-1,-9.686196318E-1,1.789809898E0
1.108852458E1,1.111372678E0,7.004549199E-1,-7.545916584E-1,1.514990064E0
1.109846958E1,9.350957903E-1,4.761738539E-1,-5.268981573E-1,1.174209242E0
1.110841458E1,7.808452182E-1,3.167834330E-1,-2.490621507E-1,8.786938904E-1
1.111836058E1,6.499123187E-1,2.559069014E-1,8.823068351E-2,7.040305517E-1
1.112830558E1,5.311444053E-1,2.452024037E-1,3.750114682E-1,6.948900628E-1
1.113825058E1,3.066585405E-1,2.735877120E-1,5.970091966E-1,7.247825036E-1
1.114819558E1,1.278344598E-1,3.679763907E-1,7.118777481E-1,8.114913440E-1
1.115814158E1,-8.887840882E-2,4.256726217E-1,6.829936722E-1,8.096770397E-1
1.116808658E1,-2.785435197E-1,5.112144631E-1,7.233903310E-1,9.285581784E-1
1.117803158E1,-4.562797259E-1,6.070164138E-1,7.370617059E-1,1.058262762E0
1.118797758E1,-6.266208123E-1,6.951672828E-1,7.536908948E-1,1.201649349E0
1.119792258E1,-8.793756258E-1,8.032004392E-1,7.713725826E-1,1.418960217E0
1.120786758E1,-1.077583957E0,9.257943320E-1,7.850334325E-1,1.623132718E0
1.121781358E1,-1.292076053E0,1.116862628E0,7.431401789E-1,1.862552008E0
1.122775858E1,-1.434858920E0,1.320529336E0,7.733401707E-1,2.097778079E0
1.123770358E1,-1.468060434E0,1.452462401E0,7.211476314E-1,2.187441970E0
1.124764958E1,-1.371378477E0,1.471896207E0,6.037027967E-1,2.100384355E0
1.125759458E1,-1.131071216E0,1.376760255E0,5.909538200E-1,1.877236616E0
1.126753958E1,-7.340410343E-1,1.153221785E0,6.535099643E-1,1.515193716E0
1.127748558E1,-3.394979654E-1,8.278242338E-1,8.411108619E-1,1.228014378E0
1.128743058E1,6.436161831E-2,4.572364765E-1,1.052263613E0,1.149115453E0
1.129737558E1,4.457889439E-1,1.307875961E-1,1.306760605E0,1.386887326E0
1.130732058E1,7.887847137E-1,-1.604078364E-1,1.578198588E0,1.771615867E0
1.131726658E1,1.147721309E0,-3.624244595E-1,1.797054023E0,2.162872824E0
1.132721158E1,1.504828749E0,-3.239439332E-1,1.934380560E0,2.472099793E0
1.133715658E1,1.842032121E0,1.379942894E-2,1.958846333E0,2.688931334E0
1.134710258E1,2.149511611E0,3.809449303E-1,1.887409146E0,2.885798414E0
1.135704758E1,2.362007613E0,4.934412664E-1,1.754668141E0,2.983525521E0
1.136699258E1,2.542418190E0,3.861776036E-1,1.651955512E0,3.056465346E0
1.137693858E1,2.732114437E0,3.221043992E-1,1.583347646E0,3.174144028E0
1.138688358E1,2.882597795E0,2.916959542E-1,1.669493505E0,3.343899690E0
1.139682858E1,2.932341228E0,2.422255862E-1,1.958040733E0,3.534292266E0
1.140677358E1,3.013352062E0,2.939874780E-1,2.243382080E0,3.768220063E0
1.141671958E1,3.047324969E0,3.798971093E-1,2.292699543E0,3.832359910E0
1.142666458E1,2.959354487E0,3.974463576E-1,2.225764858E0,3.724214251E0
1.143660958E1,2.786353210E0,2.631410766E-1,2.134322591E0,3.519707425E0
1.144655558E1,2.494894068E0,-8.298719287E-2,2.240984575E0,3.354608047E0
1.145650058E1,2.115105570E0,-5.291490430E-1,2.361516155E0,3.214098448E0
1.146644558E1,1.636347393E0,-1.020750775E0,2.450961598E0,3.118778237E0
1.147639158E1,9.660692225E-1,-1.480989212E0,2.679437456E0,3.210296539E0
1.148633658E1,2.329524869E-1,-1.768677485E0,2.879558997E0,3.387380540E0
1.149628158E1,-5.786330058E-1,-1.707078822E0,2.989613535E0,3.490948775E0
1.150622758E1,-1.133856976E0,-1.136588795E0,2.835278032E0,3.258261385E0
1.151617258E1,-1.257041730E0,-1.497132790E-1,2.616581642E0,2.906727966E0
1.152611758E1,-1.172307535E0,9.424594814E-1,2.472652429E0,2.894226125E0
1.153606258E1,-1.124514733E0,1.897233784E0,2.291396345E0,3.180334357E0
1.154600858E1,-8.260069191E-1,2.680128597E0,2.017584246E0,3.454854978E0
1.155595358E1,-1.598090816E-1,3.125634974E0,2.313990717E0,3.892259752E0
1.156589858E1,2.451617655E-1,3.124402381E0,2.746295105E0,4.167029077E0
1.157584458E1,-4.537614763E-2,2.509106895E0,2.481643108E0,3.529338312E0
1.158578958E1,-7.359188676E-1,1.473559155E0,1.599605098E0,2.296016035E0
1.159573458E1,-1.818265967E0,2.541246700E-1,9.279823601E-1,2.057139211E0
1.160568058E1,-2.575140086E0,-1.588431215E0,8.175296259E-1,3.134137023E0
1.161562558E1,-2.704362382E0,-3.626457181E0,6.027815679E-1,4.563782773E0
1.162557058E1,-2.534745766E0,-5.608400747E0,-1.113897505E-1,6.155607421E0
1.163551558E1,-1.764328180E0,-7.171110061E0,-7.800533590E-1,7.426045830E0
1.164546158E1,-4.847701380E-1,-7.839687130E0,-1.038605833E0,7.923029627E0
1.165540658E1,3.492769951E-1,-7.447541859E0,-1.430144164E0,7.591652421E0
1.166535158E1,6.813200529E-1,-6.490259686E0,-1.854267566E0,6.784244689E0
1.167529758E1,9.511290018E-1,-5.504850651E0,-2.217150155E0,6.010306305E0
1.168524258E1,1.095046082E0,-4.699027151E0,-2.814920366E0,5.586032470E0
1.169518758E1,1.244514217E0,-3.977087222E0,-3.304877277E0,5.318670155E0
1.170513358E1,1.257019511E0,-3.258716433E0,-2.352831286E0,4.211311660E0
1.171507858E1,1.846759302E0,-2.881048282E0,-4.502579416E0,5.655455819E0
1.172502358E1,2.504743118E0,-2.869813442E0,-7.888300881E0,8.759843496E0
1.173496858E1,2.415406726E0,-2.657756565E0,-1.144460317E1,1.199486562E1
1.174491458E1,1.957788865E0,-1.880774456E0,-1.197766809E1,1.228148129E1
1.175485958E1,5.668790060E-1,-1.056865518E0,-9.009232002E0,9.088706058E0
1.176480458E1,-4.869287838E-1,-4.205194706E-1,-6.542826739E0,6.574383469E0
1.177475058E1,-1.464568184E0,9.188782454E-2,-4.421468595E0,4.658625105E0
1.178469558E1,-2.188891877E0,5.921902138E-1,-2.724457508E0,3.544658744E0
1.179464058E1,-2.437054287E0,1.133203257E0,-1.447029169E0,3.052421438E0
1.180458558E1,-2.499205220E0,1.659031082E0,-3.493459922E-1,3.020008855E0
1.181453158E1,-2.560056316E0,2.217460057E0,6.369676065E-1,3.446265396E0
1.182447658E1,-2.744071993E0,2.699937794E0,1.264368584E0,4.051940660E0
1.183442158E1,-3.207908222E0,2.921278296E0,1.515594789E0,4.595820885E0
1.184436758E1,-3.814691332E0,2.776666712E0,1.610408560E0,4.985495333E0
1.185431258E1,-4.399609071E0,2.392040960E0,1.512600430E0,5.231288559E0
1.186425758E1,-4.469280692E0,1.946733388E0,1.316380152E0,5.049465070E0
1.187420358E1,-4.035445358E0,1.517331997E0,1.061233973E0,4.439969951E0
1.188414858E1,-3.336102578E0,1.167455077E0,7.758214366E-1,3.618622759E0
1.189409358E1,-2.421536508E0,8.082319683E-1,5.646545058E-1,2.614557837E0
1.190403858E1,-1.452824783E0,2.974893755E-1,2.310807931E-1,1.500865787E0
1.191398458E1,-4.611985499E-1,-3.137639308E-1,9.021259725E-2,5.650577133E-1
1.192392958E1,3.726573792E-1,-8.638483447E-1,2.584019083E-1,9.756428809E-1
1.193387458E1,8.523495027E-1,-1.341160651E0,3.520433128E-1,1.627619753E0
1.194382058E1,1.589471435E0,-1.473549215E0,5.262494087E-1,2.230404710E0
1.195376558E1,2.203424108E0,-1.495104391E0,3.475947511E-1,2.685374658E0
1.196371058E1,2.787253681E0,-1.415378190E0,-1.484906262E-1,3.129557152E0
1.197365658E1,3.352865376E0,-1.070400653E0,-6.538900334E-1,3.579809487E0
1.198360158E1,3.305778918E0,-5.286660630E-1,-1.133289211E0,3.534403273E0
1.199354658E1,2.317027615E0,-1.526123285E-3,-1.365775090E0,2.689602367E0
1.200349158E1,1.449603698E0,2.333541906E-1,-2.126560997E0,2.584195568E0
1.201343758E1,1.080424388E0,3.891240156E-1,-3.013260845E0,3.224666693E0
1.202338258E1,3.385365370E-1,2.587696981E-1,-3.462321160E0,3.488443286E0
1.203332721E1,-6.464724018E-1,-1.728261530E-2,-3.475922953E0,3.535571471E0
1.204327321E1,-1.319197632E0,-1.191235703E-1,-3.224672189E0,3.486112957E0
1.205321821E1,-1.454870285E0,-9.999148071E-2,-2.886886727E0,3.234309945E0
1.206316321E1,-1.260997079E0,-1.163630998E-1,-2.292827159E0,2.619295780E0
1.207310821E1,-8.128635478E-1,-1.860496312E-1,-1.619653593E0,1.821713307E0
1.208305421E1,1.489016855E-1,-2.454468173E-1,-1.081241391E0,1.118704070E0
1.209299921E1,1.042517328E0,-1.852631807E-1,-5.740357786E-1,1.204442568E0
1.210294421E1,1.747689343E0,7.331882179E-2,3.196438909E-2,1.749518623E0
1.211289021E1,2.356950210E0,3.560901707E-1,6.083542567E-1,2.460103536E0
1.212283521E1,2.732967546E0,5.196736300E-1,1.129513664E0,3.002494531E0
1.213278021E1,2.913020273E0,5.125423658E-1,1.458841129E0,3.297969713E0
1.214272621E1,2.938417654E0,3.888082659E-1,1.553252027E0,3.346350555E0
1.215267121E1,2.666313965E0,3.062479198E-1,1.455443312E0,3.053085846E0
1.216261621E1,2.602169425E0,4.733379543E-1,1.585100641E0,3.083484811E0
1.217256121E1,2.117431593E0,2.070838201E-1,1.674442588E0,2.707426498E0
1.218250721E1,1.014348659E0,-9.065985078E-1,1.610557956E0,2.108250694E0
1.219245221E1,4.204934505E-1,-2.145359210E0,2.008136461E0,2.968500114E0
1.220239721E1,4.651821117E-1,-3.217348552E0,2.632289602E0,4.182902658E0
1.221234321E1,1.546162424E0,-3.932412740E0,3.266768049E0,5.340998192E0
1.222228821E1,3.032468364E0,-4.605251845E0,3.937415033E0,6.775503382E0
1.223223321E1,3.697802567E0,-5.613748026E0,4.209649115E0,7.931522956E0
1.224217821E1,2.978883602E0,-6.384327434E0,3.895841330E0,8.050525695E0
1.225212421E1,7.662821428E-1,-5.873231084E0,3.092343267E0,6.681662860E0
1.226206921E1,-9.962649751E-1,-3.884496562E0,2.062681335E0,4.509602170E0
1.227201421E1,-1.217770076E0,-1.630201385E0,1.154549688E0,2.339552413E0
1.228196021E1,-1.154155439E0,1.146352476E-1,4.686180818E-1,1.250927226E0
1.229190521E1,-1.037687382E0,1.503074146E0,3.835656524E-2,1.826882102E0
1.230185021E1,-8.540862720E-1,2.698929734E0,-3.347612822E-1,2.850570151E0
1.231179521E1,-6.684034073E-1,3.652357423E0,-7.108308041E-1,3.780444192E0
1.232174121E1,-4.358937009E-1,4.269464377E0,-1.022786191E0,4.411850062E0
1.233168621E1,-1.707354811E-1,4.403915253E0,-1.438173561E0,4.635942553E0
1.234163121E1,1.083635241E-2,3.931418713E0,-1.976576992E0,4.400343979E0
1.235157721E1,-1.944156812E-1,2.926765323E0,-2.424228712E0,3.805343291E0
1.236152221E1,-7.164359450E-1,1.698254204E0,-2.562748666E0,3.156743343E0
1.237146721E1,-1.458261378E0,5.608777893E-1,-2.233161585E0,2.725457908E0
1.238141221E1,-2.313960165E0,-4.741360992E-1,-1.835883335E0,2.991602298E0
1.239135821E1,-3.102799551E0,-1.134406614E0,-1.366988972E0,3.575318485E0
1.240130321E1,-3.628731748E0,-1.375386159E0,-1.106210756E0,4.035230281E0
1.241124821E1,-4.003787947E0,-1.157490252E0,-9.628624633E-1,4.277523318E0
1.242119421E1,-4.209591520E0,-5.905728740E-1,-7.804407370E-1,4.321865896E0
1.243113921E1,-3.970771644E0,1.026051861E-1,-7.581751245E-1,4.043808204E0
1.244108421E1,-3.198212954E0,5.284853840E-1,-8.718257010E-1,3.356775678E0
1.245102921E1,-2.875564764E0,5.310201520E-1,-1.412044108E0,3.247264029E0
1.246097521E1,-2.780967339E0,3.380059022E-1,-1.803593549E0,3.331812873E0
1.247092021E1,-2.602250701E0,6.005441308E-2,-2.217856498E0,3.419678741E0
1.248086521E1,-2.332170149E0,-3.065806264E-1,-2.367750164E0,3.337551516E0
1.249081121E1,-2.229030527E0,-7.357364345E-1,-2.198058996E0,3.215796720E0
1.250075621E1,-2.051616941E0,-8.881558049E-1,-1.860479355E0,2.908493810E0
1.251070121E1,-2.086115806E0,-8.168396544E-1,-1.609726190E0,2.758681675E0
1.252064721E1,-2.499944600E0,-5.740281773E-1,-1.304069424E0,2.877469099E0
1.253059221E1,-3.008157687E0,-2.183742088E-1,-7.424466991E-1,3.106111245E0
1.254053721E1,-3.284826590E0,1.861999047E-1,-6.115673018E-1,3.346456438E0
1.255048221E1,-3.142017118E0,6.378359181E-1,-9.528689870E-1,3.344707093E0
1.256042821E1,-2.714075192E0,8.606183428E-1,-1.319715696E0,3.138234790E0
1.257037321E1,-1.994010611E0,9.294628751E-1,-1.273951001E0,2.542229476E0
1.258031821E1,-1.082042605E0,9.678504306E-1,-9.085310125E-1,1.712594306E0
1.259026421E1,-2.179036541E-1,1.025957136E0,-4.626203004E-1,1.146336595E0
1.260020921E1,4.717130131E-1,1.005080237E0,-1.129658675E-1,1.116002123E0
1.261015421E1,1.033579566E0,9.716183764E-1,1.495153508E-1,1.426423440E0
1.262009921E1,1.462754524E0,9.244079572E-1,4.278983644E-1,1.782492042E0
1.263004521E1,1.801425547E0,8.691535234E-1,3.419083339E-1,2.029153311E0
1.263999021E1,2.000830511E0,8.020385975E-1,4.691101250E-1,2.206049174E0
1.264993521E1,1.978287010E0,5.351845390E-1,7.873673487E-1,2.195447409E0
1.265988121E1,1.887383418E0,2.402194065E-1,9.223704949E-1,2.114400355E0
1.266982621E1,1.814501529E0,-8.531789303E-2,1.187880863E0,2.170427582E0
1.267977121E1,1.627182321E0,-4.053833681E-1,1.541048011E0,2.277473810E0
1.268971621E1,1.251127271E0,-6.164023644E-1,2.006976666E0,2.444018548E0
1.269966221E1,1.084945602E0,-5.833960015E-1,2.540861953E0,2.823727558E0
1.270960721E1,1.056810408E0,-3.259390032E-1,2.615042363E0,2.839283542E0
1.271955221E1,7.756094751E-1,-1.387778163E-2,2.306060577E0,2.433038848E0
1.272949821E1,5.982653247E-1,2.285150349E-1,1.988866085E0,2.089432656E0
1.273944321E1,-8.367891848E-2,3.366803384E-1,1.833277524E0,1.865814109E0
1.274938821E1,-9.057794590E-1,3.560977721E-1,1.258886819E0,1.591237906E0
1.275933321E1,-1.495088165E0,3.247713143E-1,8.828696296E-1,1.766415526E0
1.276927921E1,-1.867432864E0,3.369709450E-1,5.148876840E-1,1.966205546E0
1.277922421E1,-1.873198657E0,4.485469294E-1,8.064158231E-2,1.927840923E0
1.278916921E1,-1.596621264E0,5.773020333E-1,-3.392425883E-1,1.731347057E0
1.279911521E1,-1.101563389E0,6.776484400E-1,-6.690951329E-1,1.456137907E0
1.280906021E1,-5.248095319E-1,6.754779536E-1,-8.807394889E-1,1.227761197E0
1.281900521E1,-8.338801950E-2,5.873124665E-1,-1.004350797E0,1.166451893E0
1.282895021E1,2.720684592E-1,4.579732257E-1,-8.667801386E-1,1.017383178E0
1.283889621E1,4.771959472E-1,3.503113675E-1,-4.155294567E-1,7.232556641E-1
1.284884121E1,5.451946798E-1,3.308337075E-1,1.925257149E-1,6.661488811E-1
1.285878621E1,6.071582088E-1,3.538214511E-1,8.183350798E-1,1.078657968E0
1.286873221E1,7.401469892E-1,3.188849223E-1,1.222605723E0,1.464332583E0
1.287867721E1,8.143224281E-1,2.309901613E-1,1.421984375E0,1.654846529E0
1.288862221E1,6.870476930E-1,1.935586256E-1,1.458891123E0,1.624149864E0
1.289856721E1,4.979889384E-1,2.230829716E-1,1.381947612E0,1.485778650E0
1.290851321E1,2.361545683E-1,3.320423269E-1,1.264846593E0,1.328855896E0
1.291845821E1,-4.968437612E-2,5.249969351E-1,1.046384969E0,1.171755871E0
1.292840321E1,-2.061785249E-1,7.539031488E-1,8.475945470E-1,1.152951021E0
1.293834921E1,-2.221491712E-1,8.646640313E-1,6.273711562E-1,1.091141012E0
1.294829421E1,-1.236569166E-1,8.479082501E-1,6.529179338E-1,1.077284207E0
1.295823921E1,9.904657066E-2,7.704595399E-1,8.821419436E-1,1.175411645E0
1.296818421E1,3.504692423E-1,6.602102888E-1,1.164759511E0,1.383969304E0
1.297813021E1,5.452926207E-1,4.507805657E-1,1.375207234E0,1.546525815E0
1.298807521E1,7.017187956E-1,1.801188004E-1,1.518920685E0,1.682846427E0
1.299802021E1,8.596705091E-1,-2.282752991E-3,1.648480658E0,1.859173762E0
1.300796621E1,1.041130368E0,7.325216353E-2,1.754220829E0,2.041227337E0
1.301791121E1,1.184413757E0,2.783350664E-1,1.931162252E0,2.282475411E0
1.302785621E1,1.287717685E0,3.818418932E-1,2.112943124E0,2.503706994E0
1.303780088E1,1.422362982E0,3.003129959E-1,2.161664756E0,2.605014177E0
1.304774687E1,1.660715957E0,1.871629411E-1,2.056589706E0,2.650012957E0
1.305769187E1,1.734800179E0,2.535978359E-1,2.021257174E0,2.675691329E0
1.306763687E1,1.633037577E0,5.063373005E-1,2.047015475E0,2.667107337E0
1.307758287E1,1.348721101E0,8.696768492E-1,2.148668881E0,2.681821096E0
1.308752787E1,1.090810944E0,1.331788149E0,2.252210644E0,2.834780587E0
1.309747287E1,8.777170631E-1,1.789129876E0,2.300087792E0,3.043316745E0
1.310741787E1,6.030838689E-1,2.054156095E0,2.314503518E0,3.152807312E0
1.311736387E1,5.830078925E-1,1.718207828E0,2.225039657E0,2.871051692E0
1.312730887E1,8.775074404E-1,5.094743317E-1,2.176850560E0,2.401720584E0
1.313725387E1,1.032841648E0,-1.313413274E0,2.272286475E0,2.820479059E0
1.314719987E1,5.498964259E-1,-3.201442956E0,2.341440325E0,4.004243483E0
1.315714487E1,-4.526066512E-2,-4.661973930E0,2.153027688E0,5.135326443E0
1.316708987E1,-1.911260377E-1,-5.226982192E0,1.549024344E0,5.455029644E0
1.317703487E1,-2.594760418E-2,-4.643915974E0,7.588387835E-1,4.705578089E0
1.318698087E1,4.921956633E-1,-3.258873723E0,-7.723250940E-2,3.296737687E0
1.319692587E1,1.080027070E0,-1.518506117E0,-6.345446666E-1,1.968493392E0
1.320687087E1,1.555576588E0,4.647600889E-2,-9.497281551E-1,1.823173636E0
1.321681687E1,1.596115918E0,1.250874379E0,-1.108125719E0,2.310890596E0
1.322676187E1,1.545651231E0,2.115352469E0,-1.012783359E0,2.808822517E0
1.323670687E1,1.318042369E0,2.544574351E0,-7.848724879E-1,2.971215094E0
1.324665187E1,6.888768482E-1,2.612911929E0,-4.547590113E-1,2.740194486E0
1.325659787E1,2.790134896E-1,2.624371303E0,-2.050690158E-1,2.647116651E0
1.326654287E1,2.393616199E-2,2.479997701E0,-1.594605875E-1,2.485234238E0
1.327648787E1,-8.215133339E-2,1.931944025E0,-3.647569138E-1,1.967791697E0
1.328643287E1,-1.706530353E-1,1.028562655E0,-7.506316316E-1,1.284722321E0
1.329637887E1,-6.811132076E-1,5.848969817E-3,-1.212915425E0,1.391083477E0
1.330632387E1,-1.294965894E0,-9.914316666E-1,-1.751369142E0,2.393150076E0
1.331626887E1,-1.722324121E0,-1.852620113E0,-2.142733518E0,3.315103104E0
1.332621488E1,-1.922107400E0,-2.375597420E0,-2.300422984E0,3.824905994E0
1.333615987E1,-1.735137271E0,-2.462375947E0,-2.407946556E0,3.856449568E0
1.334610487E1,-1.549930078E0,-2.238931033E0,-2.175653342E0,3.485478860E0
1.335604987E1,-1.604465012E0,-1.841815043E0,-2.018143386E0,3.168515954E0
1.336599588E1,-1.162527190E0,-1.370845211E0,-1.931618628E0,2.638529246E0
1.337594087E1,-6.244495949E-1,-1.162876707E0,-1.526436696E0,2.017976343E0
1.338588587E1,2.986026853E-2,-1.036487387E0,-1.313988056E0,1.673846573E0
1.339583188E1,5.394806345E-1,-1.046571495E0,-1.355337226E0,1.795352401E0
1.340577688E1,5.374921426E-1,-1.353836830E0,-1.522814346E0,2.107305269E0
1.341572187E1,8.749975231E-1,-1.654486041E0,-1.727362229E0,2.546904983E0
1.342566687E1,9.703053841E-1,-1.846440191E0,-1.889411963E0,2.814375860E0
1.343561288E1,6.857061955E-1,-1.870509084E0,-1.713336512E0,2.627645187E0
1.344555788E1,3.451854059E-1,-1.712350672E0,-1.981538939E0,2.641551505E0
1.345550287E1,8.904344648E-2,-1.404043947E0,-2.142548454E0,2.563158602E0
1.346544887E1,-1.660585856E-1,-1.148408357E0,-1.553836749E0,1.939284881E0
1.347539388E1,-5.627578884E-1,-9.286202914E-1,-1.532487395E0,1.878177229E0
1.348533888E1,-4.644960140E-1,-5.014496130E-1,-1.628662398E0,1.766281254E0
1.349528387E1,2.887157746E-2,-6.449888170E-2,-1.845164913E0,1.846517595E0
1.350522987E1,2.999078570E-1,1.942959595E-1,-1.915371847E0,1.948421144E0
1.351517488E1,5.421785398E-1,4.163737947E-1,-1.702588161E0,1.834701924E0
1.352511988E1,7.348821563E-1,4.882635570E-1,-1.263959863E0,1.541443356E0
1.353506587E1,8.829816037E-1,4.460437363E-1,-7.412807643E-1,1.236166938E0
1.354501087E1,9.763330594E-1,3.747369415E-1,-2.944277734E-1,1.086435333E0
1.355495588E1,6.973161346E-1,2.370689267E-1,3.268125772E-2,7.372377718E-1
1.356490088E1,4.957247503E-2,-4.486627042E-2,3.150947571E-2,7.391386583E-2
1.357484687E1,-3.840965065E-1,-3.316499788E-1,-1.765572613E-1,5.373028022E-1
1.358479187E1,-5.155618680E-1,-4.114317280E-1,-3.012883115E-1,7.251584331E-1
1.359473688E1,-5.832594690E-1,-3.730827641E-1,-4.214754903E-1,8.105701364E-1
1.360468287E1,-8.561352825E-1,-2.808616483E-1,-6.660189128E-1,1.120460655E0
1.361462787E1,-1.040383971E0,-2.064575833E-1,-9.760382867E-1,1.441413986E0
1.362457287E1,-7.519876009E-1,-2.903317988E-2,-1.023473824E0,1.270364887E0
1.363451788E1,-1.868983546E-1,2.708629096E-1,-9.775164628E-1,1.031424329E0
1.364446387E1,1.430585629E-1,5.417989093E-1,-7.649070239E-1,9.482059722E-1
1.365440887E1,4.830437475E-1,8.293994737E-1,-3.494179130E-1,1.021434103E0
1.366435387E1,5.910856748E-1,9.495656025E-1,-1.131050313E-1,1.124210771E0
1.367429888E1,5.586792362E-1,9.828309971E-1,-2.700326049E-1,1.162323907E0
1.368424487E1,7.732290736E-1,1.077208566E0,-1.699949312E-1,1.336846951E0
1.369418987E1,9.006422415E-1,9.694186538E-1,6.115953684E-2,1.324639371E0
1.370413487E1,6.981403727E-1,7.082849264E-1,1.867945665E-1,1.011908952E0
1.371408087E1,3.688210210E-1,3.790381533E-1,1.163572526E-1,5.415144296E-1
1.372402587E1,3.101708899E-1,7.834801197E-2,9.649659991E-3,3.200586006E-1
1.373397087E1,3.921166205E-1,-1.630326515E-1,-2.927233100E-2,4.256664879E-1
1.374391587E1,3.422645755E-1,-4.120222968E-1,-2.136572599E-1,5.766774119E-1
1.375386187E1,4.694406389E-1,-6.129250252E-1,-4.421606004E-1,8.896952268E-1
1.376380687E1,7.579345847E-1,-7.156173348E-1,-6.403817958E-1,1.223381318E0
1.377375187E1,9.696999049E-1,-7.619489175E-1,-8.438654852E-1,1.494320252E0
1.378369787E1,1.198417107E0,-7.452562863E-1,-9.403761184E-1,1.695853101E0
1.379364287E1,1.453278673E0,-6.505612135E-1,-9.437873840E-1,1.850941225E0
1.380358787E1,1.728109795E0,-4.671884376E-1,-9.666049737E-1,2.034441858E0
1.381353287E1,2.053699866E0,-2.769814360E-1,-8.802456915E-1,2.251496021E0
1.382347887E1,2.309872962E0,-7.985893250E-2,-5.679640299E-1,2.380015480E0
1.383342387E1,2.411819020E0,8.929867744E-2,-2.623528719E-1,2.427689080E0
1.384336887E1,2.406950629E0,2.702238089E-1,8.607101440E-3,2.422087182E0
1.385331487E1,2.317041648E0,4.522938251E-1,1.739733768E-1,2.367175202E0
1.386325987E1,2.298622042E0,5.594265103E-1,2.467899227E-1,2.378555565E0
1.387320487E1,2.293967366E0,6.192242306E-1,3.720258799E-1,2.405021451E0
1.388314987E1,2.163173630E0,6.298281562E-1,5.008289310E-1,2.307993344E0
1.389309587E1,2.098912291E0,5.974404287E-1,7.564466876E-1,2.309670856E0
1.390304087E1,1.534096256E0,1.453003854E-1,9.213261822E-1,1.795384488E0
1.391298587E1,4.415981714E-1,-9.655624151E-1,8.443101659E-1,1.356532115E0
1.392293188E1,-2.288880873E-1,-2.186672128E0,9.204131395E-1,2.383502695E0
1.393287687E1,-3.207000442E-1,-3.340476295E0,1.214531303E0,3.568853693E0
1.394282187E1,-1.590467508E-1,-4.471798503E0,1.597640288E0,4.751287427E0
1.395276687E1,2.012661329E-1,-5.674777755E0,1.893977469E0,5.985880159E0
1.396271288E1,5.545233276E-1,-6.753434676E0,2.326169152E0,7.164317062E0
1.397265787E1,3.397741002E-1,-7.497009303E0,2.734198970E0,7.987267301E0
1.398260287E1,-8.248487319E-1,-6.895543651E0,2.626139501E0,7.424655302E0
1.399254888E1,-1.812611271E0,-4.691135164E0,1.792140607E0,5.338920930E0
1.400249388E1,-1.552569365E0,-2.003213398E0,7.882195804E-1,2.654171369E0
1.401243887E1,-9.779659675E-1,4.235623616E-1,1.033787727E-2,1.065799878E0
1.402238387E1,-8.844347830E-1,2.254377623E0,-7.973473763E-1,2.549550194E0
1.403232983E1,-8.355256015E-1,3.588430983E0,-1.485794454E0,3.972722632E0
1.404227483E1,-6.666760667E-1,4.526143110E0,-1.966660991E0,4.979777494E0
1.405221983E1,-4.161391751E-1,5.018782724E0,-2.235917963E0,5.510052720E0
1.406216483E1,3.635360152E-2,4.986074569E0,-2.381240568E0,5.525628275E0
1.407211083E1,1.960986561E-1,4.399612287E0,-2.335144628E0,4.984771148E0
1.408205583E1,-3.919300944E-1,3.277778356E0,-1.954667182E0,3.836425934E0
1.409200083E1,-1.220781976E0,2.062591288E0,-1.541944097E0,2.849944395E0
1.410194683E1,-1.882455385E0,1.128117349E0,-9.994759735E-1,2.411480717E0
1.411189183E1,-2.494025171E0,3.813899034E-1,-4.249905440E-1,2.558561466E0
1.412183683E1,-2.834545376E0,-1.295883322E-1,7.813283443E-2,2.838581576E0
1.413178183E1,-3.049901252E0,-2.782596374E-1,5.440471637E-1,3.110516580E0
1.414172783E1,-3.139206362E0,-6.666995287E-2,1.011801027E0,3.298909332E0
1.415167283E1,-2.958717433E0,3.619566822E-1,1.067446932E0,3.166143465E0
1.416161783E1,-2.457619822E0,7.693357050E-1,7.028502318E-1,2.669413993E0
1.417156283E1,-2.078644819E0,1.088704192E0,1.831801102E-1,2.353634647E0
1.418150883E1,-1.967647270E0,1.307605235E0,-3.917748508E-1,2.394776558E0
1.419145383E1,-1.680410841E0,1.471725469E0,-6.173197925E-1,2.317507320E0
1.420139883E1,-1.366758592E0,1.488052064E0,-5.295495772E-1,2.088719883E0
1.421134483E1,-1.124826829E0,1.331125660E0,-2.380670464E-1,1.758922066E0
1.422128983E1,-1.039940752E0,9.935945517E-1,2.565208590E-1,1.460996185E0
1.423123483E1,-1.008390931E0,5.630517840E-1,8.711468393E-1,1.446643148E0
1.424117983E1,-1.019367763E0,1.493144989E-1,1.409894379E0,1.746198046E0
1.425112583E1,-9.503377274E-1,-1.308215100E-1,1.886742709E0,2.116613832E0
1.426107083E1,-7.688509709E-1,-9.758125842E-2,2.330509540E0,2.455998500E0
1.427101583E1,-6.164462185E-1,1.580479002E-1,2.442708253E0,2.524244181E0
1.428096183E1,-6.164127432E-1,5.080879569E-1,2.349194756E0,2.481296847E0
1.429090683E1,-6.177885930E-1,8.436929923E-1,2.028615311E0,2.282270950E0
1.430085183E1,-4.041993070E-1,1.112768408E0,1.335377170E0,1.784618390E0
1.431079683E1,-1.376167054E-1,1.233622754E0,4.965541779E-1,1.336910434E0
1.432074283E1,5.781756073E-2,1.308924367E0,-1.810718966E-1,1.322653734E0
1.433068783E1,2.122774632E-1,1.298556669E0,-5.163310692E-1,1.413474059E0
1.434063283E1,2.118155332E-1,1.109504492E0,-5.169745553E-1,1.242227326E0
1.435057783E1,1.037556258E-1,8.201275438E-1,-3.241477087E-1,8.879449054E-1
1.436052383E1,8.586095318E-2,4.570049268E-1,-6.623755127E-2,4.696946025E-1
1.437046883E1,-1.518551141E-2,9.350107133E-2,6.151007742E-2,1.129448526E-1
1.438041383E1,-1.065709139E-1,-1.955110109E-1,8.408500761E-2,2.380172338E-1
1.439035983E1,-8.820510194E-2,-3.498301417E-1,6.658458352E-2,3.668716053E-1
1.440030483E1,-1.355928379E-1,-4.345101035E-1,3.923803300E-2,4.568632957E-1
1.441024983E1,-2.782549596E-1,-3.813647604E-1,-1.591524392E-2,4.723538906E-1
1.442019483E1,-4.813321213E-1,-2.349931651E-1,-6.837412387E-2,5.399790917E-1
1.443014083E1,-6.357965554E-1,-9.127620578E-2,-2.380047736E-1,6.849926115E-1
1.444008583E1,-8.506751525E-1,-1.648330092E-2,-4.616581410E-1,9.680124759E-1
1.445003083E1,-1.092007138E0,-8.124998510E-2,-6.460319602E-1,1.271392325E0
1.445997683E1,-1.295061349E0,-1.558861846E-1,-7.329873660E-1,1.496246932E0
1.446992183E1,-1.472412809E0,-1.918149859E-1,-6.738097429E-1,1.630586409E0
1.447986683E1,-1.592132941E0,-1.101369846E-1,-4.728137514E-1,1.664503019E0
1.448981183E1,-1.594183706E0,8.469633400E-2,-2.278554690E-1,1.612610701E0
1.449975783E1,-1.467698637E0,3.438618886E-1,6.096307039E-3,1.507453964E0
1.450970283E1,-1.468272834E0,6.481357884E-1,5.611909077E-1,1.700247144E0
1.451964783E1,-1.324599729E0,9.641965055E-1,1.150033590E0,2.001703425E0
1.452959283E1,-9.527552587E-1,1.110235394E0,1.452439305E0,2.061539509E0
1.453953883E1,-4.697914718E-1,1.011098776E0,1.372215798E0,1.768050045E0
1.454948383E1,3.697334790E-1,6.307888538E-1,4.325147411E-1,8.495095202E-1
1.455942883E1,1.499502813E0,5.208816648E-2,-1.172108291E0,1.903958957E0
1.456937483E1,2.264632908E0,-4.695384336E-1,-2.657042620E0,3.522627433E0
1.457931983E1,2.541263072E0,-1.020650788E0,-4.324779914E0,5.118932246E0
1.458926483E1,1.894149524E0,-1.717091010E0,-5.146026907E0,5.746111457E0
1.459920983E1,3.112880735E-1,-2.068648419E0,-3.658142366E0,4.214049372E0
1.460915583E1,-6.847384813E-1,-1.747835670E0,-6.593817383E-1,1.989618203E0
1.461910083E1,-6.867388138E-1,-1.388196824E0,1.938175111E0,2.480972265E0
1.462904583E1,-2.960537378E-1,-1.127757161E0,3.349165550E0,3.546321180E0
1.463899183E1,-7.238589853E-2,-7.224866438E-1,3.575682884E0,3.648662050E0
1.464893683E1,-1.277207315E-1,-1.297742736E-1,3.132547845E0,3.137835233E0
1.465888183E1,-2.480241238E-1,3.926902324E-1,2.706860605E0,2.746418745E0
1.466882683E1,-3.269030629E-1,9.212668329E-1,2.399469262E0,2.590955602E0
1.467877283E1,-4.794804543E-1,1.510784284E0,2.351506307E0,2.835833664E0
1.468871783E1,-6.063629875E-1,2.076487196E0,2.536651958E0,3.333778383E0
1.469866283E1,-5.893658625E-1,2.437432895E0,2.747603419E0,3.719913411E0
1.470860783E1,-5.635735019E-1,2.552823018E0,2.955966025E0,3.946169737E0
1.471855383E1,-4.884762494E-1,2.470821081E0,3.026968765E0,3.937779293E0
1.472849883E1,-3.515006912E-1,2.248258511E0,2.875162767E0,3.666712425E0
1.473844383E1,-7.766301066E-2,2.034693053E0,2.665823384E0,3.354492760E0
1.474838983E1,5.397433206E-1,1.811549270E0,2.473098571E0,3.112756038E0
1.475833483E1,1.311158588E0,1.493369522E0,2.314815905E0,3.050846120E0
1.476827983E1,1.863441701E0,1.179857022E0,2.232650393E0,3.138344363E0
1.477822483E1,2.258172612E0,9.537042618E-1,2.332057152E0,3.383398576E0
1.478817083E1,2.457223966E0,8.395923400E-1,2.527832310E0,3.623920681E0
1.479811583E1,2.488395180E0,8.089342189E-1,2.617917146E0,3.701347771E0
1.480806083E1,2.425381929E0,6.470008439E-1,2.700351777E0,3.686866870E0
1.481800583E1,2.340603296E0,2.217796272E-1,2.663086302E0,3.552413074E0
1.482795183E1,2.248367854E0,-6.056510890E-1,2.578045567E0,3.473944472E0
1.483789683E1,2.085558274E0,-1.703948808E0,2.568164942E0,3.721352714E0
1.484784183E1,1.868849060E0,-2.752956253E0,2.518106929E0,4.172796118E0
1.485778783E1,1.620333478E0,-3.388116485E0,2.496457028E0,4.509668678E0
1.486773283E1,1.439225621E0,-3.352102899E0,2.426085642E0,4.381079293E0
1.487767783E1,1.417031783E0,-2.639695101E0,2.180246038E0,3.705326178E0
1.488762283E1,1.424560219E0,-1.554167701E0,1.882397497E0,2.826345591E0
1.489756883E1,1.337754210E0,-3.918546653E-1,1.599418572E0,2.121621119E0
1.490751383E1,1.184039389E0,5.262996948E-1,1.180378447E0,1.752778914E0
1.491745883E1,8.811458704E-1,1.173930284E0,9.211943275E-1,1.732953936E0
1.492740383E1,4.521273257E-1,1.547187880E0,8.013823937E-1,1.800117550E0
1.493734983E1,1.855731563E-1,1.700804760E0,5.202851026E-1,1.788259158E0
1.494729483E1,-3.369664865E-1,1.609826762E0,3.753028058E-1,1.686991646E0
1.495723983E1,-8.215644971E-1,1.317276530E0,1.979826289E-1,1.565050414E0
1.496718583E1,-1.248263159E0,7.992939144E-1,-1.058939525E-1,1.486016556E0
1.497713083E1,-1.762077440E0,6.540753901E-2,-4.222514158E-1,1.813144040E0
1.498707583E1,-2.394530704E0,-7.833690226E-1,-7.507392204E-1,2.628888300E0
1.499702083E1,-2.906624004E0,-1.679207484E0,-8.455971381E-1,3.461681007E0
1.500696683E1,-2.672026110E0,-2.427719500E0,-1.099787882E0,3.774000383E0
1.501691183E1,-1.765581092E0,-3.043837105E0,-2.223208747E0,4.162316428E0
1.502685683E1,-1.062905107E0,-3.656218339E0,-3.365578977E0,5.081812832E0
1.503680337E1,-7.420976204E-1,-4.349243787E0,-4.052643188E0,5.990871991E0
1.504674838E1,-7.329978910E-1,-4.926668027E0,-4.131622115E0,6.471448451E0
1.505669338E1,-9.316569697E-1,-5.199972734E0,-3.822546774E0,6.520702798E0
1.506663837E1,-9.852519637E-1,-5.055489789E0,-3.339174413E0,6.138304668E0
1.507658437E1,-6.398394665E-1,-4.500521196E0,-2.856182413E0,5.368599776E0
1.508652938E1,-1.116716594E-1,-3.672949562E0,-2.508943757E0,4.449475005E0
1.509647438E1,1.129617745E-1,-2.810289372E0,-2.417956989E0,3.709043369E0
1.510641937E1,-9.564809583E-2,-2.142188850E0,-2.529756337E0,3.316291415E0
1.511636537E1,-5.511634444E-1,-1.682137524E0,-2.810418595E0,3.321418443E0
1.512631038E1,-9.208847174E-1,-1.307523374E0,-2.976843801E0,3.379237348E0
1.513625538E1,-1.218263873E0,-8.200567925E-1,-3.527290158E0,3.820789953E0
1.514620137E1,-1.108231700E0,-3.234311324E-1,-3.964592891E0,4.129259255E0
1.515614637E1,-8.622564402E-1,7.021044195E-2,-3.826920784E0,3.923485486E0
1.516609138E1,-8.041922732E-1,4.099477047E-1,-3.474920155E0,3.590244061E0
1.517603638E1,-9.549070340E-1,7.025119704E-1,-2.924957364E0,3.156064969E0
1.518598237E1,-1.122452713E0,9.603595626E-1,-2.361486334E0,2.785463748E0
1.519592737E1,-1.182003973E0,1.233853135E0,-1.767108677E0,2.458088694E0
1.520587238E1,-1.183622336E0,1.529954966E0,-1.279750269E0,2.319371635E0
1.521581738E1,-1.238594642E0,1.744434344E0,-7.641451317E-1,2.271802291E0
1.522576337E1,-1.356910858E0,1.792213113E0,-3.321160018E-1,2.272341514E0
1.523570837E1,-1.362237525E0,1.599657869E0,-4.809217930E-2,2.101644411E0
1.524565338E1,-1.352560968E0,1.231735858E0,1.164578247E-1,1.833073054E0
1.525559937E1,-1.591733138E0,7.654022831E-1,1.975440878E-1,1.777210934E0
1.526554437E1,-1.537727962E0,4.333242881E-1,1.857753968E-1,1.608381087E0
1.527548937E1,-9.995413893E-1,3.292976439E-1,2.443732685E-1,1.080387996E0
1.528543438E1,-4.493929484E-1,2.885238397E-1,3.219190425E-1,6.235638684E-1
1.529538037E1,-1.648002648E-1,2.333571142E-1,2.961755061E-1,4.115028560E-1
1.530532537E1,1.129740536E-1,2.348522472E-1,1.386567789E-1,2.952023326E-1
1.531527037E1,4.043393478E-1,2.138437861E-1,-3.884831607E-2,4.590519194E-1
1.532521538E1,5.362193500E-1,-9.369753778E-2,-2.592199337E-1,6.029140850E-1
1.533516137E1,3.527361348E-1,-5.151812142E-1,-4.326524431E-1,7.596200371E-1
1.534510637E1,3.184278893E-1,-6.251310879E-1,-5.946542305E-1,9.196732309E-1
1.535505137E1,4.805428934E-1,-5.300775808E-1,-6.935552055E-1,9.964549850E-1
1.536499737E1,5.919892158E-1,-4.203984332E-1,-7.722856253E-1,1.060005265E0
1.537494237E1,7.550147776E-1,-3.304589009E-1,-7.282251012E-1,1.099800981E0
1.538488737E1,1.022535199E0,-1.867518818E-1,-6.693155730E-1,1.236300059E0
1.539483237E1,1.388005035E0,1.615936518E-2,-6.196241802E-1,1.520116189E0
1.540477837E1,1.662872264E0,1.515083742E-1,-7.382133150E-1,1.825666413E0
1.541472337E1,1.749677542E0,2.397779417E-1,-1.001143307E0,2.030062286E0
1.542466837E1,1.709222412E0,2.934202981E-1,-1.427235759E0,2.246005039E0
1.543461337E1,1.870533935E0,4.052132142E-1,-1.530041505E0,2.450330989E0
1.544455937E1,2.029956223E0,4.789273077E-1,-1.218914668E0,2.415749698E0
1.545450437E1,2.107895223E0,4.313859361E-1,-5.677482677E-1,2.225231267E0
1.546444937E1,2.082858030E0,4.902428395E-1,2.814668351E-1,2.158207403E0
1.547439537E1,2.098331371E0,6.492245400E-1,1.026596237E0,2.424538487E0
1.548434037E1,2.105960379E0,8.306133556E-1,1.546059367E0,2.741402420E0
1.549428537E1,2.005091962E0,8.789733374E-1,1.788004872E0,2.826649841E0
1.550423037E1,1.814194112E0,7.899266750E-1,1.802808852E0,2.676827261E0
1.551417637E1,1.713063301E0,6.393865997E-1,1.656065959E0,2.466972954E0
1.552412137E1,1.535903338E0,4.773678553E-1,1.464081696E0,2.174951573E0
1.553406637E1,1.293475438E0,4.013493741E-1,1.178577066E0,1.795328363E0
1.554401137E1,1.240288872E0,3.342204148E-1,7.365451044E-1,1.480715524E0
1.555395737E1,1.231371722E0,1.982668036E-1,2.761552244E-1,1.277437964E0
1.556390237E1,1.266277115E0,4.241979539E-2,-9.213399231E-2,1.270332965E0
1.557384737E1,1.365173997E0,-2.526593578E-1,-2.761294967E-1,1.415550879E0
1.558379337E1,6.973007856E-1,-1.315841038E0,-6.790207815E-1,1.636684223E0
1.559373837E1,-4.462980902E-1,-3.133463811E0,-1.095530524E0,3.349323002E0
1.560368337E1,-1.020057003E0,-4.832479323E0,-9.762850392E-1,5.034531277E0
1.561362837E1,-8.828786927E-1,-5.854037014E0,-4.737747413E-1,5.939165485E0
1.562357437E1,8.616953999E-2,-5.877743965E0,7.653479040E-2,5.878873777E0
1.563351937E1,1.105721636E0,-5.364334458E0,4.459607059E-1,5.495232976E0
1.564346437E1,1.664128246E0,-4.685853374E0,8.730670649E-1,5.048642467E0
1.565340937E1,1.797904208E0,-3.825126273E0,1.209545382E0,4.396254153E0
1.566335537E1,9.904594208E-1,-2.660470258E0,1.032597234E0,3.020822555E0
1.567330037E1,-1.848725867E-1,-1.142883323E0,5.937473273E-1,1.301113389E0
1.568324537E1,-5.231878066E-1,4.135998756E-1,2.833291733E-1,7.246142136E-1
1.569319138E1,-4.189522706E-1,1.772908530E0,1.119902596E-1,1.825176013E0
1.570313637E1,-3.281409185E-1,2.737897918E0,-7.697274685E-2,2.758565982E0
1.571308137E1,-3.123749247E-1,3.168856423E0,-2.935463056E-1,3.197717711E0
1.572302637E1,-1.711744608E-1,3.099017279E0,-2.032761133E-1,3.110390646E0
1.573297238E1,8.757521063E-3,2.482856990E0,2.097559977E-1,2.491716899E0
1.574291737E1,-1.358800824E-1,1.506954943E0,6.192189682E-1,1.634872695E0
1.575286237E1,-3.134554902E-1,5.023717189E-1,8.150673634E-1,1.007455456E0
1.576280737E1,-3.512795202E-1,-1.467844087E-1,9.156076053E-1,9.916048864E-1
1.577275338E1,-3.203041877E-1,-2.612611967E-1,9.499389473E-1,1.035971133E0
1.578269837E1,-3.261340079E-1,7.411404312E-2,9.556243412E-1,1.012459463E0
1.579264337E1,-2.678605105E-1,6.575059515E-1,8.229418087E-1,1.086874671E0
1.580258837E1,-2.732658228E-1,1.260401248E0,5.409463853E-1,1.398537989E0
1.581253438E1,-3.737823835E-1,1.714483151E0,1.908078030E-1,1.765098684E0
1.582247937E1,-4.261126247E-1,2.053804677E0,-9.247985512E-2,2.099580469E0
1.583242437E1,-6.109686930E-1,2.310035514E0,-2.292064682E-1,2.400433800E0
1.584237038E1,-1.122027474E0,2.165170162E0,-5.778288674E-1,2.506151169E0
1.585231538E1,-1.358545008E0,1.697607502E0,-7.401487434E-1,2.296809947E0
1.586226037E1,-1.574921516E0,1.216052456E0,-5.310268763E-1,2.059405472E0
1.587220537E1,-2.082118065E0,6.385855311E-1,-4.803549054E-1,2.230190116E0
1.588215138E1,-2.647060838E0,7.702829540E-2,-1.477655715E-1,2.652300719E0
1.589209638E1,-3.112308293E0,-4.380125856E-1,-7.336559951E-2,3.143835308E0
1.590204137E1,-3.341022425E0,-7.139578950E-1,1.816086709E-1,3.421278771E0
1.591198637E1,-3.508622337E0,-8.174851871E-1,4.070767218E-1,3.625523989E0
1.592193238E1,-3.518994713E0,-7.931139922E-1,5.224405324E-1,3.644900232E0
1.593187738E1,-3.456702863E0,-6.205416083E-1,3.942552397E-1,3.534020906E0
1.594182237E1,-3.259858394E0,-3.378988981E-1,8.899959236E-2,3.278532193E0
1.595176838E1,-3.083691142E0,8.850170195E-2,-3.020917189E-1,3.099716603E0
1.596171338E1,-2.809590337E0,5.405142760E-1,-8.271933192E-1,2.978288490E0
1.597165838E1,-2.572487789E0,7.430553943E-1,-1.296586157E0,2.975056370E0
1.598160337E1,-2.311149116E0,7.871480781E-1,-1.551860974E0,2.892971624E0
1.599154938E1,-1.908831151E0,6.849352401E-1,-1.584484345E0,2.573589572E0
1.600149438E1,-1.430045638E0,5.455709481E-1,-1.415692478E0,2.084913279E0
1.601143938E1,-9.130165578E-1,4.563687497E-1,-1.132518548E0,1.524621242E0
1.602138437E1,-4.827508020E-1,4.030842429E-1,-8.305113217E-1,1.041764992E0
1.603133038E1,-7.370926961E-2,3.383274990E-1,-5.864669591E-1,6.810595034E-1
1.604127533E1,2.285786234E-1,2.541176534E-1,-4.657780892E-1,5.777310769E-1
1.605122033E1,4.996189959E-1,1.393485045E-1,-4.151374009E-1,6.643615044E-1
1.606116633E1,7.367212518E-1,-1.446191847E-2,-3.511399180E-1,8.162515494E-1
1.607111133E1,8.732537372E-1,-2.048501837E-1,-3.741039804E-1,9.718484838E-1
1.608105633E1,8.679484123E-1,-3.719729626E-1,-3.503198460E-1,1.007185348E0
1.609100133E1,8.079559797E-1,-4.795289862E-1,-3.676773056E-1,1.008923939E0
1.610094733E1,7.062340155E-1,-5.250589156E-1,-3.321370518E-1,9.406212685E-1
1.611089233E1,6.549384391E-1,-5.395044619E-1,-2.457847863E-1,8.834135977E-1
1.612083733E1,6.071796973E-1,-5.330807108E-1,-1.365769243E-1,8.194482810E-1
1.613078233E1,5.011076970E-1,-5.340215278E-1,2.260328919E-2,7.326655614E-1
1.614072833E1,3.414861649E-1,-5.308260244E-1,2.180353627E-1,6.677787721E-1
1.615067333E1,2.524982670E-1,-4.829817671E-1,2.896704787E-1,6.171999258E-1
1.616061833E1,1.015633585E-1,-4.083397204E-1,5.379876941E-1,6.829986838E-1
1.617056333E1,-1.074528202E-2,-2.557817709E-1,6.998903713E-1,7.452424486E-1
1.618050933E1,5.306245878E-2,-3.294438243E-2,7.705750224E-1,7.731020774E-1
1.619045433E1,1.482887511E-1,1.702095240E-1,8.477407274E-1,8.772828373E-1
1.620039933E1,3.212143068E-1,4.527937621E-1,8.036424887E-1,9.767507725E-1
1.621034533E1,6.549790773E-1,7.869808477E-1,6.676735286E-1,1.222343809E0
1.622029033E1,1.046453089E0,1.150898101E0,5.282456481E-1,1.642764125E0
1.623023533E1,1.205734313E0,1.364728439E0,6.778359894E-1,1.943126495E0
1.624018033E1,1.239693480E0,1.404270235E0,9.783518837E-1,2.113288249E0
1.625012633E1,1.168785319E0,1.257792220E0,1.147429533E0,2.065113780E0
1.626007133E1,9.465857153E-1,1.024125203E0,1.316491980E0,1.917813359E0
1.627001633E1,6.394605669E-1,7.764657998E-1,1.480813065E0,1.790144209E0
1.627996133E1,3.306939590E-1,5.536377668E-1,1.673733175E0,1.793671099E0
1.628990733E1,2.862475187E-2,4.860620803E-1,1.863394485E0,1.925958133E0
1.629985233E1,-1.831179835E-1,5.383917367E-1,1.992636369E0,2.072196313E0
