"Time (s)","Linear Acceleration x (m/s^2)","Linear Acceleration y (m/s^2)","Linear Acceleration z (m/s^2)","Absolute acceleration (m/s^2)"
3.337750211E-3,-5.505219318E-2,-2.558197778E-1,7.484272313E-1,7.928542257E-1
1.328275027E-2,5.782918207E-2,-4.767351866E-2,8.146337923E-1,8.180740763E-1
2.322775032E-2,1.927472513E-1,1.120741671E-1,8.480392277E-1,8.768595404E-1
3.317275038E-2,2.527574448E-1,9.697665632E-2,8.342327821E-1,8.770605068E-1
4.311675020E-2,2.920348734E-1,-9.596567273E-2,7.806477284E-1,8.389902583E-1
5.306175025E-2,2.263971734E-1,-4.190711153E-1,6.907426947E-1,8.390481214E-1
6.300675031E-2,6.559158012E-2,-6.842166173E-1,5.375818974E-1,8.726104121E-1
7.295075012E-2,-8.743078440E-2,-7.814885581E-1,3.278007567E-1,8.519517853E-1
8.289575018E-2,-1.827838151E-1,-7.163757187E-1,1.155912673E-1,7.483083820E-1
9.284075024E-2,-2.519071135E-1,-4.779052144E-1,-5.671799183E-2,5.432011767E-1
1.027857503E-1,-2.561546771E-1,-1.633209193E-1,-1.533695430E-1,3.403103848E-1
1.127297501E-1,-1.928742821E-1,5.476034403E-2,-2.235416856E-1,3.002833149E-1
1.226747502E-1,-1.863271547E-1,1.485935372E-1,-1.434114423E-1,2.781450875E-1
1.326197502E-1,-1.282220571E-1,1.391070145E-1,3.842760891E-2,1.930500934E-1
1.425637500E-1,-3.752509117E-2,4.181870162E-2,2.228800732E-1,2.298531342E-1
1.525087501E-1,1.166066363E-2,-1.317944866E-1,3.354015523E-1,3.605550708E-1
1.624537501E-1,1.608656734E-2,-3.066928929E-1,3.639254397E-1,4.761943237E-1
1.723987502E-1,3.014385849E-3,-4.082830024E-1,2.548719442E-1,4.813146627E-1
1.823427500E-1,-2.901286080E-2,-4.447778141E-1,7.509111285E-2,4.520041209E-1
1.922877501E-1,-9.589229017E-2,-3.722372568E-1,-1.466154242E-1,4.114024663E-1
2.022327501E-1,-1.507350069E-1,-1.958887410E-1,-3.102108702E-1,3.966411793E-1
2.121767504E-1,-1.590827843E-1,1.384445250E-2,-4.723874894E-1,4.986471109E-1
2.221217500E-1,-1.926099879E-1,1.427498299E-1,-5.593806097E-1,6.085908214E-1
2.320667501E-1,-2.084244405E-1,1.360600305E-1,-4.944861639E-1,5.535970064E-1
2.420117501E-1,-2.771200881E-1,-3.650182843E-2,-3.575551906E-1,4.538431899E-1
2.519557504E-1,-2.207950292E-1,-3.923236120E-1,-2.498857310E-1,5.148894444E-1
2.619007500E-1,-2.293866355E-1,-8.443946582E-1,-2.225652006E-1,9.028598097E-1
2.718457500E-1,-2.507291188E-1,-1.265364949E0,-3.352229199E-1,1.332812047E0
2.817897503E-1,-2.837432293E-1,-1.610645957E0,-5.690682766E-1,1.731626207E0
2.917347504E-1,-1.905890440E-1,-1.863324611E0,-8.500983247E-1,2.056932169E0
3.016797504E-1,-8.856602132E-2,-2.007732126E0,-1.115109633E0,2.298325853E0
3.116247500E-1,3.367089897E-2,-1.992835760E0,-1.441976005E0,2.460045303E0
3.215687503E-1,2.501799191E-1,-1.791861110E0,-1.743611349E0,2.512675221E0
3.315137504E-1,6.372795555E-1,-1.448350055E0,-1.903997258E0,2.475691554E0
3.414587504E-1,8.504257688E-1,-1.084531034E0,-1.808167241E0,2.273521569E0
3.514027502E-1,9.352195320E-1,-6.924413109E-1,-1.573518769E0,1.957056938E0
3.613477503E-1,1.042672937E0,-2.412146026E-1,-1.349456389E0,1.722319332E0
3.712927504E-1,1.130964358E0,3.112145448E-1,-1.167251594E0,1.654814538E0
3.812377504E-1,1.253135790E0,9.949744946E-1,-1.042524345E0,1.909759294E0
3.911817502E-1,1.333918290E0,1.659528680E0,-9.123963144E-1,2.316428388E0
4.011267503E-1,1.239441903E0,2.279083863E0,-7.172750205E-1,2.691639452E0
4.110717503E-1,9.905311954E-1,2.776534565E0,-5.547744656E-1,2.999678474E0
4.210157502E-1,5.630574120E-1,3.126917853E0,-5.300936607E-1,3.221125300E0
4.309607502E-1,1.537299507E-1,3.407418144E0,-7.286475626E-1,3.487844402E0
4.409057503E-1,-1.340890072E-1,3.710154226E0,-1.186473438E0,3.897556088E0
4.508507503E-1,-2.608760114E-1,4.034776436E0,-1.730081769E0,4.397801736E0
4.607947501E-1,-4.231417275E-1,4.392452956E0,-2.289345142E0,4.971296921E0
4.707397502E-1,-5.792010628E-1,4.798102373E0,-2.783241321E0,5.577068451E0
4.806847502E-1,-7.436316374E-1,5.268419656E0,-3.088685249E0,6.152171182E0
4.906297503E-1,-9.378928059E-1,5.804815153E0,-3.142701827E0,6.667240557E0
5.005737501E-1,-1.181630628E0,6.542432052E0,-2.920890040E0,7.261629757E0
5.105187502E-1,-1.549034577E0,7.123663999E0,-2.350872468E0,7.659810588E0
5.204637502E-1,-1.896321764E0,7.440263245E0,-1.561505957E0,7.835295415E0
5.304077500E-1,-2.067011052E0,7.340279950E0,-8.019017726E-1,7.667808741E0
5.403527501E-1,-2.028070204E0,7.144017572E0,-1.658013082E-1,7.428158984E0
5.502977502E-1,-1.486540851E0,7.167812816E0,5.279784304E-1,7.339353206E0
5.602427502E-1,-7.430089089E-1,7.042799345E0,1.189759281E0,7.181128881E0
5.701867500E-1,-3.228551817E-1,6.395986782E0,1.829590269E0,6.660351562E0
5.801317501E-1,-2.802460827E-1,5.357151153E0,2.407709743E0,5.880023176E0
5.900767501E-1,1.751584612E-1,4.302506407E0,3.167566527E0,5.345626210E0
6.000207504E-1,9.162858823E-1,3.389542036E0,3.957814799E0,5.290829142E0
6.099657500E-1,1.797190263E0,2.818733336E0,4.636949601E0,5.716332046E0
6.199107501E-1,2.618065958E0,2.332536185E0,4.828468718E0,5.967336472E0
6.298556668E-1,3.214161234E0,1.722136572E0,4.653679655E0,5.912133383E0
6.397996671E-1,3.463205844E0,1.014009520E0,4.337004103E0,5.641951312E0
6.497446666E-1,3.571195146E0,1.871307814E-1,3.597618713E0,5.072604174E0
6.596896667E-1,3.533475635E0,-7.053695047E-1,2.648234375E0,4.471704541E0
6.696336670E-1,2.655201040E0,-1.480174111E0,1.760995998E0,3.513134621E0
6.795786670E-1,1.416441068E0,-2.095804642E0,1.016680529E0,2.726232143E0
6.895236671E-1,5.718649998E-1,-2.373879508E0,3.872669399E-1,2.472308471E0
6.994686667E-1,1.135704696E-1,-2.266394235E0,-5.110583425E-2,2.269813404E0
7.094126670E-1,-1.174267083E-1,-1.822021633E0,-4.223888254E-1,1.874023528E0
7.193576670E-1,-4.055747183E-1,-1.273842827E0,-7.608315146E-1,1.538190818E0
7.293026671E-1,-7.651777500E-1,-8.256853223E-1,-9.531689492E-1,1.475053994E0
7.392466669E-1,-1.207094083E0,-3.900303340E-1,-1.040924839E0,1.640952256E0
7.491916670E-1,-1.595745351E0,6.828904688E-2,-9.760210374E-1,1.871812941E0
7.591366670E-1,-1.739947776E0,4.059938174E-1,-8.270442152E-1,1.968819793E0
7.690816671E-1,-1.818384665E0,6.961759275E-1,-5.420474160E-1,2.021138074E0
7.790256669E-1,-1.730325451E0,3.473877597E-1,-3.479189792E-1,1.798819624E0
7.889706669E-1,-6.613374858E-1,-3.032214010E-1,-5.638098755E-1,9.204303688E-1
7.989156670E-1,-1.695455727E-1,-8.055305547E-1,-8.398940563E-1,1.176030272E0
8.088606670E-1,-2.652282402E-2,-1.228564913E0,-1.066216385E0,1.626927345E0
8.188046669E-1,2.018510006E-1,-1.623747813E0,-1.371560326E0,2.135059370E0
8.287496669E-1,2.926471500E-1,-1.911520286E0,-1.613468408E0,2.518498056E0
8.386946670E-1,3.746331534E-1,-2.198853047E0,-1.851122641E0,2.898613420E0
8.486386668E-1,4.152533220E-1,-2.499257260E0,-2.123737376E0,3.305901181E0
8.585836668E-1,3.847352417E-1,-2.854271543E0,-2.363622907E0,3.725801993E0
8.685286669E-1,3.793115106E-1,-3.287526834E0,-2.587351411E0,4.200725798E0
8.784736670E-1,3.418426989E-1,-3.649902177E0,-2.754381804E0,4.585331117E0
8.884176668E-1,3.717889215E-1,-4.042100658E0,-2.902599950E0,4.990179476E0
8.983626668E-1,4.130451210E-1,-4.468526402E0,-3.074394654E0,5.439690888E0
9.083076669E-1,3.557612649E-1,-4.794811560E0,-3.182714909E0,5.765974173E0
9.182516667E-1,2.582950504E-1,-5.035943132E0,-3.298275478E0,6.025451078E0
9.281966668E-1,2.186569217E-1,-5.171456448E0,-3.380460141E0,6.182174650E0
9.381416668E-1,1.854881524E-1,-5.384944723E0,-3.398893196E0,6.370597341E0
9.480866669E-1,1.357055430E-1,-5.425022124E0,-3.387472122E0,6.397206298E0
9.580306667E-1,-4.809466437E-2,-5.305922527E0,-3.276710654E0,6.236341850E0
9.679756667E-1,-3.265839511E-1,-5.102672727E0,-3.131286893E0,5.995738790E0
9.779206668E-1,-4.806468277E-1,-4.813431433E0,-2.966260926E0,5.674402825E0
9.878646671E-1,-7.257587457E-1,-4.510981865E0,-2.645076878E0,5.279404780E0
9.978096667E-1,-7.641648661E-1,-4.224500458E0,-2.391220011E0,4.914090475E0
1.007754667E0,-8.851662697E-1,-3.955341427E0,-2.388121571E0,4.704398980E0
1.017699667E0,-9.837221128E-1,-3.675925795E0,-2.394558771E0,4.496003931E0
1.027643667E0,-9.713263080E-1,-3.443564461E0,-2.410763744E0,4.314324145E0
1.037588667E0,-1.191687693E0,-3.123634642E0,-2.503696466E0,4.176806068E0
1.047533667E0,-1.400426275E0,-2.479287264E0,-2.604300735E0,3.858813472E0
1.057478667E0,-1.674010333E0,-1.451829733E0,-2.594044719E0,3.411625444E0
1.067422667E0,-2.006332303E0,-1.450442773E-1,-2.249743704E0,3.017905546E0
1.077367667E0,-2.386286861E0,1.687943224E0,-1.401436089E0,3.241533653E0
1.087312667E0,-2.690842743E0,4.137736548E0,7.507240176E-3,4.935742575E0
1.097256667E0,-2.488917044E0,6.796681268E0,1.127448720E0,7.325348109E0
1.107201667E0,-2.244925452E0,8.917255300E0,1.614032080E0,9.336071547E0
1.117146667E0,-1.989777227E0,1.013773410E1,2.457570413E0,1.061944059E1
1.127091667E0,-1.869151653E0,1.060841508E1,3.473486418E0,1.131800805E1
1.137035667E0,-1.923454891E0,9.826851676E0,4.453887897E0,1.095918838E1
1.146980667E0,-2.455150250E0,7.829387260E0,4.909301797E0,9.561815296E0
1.156925667E0,-2.591803481E0,5.475826827E0,4.650682372E0,7.637471522E0
1.166869667E0,-2.362918025E0,4.001803987E0,4.063768685E0,6.173494365E0
1.176814667E0,-2.437794106E0,3.120830902E0,3.263625171E0,5.131634718E0
1.186759667E0,-2.255320340E0,2.366331922E0,2.379904479E0,4.043506143E0
1.196704667E0,-1.960927942E0,1.827767692E0,1.716069501E0,3.182902396E0
1.206648667E0,-1.668999415E0,1.359984008E0,1.378527868E0,2.556453526E0
1.216593667E0,-1.436134636E0,9.141759145E-1,1.199064540E0,2.082295865E0
1.226538667E0,-1.289197031E0,4.917911822E-1,1.160534313E0,1.802977382E0
1.236482667E0,-1.120917965E0,1.196463114E-1,1.158791258E0,1.616653798E0
1.246427667E0,-9.949477436E-1,-2.274414861E-1,1.112960781E0,1.510076933E0
1.256372667E0,-8.362325299E-1,-4.229653609E-1,1.091769887E0,1.438800204E0
1.266317667E0,-6.312626975E-1,-5.573647821E-1,1.165257986E0,1.437697558E0
1.276261667E0,-3.241972639E-1,-5.898916733E-1,1.308441387E0,1.471426150E0
1.286206667E0,2.005982347E-2,-3.983228552E-1,1.440248445E0,1.494449423E0
1.296151667E0,2.978763881E-1,-2.541199923E-3,1.435672414E0,1.466251029E0
1.306096667E0,3.663386587E-1,3.794883889E-1,1.331350485E0,1.432029876E0
1.316040667E0,4.790693951E-1,5.324176365E-1,1.169384658E0,1.371290088E0
1.325985667E0,5.370310897E-1,4.050524157E-1,9.336003649E-1,1.150686531E0
1.335930667E0,8.636002766E-1,1.031951702E-1,6.063141632E-1,1.060222404E0
1.345874667E0,6.940593816E-1,-2.546427333E-1,2.359141016E-1,7.760262948E-1
1.355819667E0,5.459855157E-1,-5.414527541E-1,-1.127787566E-1,7.771681390E-1
1.365764667E0,5.649853121E-1,-7.125709355E-1,-4.210808033E-1,1.002135113E0
1.375709667E0,6.675937872E-1,-7.533961952E-1,-7.095423701E-1,1.231559039E0
1.385653667E0,7.154666229E-1,-8.159637415E-1,-9.931150800E-1,1.471042786E0
1.395598667E0,6.227546333E-1,-9.453971225E-1,-1.233611645E0,1.674334716E0
1.405543667E0,5.586563589E-1,-1.163297707E0,-1.412739634E0,1.913424092E0
1.415487667E0,5.257317840E-1,-1.459464442E0,-1.425686831E0,2.106896606E0
1.425432667E0,4.502933465E-1,-1.743717476E0,-1.342682097E0,2.246354813E0
1.435377667E0,3.724226866E-1,-2.025318797E0,-1.328392087E0,2.450559206E0
1.445322667E0,3.541768156E-1,-2.272129769E0,-1.339194233E0,2.661100543E0
1.455266667E0,3.482373601E-1,-2.569547224E0,-1.291366348E0,2.896803279E0
1.465211667E0,3.096098495E-1,-2.816941749E0,-1.300201198E0,3.117938779E0
1.475156667E0,4.140427291E-1,-3.075635433E0,-1.356064912E0,3.386720648E0
1.485100667E0,5.519208051E-1,-3.303090368E0,-1.391442905E0,3.626449491E0
1.495045667E0,6.699066534E-1,-3.538029154E0,-1.419791376E0,3.870688927E0
1.504990667E0,7.576782574E-1,-3.753577403E0,-1.405767707E0,4.079166889E0
1.514935667E0,8.148551095E-1,-3.909902129E0,-1.461165397E0,4.252802350E0
1.524879667E0,8.436329122E-1,-4.101603679E0,-1.436843904E0,4.427119790E0
1.534824667E0,1.000516486E0,-4.207055290E0,-1.437556679E0,4.557073255E0
1.544769667E0,1.127088093E0,-4.167262648E0,-1.430554054E0,4.547844594E0
1.554714667E0,1.303055809E0,-4.110638212E0,-1.463383831E0,4.553766923E0
1.564658667E0,1.612039933E0,-3.948144674E0,-1.434952037E0,4.499511802E0
1.574603667E0,1.898537128E0,-3.614286202E0,-1.352584941E0,4.300813179E0
1.584548667E0,2.060529267E0,-3.061318526E0,-1.290896232E0,3.909458410E0
1.594492667E0,2.230706632E0,-2.444496916E0,-1.201379745E0,3.520643484E0
1.604437667E0,2.559912182E0,-1.744728459E0,-1.030655374E0,3.264885645E0
1.614382667E0,2.706532576E0,-9.818913496E-1,-8.219045126E-1,2.994153676E0
1.624327667E0,2.807840558E0,-1.973294950E-1,-6.201118380E-1,2.882264079E0
1.634271250E0,2.803171556E0,5.386688948E-1,-3.887863389E-1,2.880814081E0
1.644216250E0,2.687400779E0,1.307892918E0,-2.809625128E-1,3.001940500E0
1.654161250E0,2.378238899E0,2.206296553E0,-1.633536637E-1,3.248145496E0
1.664105250E0,1.854077824E0,3.171615724E0,-7.463415295E-2,3.674550467E0
1.674050250E0,1.320151606E0,4.157989549E0,-1.487356246E-1,4.365065823E0
1.683995250E0,8.389171328E-1,5.284860272E0,-2.107178646E-1,5.355178061E0
1.693940250E0,3.005352632E-1,6.343693963E0,-1.455029914E-1,6.352475553E0
1.703884250E0,-8.018608421E-2,7.041163879E0,-1.292936325E-2,7.041632321E0
1.713829250E0,-5.702159388E-1,7.573642911E0,2.292152390E-1,7.598536227E0
1.723774250E0,-1.114994443E0,7.701640216E0,7.441862458E-1,7.817434860E0
1.733718250E0,-1.679404389E0,7.543839653E0,1.584100183E0,7.889188121E0
1.743663250E0,-2.291103546E0,6.972191877E0,2.539524403E0,7.765938399E0
1.753608250E0,-2.800268413E0,6.109805921E0,3.747507116E0,7.695131004E0
1.763553250E0,-2.869039856E0,4.973560358E0,4.493597216E0,7.291097878E0
1.773497250E0,-8.527387811E-1,4.088522288E0,4.625630561E0,6.232145378E0
1.783442250E0,7.549531625E-1,3.176657193E0,4.521665020E0,5.577325502E0
1.793387250E0,1.364168568E0,1.961546139E0,3.811658966E0,4.498595693E0
1.803332250E0,1.753619443E0,8.169519210E-1,2.432875575E0,3.108291356E0
1.813276250E0,1.928972324E0,-9.945002854E-2,1.269348657E0,2.311291965E0
1.823221250E0,1.862654958E0,-9.730234623E-1,4.059061092E-1,2.140331264E0
1.833166250E0,1.653791684E0,-1.807975452E0,-5.974948078E-2,2.450994119E0
1.843110250E0,1.362588212E0,-2.394503222E0,-2.958623877E-1,2.770889184E0
1.853055250E0,8.959994061E-1,-2.723610831E0,-3.054380804E-1,2.883429090E0
1.863000250E0,5.413026269E-1,-2.775993113E0,2.358708322E-2,2.828374559E0
1.872945250E0,3.149465302E-1,-2.512260298E0,4.958816019E-1,2.580027458E0
1.882889250E0,1.662271316E-1,-2.165946672E0,9.493936944E-1,2.370718210E0
1.892834250E0,7.900099978E-2,-1.661050125E0,1.145142687E0,2.019079110E0
1.902779250E0,1.561754756E-1,-1.098787715E0,1.017673386E0,1.505783631E0
1.912724250E0,1.601767252E-1,-6.219040096E-1,8.190575033E-1,1.040805637E0
1.922668250E0,8.959703162E-2,-1.200801748E-1,6.504939705E-1,6.675247427E-1
1.932613250E0,-2.046122020E-1,3.294368076E-1,5.701888955E-1,6.895724327E-1
1.942558250E0,-3.832933183E-1,7.116652018E-1,5.179101098E-1,9.600062547E-1
1.952502250E0,-4.019456439E-1,1.056697703E0,4.076693371E-1,1.201817218E0
1.962447250E0,-3.792004135E-1,1.166759843E0,2.968716171E-1,1.262241753E0
1.972392250E0,-1.566450070E-1,1.012229628E0,5.009777427E-2,1.025502933E0
1.982337250E0,5.733823523E-2,6.968378323E-1,-3.057742953E-1,7.631307604E-1
1.992281250E0,-1.012211502E-2,3.007801884E-1,-6.320182309E-1,7.000130164E-1
2.002226250E0,-1.253008613E-1,-2.039321709E-1,-9.814180174E-1,1.010183132E0
2.012171250E0,-4.014164709E-1,-7.362188298E-1,-1.180430926E0,1.447953908E0
2.022115250E0,-3.533592287E-1,-1.160077060E0,-1.178205476E0,1.690801488E0
2.032060250E0,-1.068511418E-1,-1.467185690E0,-1.173404619E0,1.881735746E0
2.042005250E0,-1.386338286E-1,-1.728977230E0,-1.126346520E0,2.068148467E0
2.051950250E0,-2.921052593E-1,-1.994331477E0,-1.117394725E0,2.304615911E0
2.061894250E0,-4.505094011E-1,-2.327031616E0,-1.234259516E0,2.672345677E0
2.071839250E0,-3.054348645E-1,-2.626885605E0,-1.479547581E0,3.030326630E0
2.081784250E0,4.014011219E-2,-2.879682373E0,-1.637173897E0,3.312781334E0
2.091729250E0,1.888981023E-1,-3.127181563E0,-1.722923900E0,3.575390018E0
2.101673250E0,1.597766295E-1,-3.354278648E0,-1.818180013E0,3.818702971E0
2.111618250E0,8.342017919E-2,-3.515996845E0,-1.928236890E0,4.010896440E0
2.121563250E0,-1.191779494E-2,-3.713182499E0,-2.016069963E0,4.225210575E0
2.131507250E0,-1.429647151E-1,-3.847457374E0,-2.079683284E0,4.375894162E0
2.141452250E0,-2.417714037E-1,-3.948095557E0,-2.148031096E0,4.501105367E0
2.151397250E0,-3.061817001E-1,-4.019364930E0,-2.232738539E0,4.608054151E0
2.161342250E0,-3.842253645E-1,-4.068907219E0,-2.314594296E0,4.696911947E0
2.171286250E0,-5.395467080E-1,-4.050125377E0,-2.414798031E0,4.746143250E0
2.181231250E0,-7.497444628E-1,-3.902657429E0,-2.546811203E0,4.720074054E0
2.191176250E0,-1.026774431E0,-3.587917598E0,-2.700975383E0,4.606808704E0
2.201120250E0,-1.297383717E0,-3.112169421E0,-2.790556773E0,4.376757946E0
2.211065250E0,-1.579759502E0,-2.629863592E0,-2.872937025E0,4.203045295E0
2.221010250E0,-1.691274237E0,-2.251675040E0,-2.832742972E0,3.994356240E0
2.230955250E0,-1.689517733E0,-1.744363593E0,-2.629402539E0,3.579250233E0
2.240899250E0,-1.587039724E0,-1.196460775E0,-2.263857421E0,3.012517866E0
2.250844250E0,-1.470342894E0,-6.418418455E-1,-1.588852215E0,2.257946089E0
2.260789250E0,-1.690521993E0,-2.164054513E-2,-7.934428981E-1,1.867587897E0
2.270734250E0,-1.914913425E0,5.932690251E-1,-5.583728421E-1,2.081019412E0
2.280678250E0,-1.913331607E0,1.402171669E0,-5.069989130E-1,2.425689825E0
2.290623250E0,-1.773600548E0,2.685979321E0,-2.329396230E-1,3.227135678E0
2.300568250E0,-1.738171830E0,4.330785881E0,8.778629512E-2,4.667403357E0
2.310512250E0,-1.540073134E0,5.902018681E0,3.520020899E-1,6.109791751E0
2.320457250E0,-1.379364312E0,7.239761050E0,6.478960526E-1,7.398415727E0
2.330402250E0,-1.422885138E0,8.278416000E0,1.107260916E0,8.472473094E0
2.340347250E0,-9.543277211E-1,8.406272972E0,2.068387633E0,8.709442811E0
2.350291250E0,-8.493279541E-1,8.151749521E0,2.677236564E0,8.622063202E0
2.360236250E0,-1.239529027E0,7.653543359E0,3.313808899E0,8.431754715E0
2.370181250E0,-1.562154851E0,6.956266401E0,3.528414870E0,7.954852702E0
2.380125250E0,-1.533610645E0,6.082596488E0,3.287961282E0,7.082417034E0
2.390070250E0,-1.222324326E0,4.936453927E0,2.841610275E0,5.825581781E0
2.400015250E0,-1.103779630E0,3.868011507E0,2.493040500E0,4.732345446E0
2.409960250E0,-1.194690165E0,2.926874081E0,2.100259928E0,3.795387759E0
2.419904250E0,-1.261209625E0,2.081388917E0,1.568063317E0,2.895108307E0
2.429849250E0,-1.347843288E0,1.330780674E0,1.073795546E0,2.177313851E0
2.439794250E0,-1.379049732E0,6.400280392E-1,6.981464392E-1,1.672968172E0
2.449739250E0,-1.316756127E0,-6.689039290E-2,3.540360439E-1,1.365160263E0
2.459683250E0,-1.186369212E0,-7.816628051E-1,2.007115245E-1,1.434835797E0
2.469628250E0,-9.796561783E-1,-1.334701232E0,5.111255854E-2,1.656431737E0
2.479573250E0,-7.947783291E-1,-1.705914057E0,1.136494070E-2,1.882005453E0
2.489517250E0,-6.939983513E-1,-1.916126137E0,1.538928688E-1,2.043735820E0
2.499462250E0,-5.925065482E-1,-1.833987960E0,2.955188638E-1,1.949848006E0
2.509407250E0,-5.090465348E-1,-1.447447829E0,4.234419090E-1,1.591708718E0
2.519352250E0,-5.711092472E-1,-9.843658912E-1,5.179750139E-1,1.250375981E0
2.529296250E0,-6.077715817E-1,-6.037583452E-1,5.399804252E-1,1.012664453E0
2.539241250E0,-5.634429628E-1,-3.601136398E-1,5.155256152E-1,8.443438078E-1
2.549186250E0,-4.473978784E-1,-2.560232610E-1,3.749337003E-1,6.374072884E-1
2.559131250E0,-4.009987604E-1,-3.113180405E-1,1.184812537E-1,5.213029212E-1
2.569075250E0,-4.855109802E-1,-4.409847254E-1,-1.275382984E-1,6.681724758E-1
2.579020250E0,-4.196067202E-1,-6.292446041E-1,-3.468375367E-1,8.320545945E-1
2.588965250E0,-4.075714693E-1,-8.732652855E-1,-5.129244813E-1,1.091695143E0
2.598909250E0,-3.659611478E-1,-1.092309000E0,-6.414728862E-1,1.318542369E0
2.608854250E0,-1.119264518E-1,-1.306945669E0,-8.000970295E-1,1.536486176E0
2.618799250E0,1.199192302E-1,-1.514361026E0,-8.493609908E-1,1.740426394E0
2.628744250E0,3.041526432E-1,-1.753796321E0,-8.526488802E-1,1.973656626E0
2.638689125E0,4.191928835E-1,-1.983708841E0,-1.003080490E0,2.262077343E0
2.648634125E0,6.201271869E-1,-2.206933900E0,-1.238953661E0,2.605786088E0
2.658579125E0,8.921623901E-1,-2.381024221E0,-1.396389065E0,2.900884777E0
2.668523125E0,1.213921000E0,-2.679052709E0,-1.439457609E0,3.274593993E0
2.678468125E0,1.524744658E0,-2.942007260E0,-1.409611959E0,3.601008034E0
2.688413125E0,1.736242249E0,-3.105506519E0,-1.430670121E0,3.834778335E0
2.698358125E0,1.871664056E0,-3.357227399E0,-1.430915996E0,4.101417162E0
2.708302125E0,2.051149457E0,-3.641768700E0,-1.477532631E0,4.433147418E0
2.718247125E0,2.183202098E0,-3.833376694E0,-1.559997375E0,4.679181562E0
2.728192125E0,2.337463049E0,-4.003050029E0,-1.630705415E0,4.913994626E0
2.738137125E0,2.425359125E0,-4.175570372E0,-1.640527860E0,5.099910439E0
2.748081125E0,2.476813892E0,-4.394743896E0,-1.679042008E0,5.316724840E0
2.758026125E0,2.459310544E0,-4.543741475E0,-1.749114456E0,5.454649056E0
2.767971125E0,2.462699298E0,-4.692542589E0,-1.773071375E0,5.588257858E0
2.777915125E0,2.562322404E0,-4.689253530E0,-1.762577962E0,5.626835331E0
2.787860125E0,2.627241409E0,-4.526724324E0,-1.757849319E0,5.521201386E0
2.797805125E0,2.538784438E0,-4.142821287E0,-1.802657117E0,5.182467300E0
2.807750125E0,2.110795003E0,-3.653095341E0,-1.795168880E0,4.585105498E0
2.817694125E0,1.927945407E0,-3.050523981E0,-1.805937697E0,4.035353890E0
2.827639125E0,1.790111770E0,-2.218769249E0,-1.912407893E0,3.432891067E0
2.837584125E0,1.586104170E0,-1.085499333E0,-1.857586738E0,2.672950379E0
2.847529125E0,1.395090106E0,1.514265132E-1,-1.607213349E0,2.133621602E0
2.857473125E0,1.294846172E0,1.432149174E0,-1.222144085E0,2.285019482E0
2.867418125E0,1.277794229E0,2.832443887E0,-7.390477127E-1,3.194008138E0
2.877363125E0,1.180284453E0,4.337996083E0,-3.312260556E-1,4.507881110E0
2.887307125E0,9.890546273E-1,5.534658587E0,6.197551578E-2,5.622678694E0
2.897252125E0,6.046339658E-1,6.104208382E0,5.156393436E-1,6.155714917E0
2.907197125E0,5.996568158E-2,6.203023987E0,9.642196020E-1,6.277803908E0
2.917142125E0,-3.189197132E-1,6.094777408E0,1.028834551E0,6.189226282E0
2.927086125E0,-4.790740728E-1,6.196893767E0,5.186106062E-1,6.236983348E0
2.937031125E0,-6.456333263E-1,6.450560600E0,1.507722098E-1,6.484543677E0
2.946976125E0,-1.017345211E0,6.831761638E0,6.338966489E-2,6.907385656E0
2.956921125E0,-1.235687114E0,7.227477804E0,2.556712586E-1,7.336806243E0
2.966865125E0,-1.233657107E0,7.639107168E0,6.271244037E-1,7.763449826E0
2.976810125E0,-1.277939971E0,7.961815585E0,1.222326518E0,8.155839632E0
2.986755125E0,-1.313847576E0,8.106454065E0,1.922118364E0,8.434176425E0
2.996699125E0,-9.947721809E-1,8.040250136E0,2.768619774E0,8.561568162E0
3.006644125E0,-3.417109904E-1,7.435486654E0,3.825982890E0,8.369072425E0
3.016589125E0,3.539041892E-2,6.335131300E0,4.684239542E0,7.878911166E0
3.026534125E0,1.768648249E-1,5.027235458E0,5.207617968E0,7.240418664E0
3.036478125E0,4.645899349E-1,3.476974867E0,5.269331821E0,6.330170288E0
3.046423125E0,1.263767490E0,2.057431705E0,4.897354766E0,5.460239664E0
3.056368125E0,1.965101392E0,6.725309569E-1,4.216759914E0,4.700530347E0
3.066312125E0,2.348806647E0,-5.683897072E-1,3.347219889E0,4.128418645E0
3.076257125E0,2.099670821E0,-1.559392773E0,2.440797383E0,3.577403422E0
3.086202125E0,1.824244014E0,-2.451747463E0,1.783460123E0,3.538313420E0
3.096147125E0,1.506779819E0,-3.135260076E0,1.402051801E0,3.750465360E0
3.106091125E0,1.257141133E0,-3.549140033E0,1.082069649E0,3.917610691E0
3.116036125E0,1.040045418E0,-3.559010718E0,6.751288748E-1,3.768826178E0
3.125981125E0,7.649242732E-1,-3.166459649E0,2.714537707E-1,3.268832055E0
3.135926125E0,4.482039902E-1,-2.382313532E0,-1.257797483E-1,2.427370002E0
3.145870125E0,7.292413473E-2,-1.346740649E0,-3.833104214E-1,1.402125239E0
3.155815125E0,-2.667716128E-1,-2.981618053E-1,-2.950955254E-1,4.971407493E-1
3.165760125E0,-7.896807995E-1,6.463026863E-1,4.047238022E-2,1.021244800E0
3.175704125E0,-1.151211220E0,1.215444930E0,3.809843990E-1,1.716899171E0
3.185649125E0,-1.555066126E0,1.859038017E0,6.183550420E-1,2.501322842E0
3.195594125E0,-1.828694768E0,1.760969685E0,8.448560035E-1,2.675615902E0
3.205539125E0,-1.745740612E0,1.182026339E0,5.112015992E-1,2.169360188E0
3.215483125E0,-1.436852382E0,1.038173139E-1,1.554277629E-2,1.440681915E0
3.225428125E0,-1.039491686E0,-8.368476570E-1,-6.160632259E-1,1.469826815E0
3.235373125E0,-5.420819145E-1,-1.558183569E0,-1.327406831E0,2.117497988E0
3.245318125E0,-1.404422262E-1,-2.086566042E0,-1.893320535E0,2.821018347E0
3.255262125E0,1.950844565E-1,-2.527689346E0,-2.256178857E0,3.393761101E0
3.265207125E0,3.958000740E-1,-2.942135314E0,-2.463097786E0,3.857417349E0
3.275152125E0,4.530112785E-1,-3.284937102E0,-2.542890645E0,4.178794541E0
3.285096125E0,5.212900928E-1,-3.585573449E0,-2.632545710E0,4.478657973E0
3.295041125E0,5.412910786E-1,-3.793063066E0,-2.617334471E0,4.640125342E0
3.304986125E0,4.240222451E-1,-3.998097437E0,-2.551598611E0,4.761851893E0
3.314931125E0,3.070697460E-1,-4.191422174E0,-2.547967198E0,4.914717541E0
3.324875125E0,1.791987410E-1,-4.350689219E0,-2.586270553E0,5.064524088E0
3.334820125E0,1.366678485E-1,-4.497955438E0,-2.591342428E0,5.192815884E0
3.344765125E0,1.160584599E-1,-4.614951206E0,-2.520584979E0,5.259714141E0
3.354709125E0,1.616924697E-1,-4.728633358E0,-2.427684124E0,5.317872516E0
3.364654125E0,2.594701946E-1,-4.850077688E0,-2.363255409E0,5.401440039E0
3.374599125E0,3.102061924E-1,-4.950550979E0,-2.332140036E0,5.481154990E0
3.384544125E0,4.036096153E-1,-5.144087970E0,-2.350661676E0,5.670110412E0
3.394488125E0,4.413054451E-1,-5.301315506E0,-2.375985090E0,5.826148105E0
3.404433125E0,4.419188181E-1,-5.314391050E0,-2.464216943E0,5.874556121E0
3.414378125E0,3.871061414E-1,-5.053569564E0,-2.590190819E0,5.691880619E0
3.424323125E0,2.359795904E-1,-4.575711712E0,-2.680156079E0,5.308112719E0
3.434267125E0,-2.360404015E-2,-3.962842235E0,-2.690244572E0,4.789790349E0
3.444212125E0,-3.104023665E-1,-3.280201442E0,-2.648347518E0,4.227270480E0
3.454157125E0,-6.510819080E-1,-2.582735619E0,-2.574288146E0,3.704239516E0
3.464101125E0,-1.030113045E0,-1.805614346E0,-2.376255524E0,3.157208635E0
3.474046125E0,-1.468836652E0,-9.232390988E-1,-2.016857876E0,2.660369755E0
3.483991125E0,-1.885872059E0,3.513439858E-1,-1.329154856E0,2.333797046E0
3.493936125E0,-2.379111596E0,1.967471123E0,-8.531730831E-1,3.202970327E0
3.503880125E0,-2.770451122E0,3.681444982E0,-6.073005885E-1,4.647284215E0
3.513825125E0,-3.123728490E0,5.370371708E0,1.493846655E-2,6.212792859E0
3.523770125E0,-3.299693136E0,7.023080195E0,1.105385714E0,7.837953036E0
3.533715125E0,-2.954446042E0,8.236937606E0,2.493243983E0,9.099019623E0
3.543659125E0,-2.746885381E0,9.416437363E0,3.524321819E0,1.042283628E1
3.553604125E0,-2.295022203E0,1.010175501E1,4.468255383E0,1.128175019E1
3.563549125E0,-2.222547427E0,1.018670921E1,5.039047419E0,1.158018827E1
3.573493125E0,-2.366193197E0,9.345341653E0,5.561266927E0,1.112932930E1
3.583438125E0,-2.571125972E0,7.180527002E0,5.570696146E0,9.444750518E0
3.593383125E0,-2.760373153E0,5.145822254E0,4.669296106E0,7.476728746E0
3.603328125E0,-3.190754830E0,3.613915488E0,3.401836976E0,5.900321716E0
3.613272125E0,-3.167533198E0,2.330442297E0,2.339433853E0,4.575716186E0
3.623217125E0,-2.775937564E0,1.211406843E0,1.574283000E0,3.413459076E0
3.633161250E0,-2.408580979E0,3.120927966E-1,7.932467240E-1,2.554976440E0
3.643106250E0,-2.155462614E0,-5.136264396E-1,9.791981220E-2,2.217976441E0
3.653050250E0,-1.859795962E0,-1.293573672E0,-3.841676232E-1,2.297772536E0
3.662995250E0,-1.436907054E0,-1.982815971E0,-6.733744177E-1,2.539624807E0
3.672940250E0,-9.644916438E-1,-2.332453739E0,-7.373490965E-1,2.629499623E0
3.682884250E0,-6.200862564E-1,-2.090319954E0,-4.976696804E-1,2.236430099E0
3.692829250E0,-5.769792670E-1,-1.566376687E0,1.681460416E-1,1.677710968E0
3.702774250E0,-7.210138763E-1,-7.129983670E-1,8.848073968E-1,1.345775542E0
3.712719250E0,-5.200422969E-1,6.709329128E-2,1.312548763E0,1.413410682E0
3.722663250E0,-2.340773450E-1,8.246912956E-1,1.408893920E0,1.649208906E0
3.732608250E0,-2.601214282E-1,1.396758901E0,1.372751988E0,1.975612970E0
3.742553250E0,-1.609330626E-1,1.769767406E0,1.222504566E0,2.156963963E0
3.752498250E0,1.020339131E-4,1.733019994E0,9.145682627E-1,1.959539083E0
3.762442250E0,-8.628926173E-2,1.044615017E0,3.838425180E-1,1.116244350E0
3.772387250E0,-7.180731654E-2,7.839069664E-2,-3.316388690E-1,3.482610106E-1
3.782332250E0,1.258649714E-1,-6.650728333E-1,-8.153348735E-1,1.059686190E0
3.792276250E0,3.280131568E-1,-1.419644319E0,-1.074379975E0,1.810324544E0
3.802221250E0,5.165832303E-1,-2.005940539E0,-1.296602529E0,2.443733578E0
3.812166250E0,6.431412430E-1,-2.448139147E0,-1.459513851E0,2.921848152E0
3.822111250E0,8.070562394E-1,-2.834499768E0,-1.579486145E0,3.343726243E0
3.832055250E0,8.877152172E-1,-3.318670274E0,-1.633171186E0,3.803795317E0
3.842000250E0,1.102674506E0,-3.722019981E0,-1.619821993E0,4.206322276E0
3.851945250E0,1.254295439E0,-3.963021160E0,-1.636368736E0,4.467269457E0
3.861890250E0,1.399934670E0,-4.276611428E0,-1.639543774E0,4.789292868E0
3.871834250E0,1.572167623E0,-4.666945233E0,-1.585269041E0,5.173506236E0
3.881779250E0,1.677243404E0,-4.923864872E0,-1.626032320E0,5.449914845E0
3.891724250E0,1.701861936E0,-5.170486395E0,-1.694424278E0,5.700994408E0
3.901668250E0,1.677862625E0,-5.470249168E0,-1.775702038E0,5.990990458E0
3.911613250E0,1.649338299E0,-5.715914671E0,-1.851459148E0,6.230561638E0
3.921558250E0,1.760480858E0,-5.904749331E0,-1.983265622E0,6.472920518E0
3.931503250E0,1.842511300E0,-5.997663926E0,-2.109283936E0,6.619357914E0
3.941447250E0,1.852472909E0,-6.062699583E0,-2.292708752E0,6.741253261E0
3.951392250E0,1.894868585E0,-6.133167887E0,-2.431216427E0,6.864188852E0
3.961337250E0,2.034204518E0,-6.014406844E0,-2.601226854E0,6.861301542E0
3.971282250E0,2.090233854E0,-5.747268026E0,-2.773940740E0,6.715274719E0
3.981226250E0,2.179416903E0,-5.243360828E0,-2.904969826E0,6.378208252E0
3.991171250E0,2.229788327E0,-4.369750557E0,-2.987828673E0,5.744022640E0
4.001116250E0,2.215701215E0,-3.246849509E0,-2.961517372E0,4.921579904E0
4.011060250E0,2.217870678E0,-1.908736426E0,-2.845466806E0,4.081532363E0
4.021005250E0,2.128811005E0,-2.338365859E-1,-2.489261445E0,3.283738477E0
4.030950250E0,1.878392154E0,1.653339987E0,-1.507059608E0,2.921150263E0
4.040895250E0,1.591899491E0,3.859752315E0,-1.834224772E-1,4.179171655E0
4.050839250E0,1.398271869E0,6.181434313E0,7.611472642E-1,6.383152790E0
4.060784250E0,1.305977809E0,8.078516069E0,1.712473756E0,8.360655852E0
4.070729250E0,1.084893562E0,9.419273263E0,3.258121771E0,1.002571994E1
4.080674250E0,2.923884107E-1,9.865775421E0,3.834486496E0,1.058878191E1
4.090618250E0,-9.615108794E-1,9.792601025E0,2.737233090E0,1.021332380E1
4.100563250E0,-1.278796734E0,9.390130155E0,1.265934468E0,9.560986115E0
4.110508250E0,-1.186401225E0,8.783668642E0,2.229250968E-2,8.863457544E0
4.120452250E0,-9.474087109E-1,8.183843719E0,-7.102642089E-1,8.269060196E0
4.130397250E0,-1.310671953E0,7.774433958E0,-5.611701500E-1,7.904087314E0
4.140342250E0,-1.685863077E0,7.668678292E0,2.959015641E-1,7.857373531E0
4.150287250E0,-1.777258274E0,7.705366062E0,1.559196891E0,8.059926058E0
4.160231250E0,-2.234315680E0,7.642396812E0,2.913959043E0,8.478770718E0
4.170176250E0,-2.686968378E0,7.181016998E0,4.282022149E0,8.781942717E0
4.180121250E0,-3.075631925E0,6.014158337E0,5.675526198E0,8.822766565E0
4.190066250E0,-2.556325500E0,4.604967086E0,6.295490102E0,8.208149459E0
4.200010250E0,-3.391645280E-1,3.330846516E0,5.831013603E0,6.723859808E0
4.209955250E0,9.634556633E-1,1.818512135E0,5.104953141E0,5.504160224E0
4.219900250E0,1.635008966E0,3.892345279E-1,4.222074448E0,4.544300879E0
4.229844250E0,2.202842603E0,-7.393301332E-1,3.270031672E0,4.011512398E0
4.239789250E0,2.710262223E0,-1.776665366E0,2.495289632E0,4.090052749E0
4.249734250E0,3.115059992E0,-2.348864534E0,1.735227611E0,4.269868642E0
4.259679250E0,3.023719175E0,-2.725380784E0,1.279079301E0,4.266921832E0
4.269623250E0,2.454342750E0,-2.791194704E0,9.211481345E-1,3.829240146E0
4.279568250E0,1.286771313E0,-2.607703230E0,7.803275934E-1,3.010781908E0
4.289513250E0,6.806281811E-1,-1.943557180E0,5.888736731E-1,2.141831328E0
4.299458250E0,5.418489030E-1,-1.233164917E0,5.235023868E-1,1.445112693E0
4.309402250E0,1.081027383E-1,-6.619036424E-1,4.739250147E-1,8.212232056E-1
4.319347250E0,-2.946958682E-1,-4.585649639E-1,2.570778063E-1,6.026744390E-1
4.329292250E0,-5.745140809E-1,-2.979583222E-1,1.602429450E-2,6.473811620E-1
4.339236250E0,-8.942585438E-1,-4.152791959E-1,-1.211551854E-1,9.933950537E-1
4.349181250E0,-9.330305538E-1,-8.392748362E-1,-4.548104668E-1,1.334833632E0
4.359126250E0,-7.984598091E-1,-1.322196377E0,-9.960956982E-1,1.837919467E0
4.369071250E0,-5.720576656E-1,-1.831466641E0,-1.520755541E0,2.448309099E0
4.379015250E0,-3.257086229E-1,-2.386018912E0,-1.784624596E0,2.997341707E0
4.388960250E0,-1.257239074E-2,-2.926351925E0,-1.977719830E0,3.532006424E0
4.398905250E0,4.510735112E-1,-3.304971417E0,-2.129958814E0,3.957654347E0
4.408850250E0,7.939127219E-1,-3.580139632E0,-2.119185319E0,4.235403594E0
4.418794250E0,9.700568774E-1,-3.863136683E0,-2.125836819E0,4.514866284E0
4.428739250E0,1.083486722E0,-4.091564010E0,-2.212416541E0,4.775942470E0
4.438684250E0,1.023921136E0,-4.278757356E0,-2.280754412E0,4.955604877E0
4.448628250E0,9.724691463E-1,-4.444567435E0,-2.277074760E0,5.087724972E0
4.458573250E0,9.435388774E-1,-4.572228525E0,-2.365006650E0,5.233430592E0
4.468518250E0,9.308366784E-1,-4.663576652E0,-2.400503342E0,5.327083668E0
4.478463250E0,9.662289977E-1,-4.706285300E0,-2.317433411E0,5.334155736E0
4.488407250E0,8.665322167E-1,-4.702033789E0,-2.238105991E0,5.279120974E0
4.498352250E0,7.958639377E-1,-4.762469441E0,-2.311771553E0,5.353391663E0
4.508297250E0,7.650950119E-1,-4.827804474E0,-2.445776579E0,5.465792668E0
4.518242250E0,7.039726049E-1,-4.892324991E0,-2.531518688E0,5.553288045E0
4.528186250E0,6.971687847E-1,-4.899056890E0,-2.576382619E0,5.578938082E0
4.538131250E0,6.859120175E-1,-4.783218870E0,-2.581197217E0,5.478342553E0
4.548076250E0,5.979084983E-1,-4.581316853E0,-2.664095532E0,5.333232011E0
4.558020250E0,2.494115219E-1,-4.201947162E0,-2.717628545E0,5.010396289E0
4.567965250E0,-1.388991460E-1,-3.643247461E0,-2.712870373E0,4.544470343E0
4.577910250E0,-5.720781308E-1,-3.023473007E0,-2.518153707E0,3.976148954E0
4.587855250E0,-9.817518935E-1,-2.328348409E0,-2.009989444E0,3.228792446E0
4.597799250E0,-1.349680337E0,-1.414419247E0,-1.436450678E0,2.426027487E0
4.607744250E0,-1.957734632E0,-3.865225893E-1,-1.106134157E0,2.281590974E0
4.617689250E0,-2.779699955E0,1.821735120E-1,-5.518605056E-1,2.839800882E0
4.627634250E0,-3.339051037E0,8.070256877E-1,-1.991181582E-1,3.440959216E0
4.637579000E0,-3.782309452E0,1.864498147E0,-4.347404838E-3,4.216898982E0
4.647524000E0,-3.863214159E0,3.122103841E0,1.255400124E-1,4.968673497E0
4.657469000E0,-3.439159754E0,4.704240528E0,2.094712383E-1,5.831087117E0
4.667413000E0,-3.340817773E0,6.396308963E0,3.253104275E-1,7.223548894E0
4.677358000E0,-3.229061987E0,8.067848409E0,6.454893386E-1,8.713993100E0
4.687303000E0,-3.366490265E0,9.838678254E0,1.242985608E0,1.047271979E1
4.697248000E0,-3.920953367E0,1.110553015E1,1.839733727E0,1.192020534E1
4.707192000E0,-4.687385637E0,1.118191584E1,2.450720108E0,1.236983650E1
4.717137000E0,-5.832193571E0,1.039422338E1,3.140484563E0,1.232546165E1
4.727082000E0,-6.449471848E0,8.357239391E0,3.879955322E0,1.124691916E1
4.737027000E0,-5.287154135E0,6.382307221E0,4.419969076E0,9.392761625E0
4.746971000E0,-4.244613418E0,4.921404948E0,4.062491946E0,7.664255381E0
4.756916000E0,-3.299153438E0,3.655460540E0,3.275460520E0,5.914004293E0
4.766861000E0,-2.092856330E0,2.543120733E0,2.450503761E0,4.105177141E0
4.776806000E0,-1.199431307E0,1.369169984E0,1.566885980E0,2.401748026E0
4.786750000E0,-4.963372461E-1,1.605423224E-1,6.256298554E-1,8.145779368E-1
4.796695000E0,-4.235971525E-2,-9.470127082E-1,-1.343257463E-1,9.574292773E-1
4.806640000E0,4.556064190E-1,-1.820537025E0,-7.165140054E-1,2.008811736E0
4.816584000E0,8.744861841E-1,-2.522520407E0,-1.150463068E0,2.907129265E0
4.826529000E0,9.835963976E-1,-3.086470324E0,-1.226487689E0,3.463817689E0
4.836474000E0,1.375796487E0,-3.529620273E0,-9.984532955E-1,3.917645240E0
4.846419000E0,1.716450740E0,-3.405120188E0,-4.974773070E-1,3.845585821E0
4.856363000E0,1.810849066E0,-2.977522078E0,8.715011805E-2,3.486030294E0
4.866308000E0,1.726808205E0,-2.055385764E0,6.141397843E-1,2.753841842E0
4.876253000E0,1.616124798E0,-9.768218136E-1,1.064492041E0,2.167760025E0
4.886198000E0,1.448174346E0,-9.104991853E-2,1.318473455E0,1.960579321E0
4.896142000E0,8.292896922E-1,5.240011543E-1,1.275758083E0,1.609303355E0
4.906087000E0,1.393830031E-3,8.616035986E-1,9.059728557E-1,1.250259781E0
4.916032000E0,-2.275759721E-1,9.305370086E-1,3.177160639E-1,1.009273721E0
4.925976000E0,-1.516278036E-1,5.734469640E-1,-3.492907360E-1,6.883577774E-1
4.935921000E0,-8.597453535E-3,-1.560592622E-1,-1.008314040E0,1.020355631E0
4.945866000E0,9.363044098E-2,-9.789958084E-1,-1.541032808E0,1.828108741E0
4.955811000E0,2.646579905E-1,-1.812986516E0,-1.781413305E0,2.555464209E0
4.965755000E0,4.881974834E-1,-2.473799652E0,-1.722014365E0,3.053416935E0
4.975700000E0,6.883678481E-1,-2.988039465E0,-1.666941195E0,3.490117919E0
4.985645000E0,8.684701301E-1,-3.445171861E0,-1.588000568E0,3.891682839E0
4.995590000E0,1.053405136E0,-3.782129357E0,-1.436335781E0,4.180577153E0
5.005534000E0,1.219726554E0,-3.964846076E0,-1.324755411E0,4.354619865E0
5.015479000E0,1.309371094E0,-4.170355825E0,-1.319485900E0,4.565891305E0
5.025424000E0,1.412457214E0,-4.297657896E0,-1.383899412E0,4.730758539E0
5.035368000E0,1.456017801E0,-4.542909417E0,-1.496644255E0,4.999795779E0
5.045313000E0,1.528667994E0,-4.780280060E0,-1.588839351E0,5.264248642E0
5.055258000E0,1.716381011E0,-4.886742654E0,-1.662290612E0,5.439616496E0
5.065203000E0,1.883785334E0,-5.002635053E0,-1.701687105E0,5.609879113E0
5.075147000E0,1.961204369E0,-5.068118021E0,-1.733066772E0,5.704004145E0
5.085092000E0,2.036576733E0,-5.100927917E0,-1.846528484E0,5.794547251E0
5.095037000E0,2.204225469E0,-5.066388999E0,-1.888739826E0,5.839027791E0
5.104982000E0,2.357853751E0,-4.800963416E0,-1.893832166E0,5.674092377E0
5.114926000E0,2.416980504E0,-4.290776308E0,-2.032512918E0,5.327632199E0
5.124871000E0,2.520364247E0,-3.560974213E0,-2.157524343E0,4.866999545E0
5.134816000E0,2.477935973E0,-2.794791327E0,-2.134964907E0,4.302220403E0
5.144761000E0,2.291878448E0,-1.828688629E0,-1.914529848E0,3.501747201E0
5.154705000E0,1.794951949E0,-6.277523947E-1,-1.488598486E0,2.414922570E0
5.164650000E0,1.323046270E0,7.781404424E-1,-9.347125053E-1,1.797120321E0
5.174595000E0,1.097379852E0,2.312590163E0,-3.584082994E-1,2.584719000E0
5.184539000E0,1.090112202E0,3.835976366E0,2.231420285E-1,3.994102109E0
5.194484000E0,1.228053866E0,5.362023053E0,6.269732532E-1,5.536470264E0
5.204429000E0,1.215465103E0,6.625786450E0,8.162251121E-1,6.785618979E0
5.214374000E0,8.306836684E-1,7.576233228E0,9.844249481E-1,7.684948780E0
5.224318000E0,-2.321071257E-1,7.865311968E0,9.102258280E-1,7.921206798E0
5.234263000E0,-1.101538392E0,8.134290905E0,2.865968898E-1,8.213538405E0
5.244208000E0,-1.503669977E0,8.513641884E0,-3.555723998E-1,8.652719415E0
5.254153000E0,-1.763840230E0,8.807689589E0,-7.417450333E-1,9.013141181E0
5.264097000E0,-2.526126970E0,9.064691674E0,-7.142338836E-1,9.437164969E0
5.274042000E0,-3.150083937E0,9.234987152E0,1.626923436E-1,9.758815773E0
5.283987000E0,-3.485219441E0,9.690766502E0,2.099307417E0,1.051022367E1
5.293931000E0,-1.662579465E0,9.476817466E0,4.774528738E0,1.074105974E1
5.303876000E0,1.031533772E0,8.265895942E0,6.674121873E0,1.067394025E1
5.313821000E0,1.764361655E0,5.915902310E0,7.039969293E0,9.363334867E0
5.323766000E0,1.733181670E0,3.885826219E0,5.503114028E0,6.956136004E0
5.333710000E0,1.693374995E0,2.376998997E0,3.345144420E0,4.439328136E0
5.343655000E0,1.878762722E0,9.249488246E-1,1.738654956E0,2.721801012E0
5.353600000E0,2.136804734E0,-3.792042142E-1,6.467856663E-1,2.264522467E0
5.363545000E0,2.137425416E0,-1.362878380E0,-1.162520027E-1,2.537624758E0
5.373489000E0,1.992864119E0,-2.339830002E0,-4.983283693E-1,3.113622166E0
5.383434000E0,1.899414503E0,-3.216681384E0,-4.627580023E-1,3.764167843E0
5.393379000E0,1.645362630E0,-3.676414622E0,-3.124819288E-1,4.039911833E0
5.403323000E0,1.026761713E0,-3.788943118E0,-1.138052353E-1,3.927248553E0
5.413268000E0,5.984628144E-1,-3.556906305E0,1.622517559E-1,3.610549243E0
5.423213000E0,4.531516117E-1,-2.810114540E0,3.920908928E-1,2.873295213E0
5.433158000E0,1.768569311E-1,-1.978958563E0,4.470690456E-1,2.036523041E0
5.443102000E0,-1.951791814E-1,-1.138318402E0,5.023731807E-1,1.259461198E0
5.453047000E0,-6.379008222E-1,-2.092338413E-1,5.877986625E-1,8.923023741E-1
5.462992000E0,-1.056685716E0,5.316510665E-1,7.647152352E-1,1.408554916E0
5.472937000E0,-1.419129764E0,1.187469512E0,8.690172833E-1,2.044310193E0
5.482881000E0,-1.799992248E0,1.384904841E0,6.632140034E-1,2.365964143E0
5.492826000E0,-1.976806495E0,1.023115974E0,1.565071589E-1,2.231372830E0
5.502771000E0,-1.798420517E0,4.145021009E-1,-5.536842522E-1,1.926835384E0
5.512716000E0,-1.424144921E0,-3.911079758E-1,-1.268090921E0,1.946589014E0
5.522660000E0,-9.369859028E-1,-1.279046849E0,-1.682709382E0,2.312015200E0
5.532605000E0,-2.657205757E-1,-2.023768115E0,-1.847052102E0,2.752788818E0
5.542550000E0,3.754321754E-1,-2.603235957E0,-1.917645829E0,3.255019553E0
5.552494000E0,6.388483635E-1,-3.123682589E0,-1.884930365E0,3.703847004E0
5.562439000E0,5.852118543E-1,-3.456478037E0,-1.903348509E0,3.989041098E0
5.572384000E0,5.812851566E-1,-3.790516019E0,-1.967405634E0,4.310056734E0
5.582329000E0,6.413126725E-1,-4.137677491E0,-1.983111255E0,4.632967431E0
5.592273000E0,8.138011488E-1,-4.444483820E0,-1.927258944E0,4.912233278E0
5.602218000E0,9.676867086E-1,-4.685782623E0,-1.916240158E0,5.154119973E0
5.612163000E0,1.030175318E0,-4.886446785E0,-2.026375096E0,5.389324577E0
5.622108000E0,1.027422741E0,-5.090091857E0,-2.141592142E0,5.617032090E0
5.632052000E0,1.044785171E0,-5.232004366E0,-2.242442286E0,5.787399515E0
5.641998167E0,1.059910456E0,-5.365726680E0,-2.391346603E0,5.969335939E0
5.651943167E0,1.057580925E0,-5.502838039E0,-2.543130966E0,6.153634618E0
5.661887167E0,9.992146030E-1,-5.606336095E0,-2.655096374E0,6.283229344E0
5.671832167E0,9.602291697E-1,-5.622958560E0,-2.789613325E0,6.349932718E0
5.681777167E0,8.643257698E-1,-5.396367259E0,-2.893953672E0,6.184076850E0
5.691722167E0,6.583549672E-1,-5.000930589E0,-2.943425210E0,5.840076197E0
5.701666167E0,3.868994424E-1,-4.479237331E0,-2.934255606E0,5.368716253E0
5.711611167E0,7.896664739E-3,-3.885723308E0,-2.720601854E0,4.743477884E0
5.721556167E0,-4.557208782E-1,-3.046436777E0,-2.332185352E0,3.863618391E0
5.731501167E0,-1.080797295E0,-2.089459244E0,-2.019098529E0,3.100116384E0
5.741445167E0,-1.697210769E0,-9.773714519E-1,-1.824796137E0,2.676875098E0
5.751390167E0,-2.353316312E0,2.909732383E-1,-1.532369866E0,2.823281866E0
5.761335167E0,-2.878469953E0,1.399212393E0,-1.179876317E0,3.411083803E0
5.771280167E0,-3.556668616E0,2.461976582E0,-8.117473143E-1,4.401153716E0
5.781224167E0,-4.307765101E0,3.141031862E0,-4.452093387E-1,5.349872212E0
5.791169167E0,-4.942418672E0,3.804697856E0,-1.707100457E-1,6.239580917E0
5.801114167E0,-5.184910891E0,4.265161411E0,1.046841636E-1,6.714600627E0
5.811058167E0,-4.149479219E0,4.999771671E0,4.161787900E-1,6.510691157E0
5.821003167E0,-2.966482243E0,5.491403224E0,8.470568955E-1,6.298653162E0
5.830948167E0,-2.581674934E0,5.579373415E0,1.643970993E0,6.363732693E0
5.840893167E0,-2.445999066E0,5.706227589E0,2.462811565E0,6.679025792E0
5.850837167E0,-2.243787146E0,6.175148556E0,3.234185024E0,7.323045351E0
5.860782167E0,-1.997409159E0,6.767705390E0,3.839811263E0,8.033407131E0
5.870727167E0,-1.708860030E0,6.902625799E0,4.217651614E0,8.267710122E0
5.880672167E0,-1.502890982E0,6.499420518E0,4.311339796E0,7.942845788E0
5.890616167E0,-1.523580477E0,5.459376270E0,4.066276556E0,6.975721594E0
5.900561167E0,-1.840935037E0,4.063193319E0,3.167095242E0,5.470747118E0
5.910506167E0,-2.110233378E0,2.908526688E0,2.092255090E0,4.158141864E0
5.920451167E0,-2.240030748E0,1.693432006E0,1.251207671E0,3.074243052E0
5.930395167E0,-2.344094376E0,5.259120244E-1,5.729639840E-1,2.469746875E0
5.940340167E0,-2.331787595E0,-3.036868393E-1,-1.298169583E-2,2.351516024E0
5.950285167E0,-2.208158745E0,-1.036499666E0,-4.188594460E-1,2.475023199E0
5.960229167E0,-1.747097312E0,-1.452055435E0,-4.583217198E-1,2.317514359E0
5.970174167E0,-9.891014050E-1,-1.451808098E0,-1.255522916E-1,1.761201783E0
5.980119167E0,-4.539263678E-1,-1.172554434E0,4.073825312E-1,1.321701016E0
5.990064167E0,-1.178504853E-1,-7.514759696E-1,9.481037986E-1,1.215526916E0
6.000008167E0,-1.286681266E-1,-2.762212980E-1,1.361981417E0,1.395652920E0
6.009953167E0,2.188975346E-1,1.946187258E-1,1.512393146E0,1.540495247E0
6.019898167E0,5.341473891E-1,6.444070190E-1,1.507865354E0,1.724596117E0
6.029843167E0,5.762448567E-1,9.377103728E-1,1.319732360E0,1.718444756E0
6.039787167E0,6.468977867E-1,1.011975274E0,8.233598846E-1,1.456190991E0
6.049732167E0,7.240931663E-1,9.115025675E-1,2.675814521E-1,1.194465436E0
6.059677167E0,7.398791867E-1,6.811117458E-1,-2.078024429E-1,1.026896429E0
6.069621167E0,6.206817953E-1,3.081985509E-1,-6.483696771E-1,9.490076269E-1
6.079566167E0,3.238563712E-1,-5.849145234E-2,-9.626107407E-1,1.017311967E0
6.089511167E0,2.410559969E-1,-4.168345553E-1,-1.191230733E0,1.284869526E0
6.099456167E0,4.380206256E-1,-7.678394026E-1,-1.429748015E0,1.680957704E0
6.109400167E0,5.924322885E-1,-1.108423342E0,-1.590142111E0,2.026852302E0
6.119345167E0,7.031811842E-1,-1.463542875E0,-1.829912743E0,2.446426409E0
6.129290167E0,8.771137767E-1,-1.783970878E0,-1.932932497E0,2.772743895E0
6.139235167E0,9.845790222E-1,-2.064026780E0,-1.951454430E0,3.006289538E0
6.149179167E0,1.189511652E0,-2.434311651E0,-1.931734110E0,3.327522781E0
6.159124167E0,1.464945184E0,-2.702584829E0,-1.942058539E0,3.636154633E0
6.169069167E0,1.653391296E0,-2.892275521E0,-1.988358254E0,3.879758886E0
6.179013167E0,1.706576400E0,-3.169077448E0,-2.013513853E0,4.124280897E0
6.188958167E0,1.861425873E0,-3.498296154E0,-1.979958144E0,4.429809987E0
6.198903167E0,2.029580832E0,-3.722418176E0,-1.992993050E0,4.684828356E0
6.208848167E0,2.135193972E0,-3.877757646E0,-2.075467442E0,4.889133130E0
6.218792167E0,2.209417358E0,-4.101415983E0,-2.155442441E0,5.133134544E0
6.228737167E0,2.255451025E0,-4.313029057E0,-2.237369826E0,5.356781003E0
6.238682167E0,2.335935171E0,-4.429490975E0,-2.295251414E0,5.508644341E0
6.248627167E0,2.379610510E0,-4.429123769E0,-2.394835052E0,5.569103920E0
6.258571167E0,2.364659472E0,-4.372604583E0,-2.542854685E0,5.583672197E0
6.268516167E0,2.424445205E0,-4.203165722E0,-2.686359098E0,5.546265576E0
6.278461167E0,2.393038202E0,-3.764511697E0,-2.756908386E0,5.243922578E0
6.288406167E0,2.180160084E0,-3.063795991E0,-2.720956488E0,4.641502782E0
6.298350167E0,1.872953221E0,-2.310712622E0,-2.713513860E0,4.026227025E0
6.308295167E0,1.474518391E0,-1.296223045E0,-2.541153145E0,3.211208180E0
6.318240167E0,1.257409958E0,1.322230875E-2,-2.331043683E0,2.648588168E0
6.328184167E0,1.112111035E0,1.629474576E0,-1.930863460E0,2.760473157E0
6.338129167E0,9.009733401E-1,3.247638883E0,-1.162567390E0,3.565175200E0
6.348074167E0,7.647216672E-1,4.400993984E0,-1.195697129E-2,4.466955367E0
6.358019167E0,8.831535119E-1,4.744626662E0,9.457830387E-1,4.917921090E0
6.367963167E0,1.065195754E0,4.757415107E0,1.443657664E0,5.084465355E0
6.377908167E0,1.228765911E0,4.296690182E0,1.220624394E0,4.632638136E0
6.387853167E0,8.593243539E-1,4.022708368E0,1.614825547E-2,4.113499936E0
6.397798167E0,6.793113881E-1,3.884885986E0,-9.500374728E-1,4.056645694E0
6.407742167E0,6.063928083E-1,4.123517874E0,-1.123317955E0,4.316590683E0
6.417687167E0,4.370524728E-1,4.888770468E0,-6.698891848E-1,4.953770592E0
6.427632167E0,3.249474616E-1,5.659042897E0,-1.104767078E-1,5.669441107E0
6.437577167E0,1.575810000E-2,6.393846116E0,4.207258773E-1,6.407692778E0
6.447521167E0,-2.866949768E-1,6.969695116E0,1.204749203E0,7.078860407E0
6.457466167E0,-1.287228566E0,7.353916826E0,2.347462957E0,7.826086659E0
6.467411167E0,-1.681593148E0,7.232970679E0,3.341805952E0,8.143174281E0
6.477355167E0,-1.716571046E0,6.588504603E0,4.132569656E0,7.964492515E0
6.487300167E0,-1.819511131E0,5.532549496E0,5.089333473E0,7.734406240E0
6.497245167E0,-1.541194484E0,4.220756485E0,5.660533937E0,7.227150905E0
6.507190167E0,-6.145695546E-1,2.887597164E0,5.400760857E0,6.155008607E0
6.517134167E0,5.285459027E-1,1.711563637E0,4.504622433E0,4.847724633E0
6.527079167E0,1.451263722E0,4.272040075E-1,3.375207587E0,3.698742477E0
6.537024167E0,1.823560036E0,-6.606961924E-1,2.244997519E0,2.966800385E0
6.546969167E0,2.383600211E0,-1.489302784E0,1.610941241E0,3.239553122E0
6.556913167E0,2.959978969E0,-2.078792753E0,1.185565073E0,3.806365636E0
6.566858167E0,3.188001669E0,-2.447382517E0,8.926815498E-1,4.117027590E0
6.576803167E0,3.449923893E0,-2.622046450E0,6.428972679E-1,4.380687087E0
6.586748167E0,2.375311491E0,-2.466923912E0,7.910654202E-1,3.514769233E0
6.596692167E0,1.327722873E0,-2.033221893E0,9.887732300E-1,2.621929022E0
6.606637167E0,1.139440190E0,-1.382199919E0,1.005037845E0,2.053996503E0
6.616582167E0,8.553257355E-1,-7.260288870E-1,1.104939571E0,1.574671875E0
6.626526167E0,3.603527910E-1,-1.163514054E-1,1.148737555E0,1.209541134E0
6.636470000E0,8.659726381E-3,3.369756228E-1,1.203189751E0,1.249517162E0
6.646415000E0,-4.236410066E-1,7.417421097E-1,1.098531023E0,1.391554335E0
6.656360000E0,-8.028259251E-1,7.455831456E-1,1.078811288E0,1.537614219E0
6.666304000E0,-8.398417237E-1,7.192607349E-1,6.845253503E-1,1.300478789E0
6.676249000E0,-9.467463675E-1,2.816516072E-1,1.453620735E-1,9.983919294E-1
6.686194000E0,-7.598874816E-1,-2.625130856E-1,-3.360505933E-1,8.713622129E-1
6.696139000E0,-4.236886615E-1,-7.016980380E-1,-7.977476183E-1,1.143806575E0
6.706083000E0,-2.361061826E-1,-1.101756932E0,-1.061521071E0,1.548044395E0
6.716028000E0,-1.274479589E-1,-1.490542978E0,-1.292401890E0,1.976932977E0
6.725973000E0,5.739919245E-2,-1.811242291E0,-1.671111137E0,2.465056944E0
6.735917000E0,3.394361311E-1,-2.033003207E0,-2.118642113E0,2.955835471E0
6.745862000E0,4.538994706E-1,-2.304568368E0,-2.300967067E0,3.288085999E0
6.755807000E0,5.326608807E-1,-2.597827283E0,-2.406195022E0,3.580811177E0
6.765752000E0,6.417719713E-1,-2.838339050E0,-2.600241598E0,3.902473087E0
6.775696000E0,7.873524383E-1,-3.077983675E0,-2.681405044E0,4.157383838E0
6.785641000E0,9.773211658E-1,-3.248151099E0,-2.620033253E0,4.286049052E0
6.795586000E0,1.052102084E0,-3.397908817E0,-2.299219335E0,4.235458968E0
6.805531000E0,9.506242409E-1,-3.585284012E0,-2.038536428E0,4.232443580E0
6.815475000E0,9.107532468E-1,-3.725001476E0,-2.036226777E0,4.341811484E0
6.825420000E0,9.180263060E-1,-3.752170563E0,-2.097602077E0,4.395621766E0
6.835365000E0,1.007383456E0,-3.780158846E0,-2.111063536E0,4.445335936E0
6.845310000E0,9.451439381E-1,-3.722871335E0,-2.258235031E0,4.455636149E0
6.855254000E0,8.505839360E-1,-3.649596367E0,-2.404741697E0,4.452620499E0
6.865199000E0,7.427501696E-1,-3.568853921E0,-2.451905338E0,4.393203377E0
6.875144000E0,5.465208283E-1,-3.455601540E0,-2.502743370E0,4.301580104E0
6.885088000E0,3.992519778E-1,-3.342493000E0,-2.561498532E0,4.230004294E0
6.895033000E0,1.813888156E-1,-3.062245309E0,-2.566208464E0,3.999459228E0
6.904978000E0,-1.660512766E-1,-2.702083138E0,-2.581988930E0,3.741055084E0
6.914923000E0,-5.825499094E-1,-2.286743715E0,-2.550822101E0,3.474946705E0
6.924867000E0,-9.096595252E-1,-1.652185746E0,-2.549207684E0,3.171065753E0
6.934812000E0,-1.196296761E0,-9.873280907E-1,-2.541037078E0,2.977047552E0
6.944757000E0,-1.485006250E0,-2.468554115E-1,-2.393246655E0,2.827332791E0
6.954702000E0,-1.629687415E0,4.736262220E-1,-1.964395195E0,2.595968288E0
6.964646000E0,-1.686326177E0,1.192205172E0,-1.494764960E0,2.549386481E0
6.974591000E0,-1.989318367E0,1.744261267E0,-1.439476320E0,3.011963978E0
6.984536000E0,-2.210541339E0,2.027633709E0,-1.854470172E0,3.526591994E0
6.994481000E0,-2.218114068E0,2.148341290E0,-2.143119434E0,3.758771239E0
7.004425000E0,-2.355699930E0,2.289401275E0,-2.334687960E0,4.030068018E0
7.014370000E0,-2.601394376E0,2.521374353E0,-2.450609888E0,4.373793565E0
7.024315000E0,-2.985866640E0,2.945836017E0,-2.336508783E0,4.801314687E0
7.034259000E0,-3.466523261E0,3.685382497E0,-1.899879649E0,5.404476880E0
7.044204000E0,-3.491388838E0,4.904939774E0,-7.874842930E-1,6.071932288E0
7.054149000E0,-2.402151088E0,6.470736417E0,7.344035617E-1,6.941189251E0
7.064094000E0,-1.767010444E0,7.881505832E0,2.570600892E0,8.476346444E0
7.074038000E0,-1.502378620E0,8.653532426E0,4.090474089E0,9.688794725E0
7.083983000E0,-9.760865262E-1,8.664513497E0,5.284767886E0,1.019584772E1
7.093928000E0,-1.037613853E0,8.102806572E0,6.233895532E0,1.027587322E1
7.103873000E0,-1.364004554E0,6.496574678E0,6.597743788E0,9.359284912E0
7.113817000E0,-1.872351981E0,4.764078594E0,5.357056428E0,7.409466942E0
7.123762000E0,-1.805153001E0,3.602526281E0,4.037915221E0,5.704518586E0
7.133707000E0,-1.509222493E0,2.677319010E0,3.205560565E0,4.440879209E0
7.143652000E0,-1.364532996E0,1.884407916E0,2.330569766E0,3.293098681E0
7.153596000E0,-1.064134192E0,1.163922774E0,1.599096537E0,2.245931329E0
7.163541000E0,-6.718710986E-1,3.519889337E-1,1.199948639E0,1.419571668E0
7.173486000E0,-4.269907303E-1,-7.093222225E-1,1.000631091E0,1.298738495E0
7.183430000E0,1.532615156E-1,-1.782539479E0,1.020116352E0,2.059508062E0
7.193375000E0,5.374503350E-1,-2.840107248E0,1.033846200E0,3.069837130E0
7.203320000E0,5.403262880E-1,-3.649100524E0,9.368923473E-1,3.806002417E0
7.213265000E0,8.251299830E-1,-4.544236735E0,7.375169116E-1,4.677056573E0
7.223209000E0,1.289226998E0,-5.027554716E0,2.629405171E-1,5.196878909E0
7.233154000E0,1.620228959E0,-5.112552767E0,1.065339303E-1,5.364204242E0
7.243099000E0,1.875601278E0,-4.887177687E0,1.635641634E-2,5.234754381E0
7.253044000E0,1.801650811E0,-3.861430466E0,2.561431289E-2,4.261132124E0
7.262988000E0,1.315772041E0,-2.702380761E0,1.088447499E-1,3.007651080E0
7.272933000E0,9.596818703E-1,-1.670733114E0,-1.797726452E-2,1.926826825E0
7.282878000E0,6.355579890E-1,-7.292951417E-1,1.130149841E-2,9.674363467E-1
7.292823000E0,4.361014232E-1,-9.410508871E-3,4.253907859E-2,4.382722695E-1
7.302767000E0,2.294466425E-1,4.827250743E-1,-1.283697724E-2,5.346344986E-1
7.312712000E0,6.428575069E-2,6.235336286E-1,-2.645701361E-1,6.803853325E-1
7.322657000E0,-1.359895715E-1,4.164316821E-1,-7.000789440E-1,8.258444389E-1
7.332601000E0,-1.120623265E-1,-5.323129714E-2,-1.218526998E0,1.224826347E0
7.342546000E0,-6.322886646E-2,-5.894081086E-1,-1.724137489E0,1.823197710E0
7.352491000E0,-3.553864583E-2,-1.040681595E0,-2.125124336E0,2.366523742E0
7.362436000E0,3.343627945E-2,-1.380029433E0,-2.334177498E0,2.711822969E0
7.372380000E0,8.217472225E-2,-1.664486534E0,-2.504813284E0,3.008547440E0
7.382325000E0,2.573910709E-1,-1.858132283E0,-2.557967983E0,3.172082273E0
7.392270000E0,4.474822976E-1,-2.017109306E0,-2.499488225E0,3.242901748E0
7.402215000E0,6.435170728E-1,-2.128225114E0,-2.408557005E0,3.277896156E0
7.412159000E0,9.487689194E-1,-2.191696056E0,-2.269490336E0,3.294583501E0
7.422104000E0,1.187004366E0,-2.275712358E0,-2.121484444E0,3.329946298E0
7.432049000E0,1.352803773E0,-2.381824704E0,-2.042614568E0,3.416934481E0
7.441994000E0,1.494032304E0,-2.455437641E0,-2.001756856E0,3.502618599E0
7.451938000E0,1.617635572E0,-2.509773477E0,-2.048526688E0,3.621072955E0
7.461883000E0,1.759731391E0,-2.563508804E0,-2.086679185E0,3.744657792E0
7.471828000E0,2.069102747E0,-2.508192390E0,-2.079631829E0,3.859674052E0
7.481772000E0,2.199951885E0,-2.438674843E0,-2.134856149E0,3.917209985E0
7.491717000E0,2.278562291E0,-2.270707142E0,-2.208528435E0,3.901993707E0
7.501662000E0,2.431923648E0,-1.981792123E0,-2.196271502E0,3.829537983E0
7.511607000E0,2.605517248E0,-1.670211543E0,-2.131467980E0,3.757856101E0
7.521551000E0,2.777327448E0,-1.311880719E0,-2.169506457E0,3.760496914E0
7.531496000E0,2.998207773E0,-8.969476783E-1,-2.208432541E0,3.830266215E0
7.541441000E0,3.186655347E0,-4.232372564E-1,-2.209716297E0,3.900865057E0
7.551386000E0,3.357725582E0,-2.961556256E-2,-2.190581869E0,4.009220259E0
7.561330000E0,3.429532313E0,3.736405885E-1,-2.118178721E0,4.048207044E0
7.571275000E0,3.569243638E0,7.718833369E-1,-1.996213696E0,4.161751212E0
7.581220000E0,3.779898937E0,1.125855646E0,-1.832364773E0,4.348878887E0
7.591165000E0,4.070787975E0,1.542539928E0,-1.577956513E0,4.630409369E0
7.601109000E0,4.372201710E0,1.766540912E0,-1.402185702E0,4.919648293E0
7.611054000E0,4.476783839E0,1.794927975E0,-1.330014689E0,5.003228863E0
7.620999000E0,4.230961046E0,1.564766364E0,-1.292036731E0,4.692428376E0
7.630943000E0,3.038530464E0,8.031425518E-1,-1.310986095E0,3.405347249E0
7.640887250E0,2.685128259E0,2.197342712E-1,-1.618376561E0,3.142823509E0
7.650832250E0,2.368699459E0,-2.064201611E-1,-1.613194758E0,2.873281006E0
7.660777250E0,2.000017310E0,-3.210747045E-1,-1.627176620E0,2.598242090E0
7.670721250E0,1.727044140E0,2.447129917E-1,-1.507778231E0,2.305636811E0
7.680666250E0,1.242164659E0,1.468398403E0,-8.367339286E-1,2.097448588E0
7.690611250E0,5.237099630E-1,2.974004393E0,1.688997477E-1,3.024483655E0
7.700556250E0,-4.465784642E-1,4.735122598E0,1.044804759E0,4.869541593E0
7.710500250E0,-1.554868197E0,6.458694077E0,1.973180344E0,6.930063849E0
7.720445250E0,-2.738646947E0,7.431294785E0,3.223805632E0,8.550862649E0
7.730390250E0,-3.426027200E0,6.636327226E0,4.659173114E0,8.802635715E0
7.740335250E0,-3.397959395E0,3.943006725E0,5.766950923E0,7.768600456E0
7.750279250E0,-2.700408495E0,8.334644580E-1,5.124495705E0,5.852121433E0
7.760224250E0,-1.122397018E0,-1.251034008E0,3.088602219E0,3.516294189E0
7.770169250E0,6.052929470E-1,-2.401988828E0,1.405270109E0,2.847931523E0
7.780113250E0,1.377584420E0,-3.062424234E0,6.421669507E-1,3.418853524E0
7.790058250E0,1.952485878E0,-3.506211530E0,1.483371368E-1,4.015933802E0
7.800003250E0,2.208413537E0,-3.276907706E0,-1.122109920E-1,3.953201964E0
7.809948250E0,2.501331267E0,-2.500162409E0,-8.148445845E-2,3.537528784E0
7.819892250E0,2.518356605E0,-1.162178550E0,2.778669968E-1,2.787470007E0
7.829837250E0,1.506114990E0,-1.165467024E-2,1.149282223E0,1.894562700E0
7.839782250E0,3.885647294E-1,9.458549595E-1,1.947608424E0,2.199727875E0
7.849727250E0,-2.850400686E-1,1.781908565E0,2.586163549E0,3.153519918E0
7.859671250E0,-1.345324454E0,2.049150878E0,2.871898852E0,3.775807228E0
7.869616250E0,-1.929344061E0,1.764065786E0,2.523166232E0,3.633271864E0
7.879561250E0,-2.202417218E0,1.075742669E0,1.696777198E0,2.981093214E0
7.889506250E0,-2.058295339E0,2.758523387E-1,7.814049429E-1,2.218843820E0
7.899450250E0,-1.691308882E0,-4.209849089E-1,-4.884968609E-2,1.743599816E0
7.909395250E0,-5.771464974E-1,-6.743149424E-1,-9.191527721E-1,1.277748230E0
7.919340250E0,3.468632644E-1,-5.813652635E-1,-1.337605252E0,1.499162267E0
7.929284250E0,4.167146873E-1,-4.730736601E-1,-1.565398740E0,1.687579046E0
7.939229250E0,5.258632001E-1,-2.907036817E-1,-1.778331823E0,1.877100106E0
7.949174250E0,6.345801884E-1,-7.700022876E-2,-1.791577520E0,1.902201636E0
7.959119250E0,5.755849984E-1,1.760830522E-2,-1.766514892E0,1.858005115E0
7.969063250E0,2.635571060E-1,1.587051272E-2,-1.770490999E0,1.790070557E0
7.979008250E0,2.138236132E-1,-3.695615709E-2,-1.737289631E0,1.750788839E0
7.988953250E0,7.996125877E-2,-1.664608741E-1,-1.589298942E0,1.599991923E0
7.998898250E0,4.870321333E-2,-3.116770595E-1,-1.358456715E0,1.394603614E0
8.008842250E0,1.315111890E-1,-3.860782009E-1,-1.267568765E0,1.331571306E0
8.018787250E0,2.621005645E-1,-4.088589531E-1,-1.358636517E0,1.442829004E0
8.028732250E0,4.273452178E-1,-4.461238432E-1,-1.397769593E0,1.528204912E0
8.038677250E0,6.743158194E-1,-3.878481531E-1,-1.383663185E0,1.587341118E0
8.048621250E0,8.542249972E-1,-3.621706903E-1,-1.382399309E0,1.664901140E0
8.058566250E0,8.577011669E-1,-4.054623055E-1,-1.363785283E0,1.661313116E0
8.068511250E0,1.015381570E0,-5.109302884E-1,-1.457371139E0,1.848237032E0
8.078455250E0,1.208821789E0,-5.927918923E-1,-1.583269293E0,2.078315183E0
8.088400250E0,1.302889456E0,-6.945696974E-1,-1.686616491E0,2.241567127E0
8.098345250E0,1.327494539E0,-7.876105928E-1,-1.758437256E0,2.339802082E0
8.108290250E0,1.014208910E0,-8.153135312E-1,-1.808177181E0,2.227747873E0
8.118234250E0,8.784593672E-1,-7.074388343E-1,-1.789040413E0,2.114905711E0
8.128179250E0,8.848614836E-1,-4.190804708E-1,-1.751373235E0,2.006468663E0
8.138124250E0,8.047642770E-1,-8.608212411E-2,-1.789942054E0,1.964420584E0
8.148069250E0,7.745107833E-1,1.188873428E-1,-1.831037455E0,1.991657429E0
8.158013250E0,8.367780751E-1,8.202181756E-2,-1.825372088E0,2.009703557E0
8.167958250E0,1.000552446E0,-1.045961630E-1,-1.813837286E0,2.074138677E0
8.177903250E0,1.179473737E0,-1.206719130E-1,-1.863858461E0,2.209001668E0
8.187848250E0,1.473607103E0,1.009422380E-1,-1.971343441E0,2.463311225E0
8.197792250E0,1.754624872E0,3.149678725E-1,-2.051811069E0,2.718058473E0
8.207737250E0,1.906283227E0,3.249911696E-1,-2.088876569E0,2.846566409E0
8.217682250E0,1.867726395E0,3.965657669E-1,-2.037103567E0,2.792034605E0
8.227626250E0,1.023923913E0,7.164406228E-1,-1.837860864E0,2.222485073E0
8.237571250E0,3.930754177E-1,1.525679482E0,-1.650699092E0,2.281888178E0
8.247516250E0,-1.959533527E-1,2.699554217E0,-1.312170156E0,3.007952993E0
8.257461250E0,-6.995702362E-1,3.905448890E0,-6.386893192E-1,4.018688044E0
8.267405250E0,-1.347381358E0,5.026408662E0,3.376623783E-1,5.214809339E0
8.277350250E0,-1.893016918E0,5.787195738E0,1.493618321E0,6.269453186E0
8.287295250E0,-2.175294616E0,5.917033162E0,2.367370972E0,6.734065148E0
8.297240250E0,-1.239876936E0,4.737445697E0,2.769179937E0,5.625748312E0
8.307184250E0,-4.379975291E-1,3.196497965E0,2.902889679E0,4.340070226E0
8.317129250E0,8.119282857E-2,1.985913826E0,2.933161884E0,3.543146150E0
8.327074250E0,4.765643017E-1,1.104395780E0,2.815415918E0,3.061596048E0
8.337019250E0,1.047788885E0,3.391081023E-1,2.570935353E0,2.796884775E0
8.346963250E0,1.573259883E0,-3.722799414E-1,2.337181505E0,2.841857914E0
8.356908250E0,2.263425019E0,-7.989840120E-1,2.186672713E0,3.246999511E0
8.366853250E0,2.905017774E0,-1.080455525E0,1.926785027E0,3.649522290E0
8.376798250E0,3.317269281E0,-1.042086096E0,1.617250387E0,3.834803480E0
8.386742250E0,3.638460053E0,-5.311359268E-1,1.426123034E0,3.943897037E0
8.396687250E0,3.886822584E0,4.973665023E-1,1.104556871E0,4.071217155E0
8.406632250E0,3.892971516E0,1.501879560E0,8.709696686E-1,4.262564674E0
8.416576250E0,3.820967149E0,2.294335155E0,9.418221349E-1,4.555303798E0
8.426521250E0,2.925508171E0,2.617072223E0,9.699504581E-1,4.043324001E0
8.436466250E0,1.384413237E0,2.273662325E0,4.421579692E-1,2.698452157E0
8.446411250E0,1.156514644E0,1.874796263E0,-4.345007479E-1,2.245256789E0
8.456355250E0,1.037980035E0,1.339203588E0,-1.244438641E0,2.102259816E0
8.466300250E0,7.415267859E-1,8.014480287E-1,-1.965456465E0,2.248377199E0
8.476245250E0,6.368744896E-1,3.243590856E-1,-2.473883852E0,2.575057135E0
8.486190250E0,8.604607603E-1,-1.119572228E-1,-2.724794308E0,2.859620807E0
8.496134250E0,1.125756974E0,-4.341160011E-1,-2.723175214E0,2.978501085E0
8.506079250E0,1.310080800E0,-6.455846483E-1,-2.700334528E0,3.069999642E0
8.516024250E0,1.490331163E0,-8.160181206E-1,-2.568587404E0,3.079710018E0
8.525969250E0,1.791885230E0,-9.577733392E-1,-2.259922830E0,3.038985627E0
8.535913250E0,1.988105508E0,-1.118608022E0,-1.814597131E0,2.914894538E0
8.545858250E0,2.302421855E0,-1.250604823E0,-1.421037126E0,2.980688734E0
8.555803250E0,2.676122085E0,-1.312523328E0,-1.121525198E0,3.184676698E0
8.565747250E0,2.906728084E0,-1.359692232E0,-9.204721963E-1,3.338427801E0
8.575692250E0,3.017491305E0,-1.320089625E0,-8.519504303E-1,3.402015569E0
8.585637250E0,2.917999469E0,-1.048019850E0,-8.565691459E-1,3.216640672E0
8.595582250E0,2.595337246E0,-6.589157152E-1,-8.286159468E-1,2.802953750E0
8.605526250E0,2.361583252E0,-4.052699322E-1,-9.215647486E-1,2.567216539E0
8.615471250E0,2.073635509E0,-2.118270814E-1,-9.055746603E-1,2.272641723E0
8.625416250E0,1.875748044E0,-5.932585001E-3,-8.903239524E-1,2.076329131E0
8.635361250E0,1.817146810E0,2.633276027E-1,-9.602303392E-1,2.072053633E0
8.645306375E0,1.722426740E0,6.091798836E-1,-1.022326308E0,2.093562773E0
8.655251375E0,1.715564009E0,9.841051054E-1,-1.047581309E0,2.238090554E0
8.665196375E0,1.785953376E0,1.436995347E0,-1.071399942E0,2.530312811E0
8.675141375E0,1.901216030E0,1.948956499E0,-1.084432801E0,2.930707820E0
8.685085375E0,2.022393727E0,2.455210184E0,-1.121649744E0,3.372866968E0
8.695030375E0,2.152535644E0,2.916076028E0,-1.200952314E0,3.818271279E0
8.704975375E0,2.366422115E0,3.204741370E0,-1.369999411E0,4.212744861E0
8.714920375E0,2.517815738E0,3.381214432E0,-1.480179373E0,4.467990387E0
8.724864375E0,2.474018338E0,3.385547218E0,-1.563586396E0,4.475209394E0
8.734809375E0,2.528701791E0,3.206635868E0,-1.631056248E0,4.397407284E0
8.744754375E0,2.488182634E0,2.977400456E0,-1.633401859E0,4.209984314E0
8.754698375E0,2.190062343E0,2.711353898E0,-1.656128524E0,3.858830745E0
8.764643375E0,1.946846531E0,2.597932532E0,-1.734108746E0,3.680570337E0
8.774588375E0,1.822242366E0,2.741159495E0,-1.705934522E0,3.707389272E0
8.784533375E0,1.669514847E0,3.146838732E0,-1.513990313E0,3.870664090E0
8.794477375E0,1.322772035E0,3.711688535E0,-1.110709603E0,4.093901985E0
8.804422375E0,6.836821818E-1,4.278928095E0,-5.131949151E-1,4.363486678E0
8.814367375E0,8.011474818E-2,4.814852307E0,3.244886014E-1,4.826439056E0
8.824312375E0,-5.739714593E-1,5.364749610E0,1.227758874E0,5.533296799E0
8.834256375E0,-1.219760760E0,5.751949307E0,2.191251960E0,6.274896197E0
8.844201375E0,-1.529725170E0,5.939326841E0,3.414016727E0,7.019342749E0
8.854146375E0,-1.121167933E0,5.810672309E0,4.658681363E0,7.531549791E0
8.864091375E0,-1.043646133E-1,5.205865558E0,5.715953847E0,7.732015039E0
8.874035375E0,6.362217942E-1,4.344660155E0,6.546214616E0,7.882498070E0
8.883980375E0,1.310563634E0,3.110175521E0,6.697496703E0,7.499815390E0
8.893925375E0,2.412230518E0,1.621446349E0,6.174735743E0,6.824610306E0
8.903870375E0,2.994986250E0,4.590479439E-1,5.249095777E0,6.060831142E0
8.913814375E0,3.678463194E0,-6.461489046E-1,4.501615795E0,5.849200342E0
8.923759375E0,3.866715179E0,-1.639669197E0,3.733721429E0,5.619668767E0
8.933704375E0,2.921014001E0,-2.285042760E0,3.030783196E0,4.789508325E0
8.943649375E0,1.612071801E0,-2.371295623E0,2.578039135E0,3.855918076E0
8.953593375E0,1.105581303E0,-2.047721819E0,2.152175310E0,3.169752865E0
8.963538375E0,1.045920700E0,-1.546762787E0,1.907778068E0,2.669464812E0
8.973483375E0,7.146738866E-1,-9.697455132E-1,1.853110694E0,2.210245319E0
8.983427375E0,2.333427885E-1,-4.217415386E-1,1.836467764E0,1.898664960E0
8.993372375E0,-7.466806680E-2,7.082849264E-2,1.970178384E0,1.972864633E0
9.003317375E0,-3.474003312E-1,5.367504233E-1,2.248364931E0,2.337505694E0
9.013262375E0,-4.548701084E-1,7.022751582E-1,2.547159405E0,2.681066625E0
9.023206375E0,-3.874680841E-1,5.026412755E-1,2.456833372E0,2.537481031E0
9.033151375E0,-9.136596054E-2,1.913501322E-2,2.190062343E0,2.192050856E0
9.043096375E0,2.888834435E-1,-4.545420796E-1,2.002738604E0,2.073891044E0
9.053041375E0,4.449649251E-1,-9.474126577E-1,1.653460439E0,1.956914907E0
9.062985375E0,6.652652067E-1,-1.469750279E0,1.026248912E0,1.912048772E0
9.072930375E0,9.035965472E-1,-1.981868137E0,2.676282299E-1,2.194518832E0
9.082875375E0,1.075676596E0,-2.361820210E0,-4.869064182E-1,2.640521294E0
9.092820375E0,1.137771102E0,-2.706559181E0,-1.184220799E0,3.165811836E0
9.102764375E0,1.181937169E0,-3.041495295E0,-1.769489663E0,3.711975588E0
9.112709375E0,1.293174891E0,-3.327614175E0,-2.261324115E0,4.225979668E0
9.122654375E0,1.410922904E0,-3.670045250E0,-2.588941854E0,4.707712343E0
9.132598375E0,1.487351860E0,-3.965147207E0,-2.891684952E0,5.128006415E0
9.142543375E0,1.472218974E0,-4.183940077E0,-3.105717604E0,5.414634346E0
9.152488375E0,1.430390332E0,-4.357001288E0,-3.180955482E0,5.581035253E0
9.162433375E0,1.427443920E0,-4.408295403E0,-3.197567421E0,5.629840310E0
9.172377375E0,1.331604839E0,-4.514076796E0,-3.073296547E0,5.620961878E0
9.182322375E0,1.252107557E0,-4.532213105E0,-2.924875503E0,5.537474665E0
9.192267375E0,1.257355141E0,-4.556811172E0,-2.808089064E0,5.498257378E0
9.202212375E0,1.125634621E0,-4.565698355E0,-2.715197273E0,5.430004696E0
9.212156375E0,1.113515975E0,-4.534447911E0,-2.576419164E0,5.332829586E0
9.222101375E0,1.078382979E0,-4.474682935E0,-2.373071423E0,5.178529250E0
9.232046375E0,8.822354990E-1,-4.371674876E0,-2.238590140E0,4.990106864E0
9.241991375E0,7.192882168E-1,-4.169977511E0,-2.292174025E0,4.812499323E0
9.251935375E0,6.057057604E-1,-3.885913927E0,-2.324753541E0,4.568553988E0
9.261880375E0,4.237485954E-1,-3.544471031E0,-2.181792334E0,4.183665325E0
9.271825375E0,2.695934790E-1,-3.148598160E0,-1.959003770E0,3.718070304E0
9.281769375E0,9.325899661E-2,-2.658051850E0,-1.711463649E0,3.162759033E0
9.291714375E0,-1.940433598E-1,-2.027953552E0,-1.655668348E0,2.625164016E0
9.301659375E0,-5.625360596E-1,-1.555294459E0,-1.614405132E0,2.311209987E0
9.311604375E0,-8.191066200E-1,-1.151804420E0,-1.552760276E0,2.099679393E0
9.321548375E0,-1.015231588E0,-5.496879727E-1,-1.503692781E0,1.895770035E0
9.331493375E0,-1.459960286E0,8.398765147E-2,-1.334553590E0,1.979790708E0
9.341438375E0,-1.647964057E0,7.801764429E-1,-1.005716414E0,2.082288722E0
9.351383375E0,-1.811469748E0,1.800000435E0,-7.423508048E-1,2.659418908E0
9.361327375E0,-2.186784979E0,2.986049073E0,-2.505239546E-1,3.709619908E0
9.371272375E0,-2.330712438E0,4.326361293E0,4.842710781E-1,4.938030071E0
9.381217375E0,-2.379995695E0,5.836567873E0,9.935448503E-1,6.380990159E0
9.391162375E0,-2.126891949E0,7.086123705E0,1.548428659E0,7.558733349E0
9.401106375E0,-1.636488311E0,7.875051675E0,2.338427839E0,8.376322441E0
9.411051375E0,-1.410259538E0,8.131863141E0,3.445807453E0,8.943691582E0
9.420996375E0,-9.543609041E-1,7.782889032E0,4.698754086E0,9.141250263E0
9.430941375E0,-3.318496612E-1,6.742867588E0,5.687769683E0,8.827633401E0
9.440885375E0,-3.911439362E-1,5.370976310E0,5.775042300E0,7.896296199E0
9.450830375E0,-4.364502096E-1,4.228267234E0,5.243183658E0,6.749793142E0
9.460775375E0,-4.601646160E-1,3.132547553E0,4.508919552E0,5.509533662E0
9.470720375E0,-7.902513416E-1,2.004944174E0,3.715954371E0,4.295650732E0
9.480664375E0,-1.217628281E0,9.844717258E-1,2.829722300E0,3.234058055E0
9.490609375E0,-1.352350614E0,1.735874605E-1,1.971496931E0,2.397036699E0
9.500554375E0,-1.303242189E0,-4.961356634E-1,1.170916336E0,1.820888757E0
9.510498375E0,-1.273327103E0,-9.880736107E-1,4.763007385E-1,1.680628979E0
9.520443375E0,-1.276387682E0,-1.193688610E0,-2.092513829E-2,1.747711610E0
9.530388375E0,-1.164376810E0,-1.051653310E0,-2.610641456E-1,1.590566732E0
9.540333375E0,-8.660074291E-1,-5.297144687E-1,-1.671069914E-1,1.028829934E0
9.550277375E0,-5.810268559E-1,9.668955803E-2,2.633468986E-1,6.452074603E-1
9.560222375E0,-2.983695276E-1,4.698448277E-1,7.764084971E-1,9.552950808E-1
9.570167375E0,8.705890149E-2,6.724911958E-1,1.238384727E0,1.411885403E0
9.580112375E0,4.380792439E-1,9.438441020E-1,1.518627740E0,1.840919695E0
9.590056375E0,5.201152410E-1,1.128331357E0,1.498284692E0,1.946409138E0
9.600001375E0,6.249957249E-1,1.235963395E0,1.324016615E0,1.916049364E0
9.609946375E0,7.969240379E-1,1.138183916E0,1.031773946E0,1.730638040E0
9.619891375E0,9.693474640E-1,7.269755512E-1,5.724342263E-1,1.340077946E0
9.629835375E0,8.596320637E-1,8.883733213E-2,5.417386830E-2,8.659065564E-1
9.639779750E0,5.916312200E-1,-4.812948453E-1,-3.873642960E-1,8.554082806E-1
9.649724750E0,5.838906759E-1,-1.029845535E0,-8.390368545E-1,1.451031698E0
9.659669750E0,6.336420026E-1,-1.483308803E0,-1.344521631E0,2.099867998E0
9.669613750E0,6.166454624E-1,-1.885486143E0,-1.744984567E0,2.642022097E0
9.679558750E0,7.030521069E-1,-2.221039138E0,-2.017777058E0,3.081999574E0
9.689503750E0,8.030019262E-1,-2.525148146E0,-2.219541958E0,3.456523074E0
9.699448750E0,1.052432305E0,-2.728123128E0,-2.315147735E0,3.729635182E0
9.709392750E0,1.288771353E0,-2.936464099E0,-2.238744799E0,3.910975746E0
9.719337750E0,1.519683308E0,-3.121958245E0,-2.159895388E0,4.089157460E0
9.729282750E0,1.562425431E0,-3.295268548E0,-2.050483459E0,4.183832029E0
9.739226750E0,1.608754675E0,-3.472827437E0,-1.889914239E0,4.268535796E0
9.749171750E0,1.701630387E0,-3.608802683E0,-1.820135906E0,4.385418736E0
9.759116750E0,1.756239142E0,-3.722426362E0,-1.784690670E0,4.486196020E0
9.769061750E0,1.864462479E0,-3.739194422E0,-1.702712122E0,4.511875866E0
9.779005750E0,1.941440050E0,-3.700350784E0,-1.507729114E0,4.442412911E0
9.788950750E0,2.101419431E0,-3.426326870E0,-1.413783655E0,4.260805518E0
9.798895750E0,2.202209642E0,-2.998896575E0,-1.251919569E0,3.925609581E0
9.808840750E0,2.065297818E0,-2.492928818E0,-1.115615417E0,3.424141780E0
9.818784750E0,1.845462244E0,-2.011070302E0,-1.029518675E0,2.917197860E0
9.828729750E0,1.692090654E0,-1.467276907E0,-9.873935795E-1,2.447655692E0
9.838674750E0,1.638512033E0,-8.625292128E-1,-9.304317588E-1,2.072288972E0
9.848619750E0,1.615622230E0,-3.280007315E-1,-7.430448693E-1,1.808296255E0
9.858563750E0,1.591546904E0,6.523446143E-2,-6.000000474E-1,1.702138990E0
9.868508750E0,1.680256767E0,4.250779599E-1,-6.084823108E-1,1.836900868E0
9.878453750E0,1.729412555E0,7.377455378E-1,-7.350721908E-1,2.018778687E0
9.888397750E0,1.776151250E0,1.079469684E0,-9.117276853E-1,2.269628920E0
9.898342750E0,1.842521533E0,1.534604087E0,-1.064275110E0,2.623466564E0
9.908287750E0,1.927235701E0,1.980403410E0,-1.015963660E0,2.944217599E0
9.918232750E0,2.003048506E0,2.382145132E0,-7.674067086E-1,3.205578232E0
9.928176750E0,2.059111025E0,2.810902745E0,-4.530706277E-1,3.513742371E0
9.938121750E0,2.114460330E0,3.483511469E0,5.873908192E-2,4.075444138E0
9.948066750E0,1.962167991E0,4.495461016E0,8.024625206E-1,4.970233301E0
9.958011750E0,1.454973488E0,5.700747578E0,1.450932185E0,6.059758659E0
9.967955750E0,3.875688024E-1,6.805363213E0,2.195325130E0,7.161189180E0
9.977900750E0,-5.997573879E-1,7.587152903E0,2.983424842E0,8.174681761E0
9.987845750E0,-1.112214531E0,7.708464502E0,3.959118728E0,8.736822491E0
9.997790750E0,-1.387112457E0,6.879646826E0,5.159833353E0,8.710769291E0
1.000773475E1,-1.618431817E0,5.482145913E0,5.974230040E0,8.268293048E0
1.001767975E1,-1.727845793E0,4.030287529E0,6.149745913E0,7.553015520E0
1.002762475E1,-1.577282037E0,2.569382333E0,5.505782697E0,6.277195815E0
1.003756975E1,-6.782574275E-1,1.286360546E0,4.607320298E0,4.831372157E0
1.004751375E1,6.502247062E-1,2.583925527E-1,3.955027724E0,4.016441606E0
1.005745875E1,1.315897756E0,-7.840671802E-1,3.394810962E0,3.724391187E0
1.006740375E1,1.799667728E0,-1.556402507E0,2.657077119E0,3.566686349E0
1.007734875E1,2.105718889E0,-1.874022676E0,1.869547802E0,3.382487548E0
1.008729275E1,2.114874459E0,-1.877573690E0,1.144355652E0,3.050823954E0
1.009723775E1,1.764353761E0,-1.531918461E0,6.096558470E-1,2.414828900E0
1.010718275E1,1.253596258E0,-1.008397948E0,4.304021421E-1,1.665417666E0
1.011712675E1,9.923654670E-1,-6.270998454E-1,3.625121677E-1,1.228600223E0
1.012707175E1,7.576368883E-1,-3.710958803E-1,4.093486574E-1,9.377057802E-1
1.013701675E1,5.017943063E-1,-1.544594640E-1,4.412262154E-1,6.858103419E-1
1.014696175E1,-1.048627961E-1,1.927008390E-2,4.393054050E-1,4.520583823E-1
1.015690575E1,-4.952094644E-1,1.843697262E-1,4.635684264E-1,7.029369072E-1
1.016685075E1,-6.290928689E-1,2.415198272E-1,5.456519321E-1,8.670788289E-1
1.017679575E1,-8.571828112E-1,1.712386340E-1,4.581413332E-1,9.869035022E-1
1.018674075E1,-1.086050726E0,-2.449205679E-1,2.248997015E-1,1.135813426E0
1.019668475E1,-9.346937943E-1,-9.116978645E-1,-3.539085746E-2,1.306176863E0
1.020662975E1,-6.417523831E-1,-1.503670562E0,-4.275487009E-1,1.689872531E0
1.021657475E1,-1.245483246E-1,-2.052290248E0,-9.022894022E-1,2.245335991E0
1.022651975E1,6.142263231E-1,-2.363734004E0,-1.216651796E0,2.728507652E0
1.023646375E1,1.030586669E0,-2.752044672E0,-1.488826528E0,3.294307695E0
1.024640875E1,1.117187734E0,-3.121022691E0,-1.805333095E0,3.774668019E0
1.025635375E1,1.194847821E0,-3.378225920E0,-2.026010230E0,4.116404879E0
1.026629875E1,1.213191413E0,-3.624723482E0,-2.100440900E0,4.361456832E0
1.027624275E1,1.204410065E0,-3.835864685E0,-2.096526189E0,4.534300778E0
1.028618775E1,1.210015790E0,-4.001042095E0,-2.155222294E0,4.702920284E0
1.029613275E1,1.175605803E0,-4.119869211E0,-2.179013152E0,4.806606874E0
1.030607675E1,1.153808845E0,-4.258766896E0,-2.190735650E0,4.926225026E0
1.031602175E1,1.091097750E0,-4.426550410E0,-2.134013565E0,5.033771621E0
1.032596675E1,1.034746963E0,-4.550670426E0,-2.119787875E0,5.125700268E0
1.033591175E1,8.912674007E-1,-4.604962408E0,-2.163247305E0,5.165237193E0
1.034585575E1,8.141034499E-1,-4.594345034E0,-2.261729034E0,5.185189383E0
1.035580075E1,6.912402928E-1,-4.554602094E0,-2.238387827E0,5.121776395E0
1.036574575E1,5.150321102E-1,-4.420164666E0,-2.132773079E0,4.934757821E0
1.037569075E1,1.616088545E-1,-4.072391574E0,-2.080777298E0,4.576038103E0
1.038563475E1,-1.597801378E-1,-3.589889864E0,-1.901522424E0,4.065541348E0
1.039557975E1,-5.872145256E-1,-2.997259355E0,-1.524056587E0,3.413375605E0
1.040552475E1,-9.854698455E-1,-2.247287874E0,-1.166731192E0,2.717115249E0
1.041546975E1,-1.265142755E0,-1.307630963E0,-6.491301075E-1,1.931800927E0
1.042541375E1,-1.565628828E0,-2.537305677E-1,-9.247546971E-2,1.588749364E0
1.043535875E1,-1.919620433E0,6.160836911E-1,1.846503925E-1,2.024499318E0
1.044530375E1,-2.379428223E0,1.301246388E0,1.596085221E-1,2.716688372E0
1.045524875E1,-2.571818575E0,1.744740154E0,2.116618976E-1,3.114991131E0
1.046519275E1,-2.124451906E0,1.969902980E0,6.558704853E-2,2.897950191E0
1.047513775E1,-1.746470929E0,2.020022973E0,-3.007480288E-1,2.687210989E0
1.048508275E1,-1.740385440E0,1.986950537E0,-7.805331230E-1,2.754295894E0
1.049502675E1,-1.729400860E0,2.097168213E0,-1.115836442E0,2.938372477E0
1.050497175E1,-1.567243537E0,2.578203442E0,-1.313468823E0,3.290681638E0
1.051491675E1,-1.503786044E0,3.290038213E0,-1.621703627E0,3.964296478E0
1.052486175E1,-1.511364036E0,4.161239432E0,-1.970154118E0,4.845786015E0
1.053480575E1,-1.541749969E0,4.943068882E0,-1.977473370E0,5.542682011E0
1.054475075E1,-1.548581856E0,5.670622138E0,-1.539494113E0,6.076520660E0
1.055469575E1,-1.462081071E0,6.506437177E0,-9.529143029E-1,6.736427203E0
1.056464075E1,-1.411089258E0,7.384149855E0,-1.622754371E-1,7.519519618E0
1.057458475E1,-1.458373059E0,8.111498458E0,1.285255423E0,8.341171424E0
1.058452975E1,-1.813839771E0,8.290005181E0,2.745299324E0,8.919129386E0
1.059447475E1,-2.219658172E0,8.034674231E0,4.148366202E0,9.310843922E0
1.060441975E1,-2.138498965E0,7.401441241E0,5.810298087E0,9.649563416E0
1.061436375E1,-2.134726049E0,6.226093592E0,6.914347127E0,9.546176874E0
1.062430875E1,-2.251948835E0,4.751046320E0,6.685726258E0,8.505448271E0
1.063425375E1,-2.129774919E0,3.441051328E0,5.776249750E0,7.052789280E0
1.064419888E1,-2.111501347E0,2.164912300E0,4.603380151E0,5.507848220E0
1.065414288E1,-2.194710295E0,8.110813165E-1,2.881250304E0,3.711631649E0
1.066408788E1,-2.049908970E0,-4.966981655E-1,1.226055872E0,2.439682122E0
1.067403288E1,-1.769726622E0,-1.631851469E0,5.909780860E-2,2.407979253E0
1.068397788E1,-1.432405867E0,-2.500250702E0,-8.899976778E-1,3.015814319E0
1.069392188E1,-1.145561786E0,-3.134833814E0,-1.567802823E0,3.687478887E0
1.070386688E1,-7.944975896E-1,-3.360750931E0,-1.972978908E0,3.977250182E0
1.071381188E1,-2.378153238E-1,-2.999657298E0,-1.849051557E0,3.531783076E0
1.072375588E1,1.118975812E-1,-2.208212686E0,-1.115864216E0,2.476666567E0
1.073370088E1,9.186414331E-3,-1.393538255E0,-1.830260360E-1,1.405536121E0
1.074364588E1,4.880276218E-2,-6.140295643E-1,6.763059193E-1,9.147697589E-1
1.075359088E1,2.023437747E-1,1.552201867E-1,1.371342224E0,1.394853328E0
1.076353488E1,3.760189435E-1,6.827407801E-1,1.698416172E0,1.868727565E0
1.077347988E1,5.418787238E-1,8.353683114E-1,1.555536534E0,1.846934400E0
1.078342488E1,3.220498739E-1,4.003781515E-1,8.803193665E-1,1.019304161E0
1.079336988E1,2.233210994E-1,-1.648897272E-1,3.854221433E-2,2.802613742E-1
1.080331388E1,2.635951129E-1,-6.834991640E-1,-5.305383414E-1,9.045023065E-1
1.081325888E1,2.781812847E-1,-1.259499022E0,-8.466557765E-1,1.542902660E0
1.082320388E1,4.548277161E-1,-1.874722588E0,-1.064895499E0,2.203509804E0
1.083314888E1,7.285623394E-1,-2.524131315E0,-1.336514454E0,2.947594420E0
1.084309288E1,9.248489834E-1,-3.176330334E0,-1.627309060E0,3.686808214E0
1.085303788E1,1.129819474E0,-3.726183783E0,-1.928034869E0,4.344911516E0
1.086298288E1,1.535135160E0,-4.068914820E0,-2.183998196E0,4.866472634E0
1.087292788E1,1.829807201E0,-4.345457130E0,-2.312440766E0,5.251530668E0
1.088287188E1,2.025178902E0,-4.622414593E0,-2.341285666E0,5.563244091E0
1.089281688E1,2.151013322E0,-4.819778586E0,-2.481147264E0,5.832085019E0
1.090276188E1,2.295533250E0,-4.963944027E0,-2.615524465E0,6.062275269E0
1.091270688E1,2.435245451E0,-5.082533746E0,-2.660085219E0,6.232064109E0
1.092265088E1,2.575269309E0,-5.242020646E0,-2.572120291E0,6.381739204E0
1.093259588E1,2.751144785E0,-5.386331683E0,-2.538464887E0,6.559357485E0
1.094254088E1,2.816054434E0,-5.537572839E0,-2.615754261E0,6.740700696E0
1.095248487E1,2.713569408E0,-5.713002757E0,-2.731276824E0,6.889247602E0
1.096242988E1,2.584176665E0,-5.711206493E0,-2.828061399E0,6.877047325E0
1.097237488E1,2.248097713E0,-5.344680212E0,-2.870808054E0,6.470014588E0
1.098231988E1,2.044605253E0,-4.701750199E0,-2.890033114E0,5.885503969E0
1.099226388E1,1.962727423E0,-3.850126628E0,-2.875008986E0,5.190515452E0
1.100220888E1,1.788059397E0,-2.635170525E0,-2.596850798E0,4.109125718E0
1.101215388E1,1.538699477E0,-8.300379896E-1,-1.978396645E0,2.640191741E0
1.102209888E1,1.244674577E0,1.384763923E0,-7.627651888E-1,2.012112486E0
1.103204288E1,1.260525209E0,3.647988968E0,6.900492150E-1,3.920830936E0
1.104198788E1,1.510518236E0,5.512974772E0,2.346701065E0,6.179123083E0
1.105193288E1,1.747965770E0,7.041025300E0,3.204819138E0,7.931096224E0
1.106187788E1,2.062644205E0,7.669569408E0,2.635261742E0,8.367879090E0
1.107182188E1,2.270447964E0,7.412055107E0,1.206489042E0,7.845324128E0
1.108176687E1,2.403590526E0,6.731087787E0,9.252546340E-2,7.147961330E0
1.109171188E1,2.417597677E0,5.927480966E0,-3.004910436E-1,6.408596102E0
1.110165688E1,2.353101573E0,5.722501559E0,-2.681193960E-1,6.193222031E0
1.111160088E1,2.151308168E0,6.485243944E0,-1.156994408E-1,6.833732670E0
1.112154587E1,1.616014140E0,7.399611062E0,2.518892795E-1,7.578205182E0
1.113149088E1,9.171097550E-1,8.231791472E0,8.933972490E-1,8.330764658E0
1.114143588E1,2.307846317E-1,8.744353718E0,1.964644871E0,8.965311649E0
1.115137988E1,-3.637380365E-1,8.780432208E0,3.218157806E0,9.358676979E0
1.116132488E1,-9.573152098E-1,7.972708363E0,4.302835313E0,9.110154927E0
1.117126988E1,-1.485700606E0,6.475168607E0,5.069166427E0,8.356528169E0
1.118121388E1,-1.881130552E0,4.932781291E0,5.515084448E0,7.634601488E0
1.119115888E1,-2.209160812E0,3.282435663E0,5.514151232E0,6.786798891E0
1.120110388E1,-2.246177780E0,1.769365702E0,4.838484998E0,5.620223010E0
1.121104888E1,-1.613761353E0,3.933404428E-1,3.729965177E0,4.083084941E0
1.122099288E1,-2.828695822E-1,-6.681911534E-1,2.841942104E0,2.933109194E0
1.123093788E1,9.419832256E-1,-1.484599868E0,2.266737467E0,2.868704919E0
1.124088288E1,1.426477375E0,-2.337058421E0,1.779317079E0,3.265371194E0
1.125082787E1,1.396422394E0,-2.868780824E0,1.208214263E0,3.411697616E0
1.126077188E1,1.273784940E0,-3.001736568E0,6.508123514E-1,3.325132661E0
1.127071688E1,1.019879833E0,-2.711488969E0,2.545743209E-1,2.908115435E0
1.128066188E1,6.759609336E-1,-2.054830279E0,3.153111041E-2,2.163387360E0
1.129060688E1,5.835588464E-1,-1.432370199E0,-7.663828611E-2,1.548579588E0
1.130055088E1,2.553967318E-1,-9.358515429E-1,-6.398491144E-2,9.721829406E-1
1.131049588E1,-3.732529181E-1,-6.802370024E-1,7.591586262E-2,7.796174308E-1
1.132044088E1,-7.200767139E-1,-6.247995508E-1,7.055133462E-2,9.559615282E-1
1.133038588E1,-1.205316676E0,-5.651725692E-1,-4.459320545E-2,1.331989818E0
1.134032988E1,-1.522736578E0,-7.837754041E-1,-1.613667798E-1,1.720194701E0
1.135027488E1,-1.748570665E0,-1.032520051E0,-4.451485276E-1,2.078882930E0
1.136021988E1,-1.877946743E0,-1.385735146E0,-6.102774060E-1,2.412340021E0
1.137016488E1,-1.852163153E0,-1.893246567E0,-7.307633775E-1,2.747527256E0
1.138010888E1,-1.647938329E0,-2.399489143E0,-9.707570815E-1,3.068487933E0
1.139005388E1,-1.320721124E0,-2.903432009E0,-1.342948730E0,3.460886159E0
1.139999888E1,-9.305922648E-1,-3.310989956E0,-1.720363111E0,3.845556616E0
1.140994288E1,-3.296832678E-1,-3.554268041E0,-2.048718769E0,4.115672601E0
1.141988788E1,2.806961721E-1,-3.663781128E0,-2.202555504E0,4.284079043E0
1.142983288E1,5.714425385E-1,-3.806669537E0,-2.233003711E0,4.450121921E0
1.143977788E1,6.978219187E-1,-3.921943300E0,-2.291836056E0,4.595770576E0
1.144972188E1,8.144373259E-1,-4.070963684E0,-2.386368283E0,4.788612227E0
1.145966688E1,9.751518488E-1,-4.136739598E0,-2.449771689E0,4.905600571E0
1.146961188E1,1.080407285E0,-4.174775151E0,-2.544349525E0,5.006969340E0
1.147955688E1,1.126230160E0,-4.298630288E0,-2.578569770E0,5.137668614E0
1.148950088E1,1.261504325E0,-4.407211913E0,-2.638240314E0,5.289160800E0
1.149944588E1,1.392426699E0,-4.521698057E0,-2.634311569E0,5.415182626E0
1.150939088E1,1.378434605E0,-4.625708329E0,-2.640935588E0,5.501981487E0
1.151933588E1,1.158404757E0,-4.733673658E0,-2.680455456E0,5.561871028E0
1.152927988E1,7.845837817E-1,-4.733607584E0,-2.625001633E0,5.469300325E0
1.153922488E1,5.288885495E-1,-4.598613501E0,-2.569044363E0,5.294049317E0
1.154916988E1,2.627539909E-1,-4.248476381E0,-2.494072534E0,4.933456093E0
1.155911488E1,1.218106583E-1,-3.715336613E0,-2.417804084E0,4.434449298E0
1.156905888E1,-1.225915539E-1,-3.168365842E0,-2.280986547E0,3.905953203E0
1.157900388E1,-5.209065154E-1,-2.551675209E0,-1.972062649E0,3.266714108E0
1.158894888E1,-1.011145554E0,-1.866092098E0,-1.456264261E0,2.573989248E0
1.159889288E1,-1.679479964E0,-1.035990373E0,-7.953680938E-1,2.127566546E0
1.160883788E1,-2.500152176E0,-1.458751667E-1,-3.484917140E-1,2.528534545E0
1.161878288E1,-3.236768617E0,6.666726315E-1,-1.658080325E-1,3.308869260E0
1.162872788E1,-3.594905021E0,1.248110400E0,-5.144149366E-1,3.840018803E0
1.163867188E1,-3.578184323E0,1.816149275E0,-1.224661312E0,4.195425671E0
1.164861662E1,-3.741710479E0,2.429184812E0,-1.572301379E0,4.730060019E0
1.165856163E1,-4.020981685E0,3.229824756E0,-1.415247505E0,5.348176060E0
1.166850663E1,-4.167916075E0,4.417209483E0,-8.094584218E-1,6.126865998E0
1.167845063E1,-3.815911938E0,5.820101529E0,5.328275263E-3,6.959511054E0
1.168839562E1,-3.252314609E0,7.224660031E0,9.609092009E-1,7.981015560E0
1.169834063E1,-2.902508441E0,8.382527429E0,2.048229357E0,9.104205888E0
1.170828563E1,-2.505780414E0,9.219268667E0,3.272502413E0,1.009866933E1
1.171822963E1,-2.252527417E0,9.482443072E0,4.371075828E0,1.068161553E1
1.172817463E1,-1.800000873E0,8.958345439E0,5.278068731E0,1.055224932E1
1.173811963E1,-1.933163170E0,7.406106150E0,5.398068214E0,9.366251576E0
1.174806463E1,-2.248998477E0,5.583702693E0,4.765497129E0,7.677609836E0
1.175800863E1,-2.045334547E0,4.298724428E0,4.268209272E0,6.393749722E0
1.176795363E1,-1.885922783E0,3.236283590E0,3.882630715E0,5.394910332E0
1.177789863E1,-2.025681178E0,2.121153492E0,3.005002238E0,4.199132627E0
1.178784363E1,-2.222596544E0,1.050354643E0,1.947170467E0,3.136025048E0
1.179778763E1,-1.773137595E0,4.403888941E-2,1.319602844E0,2.210725678E0
1.180773263E1,-1.311813184E0,-9.437920618E-1,5.922407922E-1,1.721146839E0
1.181767762E1,-1.118816622E0,-1.788876107E0,-3.212811112E-2,2.110180223E0
1.182762263E1,-8.457475577E-1,-2.473316672E0,-4.399541536E-1,2.650687449E0
1.183756663E1,-1.853381713E-1,-2.766154003E0,-7.150805604E-1,2.863092457E0
1.184751163E1,2.306049760E-1,-2.693423411E0,-7.421701258E-1,2.803306052E0
1.185745663E1,5.531555177E-1,-2.376976193E0,-4.651822579E-1,2.484429790E0
1.186740063E1,7.719896100E-1,-1.908338231E0,-4.224204004E-2,2.059006350E0
1.187734563E1,8.195214799E-1,-1.418292443E0,2.503742659E-1,1.657062516E0
1.188729063E1,9.444910964E-1,-8.976686400E-1,5.013689214E-1,1.396153005E0
1.189723563E1,1.137733680E0,-4.215795708E-1,7.189441082E-1,1.410336092E0
1.190717963E1,1.255123551E0,1.558867693E-2,6.983107460E-1,1.436389931E0
1.191712463E1,1.280381330E0,4.691110021E-1,4.849224579E-1,1.447270283E0
1.192706963E1,1.342309922E0,8.162485009E-1,1.976937765E-1,1.583395203E0
1.193701463E1,1.427760400E0,8.608767897E-1,-1.687985909E-1,1.675739112E0
1.194695863E1,1.300542383E0,6.226126921E-1,-7.483161342E-1,1.624510416E0
1.195690363E1,8.284684508E-1,6.378142834E-2,-1.375873817E0,1.607313536E0
1.196684863E1,5.827804358E-1,-5.642171341E-1,-1.718079189E0,1.899939502E0
1.197679363E1,7.368762030E-1,-1.184069940E0,-1.840829203E0,2.309471869E0
1.198673763E1,9.701111104E-1,-1.702991619E0,-1.837035529E0,2.686260515E0
1.199668263E1,1.253952207E0,-2.193478872E0,-1.882894949E0,3.151037779E0
1.200662763E1,1.505895427E0,-2.559040362E0,-1.944774570E0,3.549444568E0
1.201657263E1,1.673077117E0,-2.802284533E0,-1.919330412E0,3.786266614E0
1.202651663E1,1.730287298E0,-3.058001400E0,-1.875096810E0,3.982619081E0
1.203646163E1,1.782550443E0,-3.364070980E0,-1.876237894E0,4.244376076E0
1.204640663E1,1.866318970E0,-3.702151726E0,-1.910340610E0,4.564917869E0
1.205635163E1,1.894652530E0,-3.988795686E0,-1.821988889E0,4.777011906E0
1.206629563E1,1.947877395E0,-4.277136508E0,-1.660733499E0,4.984592141E0
1.207624063E1,2.157042824E0,-4.366836305E0,-1.833835933E0,5.204329667E0
1.208618563E1,2.353458838E0,-4.472892517E0,-1.970580380E0,5.424824698E0
1.209612963E1,2.416880224E0,-4.522678050E0,-1.998701102E0,5.503701741E0
1.210607463E1,2.447299779E0,-4.397136576E0,-1.993652616E0,5.412830778E0
1.211601963E1,2.488005171E0,-3.917052104E0,-2.140955965E0,5.110495021E0
1.212596463E1,2.355493231E0,-3.205803809E0,-2.269241830E0,4.579845511E0
1.213590863E1,2.052855528E0,-2.347772275E0,-2.319131443E0,3.886466406E0
1.214585363E1,1.750283606E0,-1.255425852E0,-2.300181202E0,3.151256945E0
1.215579863E1,1.413892998E0,-7.995833516E-2,-2.015563887E0,2.463327937E0
1.216574363E1,1.102807676E0,1.007769372E0,-1.364165937E0,2.023050316E0
1.217568763E1,8.999265423E-1,1.964321812E0,-4.914771867E-1,2.215846969E0
1.218563263E1,8.628468628E-1,2.798356959E0,3.502795002E-1,2.949237546E0
1.219557763E1,1.018956850E0,3.491188279E0,7.262592673E-1,3.708654902E0
1.220552263E1,1.236053588E0,4.069424112E0,7.325768915E-1,4.315635525E0
1.221546663E1,1.358094919E0,4.486720598E0,5.011037502E-1,4.714465876E0
1.222541163E1,1.466063171E0,4.685465119E0,1.235583910E-1,4.911027518E0
1.223535663E1,1.517185816E0,4.755869688E0,4.220754147E-2,4.992186973E0
1.224530163E1,1.381765617E0,4.993118125E0,3.130701587E-1,5.190232919E0
1.225524563E1,8.036597380E-1,5.494527977E0,7.493487525E-1,5.603323140E0
1.226519063E1,-2.816136003E-1,6.034809533E0,1.146283771E0,6.149162448E0
1.227513563E1,-9.934607966E-1,6.741043257E0,1.571710517E0,6.992775021E0
1.228508063E1,-1.406810850E0,7.401381599E0,2.141770482E0,7.832416431E0
1.229502463E1,-2.059738432E0,7.538278951E0,2.965183284E0,8.358258422E0
1.230496963E1,-2.751768391E0,7.054129495E0,4.105494416E0,8.613248900E0
1.231491463E1,-2.646283159E0,6.219869816E0,4.925755861E0,8.363771033E0
1.232485963E1,-2.265446402E0,5.025243312E0,5.244778778E0,7.608746426E0
1.233480363E1,-1.532081013E0,3.705218591E0,5.448988692E0,6.765160368E0
1.234474863E1,-3.143635628E-1,2.348729464E0,5.172583206E0,5.689549329E0
1.235469363E1,9.683494905E-1,9.094928795E-1,4.441337433E0,4.635769217E0
1.236463763E1,1.854623661E0,-4.252592236E-1,3.382739093E0,3.881159376E0
1.237458262E1,2.373897927E0,-1.502334473E0,2.173930460E0,3.552235054E0
1.238452763E1,2.824348125E0,-2.495725542E0,1.316264377E0,3.992260039E0
1.239447263E1,3.478258331E0,-2.897183089E0,6.985259235E-1,4.580380916E0
1.240441663E1,3.928390148E0,-2.845051653E0,3.137595454E-1,4.860556873E0
1.241436162E1,3.863303913E0,-2.673270398E0,1.497647345E-1,4.700417133E0
1.242430663E1,2.590301624E0,-2.077191786E0,1.307586524E-1,3.322873160E0
1.243425163E1,1.608694741E0,-1.380331734E0,-3.660240054E-2,2.120036368E0
1.244419563E1,1.377254344E0,-7.352943850E-1,-3.956284583E-2,1.561746644E0
1.245414063E1,1.267838906E0,-3.387251097E-1,1.604832655E-1,1.322083609E0
1.246408563E1,7.534631458E-1,-2.050864112E-1,5.314405668E-1,9.445613925E-1
1.247403063E1,3.304796585E-1,-1.904613554E-2,8.441882515E-1,9.067708442E-1
1.248397463E1,-2.389645940E-1,2.600321120E-1,9.109260321E-1,9.769887473E-1
1.249391963E1,-7.311326292E-1,2.749161994E-1,8.483421135E-1,1.153177428E0
1.250386463E1,-9.653130314E-1,2.460718846E-1,4.306760842E-1,1.085293744E0
1.251380963E1,-1.018456913E0,2.403556466E-2,-7.670669854E-3,1.018769371E0
1.252375363E1,-9.724524817E-1,-5.852589244E-1,-2.348873305E-1,1.159035761E0
1.253369863E1,-5.817900637E-1,-1.208074515E0,-5.325883752E-1,1.442766124E0
1.254364362E1,-1.995242473E-1,-1.817129853E0,-7.566606957E-1,1.978460572E0
1.255358863E1,-3.684915304E-3,-2.416576461E0,-9.504301134E-1,2.596761978E0
1.256353263E1,1.954367512E-1,-2.936982747E0,-1.228062052E0,3.189388591E0
1.257347763E1,3.109999520E-1,-3.370112323E0,-1.459955608E0,3.685898590E0
1.258342263E1,4.041376188E-1,-3.686544338E0,-1.683566583E0,4.072877707E0
1.259336763E1,4.822920880E-1,-3.989917767E0,-1.920347242E0,4.454187129E0
1.260331163E1,4.777262896E-1,-4.251365490E0,-2.151602867E0,4.788708159E0
1.261325663E1,4.735557631E-1,-4.409280074E0,-2.377535187E0,5.031767025E0
1.262320163E1,4.902665207E-1,-4.590030373E0,-2.523875207E0,5.261053711E0
1.263314563E1,4.248005095E-1,-4.757145551E0,-2.649084852E0,5.461551045E0
1.264309063E1,4.174537754E-1,-4.947443184E0,-2.782841372E0,5.691719232E0
1.265303563E1,4.448813099E-1,-5.096526133E0,-2.970721182E0,5.915883902E0
1.266298063E1,6.031391251E-1,-5.258004595E0,-3.067226552E0,6.117047315E0
1.267292463E1,8.034433910E-1,-5.375453523E0,-3.138636258E0,6.276309379E0
1.268286963E1,8.816230032E-1,-5.413905398E0,-3.130897468E0,6.315864923E0
1.269281463E1,7.834964919E-1,-5.209032995E0,-3.131048911E0,6.127916349E0
1.270275963E1,5.978213748E-1,-4.705492417E0,-3.195081770E0,5.719055586E0
1.271270363E1,4.002743635E-1,-4.056407041E0,-3.149938634E0,5.151385352E0
1.272264863E1,1.431427628E-1,-3.123101960E0,-2.624421004E0,4.081891879E0
1.273259363E1,-2.213942957E-1,-1.813011074E0,-1.925980450E0,2.654322000E0
1.274253863E1,-6.514309868E-1,-3.858671165E-1,-1.334660594E0,1.534462337E0
1.275248263E1,-1.219261115E0,1.206240828E0,-1.374446511E-1,1.720611994E0
1.276242763E1,-1.816961161E0,3.150844075E0,9.785645762E-1,3.766530881E0
1.277237263E1,-2.590124745E0,4.182310458E0,1.489372365E0,5.139912159E0
1.278231763E1,-3.005434639E0,3.841658691E0,1.371616167E0,5.066784954E0
1.279226163E1,-2.850249243E0,3.288815560E0,4.169064760E-1,4.371960607E0
1.280220663E1,-2.583290520E0,3.118352852E0,-7.653356248E-1,4.121074258E0
1.281215163E1,-2.566042111E0,3.456215497E0,-1.207789463E0,4.470878333E0
1.282209663E1,-2.301883034E0,4.175344670E0,-8.781111655E-1,4.848014834E0
1.283204063E1,-2.267933807E0,5.076318741E0,-4.210088825E-1,5.575821392E0
1.284198563E1,-2.463721392E0,6.146650981E0,1.497922164E-1,6.623720940E0
1.285193063E1,-2.638543199E0,7.390793461E0,1.232203635E0,7.943806644E0
1.286187563E1,-2.940758294E0,8.520644510E0,2.596773030E0,9.380440948E0
1.287181963E1,-3.676187458E0,9.106497511E0,3.789494803E0,1.052629669E1
1.288176463E1,-4.434843223E0,8.576664344E0,4.697251936E0,1.073737312E1
1.289170963E1,-4.326764459E0,7.138217719E0,5.466105246E0,9.977642479E0
1.290165363E1,-4.032667638E0,5.728940513E0,5.685702692E0,9.022770239E0
1.291159863E1,-3.800006342E0,4.645074892E0,5.055469909E0,7.846944944E0
1.292154363E1,-3.272493643E0,3.737354304E0,4.029629132E0,6.396478936E0
1.293148863E1,-2.668088303E0,2.637183137E0,2.982747735E0,4.792725127E0
1.294143263E1,-2.023212191E0,1.290939501E0,1.984748476E0,3.114344052E0
1.295137763E1,-1.432044655E0,-9.002431691E-2,9.128497660E-1,1.700632520E0
1.296132263E1,-9.039134663E-1,-1.463040015E0,-1.169250172E-1,1.723721874E0
1.297126763E1,-3.237460050E-1,-2.661497029E0,-9.250286391E-1,2.836204487E0
1.298121163E1,-1.063661152E-1,-3.434849771E0,-1.378813797E0,3.702787354E0
1.299115663E1,-1.508552402E-2,-3.852069073E0,-1.393395583E0,4.096366069E0
1.300110163E1,2.427822411E-1,-3.691131479E0,-9.982577062E-1,3.831437493E0
1.301104663E1,1.609460726E-1,-2.718572870E0,-3.318160397E-1,2.743472977E0
1.302099063E1,-4.559366405E-3,-1.777528415E0,1.711094105E-1,1.785750958E0
1.303093563E1,1.074740164E-1,-9.084006196E-1,5.870303383E-1,1.086897865E0
1.304088063E1,1.520790625E-1,-2.316877341E-1,9.755208081E-1,1.014124299E0
1.305082563E1,3.422135586E-1,1.317687589E-1,1.222506613E0,1.276321097E0
1.306076963E1,5.177510655E-1,2.144729465E-1,1.200839170E0,1.325171507E0
1.307071463E1,5.358442511E-1,-2.589439452E-2,8.116496658E-1,9.729207373E-1
1.308065963E1,5.493277842E-1,-5.862020802E-1,7.571033299E-2,8.069237559E-1
1.309060463E1,6.202900319E-1,-1.163236311E0,-5.406473002E-1,1.424843129E0
1.310054862E1,5.874149390E-1,-1.722822450E0,-9.383357325E-1,2.047839704E0
1.311049363E1,6.579177417E-1,-2.330098481E0,-1.218395435E0,2.710480054E0
1.312043863E1,7.447075251E-1,-2.824068335E0,-1.516494968E0,3.290852207E0
1.313038363E1,9.258992895E-1,-3.231612250E0,-1.761990024E0,3.795420408E0
1.314032762E1,1.063392326E0,-3.605190858E0,-1.961662499E0,4.239849540E0
1.315027263E1,1.249646903E0,-3.860283242E0,-2.196466214E0,4.613877753E0
1.316021763E1,1.380822900E0,-4.023883073E0,-2.354143401E0,4.862128960E0
1.317016263E1,1.489100762E0,-4.171878440E0,-2.426082280E0,5.050531262E0
1.318010663E1,1.561686636E0,-4.324155139E0,-2.432964453E0,5.201586185E0
1.319005163E1,1.599272830E0,-4.516885214E0,-2.422043608E0,5.369005574E0
1.319999663E1,1.614485239E0,-4.677582487E0,-2.388396390E0,5.494613529E0
1.320994063E1,1.700995087E0,-4.823991505E0,-2.301760535E0,5.609133613E0
1.321988563E1,1.855555415E0,-4.955727519E0,-2.249498121E0,5.750005473E0
1.322983063E1,2.035105574E0,-5.066128798E0,-2.044535671E0,5.829874939E0
1.323977563E1,2.277429978E0,-5.060782104E0,-1.913465070E0,5.870225837E0
1.324971963E1,2.568488293E0,-4.918584836E0,-1.827106664E0,5.841911303E0
1.325966463E1,2.665417587E0,-4.615524818E0,-1.840304707E0,5.638638282E0
1.326960962E1,2.584832430E0,-4.104922559E0,-1.966475927E0,5.234383963E0
1.327955463E1,2.540402655E0,-3.391349995E0,-2.180692765E0,4.765534742E0
1.328949863E1,2.410295967E0,-2.577530428E0,-2.094265071E0,4.103551625E0
1.329944363E1,2.240729929E0,-1.660206957E0,-1.757602274E0,3.296410701E0
1.330938863E1,2.214597260E0,-5.125850505E-1,-1.249992619E0,2.594159981E0
1.331933363E1,2.397170868E0,7.876029915E-1,-5.472172317E-1,2.581897237E0
1.332927763E1,2.544863496E0,2.093091534E0,-1.771121621E-3,3.295051672E0
1.333922263E1,2.594483845E0,3.608669366E0,1.846577016E-1,4.448363686E0
1.334916763E1,2.661574797E0,5.015553891E0,2.721604067E-1,5.684525708E0
1.335911263E1,2.280061956E0,6.283693929E0,1.946172640E-1,6.687403666E0
1.336905663E1,1.174711764E0,7.111564940E0,8.692119956E-2,7.208457458E0
1.337900163E1,1.772929873E-1,7.372858297E0,4.656254768E-2,7.375136632E0
1.338894663E1,-1.356707521E-1,7.317368220E0,2.749255550E-1,7.323787837E0
1.339889162E1,-2.107136254E-1,7.197777457E0,6.113892540E-1,7.226769498E0
1.340883563E1,-3.553237469E-1,7.332696111E0,8.201050320E-1,7.386965513E0
1.341878063E1,-8.386515230E-1,7.731912421E0,9.926133889E-1,7.840349954E0
1.342872563E1,-1.492841519E0,8.062399389E0,1.491960928E0,8.334075060E0
1.343867062E1,-1.797345799E0,8.158599535E0,2.368308281E0,8.683437246E0
1.344861463E1,-1.947051038E0,7.999389793E0,3.147360012E0,8.814029716E0
1.345855963E1,-2.200151129E0,7.353566578E0,3.984530143E0,8.648241837E0
1.346850463E1,-2.062173212E0,6.284076921E0,4.847572156E0,8.200069324E0
1.347844863E1,-1.908669768E0,5.046480399E0,5.426835930E0,7.652485408E0
1.348839363E1,-1.795860313E0,3.677736093E0,5.831129962E0,7.124109325E0
1.349833863E1,-1.360378695E0,2.103821175E0,5.667061184E0,6.196150111E0
1.350828363E1,-2.720618811E-1,6.186704993E-1,5.009860457E0,5.055242097E0
1.351822763E1,8.472934154E-1,-8.352671546E-1,4.152970591E0,4.320039593E0
1.352817263E1,1.535048475E0,-2.028865718E0,3.147226695E0,4.046937829E0
1.353811763E1,1.831489445E0,-2.895564580E0,2.137339169E0,4.038176141E0
1.354806263E1,2.360297595E0,-3.403337372E0,1.357807090E0,4.358594968E0
1.355800663E1,2.836107168E0,-3.360096627E0,6.449309295E-1,4.444062231E0
1.356795163E1,2.713520876E0,-2.785618799E0,-8.296438873E-2,3.889698026E0
1.357789663E1,1.964710360E0,-1.965276663E0,-4.188091600E-1,2.810302523E0
1.358784163E1,1.357087297E0,-1.420834812E0,-3.833083749E-1,2.001844851E0
1.359778563E1,7.987586018E-1,-1.088931064E0,-2.405252159E-1,1.371728306E0
1.360773063E1,5.641370273E-1,-9.871959436E-1,4.481715381E-2,1.137899378E0
1.361767563E1,1.741868001E-1,-1.036558723E0,3.260489309E-1,1.100501219E0
1.362762063E1,-1.114128470E-2,-1.103081911E0,2.547555846E-1,1.132172353E0
1.363756463E1,-1.370379773E-1,-1.199482031E0,5.102104962E-2,1.208362404E0
1.364750950E1,-3.350355166E-1,-1.406564097E0,-2.292778042E-1,1.463980761E0
1.365745450E1,-5.055929500E-1,-1.831663692E0,-6.260935396E-1,2.000652202E0
1.366739950E1,-4.451765943E-1,-2.307908882E0,-8.943035674E-1,2.514836869E0
1.367734350E1,-1.804143772E-1,-2.736617963E0,-1.169315954E0,2.981430365E0
1.368728850E1,3.892468071E-1,-3.076038891E0,-1.420430769E0,3.410447464E0
1.369723350E1,9.583732635E-1,-3.293596829E0,-1.607105468E0,3.788013644E0
1.370717850E1,1.123441038E0,-3.542712774E0,-1.776456913E0,4.119312167E0
1.371712250E1,1.143241465E0,-3.789768160E0,-2.007410822E0,4.438360278E0
1.372706750E1,1.236070983E0,-3.976734635E0,-2.170690518E0,4.696188577E0
1.373701250E1,1.180017235E0,-4.127307454E0,-2.282515594E0,4.861788244E0
1.374695750E1,1.049042236E0,-4.235389143E0,-2.353371276E0,4.957556572E0
1.375690150E1,8.999256653E-1,-4.273481998E0,-2.347017984E0,4.957923760E0
1.376684650E1,8.132789925E-1,-4.221810738E0,-2.365761526E0,4.907334942E0
1.377679150E1,6.763424644E-1,-4.194969680E0,-2.377443093E0,4.869029206E0
1.378673550E1,4.425395000E-1,-4.173274171E0,-2.404707198E0,4.836804236E0
1.379668050E1,4.884123686E-1,-4.104054832E0,-2.458532865E0,4.808970425E0
1.380662550E1,4.014248031E-1,-3.995687799E0,-2.374512469E0,4.665294452E0
1.381657050E1,1.388944682E-1,-3.835010406E0,-2.318130692E0,4.483338755E0
1.382651450E1,-1.062485862E-1,-3.605013687E0,-2.337657176E0,4.297912693E0
1.383645950E1,-3.361590591E-1,-3.306302243E0,-2.309210180E0,4.046861635E0
1.384640450E1,-5.199382165E-1,-2.900280359E0,-2.210573499E0,3.683557670E0
1.385634950E1,-7.100946397E-1,-2.408158225E0,-2.045414507E0,3.238391721E0
1.386629350E1,-9.109935674E-1,-1.852181572E0,-1.642882534E0,2.638095691E0
1.387623850E1,-1.010780688E0,-1.243510396E0,-1.223340425E0,2.016074775E0
1.388618350E1,-1.186398009E0,-6.284762800E-1,-8.900573194E-1,1.610814919E0
1.389612850E1,-1.282587338E0,-4.400614500E-2,-6.392000735E-1,1.433716693E0
1.390607250E1,-1.492043666E0,6.091541559E-1,-6.460992032E-1,1.736291239E0
1.391601750E1,-1.744669402E0,1.310252270E0,-7.596749353E-1,2.310354592E0
1.392596250E1,-2.119598132E0,2.006737515E0,-9.036164278E-1,3.055521943E0
1.393590750E1,-2.481074758E0,2.608706027E0,-8.577175391E-1,3.700913194E0
1.394585150E1,-2.689730017E0,3.160699557E0,-7.039269966E-1,4.209534710E0
1.395579650E1,-2.970036473E0,3.823029462E0,-6.791801181E-1,4.888553625E0
1.396574150E1,-3.630328622E0,4.595827303E0,-4.457022589E-1,5.873633033E0
1.397568650E1,-3.884078778E0,5.604046326E0,-5.806109726E-2,6.818707668E0
1.398563050E1,-3.699835937E0,6.985721750E0,3.274528474E-1,7.911783597E0
1.399557550E1,-3.469816706E0,8.267860606E0,8.919354451E-1,9.010698964E0
1.400552050E1,-3.209969950E0,9.208570016E0,1.586418604E0,9.880202063E0
1.401546550E1,-3.059493902E0,9.728336032E0,2.489491533E0,1.049755176E1
1.402540950E1,-2.811010333E0,9.777278396E0,3.964858940E0,1.091865644E1
1.403535450E1,-2.492683235E0,8.994636183E0,5.543533491E0,1.085576867E1
1.404529950E1,-2.484430768E0,7.152303076E0,5.997478570E0,9.659067488E0
1.405524450E1,-2.705660757E0,5.386553877E0,5.645960337E0,8.259081724E0
1.406518850E1,-2.609429035E0,4.047247378E0,4.974256761E0,6.923334569E0
1.407513350E1,-2.563933020E0,2.895930031E0,3.941884645E0,5.522555371E0
1.408507850E1,-2.650990460E0,1.728453319E0,2.805005535E0,4.228871876E0
1.409502350E1,-2.660779576E0,4.974740911E-1,1.645292756E0,3.167683172E0
1.410496750E1,-2.340605196E0,-7.130258489E-1,6.032671791E-1,2.520073379E0
1.411491250E1,-1.822665850E0,-1.785903382E0,-2.584697360E-1,2.564832996E0
1.412485750E1,-1.422401720E0,-2.640807826E0,-7.828781489E-1,3.099998520E0
1.413480150E1,-1.098081079E0,-3.246420323E0,-1.031259391E0,3.578899678E0
1.414474650E1,-7.065778318E-1,-3.441136113E0,-9.692028916E-1,3.644176755E0
1.415469150E1,1.557712868E-2,-3.083014619E0,-3.479488000E-1,3.102626332E0
1.416463650E1,1.146495733E-1,-2.405632812E0,3.175105342E-1,2.429202892E0
1.417458050E1,1.727494083E-1,-1.464798857E0,5.404376775E-1,1.570844019E0
1.418452550E1,2.807520130E-1,-5.697392446E-1,1.046000222E0,1.223740562E0
1.419447050E1,5.796697171E-1,2.063698751E-1,1.239531366E0,1.383850972E0
1.420441550E1,6.962482868E-1,6.549197280E-1,1.135871342E0,1.484548831E0
1.421435950E1,8.454328313E-1,8.658533549E-1,9.295236862E-1,1.525933481E0
1.422430450E1,1.019252719E0,7.033212250E-1,4.920163000E-1,1.332522754E0
1.423424950E1,1.236547531E0,1.876903600E-1,-1.350604489E-1,1.257982032E0
1.424419450E1,1.310299193E0,-6.119508791E-1,-6.736819813E-1,1.595373081E0
1.425413850E1,1.342712502E0,-1.566395983E0,-1.098388935E0,2.337291487E0
1.426408350E1,1.474466643E0,-2.382268508E0,-1.448098624E0,3.153766756E0
1.427402850E1,1.623776757E0,-3.037605727E0,-1.807276710E0,3.889723463E0
1.428397350E1,1.710817240E0,-3.568446954E0,-2.152960591E0,4.505102507E0
1.429391750E1,1.805305175E0,-4.013814753E0,-2.448806899E0,5.036515747E0
1.430386250E1,1.988559983E0,-4.467643472E0,-2.690215044E0,5.581349835E0
1.431380750E1,2.036819977E0,-4.862092547E0,-2.841036955E0,5.988327858E0
1.432375250E1,2.137918921E0,-5.247799450E0,-2.858359916E0,6.346677697E0
1.433369650E1,2.312106306E0,-5.576456239E0,-2.879613960E0,6.688413587E0
1.434364150E1,2.431887688E0,-5.944777030E0,-2.901869048E0,7.048070348E0
1.435358650E1,2.596927396E0,-6.333689377E0,-2.887767903E0,7.429593292E0
1.436353150E1,2.720836328E0,-6.573209456E0,-2.836191075E0,7.658590777E0
1.437347550E1,2.817500450E0,-6.854935323E0,-2.860332767E0,7.944177151E0
1.438342050E1,2.851935580E0,-7.108675831E0,-2.913915774E0,8.194981010E0
1.439336550E1,2.895845246E0,-7.269672482E0,-2.928574159E0,8.355274040E0
1.440331050E1,2.979770625E0,-7.310324664E0,-2.867214355E0,8.398856936E0
1.441325450E1,3.032294994E0,-7.181346781E0,-2.782599882E0,8.277041538E0
1.442319950E1,2.798612190E0,-6.737591645E0,-2.670776560E0,7.769196792E0
1.443314450E1,2.240588719E0,-5.941612517E0,-2.696706623E0,6.898929172E0
1.444308950E1,1.977344877E0,-4.855238441E0,-2.948935041E0,6.014935657E0
1.445303350E1,1.754036057E0,-3.307673416E0,-2.681313828E0,4.605083035E0
1.446297850E1,1.042376556E0,-8.443888110E-1,-1.676023383E0,2.146764013E0
1.447292350E1,7.875307783E-2,2.447662014E0,2.556431919E-2,2.449062048E0
1.448286850E1,-7.222350673E-1,5.761582595E0,2.069451826E0,6.164421169E0
1.449281250E1,-7.491499472E-1,8.494182935E0,2.961531405E0,9.026795536E0
1.450275750E1,-2.892860243E-1,1.006982103E1,2.765275167E0,1.044661326E1
1.451270250E1,2.729834023E-1,1.040579151E1,2.206459690E0,1.064065230E1
1.452264650E1,9.369537431E-1,9.525579736E0,1.301712996E0,9.659658811E0
1.453259150E1,1.530890813E0,8.232130610E0,6.335513708E-1,8.397201225E0
1.454253650E1,2.230375679E0,7.575633304E0,4.474432674E-1,7.909804113E0
1.455248150E1,2.665700008E0,8.473008998E0,5.079850459E-1,8.896959414E0
1.456242550E1,2.638925607E0,9.995557880E0,9.135534784E-1,1.037832769E1
1.457237050E1,6.887672129E-1,1.092618435E1,1.551049381E0,1.105719942E1
1.458231550E1,-1.106235606E0,1.148902330E1,2.098278599E0,1.173133354E1
1.459226050E1,-1.904726698E0,1.188716957E1,2.743923474E0,1.234754632E1
1.460220450E1,-2.810615646E0,1.146407440E1,4.031251734E0,1.247299293E1
1.461214950E1,-3.824553246E0,9.362510247E0,5.968843585E0,1.174354714E1
1.462209450E1,-3.872417969E0,6.530409007E0,7.615121305E0,1.075322906E1
1.463203950E1,-3.479840587E0,3.917681850E0,7.476617138E0,9.130023298E0
1.464198350E1,-1.746473268E0,2.023884475E0,6.077474327E0,6.639425535E0
1.465192825E1,4.461735445E-1,6.871080655E-1,4.433892174E0,4.508945346E0
1.466187325E1,1.420386330E0,-5.679622757E-1,3.142506823E0,3.495057597E0
1.467181825E1,2.170622398E0,-1.898698511E0,2.182042887E0,3.616347438E0
1.468176225E1,2.837859578E0,-2.876179891E0,1.480884840E0,4.303356557E0
1.469170725E1,3.365729543E0,-3.546187774E0,8.807163924E-1,4.967820895E0
1.470165225E1,3.802142622E0,-3.895115690E0,2.786823910E-1,5.450309958E0
1.471159725E1,3.943027775E0,-4.115384982E0,-4.153113556E-1,5.714573047E0
1.472154125E1,3.216970237E0,-4.117703987E0,-8.874804515E-1,5.300189165E0
1.473148625E1,1.868126344E0,-3.812782216E0,-9.529335988E-1,4.351469488E0
1.474143125E1,1.658789592E0,-2.882348118E0,-8.732378036E-1,3.438321952E0
1.475137625E1,1.105245088E0,-1.772171196E0,-5.446424103E-1,2.158423686E0
1.476132025E1,1.969257447E-1,-9.735970742E-1,2.591135144E-2,9.936510503E-1
1.477126525E1,-7.039810833E-1,-3.317511356E-1,4.722597277E-1,9.103172151E-1
1.478121025E1,-1.387518254E0,1.300175178E-1,5.520756832E-1,1.498965984E0
1.479115525E1,-1.873127468E0,2.599666232E-1,4.651927829E-1,1.947458210E0
1.480109925E1,-1.900595933E0,-5.204548180E-2,1.799688193E-1,1.909806903E0
1.481104425E1,-1.787737946E0,-6.847107071E-1,-3.617344880E-1,1.948252437E0
1.482098925E1,-1.564378109E0,-1.404093649E0,-8.760573310E-1,2.277330518E0
1.483093425E1,-1.103859883E0,-2.062887742E0,-1.347183284E0,2.699799118E0
1.484087825E1,-4.032848024E-1,-2.462940788E0,-1.793995929E0,3.073619585E0
1.485082325E1,3.246950081E-1,-2.749130419E0,-2.135948702E0,3.496487061E0
1.486076825E1,6.352514488E-1,-3.084675813E0,-2.425024226E0,3.974859969E0
1.487071325E1,7.610601407E-1,-3.345082147E0,-2.671130317E0,4.347841335E0
1.488065725E1,9.034208384E-1,-3.488153574E0,-2.890348279E0,4.619252942E0
1.489060225E1,1.051686639E0,-3.606181961E0,-3.048952542E0,4.838047615E0
1.490054725E1,1.152046202E0,-3.767120724E0,-3.104053194E0,5.015332016E0
1.491049225E1,1.161428352E0,-3.935207124E0,-3.089715528E0,5.136254762E0
1.492043625E1,1.122934377E0,-4.062215080E0,-2.946183634E0,5.142234045E0
1.493038125E1,1.046817955E0,-4.232695915E0,-2.794902424E0,5.179094718E0
1.494032625E1,1.009821745E0,-4.461818476E0,-2.687864463E0,5.305862742E0
1.495027025E1,9.478678635E-1,-4.633895016E0,-2.569661829E0,5.382805813E0
1.496021525E1,8.209186721E-1,-4.817008175E0,-2.543488523E0,5.508793796E0
1.497016025E1,7.964834502E-1,-4.891701093E0,-2.504716805E0,5.553083084E0
1.498010525E1,7.002385730E-1,-4.703399699E0,-2.401774819E0,5.327365678E0
1.499004925E1,3.820933235E-1,-4.302968922E0,-2.258549903E0,4.874688146E0
1.499999425E1,6.995199502E-2,-3.748561077E0,-2.311734715E0,4.404624936E0
1.500993925E1,-2.721911046E-1,-3.128082619E0,-2.327415486E0,3.908433409E0
1.501988425E1,-5.431867459E-1,-2.494937922E0,-2.112246428E0,3.313812313E0
1.502982825E1,-8.965526989E-1,-1.892288793E0,-1.963900228E0,2.870795661E0
1.503977325E1,-1.214652925E0,-1.323189819E0,-1.850425068E0,2.578814836E0
1.504971825E1,-1.374732148E0,-7.186216342E-1,-1.747509980E0,2.336684972E0
1.505966325E1,-1.631854978E0,-1.988170266E-1,-1.635792493E0,2.319115339E0
1.506960725E1,-1.874640727E0,3.794468737E-1,-1.561359776E0,2.469028582E0
1.507955225E1,-2.322602642E0,1.125914118E0,-1.467216973E0,2.968988259E0
1.508949725E1,-2.900546700E0,2.059478815E0,-1.270212291E0,3.777309017E0
1.509944225E1,-3.614607214E0,3.051139108E0,-6.609125394E-1,4.776153321E0
1.510938625E1,-4.037146897E0,4.400142045E0,3.023811561E-1,5.979234019E0
1.511933125E1,-4.153968126E0,6.066414903E0,1.545117381E0,7.512937421E0
1.512927625E1,-3.620743282E0,7.725681628E0,2.817299598E0,8.985160853E0
1.513922125E1,-3.318441356E0,9.288336563E0,3.947041304E0,1.062376507E1
1.514916525E1,-3.051938715E0,1.024348450E1,5.135408948E0,1.185815035E1
1.515911025E1,-2.531877707E0,1.023304488E1,6.532055583E0,1.240134519E1
1.516905525E1,-2.246937333E0,8.422178568E0,7.410153008E0,1.144081233E1
1.517900025E1,-2.614589788E0,5.843538339E0,6.737001661E0,9.293557524E0
1.518894425E1,-2.981547009E0,4.053937762E0,5.244623827E0,7.268432639E0
1.519888925E1,-3.091777257E0,2.629772376E0,3.809232371E0,5.566420808E0
1.520883425E1,-2.753459698E0,1.347424189E0,2.624116364E0,4.035229726E0
1.521877925E1,-2.479341351E0,2.697156858E-1,1.564630416E0,2.944137977E0
1.522872325E1,-2.031505151E0,-6.030701280E-1,6.592858440E-1,2.219316242E0
1.523866825E1,-1.502428613E0,-1.426754533E0,-6.947661638E-3,2.071947998E0
1.524861325E1,-1.147483327E0,-2.173991271E0,-5.701561511E-1,2.523496398E0
1.525855825E1,-8.537645289E-1,-2.765431287E0,-9.770706126E-1,3.054699831E0
1.526850225E1,-4.463258645E-1,-3.144323845E0,-9.654372847E-1,3.319344569E0
1.527844725E1,2.825184569E-2,-3.079477054E0,-5.734153891E-1,3.132536081E0
1.528839225E1,3.669063503E-1,-2.758570749E0,7.524050921E-2,2.783881101E0
1.529833725E1,4.322583407E-1,-2.143556514E0,6.851521719E-1,2.291531213E0
1.530828125E1,4.140736462E-1,-1.440025374E0,1.059536526E0,1.835142423E0
1.531822625E1,5.625917543E-1,-8.304800391E-1,1.152937025E0,1.528224578E0
1.532817125E1,7.466455847E-1,-4.418547910E-1,1.172350951E0,1.458465645E0
1.533811625E1,7.564430331E-1,-3.506797421E-1,9.702641612E-1,1.279294683E0
1.534806025E1,7.581407721E-1,-4.268397260E-1,5.981736696E-1,1.055832052E0
1.535800525E1,7.937772126E-1,-6.477826166E-1,1.932838064E-1,1.042623236E0
1.536795025E1,7.335181470E-1,-9.873620045E-1,-2.254680508E-1,1.250507274E0
1.537789525E1,5.575187100E-1,-1.454430574E0,-6.814426982E-1,1.700164568E0
1.538783925E1,3.801530711E-1,-1.966617429E0,-1.126312314E0,2.297972998E0
1.539778425E1,3.892045610E-1,-2.464881479E0,-1.472113724E0,2.897281435E0
1.540772925E1,4.925745629E-1,-2.883473707E0,-1.747930102E0,3.407683959E0
1.541767425E1,6.108062866E-1,-3.254433348E0,-1.969574366E0,3.852744985E0
1.542761825E1,7.721458769E-1,-3.528298802E0,-2.163343492E0,4.210125504E0
1.543756325E1,9.188544179E-1,-3.784774638E0,-2.116610498E0,4.432702618E0
1.544750825E1,1.213086748E0,-3.930290201E0,-2.003019563E0,4.575024359E0
1.545745225E1,1.511637393E0,-4.018269162E0,-1.995387777E0,4.734248308E0
1.546739725E1,1.751672028E0,-4.118071193E0,-1.953844187E0,4.883069971E0
1.547734225E1,1.874898005E0,-4.239620188E0,-1.848211897E0,4.990541963E0
1.548728725E1,2.019502425E0,-4.325708744E0,-1.898219624E0,5.137449165E0
1.549723125E1,2.166650531E0,-4.398582008E0,-2.045406321E0,5.312775661E0
1.550717625E1,2.440568318E0,-4.517714349E0,-2.139419024E0,5.562663967E0
1.551712125E1,2.583843082E0,-4.591040772E0,-1.968735875E0,5.624039597E0
1.552706625E1,2.573162265E0,-4.585490010E0,-1.938884670E0,5.604208815E0
1.553701025E1,2.577195090E0,-4.416080970E0,-2.123736792E0,5.536602173E0
1.554695525E1,2.619137752E0,-4.022557510E0,-2.258669479E0,5.304944797E0
1.555690025E1,2.693328394E0,-3.532336890E0,-2.227103285E0,4.969045259E0
1.556684525E1,2.836814681E0,-2.826455753E0,-2.078156284E0,4.511663019E0
1.557678925E1,2.818980088E0,-2.025801192E0,-1.967674606E0,3.990270988E0
1.558673425E1,2.575630960E0,-1.053471209E0,-1.730421492E0,3.276894104E0
1.559667925E1,1.977808708E0,4.505864382E-3,-1.317958900E0,2.376712698E0
1.560662425E1,1.056855285E0,1.162332916E0,-7.060892969E-1,1.722359718E0
1.561656825E1,2.158347631E-1,2.551067684E0,1.125431138E-1,2.562654273E0
1.562651325E1,-5.156489915E-1,4.014852633E0,1.122326267E0,4.200541846E0
1.563645825E1,-1.117308186E0,5.553665546E0,1.557609372E0,5.875178766E0
1.564640388E1,-1.562398826E0,6.860591919E0,1.572502815E0,7.209825010E0
1.565634788E1,-1.771710728E0,7.542064438E0,1.376241314E0,7.868655225E0
1.566629288E1,-1.969024436E0,7.533517563E0,8.843352342E-1,7.836644238E0
1.567623788E1,-1.886464236E0,6.776311907E0,4.856916592E-1,7.050747958E0
1.568618288E1,-1.466877834E0,6.043070480E0,2.959492189E-1,6.225593734E0
1.569612688E1,-1.110548659E0,6.068677776E0,4.832928389E-2,6.169643749E0
1.570607188E1,-7.381264839E-1,6.685132765E0,-2.605723947E-1,6.730804467E0
1.571601688E1,-6.991001201E-1,7.322130777E0,-6.388258517E-2,7.355706702E0
1.572596188E1,-1.030157484E0,7.850747139E0,6.470014286E-1,7.944436162E0
1.573590587E1,-1.173238997E0,8.244341351E0,1.584579070E0,8.476823985E0
1.574585088E1,-1.122392340E0,8.518723699E0,2.416829646E0,8.925776357E0
1.575579588E1,-1.048047040E0,8.411510907E0,2.993168643E0,8.989492581E0
1.576574088E1,-8.362550417E-1,7.646551259E0,3.420988947E0,8.418564843E0
1.577568488E1,-6.219276908E-1,6.349053521E0,4.162915244E0,7.617554593E0
1.578562988E1,-1.551079202E-1,4.708954554E0,4.823088987E0,6.742440125E0
1.579557488E1,4.959266254E-1,3.032618637E0,5.048192464E0,5.909904075E0
1.580551988E1,1.014949168E0,1.434534253E0,4.882177148E0,5.188801792E0
1.581546388E1,1.627267545E0,-1.651025659E-1,4.221724492E0,4.527495578E0
1.582540888E1,2.266872538E0,-1.564355890E0,3.269809186E0,4.275227779E0
1.583535388E1,2.763206129E0,-2.799958511E0,2.477136366E0,4.648793430E0
1.584529888E1,3.226543883E0,-3.739007311E0,1.750347049E0,5.239701890E0
1.585524288E1,3.585990356E0,-4.398090257E0,1.230886842E0,5.806686418E0
1.586518787E1,3.575705688E0,-4.709166223E0,8.698815018E-1,5.976504958E0
1.587513288E1,2.506273626E0,-4.706373593E0,6.552395707E-1,5.372215444E0
1.588507788E1,1.488416346E0,-4.182673570E0,4.316391206E-1,4.460544108E0
1.589502188E1,1.547827565E0,-3.187937642E0,1.150340277E-1,3.545694489E0
1.590496687E1,1.459022685E0,-2.193479456E0,-1.198457015E-1,2.637131455E0
1.591491188E1,9.062827581E-1,-1.505155170E0,-1.413611162E-1,1.762618362E0
1.592485688E1,1.857289115E-1,-1.103995830E0,-1.244866365E-1,1.126409759E0
1.593480088E1,-3.421509933E-1,-8.646675396E-1,-3.366534412E-3,9.299078394E-1
1.594474588E1,-6.893379012E-1,-5.504223830E-1,-3.148345560E-2,8.826906308E-1
1.595469088E1,-8.172714713E-1,-5.895221293E-1,-1.395584196E-1,1.017322737E0
1.596463588E1,-1.102650386E0,-6.379680651E-1,-3.773506469E-1,1.328621329E0
1.597457988E1,-1.166098816E0,-9.836402518E-1,-6.446947020E-1,1.656190162E0
1.598452488E1,-9.579174730E-1,-1.286176359E0,-9.082906920E-1,1.843053850E0
1.599446988E1,-4.847756928E-1,-1.550764621E0,-1.106362199E0,1.965684537E0
1.600441388E1,2.447431049E-1,-1.806499615E0,-1.276129381E0,2.225274419E0
1.601435888E1,6.745526317E-1,-2.081353249E0,-1.383640673E0,2.588728281E0
1.602430388E1,5.901483661E-1,-2.417379284E0,-1.588095000E0,2.951955865E0
1.603424887E1,5.420532632E-1,-2.768416876E0,-1.889180413E0,3.395137165E0
1.604419288E1,6.147467253E-1,-3.091935132E0,-2.208401551E0,3.849027644E0
1.605413788E1,6.561227927E-1,-3.479118456E0,-2.368500362E0,4.259642745E0
1.606408288E1,7.799080557E-1,-3.726553912E0,-2.289430511E0,4.442629030E0
1.607402788E1,8.749022135E-1,-3.886914970E0,-2.298455688E0,4.599615247E0
1.608397188E1,8.288381410E-1,-4.001589394E0,-2.322483652E0,4.700385160E0
1.609391688E1,7.597927567E-1,-4.007129046E0,-2.503550870E0,4.785617535E0
1.610386188E1,8.271003485E-1,-3.903971883E0,-2.704186966E0,4.820551690E0
1.611380688E1,7.122411525E-1,-3.846110761E0,-2.787407463E0,4.803071497E0
1.612375088E1,5.788497913E-1,-3.880034552E0,-2.762814366E0,4.798216171E0
1.613369588E1,5.142725569E-1,-3.870114166E0,-2.687299038E0,4.739602941E0
1.614364088E1,4.782469842E-1,-3.863731930E0,-2.714008242E0,4.745838739E0
1.615358588E1,4.746269730E-1,-3.769470720E0,-2.715602485E0,4.669976138E0
1.616352988E1,2.783602095E-1,-3.564452137E0,-2.615415707E0,4.429808434E0
1.617347488E1,3.227809221E-2,-3.178669220E0,-2.435424961E0,4.004531761E0
1.618341988E1,-2.541939595E-1,-2.683055713E0,-2.230570684E0,3.498406510E0
1.619336488E1,-6.495215786E-1,-1.975242657E0,-1.897817920E0,2.815168680E0
1.620330888E1,-8.997101954E-1,-1.001554366E0,-1.594765504E0,2.087071297E0
1.621325388E1,-1.035922546E0,1.759894967E-2,-1.306999463E0,1.667840772E0
1.622319888E1,-1.300416083E0,1.169133813E0,-1.082088068E0,2.056421758E0
1.623314388E1,-1.848123896E0,2.319741307E0,-8.253622636E-1,3.078633550E0
1.624308788E1,-2.470080239E0,3.270008576E0,-5.977096930E-1,4.141438077E0
1.625303288E1,-2.924231139E0,3.989392687E0,-4.731455809E-1,4.968928306E0
1.626297788E1,-3.635204616E0,4.445103625E0,-4.201329696E-1,5.757618479E0
1.627292288E1,-4.287000761E0,4.349899845E0,-4.116068521E-1,6.121227359E0
1.628286688E1,-4.625759785E0,3.802917379E0,-4.494582179E-1,6.005151694E0
1.629281188E1,-4.992359156E0,3.532820454E0,-4.467220134E-1,6.132212558E0
1.630275688E1,-5.255047658E0,4.089288273E0,-5.638832581E-1,6.682497198E0
1.631270188E1,-4.812551135E0,5.290740232E0,-5.594689026E-1,7.173951915E0
1.632264588E1,-3.549133016E0,6.509257874E0,9.994060993E-3,7.413965411E0
1.633259088E1,-3.214170005E0,7.422836788E0,9.702764404E-1,8.146829516E0
1.634253588E1,-3.057067015E0,8.214996514E0,2.006370310E0,8.992071412E0
1.635248088E1,-3.017539253E0,8.613195993E0,3.535411940E0,9.787329868E0
1.636242488E1,-2.556203878E0,8.300866969E0,5.604499485E0,1.033677828E1
1.637236988E1,-2.590344016E0,6.570312746E0,6.887224233E0,9.864722466E0
1.638231488E1,-3.030815063E0,4.528763248E0,6.436538976E0,8.433538433E0
