"Time (s)","Linear Acceleration x (m/s^2)","Linear Acceleration y (m/s^2)","Linear Acceleration z (m/s^2)","Absolute acceleration (m/s^2)"
-2.000541892E-3,-8.384918940E0,6.246457690E0,-4.566684780E0,1.140963230E1
7.943457924E-3,-1.264499444E1,1.765182019E0,-2.609941661E1,2.905497030E1
1.788745821E-2,-1.235440069E1,-8.413275012E0,-4.646911853E1,4.881386473E1
2.783145802E-2,1.600114683E0,-1.016778762E1,-3.080671055E0,1.074405911E1
3.777545830E-2,1.014205636E1,-1.014739136E1,1.468489386E1,2.052990419E1
4.771945812E-2,1.349678524E1,-1.439598059E1,1.684939159E1,2.594820738E1
5.766345793E-2,1.116805560E1,-1.819430147E1,1.509668285E1,2.614704391E1
6.760745822E-2,7.417097161E0,-1.882247721E1,9.712312907E0,2.244165770E1
7.755145803E-2,6.822216058E0,-1.366739179E1,3.858307468E0,1.575521396E1
8.749545831E-2,7.166886617E0,-6.295638036E0,2.695812730E-1,9.543164890E0
9.743945813E-2,7.656022578E0,-9.742712581E-1,-1.742402437E0,7.912006854E0
1.073834579E-1,7.795869266E0,1.871551058E0,-3.810632780E0,8.876891525E0
1.173274582E-1,6.287175361E0,3.910802600E0,-6.829929121E0,1.007327567E1
1.272714580E-1,1.734246448E0,4.318620164E0,-1.067742041E1,1.164754899E1
1.372154583E-1,-4.604675602E0,1.771715698E0,-1.404096339E1,1.488256250E1
1.471594581E-1,-5.877982532E0,-2.656974792E0,-1.285704489E1,1.438449849E1
1.571034580E-1,-1.224827226E-1,-7.198500173E0,-8.132820915E0,1.086168416E1
1.670474582E-1,5.540146199E0,-9.356155493E0,-3.483781611E0,1.141786319E1
1.769914581E-1,7.677988814E0,-9.220245152E0,-1.689974328E-1,1.199970804E1
1.869354583E-1,5.901618147E0,-7.339663653E0,2.050715593E0,9.638734032E0
1.968794581E-1,1.856945883E0,-3.552337875E0,3.838294787E0,5.549762091E0
2.068234580E-1,-1.818239947E0,1.376341009E-1,3.538332624E0,3.980544864E0
2.167674582E-1,-3.421470172E0,2.277070082E0,2.685824955E0,4.909700804E0
2.267114581E-1,-3.391311988E0,3.435909287E0,3.189955516E0,5.786387977E0
2.366554583E-1,-3.481242750E0,3.634256197E0,4.383286861E0,6.673834947E0
2.465994582E-1,-3.515479952E0,3.796829842E0,5.133247232E0,7.288672258E0
2.565434580E-1,-3.653269881E0,4.478297684E0,4.759148222E0,7.486723099E0
2.664874583E-1,-3.946689009E0,4.232500618E0,4.403612952E0,7.272016409E0
2.764314581E-1,-4.006741376E0,3.605027136E0,3.725818917E0,6.552245699E0
2.863764581E-1,-4.556113014E0,2.847536135E0,3.057768681E0,6.181955770E0
2.963204579E-1,-5.138869915E0,2.353755146E0,2.463868157E0,6.165938175E0
3.062644582E-1,-5.650854456E0,2.141895905E0,2.259168831E0,6.451644594E0
3.162084580E-1,-6.073153235E0,2.043259808E0,2.574641318E0,6.905568679E0
3.261524583E-1,-6.271507747E0,2.084591437E0,2.789325349E0,7.173399946E0
3.360964581E-1,-6.137361510E0,2.214687307E0,2.957294805E0,7.163633068E0
3.460404580E-1,-5.713853527E0,2.535688337E0,2.986424464E0,6.927955583E0
3.559844582E-1,-4.805038048E0,2.817891921E0,2.459831239E0,6.089308273E0
3.659284580E-1,-3.642296119E0,3.120787048E0,1.888927814E0,5.154966644E0
3.758724583E-1,-2.547474570E0,3.330223203E0,1.823727851E0,4.572307572E0
3.858164581E-1,-1.869843671E0,3.161025832E0,1.972112643E0,4.168648215E0
3.957604580E-1,-1.615060897E0,2.764084089E0,2.100663679E0,3.829016903E0
4.057044582E-1,-1.393279808E0,2.233692513E0,2.179548465E0,3.417753996E0
4.156484581E-1,-9.805599385E-1,1.520422835E0,2.123822161E0,2.789946946E0
4.255924583E-1,-5.686928853E-1,7.275205117E-1,2.031591690E0,2.231605361E0
4.355364582E-1,-2.644172314E-1,6.145657539E-2,1.976328485E0,1.994885376E0
4.454804580E-1,-3.298355877E-2,-5.268575191E-1,1.687385400E0,1.768031744E0
4.554244583E-1,1.534958428E-1,-9.535428786E-1,1.184517837E0,1.528361051E0
4.653684581E-1,4.017814833E-1,-1.325549755E0,7.941963118E-1,1.596639689E0
4.753124584E-1,7.604941303E-1,-1.633194575E0,4.202247709E-1,1.849936404E0
4.852564582E-1,1.252817117E0,-1.735519094E0,4.884456977E-2,2.141019161E0
4.952004580E-1,1.715162890E0,-1.422825789E0,-1.116063899E-1,2.231294008E0
5.051444583E-1,1.814507961E0,-3.191860539E-1,-3.695674181E-1,1.879068640E0
5.150884581E-1,9.145744023E-1,8.399051660E-1,-4.927325839E0,5.081380417E0
5.250324584E-1,-1.917302012E-1,9.912860709E-1,-1.171180689E1,1.175524688E1
5.349764582E-1,8.931613138E-1,1.150247306E0,-1.086642815E1,1.096357910E1
5.449204580E-1,3.073115868E0,5.865757173E-1,-7.018863183E0,7.684565869E0
5.548644583E-1,3.170816117E0,-1.051129984E0,-4.167943264E0,5.341413684E0
5.648084581E-1,3.027951390E0,-2.082616248E0,-2.514649470E0,4.453003707E0
5.747524584E-1,2.634692808E0,-2.578415696E0,-1.064381821E0,3.837022590E0
5.846964582E-1,1.927918510E0,-2.457925631E0,6.970135412E-1,3.200639946E0
5.946404580E-1,1.298809853E0,-2.038798968E0,2.489091291E0,3.469752688E0
6.045844583E-1,1.111133819E0,-1.563298713E0,3.050654958E0,3.603472895E0
6.145284581E-1,1.585324005E0,-1.227415935E0,2.721493262E0,3.380285144E0
6.244724584E-1,2.313296214E0,-1.066820403E0,1.392343669E0,2.903113163E0
6.344164582E-1,3.419185665E0,-1.210757217E0,-5.054546633E-1,3.662273620E0
6.443604580E-1,4.538676910E0,-1.371166223E0,-1.692080129E0,5.034165280E0
6.543044583E-1,5.456510550E0,-1.431719404E0,-2.325249385E0,6.101648345E0
6.642484581E-1,6.483411427E0,-1.442596394E0,-2.597260395E0,7.131722768E0
6.741924579E-1,7.547741500E0,-1.497398254E0,-2.518044949E0,8.096366694E0
6.841364582E-1,8.427358031E0,-1.885268626E0,-2.535942983E0,9.000311550E0
6.940804580E-1,9.020693715E0,-2.933983710E0,-2.892755870E0,9.917117123E0
7.040244583E-1,9.118905888E0,-4.917698398E0,-3.268271953E0,1.086369199E1
7.139684581E-1,8.191897674E0,-7.649326932E0,-4.552221107E0,1.209719418E1
7.239124579E-1,5.459630624E0,-9.312623557E0,-7.041387827E0,1.288850909E1
7.338564582E-1,2.006817037E0,-1.041269825E1,-9.222697474E0,1.405381614E1
7.438004580E-1,-4.366358587E-1,-1.140261899E1,-1.040353917E1,1.544163197E1
7.537444583E-1,-1.046695164E0,-1.175945468E1,-1.032145829E1,1.568160854E1
7.636884581E-1,7.948614326E-1,-1.086237018E1,-8.710009512E0,1.394586520E1
7.736324579E-1,3.610119476E0,-8.884602109E0,-6.702134714E0,1.169990286E1
7.835761248E-1,5.220270758E0,-6.864515401E0,-6.061290988E0,1.054096992E1
7.935201246E-1,6.150197902E0,-5.149407767E0,-5.607047117E0,9.786741642E0
8.034641249E-1,6.596329347E0,-3.751018662E0,-4.363563618E0,8.753421577E0
8.134081247E-1,6.560474805E0,-2.766336436E0,-3.103065307E0,7.766689207E0
8.233521250E-1,6.050429785E0,-2.446979059E0,-1.917028363E0,6.802235283E0
8.332961248E-1,4.831319528E0,-3.090949876E0,-7.656426036E-1,5.786348426E0
8.432401246E-1,2.881468990E0,-4.728639790E0,4.941481948E-3,5.537411148E0
8.531841249E-1,2.289550379E-1,-6.935597078E0,9.421495789E-1,7.003040273E0
8.631281247E-1,-3.207333733E0,-9.438358575E0,2.899027301E0,1.038142387E1
8.730721250E-1,-7.193698440E0,-1.166721836E1,5.111663990E0,1.462882054E1
8.830161248E-1,-1.024893411E1,-1.297053934E1,6.483817223E0,1.775712327E1
8.929601246E-1,-1.225891215E1,-1.277580718E1,7.211498533E0,1.911826057E1
9.029041249E-1,-1.247565206E1,-1.098620368E1,6.745680099E0,1.793997675E1
9.128481247E-1,-1.115372875E1,-7.588126464E0,5.105230883E0,1.442389374E1
9.227921250E-1,-9.675013518E0,-3.048309640E0,2.763300562E0,1.051351075E1
9.327361248E-1,-7.986893123E0,7.548486435E-1,1.177532096E0,8.108442518E0
9.426801247E-1,-6.539330689E0,3.319699384E0,4.183565855E-2,7.333825746E0
9.526241249E-1,-6.228916043E0,4.733834456E0,-2.812943423E-1,7.828646769E0
9.625681248E-1,-6.482295778E0,5.838647143E0,6.684091815E-1,8.749670270E0
9.725121250E-1,-6.358538874E0,6.772453330E0,1.809313295E0,9.464182760E0
9.824561249E-1,-5.232527692E0,7.793880043E0,2.832620473E0,9.805490855E0
9.924001247E-1,-3.493429809E0,8.905263830E0,3.157725663E0,1.007367892E1
1.002344125E0,-1.948809442E0,9.645313171E0,3.262443448E0,1.036694081E1
1.012288125E0,-1.122662774E0,9.944597057E0,3.406807694E0,1.057174163E1
1.022232125E0,-9.510516724E-1,1.007576063E1,3.706920716E0,1.077806628E1
1.032176125E0,-8.814001512E-1,1.030958260E1,4.151911368E0,1.114911331E1
1.042120125E0,-8.562574893E-1,1.060186737E1,4.503810840E0,1.155063118E1
1.052064125E0,-8.636916393E-1,1.091209139E1,4.663241022E0,1.189813089E1
1.062008125E0,-1.022964824E0,1.151242853E1,5.029206555E0,1.260457799E1
1.071952125E0,-1.617271437E0,1.242654364E1,5.088830613E0,1.352518949E1
1.081896125E0,-2.211432747E0,1.257447936E1,2.973581640E0,1.310916297E1
1.091840125E0,-2.962057362E0,1.179302004E1,7.160407463E-1,1.218038669E1
1.101785125E0,-4.355229582E0,1.050357099E1,8.031158008E-2,1.137099284E1
1.111728125E0,-5.254407973E0,9.342303439E0,1.491894416E-1,1.071959394E1
1.121673125E0,-6.487850633E0,7.791738793E0,-2.452256756E0,1.043153692E1
1.131617125E0,-9.498698332E0,4.517931281E0,-1.892501164E1,2.165162901E1
1.141561125E0,-8.132569485E0,-2.802234832E0,-3.460483731E1,3.565790195E1
1.151505125E0,9.862379358E0,-5.963082324E0,5.172832882E-1,1.153657052E1
1.161449125E0,1.939477578E1,-1.138767000E1,1.920751636E1,2.957642710E1
1.171393125E0,1.449140832E1,-1.853108005E1,1.389159041E1,2.731992180E1
1.181337125E0,7.525231474E0,-2.332684002E1,1.014161548E1,2.652589186E1
1.191281125E0,4.925210316E0,-2.157375589E1,4.151739460E0,2.251491907E1
1.201225125E0,5.622289054E0,-1.449191235E1,-1.417908865E0,1.560884760E1
1.211169125E0,6.646873848E0,-5.203079944E0,-5.403852865E0,1.002270416E1
1.221113125E0,6.473257152E0,1.532736486E0,-7.255477781E0,9.843490089E0
1.231057125E0,4.623274718E0,5.013095722E0,-7.236650916E0,9.943586592E0
1.241001125E0,2.675343638E-1,6.436196914E0,-7.145178244E0,9.620279492E0
1.250945125E0,-6.376046022E0,4.766335035E0,-7.643438201E0,1.103603462E1
1.260889125E0,-1.537266909E1,1.215342019E0,-1.369182848E1,2.062188590E1
1.270833125E0,-1.399263849E1,-4.810628863E0,-1.062441891E1,1.821577226E1
1.280777125E0,-5.153041227E0,-9.279918326E0,4.143267210E-1,1.062272962E1
1.290721125E0,-4.796937608E0,-1.080877577E1,5.071328727E0,1.286695842E1
1.300665125E0,-7.577835365E0,-9.265775666E0,5.367560366E0,1.311826558E1
1.310609125E0,-7.131158960E0,-5.687409495E0,4.333310709E0,1.009839772E1
1.320553125E0,-5.588537171E0,-1.600015719E0,4.234881020E0,7.192080037E0
1.330497125E0,-4.865505567E0,1.055136496E0,4.401380485E0,6.645194325E0
1.340441125E0,-4.313717274E0,2.649800844E0,4.690851574E0,6.901716433E0
1.350385125E0,-3.805666739E0,3.744292025E0,4.608508744E0,7.052742371E0
1.360329125E0,-3.175827473E0,4.589387180E0,4.284478272E0,7.035986703E0
1.370273125E0,-2.411351389E0,5.049465988E0,3.903977730E0,6.822958625E0
1.380217125E0,-2.223578437E0,4.943776395E0,3.121469418E0,6.255301547E0
1.390161125E0,-2.296694653E0,4.467271589E0,2.232679775E0,5.496924664E0
1.400105125E0,-2.273231531E0,3.935307696E0,1.871131228E0,4.914810305E0
1.410049125E0,-2.597542523E0,3.461737608E0,1.897646012E0,4.725665542E0
1.419993125E0,-3.304619415E0,3.132412482E0,2.021156749E0,4.981725809E0
1.429937125E0,-3.638189034E0,2.608034182E0,2.138655378E0,4.961059219E0
1.439881125E0,-3.648877160E0,1.581780592E0,2.287580452E0,4.587958009E0
1.449825125E0,-3.442276905E0,2.957930982E-1,2.618412405E0,4.335071784E0
1.459769125E0,-3.145127252E0,-9.696765161E-1,2.716069093E0,4.267215637E0
1.469713125E0,-2.357702016E0,-1.452648343E0,2.605914567E0,3.802596052E0
1.479657125E0,-1.178221555E0,-6.867309201E-1,2.710750465E0,3.034464282E0
1.489601125E0,-1.706179520E-1,6.636542988E-1,3.048474532E0,3.124539084E0
1.499545125E0,4.630263895E-1,1.881307722E0,3.446333118E0,3.953596356E0
1.509489125E0,1.110689431E0,3.088861250E0,3.608313271E0,4.877972888E0
1.519433125E0,1.646352272E0,4.160669913E0,3.501044930E0,5.681458046E0
1.529377125E0,2.051946724E0,4.645215810E0,3.148126289E0,5.974881958E0
1.539321125E0,2.191553676E0,4.341383375E0,2.350855365E0,5.401577369E0
1.549265125E0,1.917758095E0,3.350073330E0,1.265446810E0,4.062282986E0
1.559209125E0,1.531876945E0,1.953627255E0,2.693357630E-1,2.497168032E0
1.569153125E0,1.328599370E0,7.075493467E-1,-3.253703615E-1,1.540022155E0
1.579097125E0,1.063130225E0,-5.244554830E-1,-5.639019692E-1,1.312739449E0
1.589041125E0,1.154906368E0,-1.296928219E0,-6.407384759E-1,1.851047627E0
1.598985125E0,1.456386468E0,-1.711130358E0,-5.240292209E-1,2.307300429E0
1.608929125E0,1.889462834E0,-1.987657465E0,-4.743884066E-1,2.783145048E0
1.618873125E0,2.467701884E0,-2.352299774E0,-5.534807691E-1,3.453868523E0
1.628817125E0,2.836128510E0,-2.900283283E0,-4.604495215E-1,4.082558243E0
1.638761125E0,2.232590312E0,-2.640749938E0,-2.611818793E0,4.333545563E0
1.648705125E0,1.254488543E0,-4.773591430E0,-1.553921884E1,1.630423990E1
1.658649125E0,2.297973585E0,-5.265794840E0,-1.965898456E1,2.048133178E1
1.668593125E0,4.531831282E0,-5.270959101E0,-1.215855405E1,1.400538972E1
1.678537125E0,5.344325870E0,-5.905411820E0,-6.374685960E0,1.020158463E1
1.688481125E0,5.863491962E0,-5.209229461E0,-4.745847561E0,9.167315781E0
1.698425125E0,6.703423440E0,-4.024503463E0,-3.007944849E0,8.377365108E0
1.708369125E0,7.579510592E0,-3.097254928E0,-1.461073011E0,8.317253348E0
1.718313125E0,8.252021084E0,-2.816090979E0,-1.754188085E-1,8.721065997E0
1.728257125E0,8.713403236E0,-3.010890384E0,8.655864295E-1,9.259486850E0
1.738201125E0,9.141420007E0,-3.930691320E0,1.125750104E0,1.001415035E1
1.748145125E0,9.471321668E0,-5.832138022E0,2.898915035E-1,1.112671583E1
1.758089125E0,8.688718631E0,-8.156134349E0,-2.831326484E0,1.224878641E1
1.768033125E0,5.276642010E0,-1.119172746E1,-1.144970779E1,1.685804031E1
1.777977125E0,3.550687499E0,-1.275484725E1,-1.587434265E1,2.067095220E1
1.787920583E0,5.665822744E0,-1.292814937E1,-1.194540082E1,1.849138162E1
1.797864583E0,6.157864187E0,-1.133883405E1,-8.254886220E0,1.531768898E1
1.807808583E0,4.867930992E0,-8.676246520E0,-5.233510609E0,1.124115826E1
1.817752583E0,4.467058750E0,-6.415056306E0,-2.871081119E0,8.327704851E0
1.827696583E0,4.425042121E0,-4.651803868E0,-1.331822648E0,6.556983190E0
1.837640583E0,4.203625605E0,-3.696897418E0,-2.273093390E-1,5.602605491E0
1.847584583E0,3.491627405E0,-3.633873205E0,8.890784955E-1,5.117319315E0
1.857528583E0,2.187347774E0,-4.685469212E0,1.856818268E0,5.494168372E0
1.867472583E0,9.605104208E-2,-6.987963572E0,2.620122131E0,7.463638568E0
1.877416583E0,-2.724023645E0,-9.769644856E0,3.676276043E0,1.078801515E1
1.887360583E0,-5.867092677E0,-1.192158862E1,5.162106750E0,1.425462724E1
1.897304583E0,-8.696618804E0,-1.317863707E1,6.830579331E0,1.720361787E1
1.907248583E0,-1.071346615E1,-1.338151908E1,8.315201418E0,1.905219107E1
1.917192583E0,-1.199150728E1,-1.199984073E1,8.907248375E0,1.916067583E1
1.927136583E0,-1.164304597E1,-9.151785366E0,8.395819319E0,1.702367402E1
1.937080583E0,-1.048615448E1,-5.150947339E0,6.124908110E0,1.319114072E1
1.947024583E0,-8.810957597E0,-6.621176505E-1,3.392010731E0,9.464518496E0
1.956968583E0,-7.668563687E0,3.212698261E0,8.488800573E-1,8.357565225E0
1.966912583E0,-6.569429231E0,5.814538488E0,-5.153407701E-1,8.788164448E0
1.976856583E0,-5.936526024E0,6.783056086E0,-4.247638182E-1,9.024002183E0
1.986800583E0,-5.750469961E0,7.183401493E0,3.755713391E-1,9.209246202E0
1.996744583E0,-5.135802466E0,7.681244543E0,1.299862937E0,9.331003609E0
2.006688583E0,-4.073928223E0,8.288515311E0,2.133427967E0,9.478812801E0
2.016632583E0,-3.241125962E0,9.135507302E0,3.290931083E0,1.023682659E1
2.026576583E0,-2.477318507E0,9.747072850E0,4.398774966E0,1.097687375E1
2.036521583E0,-1.640254941E0,1.031240446E1,4.758734239E0,1.147526355E1
2.046465583E0,-9.391783163E-1,1.088750619E1,4.810582670E0,1.193991426E1
2.056409583E0,-5.707373643E-1,1.135802929E1,4.868305213E0,1.237056855E1
2.066353583E0,-1.912340650E-1,1.195176960E1,4.601316669E0,1.280833644E1
2.076297583E0,-9.203108132E-2,1.292295704E1,4.343438087E0,1.363366212E1
2.086241583E0,-7.733501109E-1,1.400483461E1,3.903854939E0,1.455931132E1
2.096185583E0,-1.906382630E0,1.474853963E1,2.104955535E0,1.501947248E1
2.106129583E0,-3.089921935E0,1.410977342E1,-1.593938562E-1,1.444502440E1
2.116073583E0,-4.178938953E0,1.256658796E1,-3.543365908E-1,1.324795147E1
2.126017583E0,-5.290640829E0,1.084248263E1,-4.707909071E-1,1.207360568E1
2.135961583E0,-7.151727710E0,8.645094894E0,-4.196144385E0,1.197883561E1
2.145905583E0,-9.904260625E0,3.354174567E0,-2.545538323E1,2.751947312E1
2.155849583E0,-8.630979130E0,-7.721227804E0,-4.801516445E1,4.939197482E1
2.165793583E0,8.435802580E0,-8.206737322E0,1.238780349E1,1.708715828E1
2.175737583E0,1.529622025E1,-1.000532741E1,2.583473888E1,3.164671648E1
2.185681583E0,1.117524650E1,-1.607970739E1,1.926466470E1,2.746944539E1
2.195625583E0,6.146333477E0,-1.987301604E1,1.372135575E1,2.491966663E1
2.205569583E0,3.918353987E0,-1.855706273E1,7.786006182E0,2.050219421E1
2.215513583E0,4.197288685E0,-1.211827609E1,2.423297689E0,1.305152172E1
2.225457583E0,4.498255692E0,-4.299519065E0,-1.727151729E0,6.457803153E0
2.235401583E0,4.091479225E0,4.751681328E-1,-4.433098122E0,6.051309442E0
2.245345583E0,2.444550418E0,2.044300613E0,-7.120147483E0,7.800736627E0
2.255289583E0,-3.470321613E0,-5.995571208E-1,-1.242801830E1,1.291736195E1
2.265233583E0,-8.803759090E0,-7.271997335E0,-1.744289450E1,2.084808595E1
2.275177583E0,-3.955463049E0,-1.367812494E1,-9.711375014E0,1.723506874E1
2.285121583E0,-1.590528904E0,-1.550515296E1,-2.657877603E0,1.581151049E1
2.295065583E0,-3.087157956E0,-1.099284729E1,1.280605717E0,1.148969916E1
2.305009583E0,-3.200997983E0,-4.478547360E0,2.809394163E0,6.180329287E0
2.314953583E0,-3.725847276E0,1.976896834E-1,3.213971200E0,4.924492868E0
2.324897583E0,-4.087041481E0,3.001309721E0,3.479950515E0,6.149945016E0
2.334841583E0,-4.137764907E0,4.321645514E0,4.527065216E0,7.502802000E0
2.344785583E0,-4.347667378E0,4.823525482E0,5.588118510E0,8.567127767E0
2.354729583E0,-4.377954785E0,5.464739336E0,5.653214393E0,8.999372038E0
2.364673583E0,-3.754364439E0,5.705511889E0,5.585413588E0,8.822979271E0
2.374617583E0,-3.635692273E0,5.430468805E0,5.275189562E0,8.398563845E0
2.384561583E0,-4.078099042E0,4.650126886E0,4.925295686E0,7.906523221E0
2.394505583E0,-4.602572066E0,4.198410766E0,4.181702932E0,7.503130147E0
2.404449583E0,-5.565888566E0,3.721708324E0,4.003282163E0,7.801057393E0
2.414393583E0,-6.423255272E0,3.710550667E0,4.000752658E0,8.428073111E0
2.424337583E0,-6.559585444E0,3.522951524E0,3.855547582E0,8.384783586E0
2.434281583E0,-5.882680185E0,2.951944018E0,3.479430113E0,7.444886403E0
2.444225583E0,-5.275207103E0,2.214722975E0,2.863837588E0,6.397997622E0
2.454169583E0,-4.684964597E0,1.782200925E0,2.493522896E0,5.598463168E0
2.464113583E0,-3.677270362E0,1.726537771E0,2.178104203E0,4.609488899E0
2.474057583E0,-2.344421820E0,2.261453923E0,2.252843313E0,3.960529069E0
2.484001583E0,-1.230538348E0,3.051612732E0,2.849637040E0,4.352814739E0
2.493945583E0,-3.465200329E-1,3.587075599E0,3.411423486E0,4.962358077E0
2.503889583E0,3.356003577E-1,3.727271950E0,3.728170082E0,5.282464950E0
2.513833583E0,9.839963472E-1,3.557724330E0,3.733617933E0,5.250290858E0
2.523777583E0,1.649125606E0,3.112945932E0,3.201211406E0,4.760021229E0
2.533721583E0,2.380899675E0,2.431465811E0,2.294681895E0,4.104421306E0
2.543665583E0,2.765239499E0,1.543130497E0,1.606802582E0,3.551002077E0
2.553609583E0,2.644049522E0,4.607565004E-1,1.079337683E0,2.892795234E0
2.563553583E0,2.492317492E0,-7.086638260E-1,7.347026467E-1,2.693258042E0
2.573497583E0,2.247152803E0,-1.847360542E0,5.414281958E-1,2.958983134E0
2.583441583E0,2.208070306E0,-2.818794147E0,5.258380571E-1,3.619071784E0
2.593385583E0,2.325309026E0,-3.332703592E0,6.420391890E-1,4.114145065E0
2.603329583E0,1.704632932E-1,-2.602979264E0,-4.335772387E0,5.059988239E0
2.613273583E0,-2.945999154E0,-4.302774210E0,-1.866445620E1,1.937923379E1
2.623217583E0,-1.303118374E0,-3.341312447E0,-1.858793486E1,1.893076356E1
2.633161583E0,2.963656868E0,-3.792692937E0,-1.018680744E1,1.126671326E1
2.643105583E0,4.308134937E0,-4.715266038E0,-5.345151497E0,8.328529581E0
2.653049583E0,4.899323523E0,-4.956678277E0,-2.985710519E0,7.581985085E0
2.662993583E0,5.140436384E0,-4.717126622E0,-8.689035550E-1,7.030673024E0
2.672937583E0,5.619478297E0,-3.804430638E0,6.492315567E-1,6.817164398E0
2.682881583E0,6.478147178E0,-2.765423686E0,1.127811832E0,7.133436658E0
2.692825583E0,7.609886293E0,-2.230107000E0,4.784928596E-1,7.944350322E0
2.702769583E0,8.791500403E0,-2.411428573E0,-2.417355895E-1,9.119424499E0
2.712713583E0,1.012276289E1,-3.239872611E0,-5.725771907E-1,1.064400994E1
2.722657583E0,1.110707148E1,-4.659269593E0,-6.537843449E-1,1.206247337E1
2.732601583E0,1.160377841E1,-6.573728104E0,-1.118801565E0,1.338332140E1
2.742545583E0,1.131921314E1,-8.889914889E0,-2.637057422E0,1.463247227E1
2.752489583E0,8.636405346E0,-1.174806781E1,-9.078924966E0,1.717648023E1
2.762433583E0,5.018811375E0,-1.388864926E1,-1.748705384E1,2.288842717E1
2.772377583E0,5.505580384E0,-1.356364582E1,-1.654638536E1,2.209223329E1
2.782321625E0,7.239354084E0,-1.165445038E1,-1.114532864E1,1.767633479E1
2.792265625E0,6.592667820E0,-8.715473735E0,-6.321251764E0,1.262461783E1
2.802209625E0,6.185891061E0,-6.117510213E0,-2.735140371E0,9.119768214E0
2.812153625E0,5.657307444E0,-4.686322321E0,-7.598965448E-1,7.385403656E0
2.822097625E0,5.253568313E0,-4.181787717E0,4.872520617E-1,6.732365342E0
2.832041625E0,4.347345196E0,-4.431401260E0,1.796250615E0,6.462448735E0
2.841985625E0,2.550949278E0,-5.732547660E0,2.657922041E0,6.814249370E0
2.851929625E0,2.202713379E-1,-8.436266264E0,3.063942756E0,8.978131941E0
2.861873625E0,-2.978177843E0,-1.194507805E1,3.738574033E0,1.286589945E1
2.871817625E0,-7.176437459E0,-1.528052399E1,5.596973534E0,1.778543732E1
2.881761625E0,-1.115852230E1,-1.730601586E1,8.718064052E0,2.236102515E1
2.891705625E0,-1.376745520E1,-1.730833838E1,1.096093669E1,2.468326423E1
2.901649625E0,-1.422760183E1,-1.543364736E1,1.036495105E1,2.341056033E1
2.911593625E0,-1.287675585E1,-1.118091947E1,8.496315415E0,1.905285220E1
2.921537625E0,-1.057876151E1,-5.976763639E0,6.819909332E0,1.393352296E1
2.931481625E0,-8.662804356E0,-7.321228552E-1,3.308130083E0,9.301822823E0
2.941425625E0,-7.523645709E0,3.810340419E0,-6.990862329E-1,8.462426391E0
2.951369625E0,-7.254145201E0,7.046662016E0,-1.495500247E0,1.022323770E1
2.961313625E0,-7.360977339E0,8.688520410E0,-6.510032630E-1,1.140605890E1
2.971257625E0,-7.433543624E0,9.408452990E0,5.909150092E-1,1.200523798E1
2.981201625E0,-6.188304791E0,1.001006482E1,1.318860540E0,1.184212426E1
2.991145625E0,-4.342321561E0,1.044269914E1,1.828207988E0,1.145635484E1
3.001089625E0,-3.039013444E0,1.053310645E1,2.142489835E0,1.117014758E1
3.011033625E0,-2.072538864E0,1.067850565E1,2.495423241E0,1.116033321E1
3.020977625E0,-1.464025855E0,1.089487368E1,2.942883757E0,1.137990374E1
3.030921625E0,-1.069733193E0,1.120932407E1,3.333565471E0,1.174333573E1
3.040865625E0,-8.763654061E-1,1.159385686E1,3.454491738E0,1.212926405E1
3.050809625E0,-5.713430627E-1,1.216089995E1,3.446948830E0,1.265288018E1
3.060754625E0,-3.973476128E-1,1.303360858E1,3.398179543E0,1.347517948E1
3.070697625E0,-1.010571869E0,1.412804012E1,4.102345691E0,1.474625421E1
3.080642625E0,-2.256552202E0,1.469273731E1,3.299448137E0,1.522678284E1
3.090586625E0,-2.764009829E0,1.387106786E1,1.283631066E0,1.420190067E1
3.100530625E0,-4.182071891E0,1.251863377E1,1.339841373E0,1.326654031E1
3.110474625E0,-5.914448692E0,1.121800134E1,1.466423213E0,1.276615269E1
3.120418625E0,-6.900378129E0,9.921784730E0,-1.242524994E0,1.214911103E1
3.130362625E0,-8.469887754E0,7.276158798E0,-1.218633534E1,1.652840750E1
3.140306625E0,-1.152121807E1,4.663522857E-1,-3.670063844E1,3.846937499E1
3.150250625E0,-2.554621037E0,-4.706716239E0,-8.566443411E0,1.010263427E1
3.160194625E0,1.160610794E1,-5.934953123E0,2.279917325E1,2.626266763E1
3.170138625E0,1.342687593E1,-1.072879638E1,1.904118646E1,2.565063062E1
3.180082625E0,8.459399019E0,-1.763760678E1,1.448285034E1,2.433925962E1
3.190026625E0,3.358267911E0,-2.088985152E1,9.847300558E0,2.333737749E1
3.199970625E0,1.632302290E0,-1.892428425E1,4.887182364E0,1.961319700E1
3.209914625E0,2.298877273E0,-1.336605086E1,2.795670748E-1,1.356518743E1
3.219858625E0,3.852962528E0,-7.443665155E0,-3.051413927E0,8.919898998E0
3.229802625E0,3.643651211E0,-3.474948807E0,-6.268447314E0,8.040204916E0
3.239746625E0,1.044961756E0,-3.396717154E0,-1.207052188E1,1.258281093E1
3.249690625E0,-4.269635408E0,-7.786767490E0,-2.103638040E1,2.283402800E1
3.259634625E0,-1.198369672E-1,-1.438003290E1,-1.574419415E1,2.132321169E1
3.269578625E0,4.459229913E0,-1.690727668E1,-6.599128994E0,1.868928141E1
3.279522625E0,1.108443223E0,-1.289065468E1,-2.079240650E0,1.310423085E1
3.289466625E0,-1.811951559E0,-5.996628969E0,6.258742690E-1,6.295589412E0
3.299410625E0,-3.342371086E0,-1.361152282E0,2.612580392E0,4.455306534E0
3.309354625E0,-4.722939047E0,1.840190687E0,4.318449426E0,6.658938387E0
3.319298625E0,-5.082479367E0,3.947670465E0,6.110357898E0,8.874242067E0
3.329242625E0,-4.855747441E0,5.417798474E0,7.583531138E0,1.050908027E1
3.339186625E0,-4.405941021E0,6.596829869E0,7.359029632E0,1.082061910E1
3.349130625E0,-3.599339549E0,7.117022147E0,6.497696174E0,1.028723991E1
3.359074625E0,-3.050787690E0,7.019941995E0,5.882282574E0,9.653400407E0
3.369018625E0,-3.335858164E0,6.502538254E0,5.311540532E0,9.034567851E0
3.378962625E0,-4.137630714E0,6.087421026E0,4.977737024E0,8.885637205E0
3.388906625E0,-5.895651648E0,5.468160542E0,5.078326675E0,9.510462128E0
3.398850625E0,-7.492975309E0,4.891957201E0,5.943106481E0,1.074227345E1
3.408794625E0,-7.822181736E0,4.149826251E0,5.840474982E0,1.060748477E1
3.418738625E0,-7.939121956E0,2.884379441E0,5.052234060E0,9.842477899E0
3.428682625E0,-7.233629660E0,2.426802657E0,4.747063197E0,8.986065779E0
3.438626625E0,-6.295598860E0,2.491957011E0,3.477456093E0,7.611643425E0
3.448570625E0,-5.163223568E0,2.581207741E0,2.471519823E0,6.279324904E0
3.458514625E0,-3.740496890E0,2.855460867E0,1.948862944E0,5.093431114E0
3.468458625E0,-2.375843588E0,3.214535456E0,1.905994667E0,4.428395491E0
3.478402625E0,-1.366392849E0,3.622702684E0,2.312242838E0,4.509708538E0
3.488346625E0,-6.297226140E-1,3.881306906E0,2.769899729E0,4.809723316E0
3.498290625E0,2.178763184E-1,3.715865201E0,2.857661759E0,4.692691660E0
3.508234625E0,7.717076281E-1,3.096425208E0,2.605312303E0,4.119591476E0
3.518178625E0,9.003405252E-1,2.263125642E0,2.064070780E0,3.192606915E0
3.528122625E0,8.482976747E-1,1.156327241E0,1.472964494E0,2.055803014E0
3.538066625E0,5.996769887E-1,4.802376688E-2,9.747108226E-1,1.145416937E0
3.548010625E0,3.710023248E-1,-9.627054656E-1,6.501600945E-1,1.219488699E0
3.557954625E0,3.061751220E-1,-1.860061280E0,5.047280006E-1,1.951492127E0
3.567898625E0,5.933169723E-1,-2.553677296E0,3.452182965E-1,2.644327596E0
3.577842625E0,1.235954916E0,-2.884819736E0,-1.369567010E-1,3.141421112E0
3.587786625E0,4.833296764E-1,-2.080689005E0,-3.399672045E0,4.015052219E0
3.597730625E0,-8.763049605E-1,-3.956919590E0,-1.375530936E1,1.433993231E1
3.607674625E0,-3.401836976E-1,-2.840487317E0,-1.596069667E1,1.621505262E1
3.617618625E0,2.865950772E0,-1.902106853E0,-1.078599502E1,1.132119132E1
3.627562625E0,4.483859555E0,-2.483202560E0,-6.149246560E0,8.005281052E0
3.637506625E0,5.246247014E0,-2.846132804E0,-3.553646775E0,6.946364881E0
3.647450625E0,5.433694130E0,-2.586236347E0,-1.514503114E0,6.205430688E0
3.657394625E0,5.446946844E0,-2.354030550E0,1.781927276E-1,5.936534544E0
3.667338625E0,5.521939139E0,-2.478235935E0,9.468402153E-1,6.126171039E0
3.677282625E0,6.175536811E0,-2.674122337E0,7.607481918E-1,6.772512310E0
3.687226625E0,7.340112720E0,-3.066404434E0,-1.852368683E-2,7.954900000E0
3.697170625E0,8.535132741E0,-3.593594660E0,-4.374585620E-1,9.271126332E0
3.707114625E0,9.636727120E0,-4.410339589E0,-5.061475584E-1,1.061007965E1
3.717058625E0,1.055637837E1,-5.567663780E0,-6.614332339E-1,1.195297026E1
3.727002625E0,1.115510635E1,-7.300264530E0,-1.476485395E0,1.341306337E1
3.736946625E0,1.066661709E1,-9.800420507E0,-5.228718231E0,1.540014470E1
3.746890625E0,9.022264277E0,-1.352346843E1,-1.289855310E1,2.075230404E1
3.756834625E0,8.920604585E0,-1.481054350E1,-1.608932957E1,2.361770334E1
3.766778625E0,1.010776244E1,-1.348987267E1,-1.375764474E1,2.175813215E1
3.776722625E0,9.733729504E0,-1.181059677E1,-1.002007409E1,1.829310173E1
3.786666958E0,8.062537383E0,-9.427413172E0,-5.959671643E0,1.376220601E1
3.796610958E0,6.722617511E0,-7.004433424E0,-2.699106320E0,1.007674792E1
3.806554958E0,5.766805912E0,-5.084226515E0,-1.324898668E-1,7.689145808E0
3.816498958E0,4.954713027E0,-4.125942129E0,1.913023605E0,6.725491726E0
3.826442958E0,3.774116333E0,-4.149626276E0,3.257615987E0,6.486556425E0
3.836386958E0,2.225273984E0,-5.553791261E0,4.238591663E0,7.332264381E0
3.846330958E0,-2.330144674E-2,-8.122264937E0,4.884282146E0,9.477760428E0
3.856274958E0,-3.391083947E0,-1.142849760E1,5.711925700E0,1.321877842E1
3.866218958E0,-7.511706280E0,-1.457245190E1,7.561592385E0,1.805435584E1
3.876162958E0,-1.095743655E1,-1.570368114E1,9.257089042E0,2.126886726E1
3.886106958E0,-1.322822263E1,-1.570011550E1,1.012057252E1,2.288898182E1
3.896050958E0,-1.408780894E1,-1.409481156E1,9.561665243E0,2.210329197E1
3.905994958E0,-1.327642240E1,-1.059934137E1,7.985247717E0,1.877161714E1
3.915938958E0,-1.117691998E1,-5.674872479E0,5.865340852E0,1.383943428E1
3.925882958E0,-9.031403475E0,2.987576365E-2,-5.569461215E-1,9.048609300E0
3.935826958E0,-6.796441532E0,4.702675229E0,-6.842308846E0,1.072958350E1
3.945770958E0,-6.426811548E0,7.124409519E0,-5.387969488E0,1.100415071E1
3.955714958E0,-6.861304110E0,7.405005119E0,-2.813286070E0,1.047979835E1
3.965658958E0,-7.326202193E0,7.389615832E0,-5.981058419E-1,1.042292624E1
3.975602958E0,-6.587931576E0,7.796928781E0,1.075702908E0,1.026401859E1
3.985546958E0,-4.883525223E0,8.410165463E0,2.255126066E0,9.983250738E0
3.995490958E0,-3.180931800E0,8.993473172E0,3.156915531E0,1.004823380E1
4.005434958E0,-1.929599584E0,9.554487201E0,3.687941823E0,1.042173187E1
4.015378958E0,-1.175123116E0,1.013987418E1,4.116426955E0,1.100649506E1
4.025322958E0,-7.892621389E-1,1.059226741E1,4.599801071E0,1.157485350E1
4.035266958E0,-6.889440181E-1,1.104746730E1,5.207594579E0,1.223275189E1
4.045210958E0,-6.300586096E-1,1.161626806E1,6.028982198E0,1.310279680E1
4.055154958E0,-4.343199228E-1,1.234953697E1,6.636726590E0,1.402661175E1
4.065098958E0,-4.047851980E-1,1.335260577E1,7.141473448E0,1.514782410E1
4.075042958E0,-7.293813881E-1,1.443846763E1,6.786301875E0,1.597044889E1
4.084986958E0,-1.333752522E0,1.438859556E1,4.701671262E0,1.519593007E1
4.094930958E0,-2.533416109E0,1.351418071E1,2.774914302E0,1.402681100E1
4.104874958E0,-3.989856956E0,1.237769483E1,2.116826552E0,1.317601011E1
4.114818958E0,-5.443615100E0,1.106667891E1,1.730476456E0,1.245386993E1
4.124762958E0,-6.972989438E0,9.556305100E0,-1.402496774E0,1.191270524E1
4.134706958E0,-9.471650866E0,6.438582578E0,-1.374670343E1,1.789243893E1
4.144650958E0,-1.226204158E1,-4.176907046E0,-5.132346293E1,5.293299598E1
4.154594958E0,-6.312404050E-1,-1.112233505E1,-1.203603032E1,1.640033010E1
4.164538958E0,1.438305941E1,-9.747391523E0,2.372087219E1,2.940346607E1
4.174482958E0,1.358941450E1,-1.530660257E1,1.854994433E1,2.762362582E1
4.184426958E0,6.925976654E0,-2.052230022E1,1.496723719E1,2.632778282E1
4.194370958E0,2.494083351E0,-2.104357482E1,9.814974811E0,2.335350559E1
4.204314958E0,2.923011410E0,-1.585503047E1,4.911393346E0,1.685371684E1
4.214258958E0,4.553057844E0,-7.612505261E0,8.670157083E-1,8.912479358E0
4.224202958E0,4.979905756E0,-1.038035145E0,-2.127750320E0,5.514009406E0
4.234146958E0,4.031294419E0,2.528845341E0,-4.751838033E0,6.725054509E0
4.244091958E0,1.075910484E0,3.809991340E0,-9.309461968E0,1.011630859E1
4.254034958E0,-7.290774499E0,-5.488781333E-1,-1.999556432E1,2.129035586E1
4.263979958E0,-6.418670470E0,-1.058201958E1,-1.725164611E1,2.123199855E1
4.273922958E0,1.285655080E0,-1.746765629E1,-4.338480817E0,1.804423290E1
4.283867958E0,1.781230726E-1,-1.760598972E1,1.151764659E0,1.764452220E1
4.293811958E0,-2.183907272E0,-1.109834275E1,3.266544685E0,1.177340125E1
4.303755958E0,-3.333950803E0,-4.238178264E0,2.593778086E0,5.983733593E0
4.313699958E0,-3.452089702E0,7.681615841E-1,2.014388012E0,4.069982136E0
4.323643958E0,-3.046732646E0,3.792115817E0,2.730773671E0,5.578516562E0
4.333587958E0,-3.202990129E0,5.180921921E0,4.482802963E0,7.562844711E0
4.343531958E0,-2.894782223E0,6.355507677E0,5.408299087E0,8.833002942E0
4.353475958E0,-2.613531442E0,7.329736835E0,4.856937057E0,9.173081611E0
4.363419958E0,-2.026243241E0,7.693327814E0,4.168301114E0,8.981519287E0
4.373363958E0,-2.328686817E0,7.315060909E0,3.957355793E0,8.636756524E0
4.383307958E0,-2.896642222E0,6.756454178E0,4.325187757E0,8.529212059E0
4.393251958E0,-4.299986842E0,5.675673548E0,4.531686856E0,8.440340208E0
4.403195958E0,-5.926840112E0,4.381207007E0,4.475289291E0,8.622680719E0
4.413139958E0,-6.953079084E0,3.019193430E0,4.631381882E0,8.883160240E0
4.423083958E0,-7.453099637E0,1.636217000E0,4.513369868E0,8.865461513E0
4.433027958E0,-7.454723994E0,6.599717224E-1,4.587838837E0,8.778196722E0
4.442971958E0,-6.831511377E0,1.800381088E-1,4.550402623E0,8.210245152E0
4.452915958E0,-5.376905386E0,6.500174224E-1,3.829436256E0,6.633115122E0
4.462859958E0,-3.857942017E0,1.701504672E0,3.575560677E0,5.528423727E0
4.472803958E0,-2.374201689E0,2.789049361E0,3.788415699E0,5.269508849E0
4.482747958E0,-1.168991433E0,3.471980175E0,4.197137827E0,5.571099824E0
4.492691958E0,-4.850440800E-1,3.704429217E0,4.350407383E0,5.734466669E0
4.502635958E0,2.450796121E-1,3.646065819E0,3.981403052E0,5.404204866E0
4.512579958E0,7.075414529E-1,3.209988077E0,3.263291879E0,4.631815222E0
4.522523958E0,8.832608083E-1,2.517150909E0,2.434920931E0,3.611791563E0
4.532467958E0,1.087663680E0,1.691179658E0,1.602743445E0,2.571359070E0
4.542411958E0,8.929098836E-1,8.271634984E-1,9.021231951E-1,1.515029298E0
4.552355958E0,6.836772117E-1,-1.550155342E-2,5.749304026E-1,8.934202795E-1
4.562299958E0,6.720082158E-1,-8.328411448E-1,3.269046709E-1,1.118966522E0
4.572243958E0,9.180327380E-1,-1.550592713E0,-6.233278066E-2,1.803054976E0
4.582187958E0,1.314371925E0,-2.072989392E0,-4.214594105E-1,2.490479193E0
4.592131958E0,1.375317162E0,-1.838140068E0,-7.788538027E-1,2.424225536E0
4.602075958E0,-1.938836138E0,-6.620182478E-1,-9.303117739E0,9.526035555E0
4.612019958E0,-3.661817341E0,-2.313129861E0,-2.052095068E1,2.097305159E1
4.621963958E0,8.827629179E-2,-1.817981207E0,-1.453532676E1,1.464884201E1
4.631907958E0,3.116810356E0,-2.561945844E0,-6.842465551E0,7.943387698E0
4.641851958E0,4.215325592E0,-3.736254442E0,-3.148246157E0,6.452907947E0
4.651795958E0,4.880869418E0,-4.109154773E0,-1.666522827E0,6.594341329E0
4.661739958E0,5.156998622E0,-3.898305931E0,-2.309606329E-1,6.468753105E0
4.671683958E0,5.357773297E0,-3.509809322E0,8.062009379E-1,6.455575585E0
4.681627958E0,5.869726848E0,-3.218475310E0,7.906029055E-1,6.740721738E0
4.691571958E0,6.898311138E0,-3.205059459E0,6.491491109E-2,7.606794110E0
4.701515958E0,8.056798925E0,-3.577385008E0,-3.098357713E-1,8.820753405E0
4.711459958E0,9.083972867E0,-4.310983116E0,-2.611334351E-1,1.005839595E1
4.721403958E0,1.008998574E1,-5.468982661E0,-2.310141349E-1,1.147915289E1
4.731347958E0,1.109764109E1,-6.724985048E0,-3.475073352E-1,1.298090224E1
4.741291958E0,1.175183225E1,-8.376455095E0,-1.553195601E0,1.451492259E1
4.751235958E0,1.092097565E1,-1.059268490E1,-5.983713055E0,1.634862393E1
4.761179958E0,8.230651850E0,-1.360321743E1,-1.487846944E1,2.177521543E1
4.771123958E0,7.501537971E0,-1.443605039E1,-1.861927126E1,2.472549059E1
4.781067958E0,9.741456015E0,-1.330365990E1,-1.430014122E1,2.182607090E1
4.791012083E0,9.236212728E0,-1.079124231E1,-8.716311641E0,1.666531202E1
4.800956083E0,7.509505388E0,-7.592324765E0,-4.349502234E0,1.153057831E1
4.810900083E0,6.143627971E0,-5.468060555E0,-1.577542676E0,8.374514420E0
4.820844083E0,5.024392542E0,-4.424919037E0,2.599858459E-1,6.700150859E0
4.830788083E0,4.255901760E0,-4.141278791E0,1.862786667E0,6.223573249E0
4.840732083E0,3.192536184E0,-4.839055687E0,3.169031255E0,6.606928660E0
4.850676083E0,1.157747822E0,-7.261435509E0,4.095129057E0,8.416585274E0
4.860620083E0,-1.915624446E0,-1.058678974E1,4.688492807E0,1.173591491E1
4.870564083E0,-6.350065674E0,-1.395540459E1,6.275427720E0,1.656676324E1
4.880508083E0,-1.049800444E1,-1.599406673E1,9.128604079E0,2.119786971E1
4.890452083E0,-1.314745972E1,-1.640367120E1,1.131519142E1,2.387403784E1
4.900396083E0,-1.397599029E1,-1.480426944E1,1.068976973E1,2.299490977E1
4.910340083E0,-1.312425680E1,-1.150247423E1,8.641445646E0,1.947376730E1
4.920284083E0,-1.103007417E1,-6.857937868E0,7.484625485E0,1.499044585E1
4.930228083E0,-8.903447101E0,-1.071925607E0,4.714811125E0,1.013162567E1
4.940172083E0,-7.336851727E0,3.491637930E0,-1.201256735E0,8.213643920E0
4.950116083E0,-6.672165980E0,7.015953609E0,-2.894334326E0,1.010537358E1
4.960060083E0,-6.924309028E0,8.451836815E0,-2.476105210E0,1.120315572E1
4.970004083E0,-7.064188460E0,8.798508875E0,-1.915454292E0,1.144488891E1
4.979948083E0,-6.259353724E0,8.918777331E0,-7.962668109E-1,1.092511505E1
4.989892083E0,-4.517168511E0,9.315775207E0,4.803019881E-1,1.036432193E1
4.999836083E0,-3.172626415E0,9.542738975E0,1.717653512E0,1.020194879E1
5.009780083E0,-2.421948883E0,9.785720022E0,2.802768098E0,1.046334850E1
5.019724083E0,-1.970631250E0,9.884673622E0,3.277677784E0,1.059874199E1
5.029668083E0,-1.721055714E0,1.003799580E1,3.622753555E0,1.080961312E1
5.039612083E0,-1.341382699E0,1.039865791E1,4.053683700E0,1.124116299E1
5.049556083E0,-1.023142360E0,1.093983409E1,4.617964861E0,1.191857331E1
5.059500083E0,-7.675239453E-1,1.160845852E1,4.816836852E0,1.259155747E1
5.069444083E0,-8.075362227E-1,1.248221498E1,4.578751094E0,1.332001378E1
5.079388083E0,-1.420123498E0,1.351280311E1,4.173092322E0,1.421363071E1
5.089332083E0,-2.698485053E0,1.402480402E1,2.987703835E0,1.459120706E1
5.099276083E0,-4.263378010E0,1.338440293E1,1.727410176E0,1.415282939E1
5.109220083E0,-5.971718661E0,1.229867088E1,1.254989065E0,1.372930175E1
5.119164083E0,-7.438755248E0,1.111468221E1,1.281775160E0,1.343555685E1
5.129108083E0,-8.878320445E0,9.971127044E0,-3.305971145E-1,1.335504560E1
5.139052083E0,-1.105161765E1,7.420086842E0,-1.023856699E1,1.679357602E1
5.148996083E0,-1.436915591E1,-2.111768711E0,-4.914391096E1,5.124506018E1
5.158940083E0,-4.240765657E0,-1.162857645E1,-2.445779444E1,2.741152299E1
5.168884083E0,1.562377777E1,-9.843053141E0,2.861237214E1,3.405372177E1
5.178828083E0,1.754337656E1,-1.486592716E1,2.438296178E1,3.351558856E1
5.188772083E0,9.128237459E0,-2.061859684E1,1.813042649E1,2.893377991E1
5.198716083E0,3.187995237E0,-2.116783984E1,1.147338433E1,2.428743102E1
5.208660083E0,4.033048292E0,-1.617935330E1,6.129466599E0,1.776534020E1
5.218604083E0,5.259180470E0,-8.531820878E0,1.526020374E0,1.013803161E1
5.228548083E0,5.112952716E0,-2.150731632E0,-1.841186467E0,5.844475994E0
5.238492083E0,4.754774213E0,1.193026121E0,-4.946923367E0,6.964426748E0
5.248436083E0,2.307793692E0,2.659981431E0,-1.074078902E1,1.130336064E1
5.258380083E0,-5.101202152E0,3.053006709E-1,-2.247919724E1,2.305276080E1
5.268324083E0,-4.898255237E0,-8.080933308E0,-1.952600952E1,2.169238196E1
5.278268083E0,4.442757137E0,-1.479135060E1,-6.344840017E0,1.669668046E1
5.288212083E0,4.636842889E0,-1.672965464E1,-1.241003695E0,1.740464727E1
5.298156083E0,1.327426127E-1,-1.226399806E1,6.455869871E-1,1.228169579E1
5.308100083E0,-2.292762254E0,-5.138172927E0,2.110129151E0,6.009178381E0
5.318044083E0,-3.072848943E0,-1.713690269E-1,3.459527360E0,4.630345292E0
5.327988083E0,-3.638419415E0,2.691907813E0,4.068984987E0,6.086140183E0
5.337932083E0,-3.968966901E0,4.408994145E0,4.959676144E0,7.732419743E0
5.347876083E0,-4.246997620E0,5.301188622E0,5.706573744E0,8.871559811E0
5.357820083E0,-3.734790300E0,6.361001721E0,5.650434626E0,9.291846584E0
5.367764083E0,-2.736859453E0,6.693166839E0,5.461458464E0,9.061810556E0
5.377708083E0,-2.725361196E0,6.313486662E0,5.111908404E0,8.568507163E0
5.387652083E0,-3.328216438E0,5.658804916E0,4.902866936E0,8.193729427E0
5.397596083E0,-4.387685137E0,4.887040277E0,4.865858738E0,8.173831708E0
5.407540083E0,-5.860191209E0,3.922361961E0,4.657778553E0,8.451133971E0
5.417484083E0,-7.095916622E0,3.196894407E0,5.157486280E0,9.336585633E0
5.427428083E0,-8.247471950E0,3.216772016E0,5.772290601E0,1.056824274E1
5.437372083E0,-8.693679408E0,2.608030674E0,5.443498156E0,1.058364577E1
5.447316083E0,-8.014491397E0,2.094393125E0,4.694110812E0,9.521199043E0
5.457260083E0,-6.603863484E0,2.076873697E0,3.678870453E0,7.839547505E0
5.467204083E0,-5.446756225E0,2.356664135E0,2.569192298E0,6.466975203E0
5.477148083E0,-4.276668731E0,2.907009920E0,1.995057117E0,5.542639715E0
5.487092083E0,-2.898391709E0,3.405721282E0,1.916400957E0,4.865408983E0
5.497036083E0,-1.887066353E0,3.692573987E0,2.117634053E0,4.656231959E0
5.506980083E0,-1.186010631E0,3.735341692E0,2.292089825E0,4.540162391E0
5.516924083E0,-6.868063492E-1,3.598350785E0,2.205387311E0,4.275928498E0
5.526868083E0,-1.253742439E-1,3.247942938E0,2.003389399E0,3.818169865E0
5.536812083E0,2.169053882E-1,2.660748001E0,1.656715584E0,3.141867979E0
5.546756083E0,5.580790195E-1,1.803937365E0,1.272030190E0,2.276774695E0
5.556700083E0,7.951853684E-1,8.350092924E-1,7.859950072E-1,1.395474271E0
5.566644083E0,5.993381426E-1,-1.724881840E-1,4.541473925E-1,7.714973991E-1
5.576588083E0,5.898101047E-1,-1.005136955E0,3.372948807E-1,1.213237032E0
5.586532083E0,9.401471999E-1,-1.650375448E0,2.735283628E-1,1.918966817E0
5.596476083E0,1.362862885E0,-2.162826013E0,1.361573866E-1,2.560029382E0
5.606420083E0,1.850040029E0,-2.588068280E0,-1.236013681E-2,3.181335930E0
5.616364083E0,2.522218983E0,-3.073398288E0,-1.385199541E-1,3.978260099E0
5.626309083E0,2.891154902E0,-3.196160581E0,-6.865525800E-1,4.364123460E0
5.636252083E0,2.564673277E0,-3.381722555E0,-6.759762533E0,7.981728256E0
5.646196083E0,3.631598930E0,-5.107754542E0,-1.288465544E1,1.432801497E1
5.656140083E0,5.648712621E0,-4.432780033E0,-1.176053174E1,1.377924526E1
5.666085083E0,6.288596819E0,-5.116534721E0,-9.232830698E0,1.228700697E1
5.676029083E0,6.365104128E0,-5.891753309E0,-6.941993347E0,1.110939149E1
5.685973083E0,6.532144461E0,-5.594490806E0,-5.209782608E0,1.005530076E1
5.695917083E0,7.137954009E0,-4.798636224E0,-3.503103150E0,9.287035519E0
5.705861083E0,7.674453002E0,-4.093079023E0,-2.009798240E0,8.926915130E0
5.715805083E0,8.273416046E0,-3.518149205E0,-1.006855452E0,9.046576413E0
5.725749083E0,8.910546790E0,-3.276715917E0,-4.883226138E-1,9.506480435E0
5.735693083E0,9.496530184E0,-3.627745323E0,-2.296891558E-1,1.016845017E1
5.745637083E0,9.999543343E0,-4.637727866E0,-2.841238099E-1,1.102633725E1
5.755581083E0,1.009186503E1,-6.417601014E0,-1.434720780E0,1.204532134E1
5.765525083E0,8.890119542E0,-9.006718869E0,-5.540087142E0,1.381476659E1
5.775469083E0,5.762116445E0,-1.134550924E1,-1.286954857E1,1.809828296E1
5.785412125E0,3.077069755E0,-1.292106839E1,-1.757542749E1,2.202993459E1
5.795356125E0,3.765801008E0,-1.357058412E1,-1.518065354E1,2.070734779E1
5.805300125E0,5.283025416E0,-1.165334409E1,-9.377894272E0,1.586365932E1
5.815244125E0,5.217703246E0,-8.000300789E0,-3.745051578E0,1.025936895E1
5.825188125E0,5.533242976E0,-5.246484411E0,-5.123783514E-2,7.625286999E0
5.835132125E0,5.725439200E0,-3.627054182E0,2.077948415E0,7.089008795E0
5.845076125E0,5.726127418E0,-3.128983675E0,2.657199326E0,7.045550532E0
5.855020125E0,5.344797741E0,-3.723765374E0,2.430998034E0,6.952916143E0
5.864964125E0,4.094495219E0,-4.957070040E0,2.427159337E0,6.872302156E0
5.874908125E0,2.104148619E0,-7.129743349E0,2.621162935E0,7.882333206E0
5.884852125E0,-3.677196980E-1,-9.716341054E0,3.123267437E0,1.021260499E1
5.894796125E0,-3.754596573E0,-1.270041201E1,4.153448017E0,1.387979075E1
5.904740125E0,-7.551357418E0,-1.487838875E1,6.917043278E0,1.806197493E1
5.914684125E0,-1.102816213E1,-1.553126780E1,9.954002888E0,2.149238965E1
5.924628125E0,-1.294870350E1,-1.469602228E1,1.105880037E1,2.249308913E1
5.934572125E0,-1.262601672E1,-1.211251658E1,1.023123926E1,2.026838950E1
5.944516125E0,-1.054975932E1,-8.057850839E0,8.997948046E0,1.603712726E1
5.954460125E0,-7.988144428E0,-2.920575460E0,6.410290825E0,1.065044792E1
5.964404125E0,-6.519714450E0,1.368804533E0,1.483031645E0,6.824931151E0
5.974348125E0,-5.700192093E0,4.796155250E0,-1.846728458E0,7.675004956E0
5.984292125E0,-5.585280272E0,6.380446052E0,-3.098933079E0,9.028224286E0
5.994236125E0,-5.838178196E0,7.110686688E0,-2.092678575E0,9.435332185E0
6.004180125E0,-5.333279310E0,7.507725495E0,-1.133665114E0,9.278739511E0
6.014124125E0,-4.699435287E0,8.094695315E0,5.525128356E-1,9.376249500E0
6.024068125E0,-3.778148281E0,8.705455701E0,1.706941413E0,9.642251416E0
6.034012125E0,-3.012452760E0,9.297186323E0,2.573085959E0,1.010610293E1
6.043956125E0,-2.141472566E0,9.826650531E0,3.300258561E0,1.058492664E1
6.053900125E0,-1.524307140E0,1.018430132E1,4.012574558E0,1.105188944E1
6.063844125E0,-1.471677521E0,1.058948998E1,4.631646177E0,1.165140674E1
6.073788125E0,-1.548557882E0,1.115506074E1,4.967221391E0,1.230880579E1
6.083732125E0,-1.558410002E0,1.187790290E1,5.015639845E0,1.298729618E1
6.093676125E0,-1.968684420E0,1.284841674E1,5.514656432E0,1.411980760E1
6.103620125E0,-2.917110108E0,1.405698242E1,5.924112386E0,1.553072418E1
6.113564125E0,-3.575667389E0,1.477810549E1,4.608430392E0,1.588758729E1
6.123508125E0,-4.257204520E0,1.475630239E1,2.212051967E0,1.551661769E1
6.133452125E0,-5.348814778E0,1.411330046E1,1.021880530E0,1.512743565E1
6.143396125E0,-6.466694822E0,1.237066764E1,1.482242271E0,1.403740011E1
6.153340125E0,-7.315392446E0,1.055626844E1,3.251320875E-1,1.284739199E1
6.163284125E0,-9.446712492E0,8.341250179E0,-8.226106224E0,1.504944036E1
6.173228125E0,-1.143681702E1,-3.123605990E-1,-4.332955666E1,4.481460513E1
6.183172125E0,-5.291106268E0,-1.192482680E1,-3.902110597E1,4.114418563E1
6.193116125E0,1.123271060E1,-8.240144219E0,2.892889362E1,3.210848253E1
6.203060125E0,1.369883695E1,-1.148534891E1,2.556424903E1,3.119458609E1
6.213004125E0,9.491275291E0,-1.762958440E1,1.983660893E1,2.818470519E1
6.222948125E0,3.940060606E0,-2.081503522E1,1.286426854E1,2.478465602E1
6.232892125E0,2.883508206E0,-1.788678471E1,7.219614469E0,1.950319256E1
6.242836125E0,3.565616902E0,-1.018732083E1,2.229918720E0,1.102123709E1
6.252780125E0,3.856339880E0,-2.885665244E0,-1.330784183E0,4.996939834E0
6.262724125E0,3.049933120E0,1.257978746E0,-4.448061147E0,5.538036703E0
6.272668125E0,1.051436378E0,3.253714140E0,-9.583505763E0,1.017525218E1
6.282612125E0,-5.825034825E0,9.304428685E-1,-2.132284018E1,2.212374895E1
6.292556125E0,-6.510269442E0,-8.009768016E0,-2.023434824E1,2.271494751E1
6.302500125E0,3.447390587E0,-1.561133489E1,-4.435560969E0,1.659133750E1
6.312444125E0,4.505597749E0,-1.935859905E1,1.586363640E0,1.993921558E1
6.322388125E0,1.276957931E0,-1.646659894E1,3.132741680E0,1.681051970E1
6.332332125E0,-8.976464206E-1,-7.984770584E0,2.706092573E0,8.478517995E0
6.342276125E0,-1.250519161E0,-1.429812627E0,1.836961269E0,2.642458897E0
6.352220125E0,-1.197159517E0,2.650341126E0,1.675951170E0,3.356532633E0
6.362164125E0,-1.728904139E0,4.859937263E0,2.893473616E0,5.914413689E0
6.372108125E0,-2.132351494E0,5.871616083E0,3.910737112E0,7.369983927E0
6.382052125E0,-2.139444313E0,6.639180082E0,4.284100542E0,8.185930099E0
6.391996125E0,-2.025950881E0,7.184095557E0,3.912877192E0,8.427711070E0
6.401940125E0,-1.991187283E0,6.984386246E0,4.144305310E0,8.361922299E0
6.411884125E0,-2.825575163E0,5.944537879E0,4.849622190E0,8.175588112E0
6.421828125E0,-3.856285501E0,4.720946023E0,4.775904003E0,7.743870367E0
6.431772125E0,-5.794253912E0,3.404501553E0,4.004597787E0,7.823094826E0
6.441716125E0,-7.655192274E0,2.125565801E0,4.843674402E0,9.304900883E0
6.451660125E0,-8.630335937E0,1.959345247E0,6.028370579E0,1.070808031E1
6.461604125E0,-8.844301929E0,1.569637095E0,6.175211706E0,1.090039801E1
6.471548125E0,-8.503963573E0,1.599639158E0,6.160056893E0,1.062179565E1
6.481492125E0,-7.023555574E0,2.456979552E0,5.461027524E0,9.229837649E0
6.491436125E0,-5.597188126E0,3.845507913E0,4.802364993E0,8.317400769E0
6.501380125E0,-4.546910666E0,5.195477979E0,4.545527800E0,8.266148500E0
6.511324125E0,-3.361225432E0,5.974190864E0,4.557283627E0,8.231502107E0
6.521268125E0,-2.040505770E0,6.287236172E0,4.266002825E0,7.867133060E0
6.531212125E0,-8.232373855E-1,5.983235922E0,3.343503984E0,6.903321721E0
6.541156125E0,-9.777333945E-2,5.282145994E0,2.537671713E0,5.860921741E0
6.551100125E0,3.254972461E-1,4.370788438E0,1.643561542E0,4.680922406E0
6.561044125E0,4.934859976E-1,3.065171256E0,9.248095147E-1,3.239456111E0
6.570988125E0,1.582788652E-1,1.498758901E0,6.873285055E-1,1.656427154E0
6.580932125E0,-3.414274004E-1,-6.383873105E-2,5.394037436E-1,6.415640669E-1
6.590876125E0,-5.953678831E-1,-1.522662318E0,4.022752807E-1,1.683683121E0
6.600820125E0,-5.430350107E-1,-2.758730378E0,4.044406508E-1,2.840607780E0
6.610764125E0,-9.734006077E-2,-3.728887535E0,4.430929390E-1,3.756382394E0
6.620708125E0,2.484499472E-1,-4.009556810E0,-1.409537991E0,4.257354876E0
6.630652125E0,1.746419474E0,-8.403103781E0,-1.642187826E1,1.852944197E1
6.640596125E0,3.720246520E0,-8.354522189E0,-1.851355477E1,2.064921271E1
6.650540125E0,5.812121834E0,-4.819131884E0,-1.158469778E1,1.382787095E1
6.660484125E0,5.685684566E0,-3.763429377E0,-7.040283288E0,9.800816213E0
6.670428125E0,5.134299731E0,-2.946500845E0,-4.796793766E0,7.619194931E0
6.680372125E0,4.578726536E0,-1.750441189E0,-2.512988276E0,5.508528944E0
6.690316125E0,4.405430267E0,-8.879914981E-1,-5.822014153E-1,4.531589481E0
6.700260125E0,4.732429663E0,-7.232830346E-1,4.831402266E-1,4.811699631E0
6.710204125E0,5.445355232E0,-1.010927453E0,6.186120272E-1,5.572840277E0
6.720148125E0,6.530663361E0,-1.484331481E0,7.405717894E-2,6.697633040E0
6.730092125E0,7.647872729E0,-2.200394374E0,-5.097699085E-1,7.974431518E0
6.740036125E0,8.575620031E0,-3.202318284E0,-8.025034511E-1,9.189130160E0
6.749980125E0,9.550045071E0,-4.484737807E0,-5.112461843E-1,1.056303019E1
6.759924125E0,1.018055911E1,-5.912063613E0,-1.566743892E-1,1.177373461E1
6.769868125E0,1.048866059E1,-7.501159657E0,-1.971233806E-1,1.289644350E1
6.779812125E0,1.045301129E1,-9.167870471E0,-1.234479371E0,1.395848249E1
6.789756833E0,8.430447115E0,-1.133742604E1,-7.597498966E0,1.604156035E1
6.799700833E0,4.897859380E0,-1.368227179E1,-1.866485732E1,2.365524227E1
6.809644833E0,6.002642831E0,-1.328897520E1,-1.794215316E1,2.312032532E1
6.819588833E0,9.018292848E0,-1.133650218E1,-1.121187814E1,1.831808121E1
6.829532833E0,8.248580582E0,-8.873044503E0,-6.248786051E0,1.363148295E1
6.839476833E0,7.329708184E0,-6.177164676E0,-2.890200929E0,1.001175544E1
6.849420833E0,6.705140183E0,-4.176207134E0,-8.686728823E-1,7.946961902E0
6.859364833E0,6.213017464E0,-3.381752960E0,5.506333943E-1,7.095141734E0
6.869308833E0,5.574435441E0,-3.681451998E0,1.760611251E0,6.908485455E0
6.879252833E0,4.423052898E0,-4.782203209E0,2.629262499E0,7.024662679E0
6.889196833E0,2.657085890E0,-7.046124072E0,3.167928470E0,8.169684244E0
6.899140833E0,-3.050764301E-1,-1.048772270E1,4.089193549E0,1.126085711E1
6.909084833E0,-4.802319970E0,-1.445641040E1,5.768209244E0,1.628871746E1
6.919028833E0,-9.385388063E0,-1.763887095E1,9.640941793E0,2.218474783E1
6.928972833E0,-1.286723775E1,-1.870276365E1,1.195928445E1,2.565898790E1
6.938916833E0,-1.402351529E1,-1.765297444E1,1.121498886E1,2.518059695E1
6.948860833E0,-1.284323376E1,-1.504458650E1,9.902694740E0,2.212129290E1
6.958804833E0,-1.068750686E1,-9.582462620E0,9.135860474E0,1.701500336E1
6.968748833E0,-8.804052036E0,-3.351065603E0,5.345550277E0,1.083124557E1
6.978692833E0,-8.324473933E0,2.546930194E0,-1.680289804E0,8.866064149E0
6.988636833E0,-7.580901060E0,6.006249978E0,-6.694036320E0,1.176244966E1
6.998580833E0,-7.793030443E0,6.683257563E0,-5.314942442E0,1.156053062E1
7.008524833E0,-7.416997173E0,7.196584625E0,-2.741082312E0,1.069187587E1
7.018468833E0,-6.266882014E0,7.615600777E0,-5.689504186E-1,9.879012600E0
7.028412833E0,-5.640292631E0,8.125276253E0,1.043115133E0,9.945908924E0
7.038356833E0,-4.512445715E0,9.044284891E0,1.967005684E0,1.029710478E1
7.048300833E0,-3.038815809E0,9.830703821E0,2.984711230E0,1.071380606E1
7.058244833E0,-1.922163388E0,1.033934492E1,3.764773067E0,1.117006185E1
7.068188833E0,-1.043097079E0,1.100351729E1,4.390441514E0,1.189291473E1
7.078132833E0,-3.478461814E-1,1.161557575E1,4.525567160E0,1.247090034E1
7.088076833E0,2.097057847E-1,1.209392945E1,4.372124527E0,1.286167092E1
7.098020833E0,1.088584178E-1,1.283487458E1,4.372391160E0,1.355963348E1
7.107964833E0,-8.210217293E-1,1.374893472E1,4.993503456E0,1.465067778E1
7.117908833E0,-1.853297513E0,1.484295228E1,4.949459889E0,1.575579567E1
7.127852833E0,-3.022556164E0,1.521464692E1,4.312650157E0,1.610031919E1
7.137796833E0,-4.580940584E0,1.510690378E1,2.841616999E0,1.603989856E1
7.147740833E0,-5.909109015E0,1.402699205E1,2.456063293E0,1.541772753E1
7.157684833E0,-7.285509081E0,1.208319864E1,3.132338222E0,1.445316141E1
7.167628833E0,-8.807156907E0,1.058083844E1,9.222778896E-1,1.379749076E1
7.177572833E0,-1.065310535E1,8.513710297E0,-8.091422628E0,1.585695547E1
7.187516833E0,-1.385881794E1,8.997636974E-1,-3.734139504E1,3.984038395E1
7.197460833E0,-9.518132138E0,-1.139955388E1,-3.475295430E1,3.779302185E1
7.207404833E0,9.633497702E0,-9.222141988E0,2.393026566E1,2.739543384E1
7.217348833E0,1.456287767E1,-1.202110472E1,2.310940546E1,2.984340774E1
7.227292833E0,9.112526575E0,-1.798566814E1,1.901915766E1,2.771733676E1
7.237236833E0,2.805242932E0,-2.095231381E1,1.371998399E1,2.520132542E1
7.247180833E0,1.691960408E0,-1.858922242E1,8.118104643E0,2.035498816E1
7.257124833E0,3.011226599E0,-1.164771205E1,2.940383488E0,1.238477035E1
7.267068833E0,4.430207843E0,-5.157988556E0,9.254272182E-2,6.800011149E0
7.277012833E0,5.060886769E0,-1.143294967E0,-1.145470716E0,5.313360653E0
7.286956833E0,4.934528439E0,2.330357512E0,-3.790717748E0,6.644522413E0
7.296900833E0,2.568047706E0,5.503283597E0,-1.034948166E1,1.199969874E1
7.306844833E0,-4.494633050E0,2.959677545E0,-2.439884749E1,2.498529920E1
7.316788833E0,-1.113638766E0,-6.230069114E0,-1.960927270E1,2.060527913E1
7.326732833E0,7.587016078E0,-1.227730281E1,-6.280639928E0,1.573980353E1
7.336676833E0,6.555922163E0,-1.558572759E1,-3.941456044E-1,1.691302370E1
7.346620833E0,3.720550429E-1,-1.512857824E1,2.093481544E0,1.527726970E1
7.356564833E0,-2.949416559E0,-1.094356228E1,2.245325548E0,1.155431089E1
7.366508833E0,-3.143895244E0,-5.175738949E0,1.786117390E0,6.313680884E0
7.376452833E0,-3.011413125E0,-1.099011079E0,1.875907234E0,3.714224322E0
7.386396833E0,-3.161989160E0,1.606976244E0,3.048485641E0,4.676944816E0
7.396340833E0,-2.767395952E0,3.906463966E0,4.213253338E0,6.377338376E0
7.406284833E0,-2.420846683E0,5.831771986E0,4.073648726E0,7.514298178E0
7.416228833E0,-2.289845663E0,6.813009617E0,3.540204903E0,8.012087366E0
7.426172833E0,-2.104006824E0,7.146625430E0,3.566683434E0,8.259681015E0
7.436116833E0,-2.632871400E0,7.169713161E0,3.949328735E0,8.598488011E0
7.446060833E0,-3.298745302E0,6.671644993E0,4.052847841E0,8.474558578E0
7.456004833E0,-4.418157316E0,5.870909155E0,4.427599400E0,8.578538618E0
7.465948833E0,-5.593159395E0,5.154394273E0,5.597843599E0,9.443890369E0
7.475892833E0,-6.385923724E0,3.842010693E0,5.571605973E0,9.305044927E0
7.485836833E0,-6.980420079E0,2.429272521E0,5.268654129E0,9.076692448E0
7.495780833E0,-7.230537068E0,1.407073975E0,4.571100597E0,8.669226270E0
7.505724833E0,-6.592949072E0,1.256097697E0,3.617207471E0,7.624234307E0
7.515668833E0,-5.323891021E0,1.900998806E0,3.371398711E0,6.582092473E0
7.525612833E0,-3.948467440E0,3.382411941E0,3.658914490E0,6.357575081E0
7.535556833E0,-2.952916410E0,4.653499560E0,3.815068477E0,6.702948677E0
7.545500833E0,-1.990985116E0,5.258158962E0,3.566022699E0,6.657985828E0
7.555444833E0,-9.022484717E-1,4.971249538E0,2.888930329E0,5.820076694E0
7.565388833E0,-3.277463776E-1,3.995960864E0,1.981778236E0,4.472422822E0
7.575332833E0,-1.431883711E-1,2.890180464E0,1.425476332E0,3.225775689E0
7.585276833E0,8.288135827E-2,1.677492496E0,1.042045604E0,1.976539763E0
7.595221833E0,-6.205679208E-2,5.027044255E-1,7.302653410E-1,8.887351985E-1
7.605165833E0,-2.387409380E-1,-6.386305547E-1,4.804782817E-1,8.340896834E-1
7.615108833E0,-3.793825543E-1,-1.574539400E0,6.662738514E-1,1.751292748E0
7.625053833E0,-9.053653300E-2,-2.347522599E0,7.635906695E-1,2.470248960E0
7.634997833E0,4.633608502E-1,-3.035034707E0,7.049496746E-1,3.150094124E0
7.644940833E0,9.835437727E-1,-3.605963275E0,7.211356446E-1,3.806621351E0
7.654885833E0,1.345710370E0,-3.170201283E0,3.515530238E-1,3.461892849E0
7.664828833E0,-5.228413591E-1,-2.195248239E0,-1.149289649E1,1.171235022E1
7.674773833E0,-5.373997566E-1,-2.505099213E0,-2.174399407E1,2.189441935E1
7.684717833E0,3.044640512E0,-2.384055417E0,-1.512054417E1,1.560719103E1
7.694661833E0,4.892503038E0,-4.050030652E0,-7.039684533E0,9.481376092E0
7.704605833E0,5.071018825E0,-5.273566375E0,-3.671730710E0,8.185801160E0
7.714549833E0,5.155861924E0,-5.011504694E0,-2.098919747E0,7.490230676E0
7.724493833E0,5.515325353E0,-3.998264667E0,-7.591174033E-1,6.854282846E0
7.734437833E0,6.273646073E0,-2.880733702E0,7.081679821E-2,6.903787130E0
7.744381833E0,7.053619033E0,-2.120399201E0,3.094498551E-1,7.371932816E0
7.754325833E0,7.931211843E0,-2.104623413E0,3.637617177E-1,8.213761842E0
7.764269833E0,8.975182496E0,-2.610021651E0,4.480440688E-1,9.357716460E0
7.774213833E0,1.000112794E1,-3.560499419E0,4.915754199E-1,1.062738738E1
7.784157833E0,1.107557136E1,-4.892637232E0,1.094130993E-1,1.210859823E1
7.794101458E0,1.147779430E1,-6.702686107E0,-1.438366226E0,1.336916828E1
7.804045458E0,1.008315385E1,-9.239903491E0,-6.643990002E0,1.520488116E1
7.813989458E0,7.077244123E0,-1.161077753E1,-1.479981152E1,2.009805862E1
7.823933458E0,6.394294598E0,-1.189052119E1,-1.680846225E1,2.155912569E1
7.833877458E0,8.527025576E0,-1.083227807E1,-1.200597212E1,1.828091300E1
7.843821458E0,8.647023890E0,-8.974805936E0,-7.691907526E0,1.464525879E1
7.853765458E0,8.437638606E0,-6.468664164E0,-4.640084878E0,1.160033400E1
7.863709458E0,8.334132364E0,-4.622042125E0,-2.333979278E0,9.811650979E0
7.873653458E0,7.812172472E0,-3.720695001E0,-4.697385545E-1,8.665694683E0
7.883597458E0,6.928851146E0,-3.819917573E0,9.768592358E-1,7.972139138E0
7.893541458E0,5.628069026E0,-4.640726318E0,2.002908758E0,7.564598153E0
7.903485458E0,4.074614978E0,-6.042093410E0,2.547671036E0,7.720104125E0
7.913429458E0,2.164427565E0,-8.363675421E0,3.210154138E0,9.216338905E0
7.923373458E0,-1.049934960E0,-1.134859774E1,3.916731677E0,1.205129956E1
7.933317458E0,-5.069783893E0,-1.438062580E1,4.577415590E0,1.592035931E1
7.943261458E0,-9.184471886E0,-1.664089859E1,6.234199002E0,2.000348137E1
7.953205458E0,-1.212872155E1,-1.692010080E1,8.466533207E0,2.247393784E1
7.963149458E0,-1.351761420E1,-1.586286457E1,8.400573106E0,2.247055839E1
7.973093458E0,-1.358161431E1,-1.280868374E1,7.006627885E0,1.994029741E1
7.983037458E0,-1.281108928E1,-8.165018023E0,1.670286387E0,1.528336954E1
7.992981458E0,-1.211072499E1,-2.457284777E0,-7.161869706E0,1.428286687E1
8.002925458E0,-1.208856638E1,1.726681028E0,-6.475525872E0,1.382198611E1
8.012869458E0,-1.173107697E1,3.818919454E0,-2.659670359E0,1.262046589E1
8.022813458E0,-1.091938053E1,5.049951307E0,-2.086005513E-1,1.203238935E1
8.032757458E0,-9.822386742E0,5.824164759E0,2.095982398E0,1.161005248E1
8.042701458E0,-7.479386380E0,6.660866235E0,3.419052933E0,1.058292410E1
8.052645458E0,-5.088875636E0,7.488557737E0,4.244175754E0,9.999408985E0
8.062589458E0,-3.682280549E0,8.312805229E0,5.232032433E0,1.048980859E1
8.072533458E0,-3.300754405E0,8.854687754E0,6.023132644E0,1.120618587E1
8.082477458E0,-2.754769182E0,9.443777189E0,5.769093343E0,1.140421496E1
8.092421458E0,-1.962112150E0,9.895566984E0,5.611639520E0,1.154394335E1
8.102365458E0,-1.719950883E0,1.011147425E1,5.745976961E0,1.175654685E1
8.112309458E0,-1.485054489E0,1.042404769E1,5.786647854E0,1.201463485E1
8.122253458E0,-9.094535570E-1,1.109150385E1,5.614689428E0,1.246488270E1
8.132197458E0,-4.104621866E-1,1.189982177E1,5.052533437E0,1.293454025E1
8.142141458E0,-5.610763753E-1,1.263469750E1,4.256785859E0,1.334431015E1
8.152085458E0,-1.282341755E0,1.302857764E1,2.591416980E0,1.334554898E1
8.162029458E0,-2.562572665E0,1.229067656E1,4.918139132E-1,1.256460863E1
8.171973458E0,-4.133819498E0,1.090238852E1,-1.650484207E0,1.177601958E1
8.181917458E0,-5.972503942E0,9.460293235E0,-4.794725021E0,1.217198995E1
8.191861458E0,-8.283915306E0,6.445136138E0,-1.632685867E1,1.940951691E1
8.201805458E0,-9.313459709E0,-1.658492553E-1,-3.734527760E1,3.848945046E1
8.211749458E0,-1.201216169E0,-4.889994875E0,-1.898039062E1,1.963696001E1
8.221693458E0,1.007343578E1,-4.980054860E0,1.328090253E1,1.739705225E1
8.231637458E0,1.285173912E1,-8.075402427E0,2.228473288E1,2.696272691E1
8.241581458E0,8.875286325E0,-1.052731420E1,1.669589516E1,2.164134854E1
8.251525458E0,5.561525958E0,-1.154739137E1,1.011653093E1,1.632841133E1
8.261469458E0,5.770196128E0,-1.104274041E1,4.688807387E0,1.331248263E1
8.271413458E0,5.443074818E0,-8.341444892E0,7.922684848E-1,9.991719357E0
8.281357458E0,4.392456172E0,-3.634333380E0,-2.451233493E0,6.205690613E0
8.291301458E0,3.926731878E0,8.111479747E-1,-4.187096404E0,5.797323570E0
8.301245458E0,3.295483725E0,3.557402734E0,-3.950970633E0,6.255037660E0
8.311189458E0,9.162183470E-1,5.368826289E0,-3.110400639E0,6.272028692E0
8.321133458E0,-3.406060713E0,4.872099472E0,-3.789311492E0,7.049644277E0
8.331077458E0,-1.128323405E1,3.469053644E-1,-1.085477815E1,1.566071271E1
8.341021458E0,-1.427952043E1,-8.762016987E0,-1.735903958E1,2.412496426E1
8.350965458E0,-7.736623523E-1,-1.690170429E1,1.345748377E0,1.697283712E1
8.360909458E0,3.323121467E0,-2.149882733E1,8.758128004E0,2.345095988E1
8.370853458E0,-2.814750797E0,-2.325982625E1,6.829978237E0,2.440473196E1
8.380797458E0,-5.150947339E0,-1.453872750E1,2.060772804E0,1.556128659E1
8.390741458E0,-2.708951862E0,-2.793613697E0,-9.676686553E-1,4.009872854E0
8.400685458E0,-1.519033536E0,3.682075896E0,-9.355100656E-1,4.091494210E0
8.410629458E0,-1.464168527E0,6.115675941E0,8.985650913E-1,6.352377580E0
8.420573458E0,-1.549031507E0,7.100402606E0,2.197065554E0,7.592253474E0
8.430517458E0,-1.491918828E0,8.356062346E0,2.970234693E0,8.992880176E0
8.440461458E0,-1.320305680E0,9.426900371E0,3.165037022E0,1.003130685E1
8.450405458E0,-1.252737595E0,9.394872832E0,3.395878079E0,1.006801743E1
8.460349458E0,-1.700460944E0,8.554973513E0,3.077833986E0,9.249443295E0
8.470293458E0,-2.686767526E0,7.044024337E0,2.750002824E0,8.024930787E0
8.480237458E0,-4.171902414E0,5.337713839E0,2.962340952E0,7.394012625E0
8.490181458E0,-5.906663125E0,3.616436223E0,3.379252106E0,7.706271797E0
8.500125458E0,-7.195920382E0,1.904262137E0,3.797640266E0,8.356408081E0
8.510069458E0,-8.280396452E0,-1.066906357E-1,4.495132402E0,9.422449979E0
8.520013458E0,-8.823707451E0,-2.216872997E0,5.134935908E0,1.044700464E1
8.529957458E0,-8.069761033E0,-3.522313008E0,5.080284323E0,1.016548183E1
8.539901458E0,-5.543811818E0,-3.177965215E0,4.245710063E0,7.671985814E0
8.549845458E0,-3.185124546E0,-1.812071427E0,3.773771932E0,5.260225834E0
8.559789458E0,-2.357998178E0,1.627870685E-1,4.096009648E0,4.729053824E0
8.569733458E0,-2.024696653E0,1.857218363E0,4.113968201E0,4.947058818E0
8.579677458E0,-1.395176645E0,3.100683736E0,3.824708197E0,5.117533614E0
8.589621458E0,-9.317049900E-1,3.998030779E0,3.581571615E0,5.447933510E0
8.599565458E0,-4.305673259E-1,4.349699870E0,3.253104275E0,5.448666314E0
8.609509458E0,1.479579449E-1,4.257448933E0,2.766645169E0,5.079575619E0
8.619453458E0,9.226175398E-1,4.038481232E0,1.939919189E0,4.574258437E0
8.629397458E0,1.336125029E0,3.196673967E0,7.210458899E-1,3.538906854E0
8.639341458E0,1.418962533E0,2.123895251E0,-1.705053931E-1,2.559972226E0
8.649285458E0,1.303093231E0,1.122405789E0,-5.550454840E-1,1.807186270E0
8.659229458E0,9.695718509E-1,3.040856194E-1,-4.884328339E-1,1.127432602E0
8.669173458E0,9.273216248E-1,-2.788993227E-1,-3.699641517E-1,1.036621291E0
8.679117458E0,1.194751634E0,-9.355825710E-1,-3.302098095E-1,1.552992187E0
8.689061458E0,1.714139920E0,-1.789380721E0,-2.280835104E-1,2.488409355E0
8.699005458E0,2.218654643E0,-2.500717894E0,-1.591074157E-1,3.346839342E0
8.708949458E0,1.455897641E0,-3.256523727E0,-8.057224603E0,8.811552248E0
8.718893458E0,1.643918076E0,-5.234797581E0,-1.930573672E1,2.007030250E1
8.728837458E0,3.384075474E0,-3.351352116E0,-1.445506086E1,1.521947148E1
8.738781458E0,4.420458781E0,-3.786915888E0,-6.922491714E0,9.044450193E0
8.748725458E0,4.795525213E0,-4.751949130E0,-3.594303634E0,7.648339769E0
8.758669458E0,4.920879868E0,-4.372963017E0,-2.360627963E0,6.993599117E0
8.768613458E0,5.244375905E0,-3.297416815E0,-9.087151998E-1,6.261165993E0
8.778557458E0,5.941792027E0,-2.188608141E0,-8.321611136E-2,6.332600019E0
8.788501083E0,6.799637035E0,-1.550797951E0,2.369440886E-1,6.978264870E0
8.798445083E0,7.749722455E0,-1.616555153E0,3.882519034E-1,7.926044930E0
8.808389083E0,8.577712165E0,-2.254547777E0,3.908118144E-1,8.877661040E0
8.818333083E0,9.305182391E0,-3.433488539E0,3.347814551E-1,9.924078874E0
8.828277083E0,9.924238222E0,-5.116956890E0,2.724688473E-1,1.116906403E1
8.838221083E0,1.032048532E1,-7.101830496E0,-3.980328333E-1,1.253422689E1
8.848165083E0,9.318643851E0,-1.009330695E1,-5.230376501E0,1.469927913E1
8.858109083E0,6.544719483E0,-1.371141782E1,-1.478014149E1,2.119643636E1
8.868053083E0,5.093653981E0,-1.447344450E1,-1.791770946E1,2.358962100E1
8.877997083E0,7.158869500E0,-1.357265053E1,-1.248549994E1,1.978266826E1
8.887941083E0,6.515780443E0,-1.148834736E1,-8.363294767E0,1.563272910E1
8.897885083E0,5.361038967E0,-8.202490489E0,-4.237605822E0,1.067608974E1
8.907829083E0,5.197760147E0,-5.285299398E0,-8.195083237E-1,7.458062360E0
8.917773083E0,5.066605346E0,-3.304987789E0,8.840019429E-1,6.113500917E0
8.927717083E0,5.060866304E0,-2.456455057E0,1.687461414E0,5.873164838E0
8.937661083E0,4.831354611E0,-2.782902768E0,2.482314953E0,6.103148590E0
8.947605083E0,3.856279946E0,-4.159649574E0,3.214931898E0,6.519920759E0
8.957549083E0,2.313327789E0,-6.459610335E0,3.702589098E0,7.796615751E0
8.967493083E0,-1.187318069E-1,-9.189325075E0,4.122239088E0,1.007227123E1
8.977437083E0,-3.349885927E0,-1.183932531E1,5.080145743E0,1.331162050E1
8.987381083E0,-6.680598249E0,-1.376001754E1,6.754777197E0,1.672110913E1
8.997325083E0,-9.466232836E0,-1.414430006E1,8.265210063E0,1.892047794E1
9.007269083E0,-1.116424555E1,-1.331919127E1,9.339261718E0,1.972975023E1
9.017213083E0,-1.083895910E1,-1.070393870E1,8.456425710E0,1.742321652E1
9.027157083E0,-9.576059334E0,-7.433113854E0,7.799688667E0,1.441482699E1
9.037101083E0,-8.227108437E0,-3.419498491E0,6.788496920E0,1.120098092E1
9.047045083E0,-6.828887147E0,1.107205952E0,2.708016307E0,7.429196256E0
9.056989083E0,-5.442609964E0,4.864920845E0,-2.235415102E0,7.634562118E0
9.066933083E0,-5.106696196E0,7.159862357E0,-2.635018498E0,9.180702451E0
9.076877083E0,-5.613003675E0,7.567609169E0,-1.362658525E0,9.520050265E0
9.086821083E0,-5.944853629E0,7.523048708E0,-6.822531223E-2,9.588649604E0
9.096765083E0,-5.474010097E0,7.725336642E0,1.082499785E0,9.529817341E0
9.106709083E0,-4.664606931E0,8.140491292E0,2.446289234E0,9.695900542E0
9.116653083E0,-3.800592233E0,8.663349901E0,3.504133430E0,1.008846291E1
9.126597083E0,-2.894978981E0,9.127531700E0,3.905621967E0,1.034149995E1
9.136541083E0,-2.603433301E0,9.494807594E0,4.102245119E0,1.066572319E1
9.146485083E0,-2.313918943E0,9.916398275E0,4.477491353E0,1.112371810E1
9.156429083E0,-1.870863572E0,1.054214741E1,4.935283899E0,1.178957293E1
9.166373083E0,-1.579807888E0,1.135249783E1,5.973499138E0,1.292507996E1
9.176317083E0,-1.556221097E0,1.238902205E1,6.794468096E0,1.421529065E1
9.186261083E0,-1.339655578E0,1.316672512E1,5.920841453E0,1.449874791E1
9.196205083E0,-1.352272408E0,1.353801396E1,4.331181153E0,1.427815089E1
9.206149083E0,-1.704968854E0,1.296929155E1,2.632942736E0,1.334323160E1
9.216093083E0,-2.034717611E0,1.201839746E1,1.933114053E0,1.234175365E1
9.226037083E0,-3.247744133E0,1.087266362E1,1.352801581E0,1.142771754E1
9.235981083E0,-5.198680499E0,9.008703414E0,-1.712208585E0,1.054109455E1
9.245925083E0,-7.344048480E0,5.245075817E0,-1.461656914E1,1.717818273E1
9.255869083E0,-7.925013210E0,-3.695359601E0,-3.738999710E1,3.839887238E1
9.265813083E0,5.941579188E0,-7.129113019E0,-1.365221651E0,9.380322268E0
9.275757083E0,1.596233857E1,-8.472761076E0,1.958109964E1,2.664588891E1
9.285701083E0,1.079102479E1,-1.338351766E1,1.632153887E1,2.370564051E1
9.295645083E0,2.669053678E0,-1.683468584E1,1.201296890E1,2.085286351E1
9.305589083E0,1.063718747E0,-1.640735495E1,7.772479234E0,1.818637477E1
9.315533083E0,3.295897416E0,-1.163265781E1,3.643188404E0,1.262752902E1
9.325477083E0,4.673380094E0,-4.957599213E0,-1.994075589E-1,6.816013118E0
9.335421083E0,4.627511026E0,4.809586304E-1,-2.563422850E0,5.311903257E0
9.345365083E0,4.511987294E0,3.423559967E0,-3.871984105E0,6.860834723E0
9.355309083E0,4.234456804E0,5.295190548E0,-5.350251439E0,8.636831469E0
9.365253083E0,9.815197590E-1,4.376570749E0,-9.692958038E0,1.068041142E1
9.375197083E0,-7.086918342E0,-3.135982207E0,-1.963414792E1,2.110825811E1
9.385141083E0,-8.378539043E0,-1.383024260E1,-1.687460127E1,2.337151460E1
9.395085083E0,-1.755774142E0,-1.952185799E1,-3.048193281E0,1.983625884E1
9.405029083E0,-2.968903575E0,-1.829617868E1,4.538475473E0,1.908303703E1
9.414973083E0,-5.093593170E0,-1.370490285E1,7.697869931E0,1.652350614E1
9.424917083E0,-3.763503344E0,-7.742013486E0,4.838010789E0,9.874668533E0
9.434861083E0,-2.764182614E0,-2.005141810E0,1.830647446E0,3.874605693E0
9.444805083E0,-2.596671873E0,1.820615378E0,2.339295566E0,3.940767554E0
9.454749083E0,-2.925069338E0,3.912097759E0,4.024567198E0,6.329113732E0
9.464693083E0,-2.620208378E0,5.827736823E0,4.713371540E0,7.940017613E0
9.474637083E0,-2.294713470E0,7.420757518E0,3.791046946E0,8.643227927E0
9.484581083E0,-1.840037490E0,8.064789730E0,2.811688610E0,8.736828040E0
9.494525083E0,-2.017533521E0,8.085637978E0,2.532956518E0,8.709985748E0
9.504469083E0,-2.396328869E0,7.671856838E0,2.958432673E0,8.564584244E0
9.514413083E0,-3.151331148E0,6.443798879E0,3.108846449E0,7.817823114E0
9.524357083E0,-4.221039783E0,4.912323053E0,2.777646121E0,7.047227299E0
9.534301083E0,-5.496789680E0,3.249973676E0,2.831149313E0,6.985157988E0
9.544245083E0,-6.667502825E0,1.375666825E0,3.197356921E0,7.521379157E0
9.554189083E0,-7.546863833E0,-2.050700390E-1,3.746678274E0,8.428214848E0
9.564133083E0,-7.530868190E0,-1.063400366E0,4.469684150E0,8.821727293E0
9.574077083E0,-5.871200346E0,-9.399872786E-1,4.417556223E0,7.407386352E0
9.584021083E0,-3.629274077E0,2.870807469E-1,4.281058820E0,5.619742904E0
9.593965083E0,-2.330263226E0,1.864838455E0,4.571702861E0,5.459690120E0
9.603909083E0,-1.766291090E0,3.193810000E0,5.092246556E0,6.265076338E0
9.613853083E0,-1.138243265E0,3.863198079E0,5.444126732E0,6.771884007E0
9.623797083E0,-5.187597102E-1,3.926187794E0,4.622723325E0,6.087169554E0
9.633741083E0,2.285328689E-1,3.592029945E0,3.096836852E0,4.748189643E0
9.643685083E0,5.335522887E-1,3.277162644E0,2.117917496E0,3.938279772E0
9.653629083E0,8.839183277E-1,2.769782785E0,1.366176209E0,3.212389410E0
9.663573083E0,9.803661034E-1,1.973664494E0,6.349566029E-1,2.293390311E0
9.673517083E0,7.627514479E-1,1.138869794E0,1.082727461E-1,1.374968060E0
9.683461083E0,6.084633073E-1,2.915608835E-1,-3.971560434E-2,6.758791862E-1
9.693405083E0,7.815873760E-1,-4.648214847E-1,1.221000955E-1,9.175218102E-1
9.703349083E0,1.146259505E0,-1.042404769E0,3.524339068E-1,1.588939336E0
9.713293083E0,1.521768571E0,-1.372433315E0,4.101465100E-1,2.089873907E0
9.723237083E0,1.774175037E0,-1.465646703E0,3.597511125E-1,2.329214070E0
9.733181083E0,1.696423734E0,-1.517281126E0,2.902481836E-1,2.294393058E0
9.743125083E0,-8.749197552E-1,-1.720373636E-1,-7.617046208E0,7.669059549E0
9.753069083E0,-1.604305821E0,-2.535954385E0,-1.977296316E1,1.999937334E1
9.763013083E0,1.574747854E0,-3.559843946E0,-1.550549093E1,1.598663719E1
9.772957083E0,4.117511906E0,-4.303811506E0,-7.433513803E0,9.525430449E0
9.782901083E0,5.015059217E0,-4.853191330E0,-3.847160336E0,7.968997910E0
9.792845208E0,5.305340145E0,-4.465291137E0,-2.866677288E0,7.503552336E0
9.802789208E0,5.637512864E0,-3.493582129E0,-1.519501606E0,6.804083518E0
9.812733208E0,6.072735159E0,-2.282143126E0,-4.391416830E-1,6.502240766E0
9.822677208E0,6.715637689E0,-1.540259514E0,8.255099058E-2,6.890500969E0
9.832621208E0,7.456643050E0,-1.465692312E0,4.386092940E-1,7.611974621E0
9.842565208E0,8.426339446E0,-2.014405553E0,8.079358068E-1,8.701366931E0
9.852509208E0,9.318229868E0,-3.238533014E0,1.208907158E0,9.938760510E0
9.862453208E0,9.976426960E0,-4.841676993E0,1.527951125E0,1.119399686E1
9.872397208E0,1.045569867E1,-6.525899634E0,1.401019768E0,1.240450955E1
9.882341208E0,1.031016381E1,-8.339902396E0,2.382029942E-1,1.326311390E1
9.892285208E0,7.672410570E0,-1.012121104E1,-5.964515476E0,1.403140198E1
9.902229208E0,1.798795323E0,-1.272761326E1,-2.171051057E1,2.523041960E1
9.912173208E0,3.092957517E0,-1.393109654E1,-2.135127402E1,2.568109692E1
9.922117208E0,7.665518457E0,-1.253684902E1,-1.017611171E1,1.787417148E1
9.932061208E0,7.020940114E0,-9.905634720E0,-5.577674214E0,1.336134907E1
9.942005208E0,5.830596696E0,-6.755585282E0,-2.090309868E0,9.165325181E0
9.951949208E0,5.121405451E0,-4.516874104E0,7.568524843E-1,6.870500066E0
9.961893208E0,4.851386587E0,-3.466639329E0,2.324873409E0,6.399888782E0
9.971837208E0,4.654296536E0,-3.740308317E0,2.961841600E0,6.665199788E0
9.981781208E0,3.959029558E0,-5.052239907E0,3.102010469E0,7.128920821E0
9.991725208E0,2.389164422E0,-6.839899793E0,3.344730145E0,7.979947089E0
1.000166921E1,-2.842834389E-1,-9.001223656E0,3.800511834E0,9.774800999E0
1.001161321E1,-4.041054592E0,-1.180094769E1,4.193244751E0,1.315962728E1
1.002155721E1,-8.188898637E0,-1.433953625E1,5.435163535E0,1.738451505E1
1.003150121E1,-1.113338629E1,-1.535709678E1,7.418227428E0,2.036719937E1
1.004144521E1,-1.254294650E1,-1.506288360E1,7.884792552E0,2.112784709E1
1.005138921E1,-1.255475670E1,-1.257595637E1,6.822949884E0,1.903494785E1
1.006133321E1,-1.112185207E1,-8.255315990E0,3.936708105E0,1.439942729E1
1.007127721E1,-9.222594563E0,-3.670061038E0,-2.596035476E-1,9.929400409E0
1.008122121E1,-7.669827855E0,1.101369846E0,-1.425979192E0,7.878622438E0
1.009116521E1,-6.360364959E0,3.973195315E0,-2.232396770E-1,7.502690143E0
1.010110921E1,-6.243392580E0,5.177137603E0,9.435113955E-1,8.165348640E0
1.011105321E1,-6.103910758E0,6.000318562E0,1.556075063E0,8.699593036E0
1.012099721E1,-5.060379231E0,6.870504704E0,1.639086814E0,8.688951515E0
1.013094121E1,-3.296346189E0,7.707760497E0,1.830417066E0,8.580553403E0
1.014088521E1,-1.941168885E0,8.334584354E0,2.303325834E0,8.862208691E0
1.015082921E1,-1.489225893E0,8.749960613E0,3.038263539E0,9.381399140E0
1.016077321E1,-1.329622633E0,9.218993847E0,3.897244077E0,1.009684383E1
1.017071721E1,-1.111601889E0,9.694630342E0,4.667279109E0,1.081688543E1
1.018066121E1,-1.049053419E0,1.004194735E1,5.107864469E0,1.131510049E1
1.019060521E1,-9.859729984E-1,1.044986783E1,5.194190422E0,1.171116965E1
1.020054921E1,-9.869945070E-1,1.100185551E1,5.219724044E0,1.221722153E1
1.021049321E1,-1.123746409E0,1.179361879E1,5.516448019E0,1.306841417E1
1.022043721E1,-1.464792571E0,1.264342739E1,5.972533178E0,1.405962396E1
1.023038121E1,-2.028986755E0,1.357887898E1,5.849422392E0,1.492375569E1
1.024032521E1,-2.805845488E0,1.414161969E1,4.662197878E0,1.515236831E1
1.025026921E1,-3.782388681E0,1.394358853E1,3.386334254E0,1.483904933E1
1.026021321E1,-4.696902273E0,1.345660435E1,2.282218555E0,1.443432066E1
1.027015721E1,-5.542290958E0,1.216519765E1,1.655499948E0,1.347032676E1
1.028010121E1,-6.834915041E0,1.068973464E1,4.555578140E-1,1.269622083E1
1.029004521E1,-8.902039091E0,8.754324975E0,-5.958773510E0,1.383443123E1
1.029998921E1,-1.207376006E1,2.440151850E0,-3.182699823E1,3.412752319E1
1.030993321E1,-6.999626428E0,-1.066497519E1,-4.309736139E1,4.494573422E1
1.031987721E1,1.326206164E1,-9.610316416E0,2.149525819E1,2.702381515E1
1.032982121E1,1.778277210E1,-1.298635489E1,2.246366937E1,3.145614151E1
1.033976521E1,8.874842522E0,-1.967754128E1,1.578490130E1,2.674194401E1
1.034970921E1,2.549861403E0,-2.125355301E1,1.014063198E1,2.368644603E1
1.035965321E1,3.420679336E0,-1.768590478E1,5.799183115E0,1.892413274E1
1.036959721E1,5.337161862E0,-1.045488474E1,2.034883672E0,1.191346562E1
1.037954121E1,5.184541347E0,-3.587167985E0,-8.220249653E-1,6.357905958E0
1.038948521E1,5.130024247E0,2.247611225E-1,-3.369333474E0,6.141667070E0
1.039942921E1,4.188083706E0,1.342404939E0,-8.894741766E0,9.922627033E0
1.040937321E1,3.961476910E-1,-4.019946728E0,-1.952753915E1,1.994095509E1
1.041931721E1,1.572252847E0,-1.281916546E1,-1.819638776E1,2.231393084E1
1.042926121E1,5.498141556E0,-1.817126812E1,-9.770932998E0,2.135171369E1
1.043920521E1,2.285994395E0,-1.755647784E1,-6.511751711E0,1.886421466E1
1.044914921E1,-1.630510410E0,-9.934636910E0,-1.826916338E0,1.023196941E1
1.045909321E1,-3.186724052E0,-3.232880511E0,1.213380278E0,4.698831587E0
1.046903721E1,-3.871983813E0,8.426024866E-1,3.037513926E0,4.992867758E0
1.047898121E1,-4.699648710E0,3.610054572E0,4.884689112E0,7.679803365E0
1.048892521E1,-5.200319474E0,5.093718300E0,6.731428095E0,9.914706902E0
1.049886921E1,-5.227554050E0,6.334247201E0,7.501611646E0,1.112313743E1
1.050881321E1,-4.767493368E0,7.442779301E0,6.831235389E0,1.117093253E1
1.051875721E1,-3.959681815E0,7.506620956E0,6.363382123E0,1.060759493E1
1.052870121E1,-3.521101172E0,6.912980048E0,6.084077003E0,9.859180472E0
1.053864521E1,-4.103146759E0,6.186846496E0,5.792413208E0,9.416205906E0
1.054858921E1,-5.315994941E0,5.335219417E0,5.880858192E0,9.555567043E0
1.055853321E1,-7.096623550E0,4.240138251E0,6.051395745E0,1.024500994E1
1.056847721E1,-8.411706789E0,3.264227434E0,5.868270307E0,1.076329820E1
1.057842121E1,-9.344168701E0,2.059329711E0,4.669046137E0,1.064679855E1
1.058836521E1,-9.573157945E0,1.494166498E0,3.937296335E0,1.045849841E1
1.059830921E1,-8.618932697E0,1.606085714E0,3.384552022E0,9.397909583E0
1.060825321E1,-6.625260785E0,2.124279413E0,2.449055405E0,7.375941694E0
1.061819721E1,-4.928570126E0,2.603960427E0,1.895108905E0,5.887516553E0
1.062814121E1,-3.403416894E0,2.997646440E0,1.799745496E0,4.879366207E0
1.063808521E1,-2.138102816E0,3.220256957E0,1.742661468E0,4.240095224E0
1.064802921E1,-1.255058208E0,3.386118491E0,1.844111098E0,4.054838503E0
1.065797321E1,-5.878664902E-1,3.266789099E0,1.990327889E0,3.870258794E0
1.066791721E1,-5.570145339E-2,2.635531299E0,1.850904540E0,3.221020877E0
1.067786121E1,3.689756799E-1,1.793526982E0,1.576412702E0,2.416186892E0
1.068780521E1,6.328809875E-1,8.833973408E-1,1.225564122E0,1.637967223E0
1.069774921E1,8.080679539E-1,-2.154055774E-2,7.921597266E-1,1.131792758E0
1.070769321E1,8.955835229E-1,-8.269641083E-1,3.962188809E-1,1.281767875E0
1.071763721E1,9.555762479E-1,-1.638843570E0,1.826974225E-1,1.905862681E0
1.072758121E1,1.051095778E0,-2.284770865E0,7.400060713E-2,2.516039811E0
1.073752521E1,1.326057586E0,-2.683852104E0,5.337806225E-2,2.994050777E0
1.074746921E1,1.882437697E0,-2.756158773E0,5.462234974E-2,3.338108216E0
1.075741321E1,2.249716222E0,-2.541500469E0,-2.081015280E-1,3.400552009E0
1.076735721E1,1.849999098E0,-1.770386041E0,-1.702149035E0,3.074747914E0
1.077730121E1,-1.202081996E0,-1.952063709E-1,-9.393025696E0,9.471643911E0
1.078724521E1,-1.043216363E0,-8.535560757E-1,-1.634978326E1,1.640525133E1
1.079718971E1,3.473853039E0,-8.246585512E-1,-1.078339301E1,1.135910566E1
1.080713371E1,5.495215609E0,-1.790950699E0,-6.455944131E0,8.665108979E0
1.081707771E1,5.925180087E0,-3.096707629E0,-3.936212845E0,7.758294192E0
1.082702171E1,6.191713133E0,-3.794630705E0,-2.546291678E0,7.695461976E0
1.083696571E1,6.121024974E0,-3.853642559E0,-1.333802808E0,7.355034849E0
1.084690971E1,6.141789021E0,-3.481363787E0,-6.146604788E-1,7.086555842E0
1.085685371E1,6.747623128E0,-3.056035566E0,-3.208566034E-1,7.414359057E0
1.086679771E1,7.584518148E0,-3.023871202E0,-4.131721517E-1,8.175538136E0
1.087674171E1,8.429331467E0,-3.483302724E0,-5.680125618E-1,9.138362277E0
1.088668571E1,9.360188903E0,-4.288056768E0,-5.543979049E-1,1.031057342E1
1.089662971E1,1.012702902E1,-5.394106725E0,-5.518900341E-1,1.148728369E1
1.090657371E1,1.073104639E1,-6.797740783E0,-9.381228939E-1,1.273753159E1
1.091651771E1,1.072760355E1,-8.847697992E0,-3.168319356E0,1.426188926E1
1.092646171E1,8.770336990E0,-1.174160430E1,-1.034713225E1,1.794010112E1
1.093640571E1,5.956356856E0,-1.298953812E1,-1.731502759E1,2.245031109E1
1.094634971E1,6.409020810E0,-1.239540721E1,-1.491477363E1,2.042479229E1
1.095629371E1,7.647174572E0,-1.076323181E1,-9.360571311E0,1.618476855E1
1.096623771E1,6.062903066E0,-8.179976370E0,-5.546067674E0,1.159438112E1
1.097618171E1,4.612857903E0,-5.664683706E0,-3.063248692E0,7.921527130E0
1.098612571E1,3.936630337E0,-3.954988255E0,-9.276872219E-1,5.656818371E0
1.099606971E1,3.951932500E0,-3.319339195E0,6.382450770E-1,5.200301910E0
1.100601371E1,3.947468443E0,-3.667149124E0,1.751003252E0,5.665377498E0
1.101595771E1,3.151012183E0,-4.745144141E0,2.816763409E0,6.354480844E0
1.102590171E1,1.343740443E0,-6.633907648E0,3.813879738E0,7.769172911E0
1.103584571E1,-1.837393671E0,-9.543969229E0,4.443053007E0,1.068663110E1
1.104578971E1,-5.620952965E0,-1.262095537E1,5.221147256E0,1.476969889E1
1.105573371E1,-8.865443122E0,-1.467669606E1,6.186278731E0,1.822831680E1
1.106567771E1,-1.111774615E1,-1.566807978E1,7.174747029E0,2.050780335E1
1.107562171E1,-1.231062142E1,-1.489555734E1,7.502613274E0,2.072964626E1
1.108556571E1,-1.218594591E1,-1.185613722E1,6.587250375E0,1.823340712E1
1.109550971E1,-1.059911450E1,-7.126354303E0,3.182716663E0,1.316266839E1
1.110545371E1,-9.070086899E0,-2.801291091E0,-8.204275060E-1,9.528211240E0
1.111539771E1,-8.401887560E0,1.614853029E0,-1.425075213E0,8.673540467E0
1.112534171E1,-7.440143377E0,4.095282839E0,-2.819574531E-1,8.497445204E0
1.113528571E1,-7.790290437E0,5.254335467E0,1.276289302E0,9.482909927E0
1.114522971E1,-7.487095349E0,6.179304757E0,2.178092508E0,9.949094985E0
1.115517371E1,-6.056026740E0,7.205184710E0,2.084643477E0,9.640325980E0
1.116511771E1,-4.249037421E0,8.231668096E0,2.050617360E0,9.487871742E0
1.117506171E1,-2.802327218E0,8.999164851E0,2.061753967E0,9.648255556E0
1.118500571E1,-1.474213751E0,9.471522228E0,1.651720308E0,9.726829878E0
1.119494971E1,-8.126074398E-1,9.857174166E0,1.951764332E0,1.008134899E1
1.120489371E1,-5.222800264E-1,1.027027878E1,2.695250666E0,1.063088796E1
1.121483771E1,-2.118233538E-1,1.069261147E1,3.200054827E0,1.116320564E1
1.122478171E1,-2.099844776E-2,1.104527576E1,3.512249365E0,1.159027408E1
1.123472571E1,2.327666916E-2,1.157997323E1,3.712127076E0,1.216043623E1
1.124466971E1,-1.107149819E-1,1.246326181E1,3.960988083E0,1.307801894E1
1.125461371E1,-7.276307318E-1,1.336038724E1,3.604343011E0,1.385715275E1
1.126455771E1,-1.794521009E0,1.358028933E1,2.370802703E0,1.390198797E1
1.127450171E1,-3.193505945E0,1.277895181E1,1.685047098E0,1.327928738E1
1.128444571E1,-4.636584735E0,1.152552980E1,1.483742666E0,1.251148463E1
1.129438971E1,-5.960614799E0,1.036927916E1,1.042411201E0,1.200572781E1
1.130433371E1,-7.500683109E0,8.966697602E0,-1.652747079E0,1.180650185E1
1.131427771E1,-1.023246133E1,5.706343948E0,-1.529169217E1,1.926399428E1
1.132422171E1,-1.290877637E1,-3.806497044E0,-4.527288580E1,4.723092330E1
1.133416571E1,1.193356196E0,-7.150294558E0,-3.218388187E0,7.931508923E0
1.134410971E1,1.475874536E1,-7.275473505E0,2.339856665E1,2.860499957E1
1.135405371E1,1.320000981E1,-1.206095817E1,1.879067420E1,2.593831930E1
1.136399671E1,5.081316356E0,-1.636630048E1,1.298544507E1,2.150110115E1
1.137394071E1,1.216726055E0,-1.678561016E1,7.650884045E0,1.848710787E1
1.138388471E1,2.425887275E0,-1.276979274E1,3.316493940E0,1.341460650E1
1.139382971E1,3.412675668E0,-6.421276574E0,-8.462622589E-1,7.320881632E0
1.140377371E1,3.694515848E0,-1.064168690E0,-3.544247668E0,5.229110238E0
1.141371671E1,4.538418755E0,1.967027319E0,-5.472318497E0,7.376497204E0
1.142366171E1,4.165097132E0,3.607535006E0,-9.819643228E0,1.126000604E1
1.143360471E1,-4.555647576E-1,-9.740344459E-1,-1.630220330E1,1.633762880E1
1.144354871E1,-2.624471290E0,-1.088070471E1,-1.525428870E1,1.892011914E1
1.145349271E1,3.585863471E0,-1.937103024E1,-2.236320836E0,1.982665781E1
1.146343671E1,2.345485721E0,-2.220032715E1,1.995471100E0,2.241289213E1
1.147338071E1,-2.327957230E0,-1.748150016E1,2.318474216E0,1.778756744E1
1.148332471E1,-3.278697831E0,-7.355744081E0,1.062732614E0,8.123190941E0
1.149326871E1,-3.172112445E0,-2.218655813E-1,7.165669227E-1,3.259599646E0
1.150321271E1,-3.487726142E0,3.611806397E0,2.344941638E0,5.541491711E0
1.151315671E1,-4.017293846E0,5.033210728E0,4.449038801E0,7.827247686E0
1.152310071E1,-4.494969850E0,6.180075420E0,6.368275073E0,9.947512933E0
1.153304471E1,-4.291348751E0,7.801593690E0,6.079620255E0,1.078157320E1
1.154298871E1,-4.014893564E0,8.154556185E0,5.600635060E0,1.067629477E1
1.155293271E1,-3.849655927E0,7.806505936E0,5.203272318E0,1.014078047E1
1.156287671E1,-4.218115006E0,7.132547674E0,4.971038454E0,9.663175142E0
1.157282071E1,-6.079177036E0,6.031918085E0,4.976719608E0,9.904956703E0
1.158276471E1,-8.242538069E0,5.053806961E0,5.201505289E0,1.097889138E1
1.159270871E1,-9.472234418E0,3.914784554E0,4.930364637E0,1.137353324E1
1.160265271E1,-1.030198005E1,2.900128332E0,4.162499506E0,1.148337665E1
1.161259671E1,-1.070666350E1,2.397151426E0,3.912778959E0,1.164855431E1
1.162254071E1,-9.856927414E0,2.501352317E0,3.173702011E0,1.065308246E1
1.163248471E1,-8.065679092E0,2.752435851E0,2.149459863E0,8.789269596E0
1.164242871E1,-6.264821455E0,3.211435847E0,1.784973675E0,7.262743221E0
1.165237271E1,-4.750235019E0,3.740156289E0,1.707436087E0,6.282423083E0
1.166231671E1,-3.532130483E0,3.938638855E0,1.562661366E0,5.516405743E0
1.167226071E1,-2.471828848E0,3.813838223E0,1.481823610E0,4.780282529E0
1.168220471E1,-1.635645143E0,3.401996021E0,1.529766685E0,4.072971651E0
1.169214871E1,-9.719155611E-1,2.837446765E0,1.362894752E0,3.294420451E0
1.170209271E1,-3.320472971E-1,1.941217709E0,1.108637496E0,2.260012987E0
1.171203671E1,1.208408976E-1,1.014143422E0,8.034847601E-1,1.299491117E0
1.172198071E1,3.465355280E-1,4.308988631E-2,5.632679848E-1,6.627325503E-1
1.173192471E1,4.715451980E-1,-9.196255195E-1,3.697533596E-1,1.097626310E0
1.174186871E1,5.964200896E-1,-1.816594833E0,3.646124876E-1,1.946452151E0
1.175181271E1,9.677475196E-1,-2.547312602E0,4.280389899E-1,2.758360769E0
1.176175671E1,1.504259669E0,-3.138892366E0,4.611444631E-1,3.511138940E0
1.177170071E1,2.209325411E0,-3.629528723E0,3.959833843E-1,4.267481736E0
1.178164471E1,2.831905066E0,-3.967917618E0,1.172135773E-1,4.876248102E0
1.179158850E1,3.078456422E0,-3.853957139E0,-1.010848808E0,5.035046662E0
1.180153250E1,2.772952268E0,-3.070327916E0,-5.579917206E0,6.946341038E0
1.181147650E1,4.301410055E0,-2.808130580E0,-1.052585356E1,1.171244291E1
1.182142050E1,6.772497768E0,-2.032778090E0,-9.099770290E0,1.152409355E1
1.183136450E1,7.824138215E0,-2.770915391E0,-7.845122702E0,1.142107968E1
1.184130850E1,7.814752264E0,-3.515429081E0,-6.838229828E0,1.096311916E1
1.185125250E1,7.962387443E0,-3.891675189E0,-5.544132246E0,1.045381040E1
1.186119650E1,7.990704339E0,-4.174106230E0,-4.045959236E0,9.881513284E0
1.187114050E1,8.038602390E0,-4.092683167E0,-2.872511348E0,9.466810727E0
1.188108450E1,8.236975029E0,-3.773018226E0,-2.121012281E0,9.304951222E0
1.189102850E1,8.680210347E0,-3.367464704E0,-1.651953320E0,9.455940988E0
1.190097250E1,9.270923554E0,-3.015040737E0,-1.303362203E0,9.835611177E0
1.191091650E1,9.805986471E0,-3.007176817E0,-1.028601832E0,1.030817660E1
1.192086050E1,1.018498779E1,-3.735455128E0,-1.055040894E0,1.089957396E1
1.193080450E1,1.019048417E1,-5.574141326E0,-1.870729524E0,1.176506048E1
1.194074850E1,8.716102311E0,-7.931191378E0,-5.233877229E0,1.289448359E1
1.195069250E1,5.136267904E0,-1.016105046E1,-1.223736282E1,1.671470141E1
1.196063650E1,2.231293692E0,-1.227335243E1,-1.722575230E1,2.126829551E1
1.197058050E1,3.399505692E0,-1.303069784E1,-1.400280913E1,1.942767070E1
1.198052450E1,6.227557150E0,-1.152098652E1,-7.497305757E0,1.509056632E1
1.199046850E1,6.228136024E0,-9.043310745E0,-2.656791190E0,1.129733097E1
1.200041250E1,5.473635875E0,-6.668379908E0,1.656782243E-1,8.628755968E0
1.201035650E1,4.852280627E0,-4.978080255E0,1.566277285E0,7.125947996E0
1.202030050E1,4.588200780E0,-4.212856312E0,1.994311012E0,6.540414445E0
1.203024450E1,4.213151597E0,-4.302738542E0,2.162274767E0,6.398408982E0
1.204018850E1,3.223462985E0,-5.181675627E0,2.520145853E0,6.602394341E0
1.205013250E1,1.455384255E0,-7.025774007E0,3.041132768E0,7.792825691E0
1.206007650E1,-1.247160228E0,-9.577734561E0,3.686901603E0,1.033835825E1
1.207002050E1,-4.830964894E0,-1.259481832E1,4.503229626E0,1.422134829E1
1.207996450E1,-8.300673426E0,-1.465528005E1,5.743276132E0,1.779504519E1
1.208990850E1,-1.120315175E1,-1.534377449E1,6.858955284E0,2.019869531E1
1.209985250E1,-1.305567246E1,-1.427094958E1,7.375826343E0,2.070056520E1
1.210979650E1,-1.312403928E1,-1.142015479E1,5.969266924E0,1.839272927E1
1.211974050E1,-1.223197052E1,-7.575206457E0,1.086685148E0,1.442864305E1
1.212968450E1,-1.127936436E1,-2.728457589E0,-1.305659866E0,1.167789745E1
1.213962850E1,-9.971182008E0,9.484283191E-1,1.964668114E-2,1.001620551E1
1.214957250E1,-9.437203165E0,3.090972095E0,1.477270968E0,1.003978294E1
1.215951650E1,-8.305214959E0,4.562823279E0,1.967945917E0,9.678262391E0
1.216946050E1,-6.955787514E0,5.668753953E0,2.063317512E0,9.207335688E0
1.217940450E1,-5.488731632E0,6.715337727E0,2.561282769E0,9.043345904E0
1.218934850E1,-3.952037750E0,7.772790306E0,2.988901345E0,9.217830697E0
1.219929250E1,-2.652471559E0,8.720352067E0,3.259956043E0,9.680261306E0
1.220923650E1,-1.953742445E0,9.442714750E0,3.101777165E0,1.012931355E1
1.221918050E1,-1.345120971E0,1.007931808E1,3.462522304E0,1.074202327E1
1.222912450E1,-8.765829957E-1,1.058546476E1,3.989824212E0,1.134632800E1
1.223906850E1,-6.513222286E-1,1.107490243E1,4.400043812E0,1.193474215E1
1.224901250E1,-5.341185915E-1,1.164403064E1,4.466472859E0,1.248271253E1
1.225895650E1,-7.967372194E-1,1.223012397E1,4.039793347E0,1.290467562E1
1.226890050E1,-1.609894590E0,1.302671004E1,3.720778617E0,1.364298825E1
1.227884450E1,-2.680741970E0,1.381402008E1,3.698307767E0,1.454960510E1
1.228878850E1,-3.544345316E0,1.413628586E1,3.148360763E0,1.491003478E1
1.229873250E1,-4.525325085E0,1.408449240E1,2.748380806E0,1.504676345E1
1.230867650E1,-5.592524972E0,1.374137778E1,1.896888359E0,1.495660337E1
1.231862050E1,-6.004666552E0,1.223190971E1,1.416099737E0,1.369967058E1
1.232856450E1,-6.248748044E0,1.079031611E1,4.365811872E-1,1.247671339E1
1.233850850E1,-7.244092083E0,9.218343052E0,-3.833115324E0,1.233480814E1
1.234845250E1,-9.430782922E0,4.731662216E0,-2.083913745E1,2.335803809E1
1.235839650E1,-9.440601566E0,-8.246324142E0,-4.877783316E1,5.036272260E1
1.236834050E1,8.110331354E0,-8.981515031E0,1.242452752E1,1.734398947E1
1.237828450E1,1.684202293E1,-9.625133260E0,2.315605689E1,3.020761323E1
1.238822850E1,1.155797132E1,-1.797368603E1,1.739434273E1,2.755364313E1
1.239817250E1,4.797868484E0,-2.327597393E1,1.279245654E1,2.698958037E1
1.240811650E1,2.985287181E0,-2.215690105E1,8.724642169E0,2.399915800E1
1.241806050E1,3.910394757E0,-1.495436981E1,4.331179984E0,1.605252265E1
1.242800450E1,4.327907589E0,-6.339153015E0,1.291214905E0,7.783500561E0
1.243794850E1,4.656766692E0,-6.953701812E-1,-1.254023105E0,4.872534213E0
1.244789250E1,4.192613544E0,2.953025753E0,-5.890761037E0,7.810213507E0
1.245783650E1,3.064937952E-1,3.543360060E0,-1.771900587E1,1.807242397E1
1.246778050E1,-3.809361303E0,-3.923718515E0,-2.548262891E1,2.606283133E1
1.247772450E1,2.560027665E0,-1.105619485E1,-1.416584471E1,1.815115265E1
1.248766850E1,5.214861499E0,-1.562743461E1,-4.875596691E0,1.718088869E1
1.249761250E1,2.133609231E0,-1.484738096E1,5.594569524E-1,1.501032984E1
1.250755650E1,-9.710295618E-1,-9.132401846E0,2.795963109E0,9.600055812E0
1.251750050E1,-2.143508274E0,-3.482559543E0,2.142985826E0,4.616842746E0
1.252744450E1,-2.816929470E0,3.988169450E-1,2.947368572E0,4.096477522E0
1.253738850E1,-3.215858974E0,3.010785134E0,4.013008422E0,5.959094952E0
1.254733250E1,-3.645314159E0,4.416411338E0,5.079471560E0,7.654674111E0
1.255727650E1,-3.196502351E0,5.806039560E0,5.307025312E0,8.490714947E0
1.256722050E1,-2.716604698E0,6.831376891E0,4.714673131E0,8.733601436E0
1.257716450E1,-2.565703264E0,7.045078590E0,4.161659846E0,8.575277153E0
1.258710850E1,-2.527092053E0,6.644434390E0,3.945702292E0,8.130391699E0
1.259705250E1,-2.926368297E0,5.764295118E0,4.395911000E0,7.817593180E0
1.260699650E1,-4.235200570E0,4.398887233E0,4.485221372E0,7.576565416E0
1.261694050E1,-5.846227473E0,2.948688873E0,4.149223988E0,7.751722482E0
1.262688450E1,-7.045757452E0,1.663557411E0,4.328229479E0,8.434672000E0
1.263682850E1,-8.075078491E0,8.095493460E-1,4.304846463E0,9.186618848E0
1.264677250E1,-8.664980689E0,6.189377171E-1,4.496835696E0,9.781947941E0
1.265671650E1,-8.293891241E0,1.010338638E0,4.522626010E0,9.500713768E0
1.266666050E1,-6.840046558E0,1.952828525E0,4.463576733E0,8.397814800E0
1.267660450E1,-5.256002508E0,3.026369133E0,4.362170811E0,7.470810310E0
1.268654850E1,-4.033285396E0,3.994820657E0,4.169890387E0,7.043718408E0
1.269649250E1,-2.902506102E0,4.533048087E0,3.896738293E0,6.645121215E0
1.270643650E1,-1.821467464E0,4.610604386E0,3.503768563E0,6.070569221E0
1.271638050E1,-9.016476703E-1,4.315310640E0,2.848144830E0,5.248504875E0
1.272632450E1,-2.574891579E-1,3.690288895E0,2.077411641E0,4.242660948E0
1.273626850E1,1.546325415E-1,2.832715198E0,1.334944476E0,3.135325082E0
1.274621250E1,3.837770292E-1,1.773514302E0,7.578576207E-1,1.966465347E0
1.275615650E1,4.250048697E-1,6.519084120E-1,2.558934528E-1,8.192039893E-1
1.276610050E1,1.994441405E-1,-4.726976842E-1,-7.872106433E-2,5.190549795E-1
1.277604450E1,9.887641668E-4,-1.559841839E0,-5.554942578E-2,1.560830958E0
1.278598850E1,2.915860265E-2,-2.431289225E0,1.732032984E-2,2.431525759E0
1.279593288E1,4.848388427E-1,-2.988831178E0,-3.229446441E-2,3.028072563E0
1.280587687E1,1.043532405E0,-3.182205032E0,4.779221714E-3,3.348941860E0
1.281582087E1,1.178456321E0,-2.718305653E0,-1.215731736E0,3.202490996E0
1.282576487E1,1.160197513E0,-4.081223209E0,-1.348038146E1,1.413234324E1
1.283570887E1,2.665781869E0,-4.254302546E0,-1.895211933E1,1.960582338E1
1.284565288E1,4.988018768E0,-2.167292701E0,-1.242302829E1,1.356130970E1
1.285559687E1,5.980654961E0,-2.636635253E0,-6.719394525E0,9.373918178E0
1.286554087E1,5.716751407E0,-2.966062120E0,-4.069191393E0,7.618207778E0
1.287548487E1,5.547709572E0,-2.569447821E0,-2.300725870E0,6.532417863E0
1.288542887E1,5.470417567E0,-2.094977261E0,-7.335261869E-1,5.903597103E0
1.289537288E1,5.496525385E0,-1.557820457E0,1.913893086E-1,5.716224782E0
1.290531687E1,5.982487478E0,-1.284782968E0,3.696177042E-1,6.130044123E0
1.291526087E1,6.888342805E0,-1.389496660E0,1.428539103E-1,7.028540019E0
1.292520487E1,7.865798457E0,-1.931364566E0,-3.333196512E-1,8.106297332E0
1.293514887E1,8.677413624E0,-2.737040716E0,-5.064551219E-1,9.112924661E0
1.294509288E1,9.187049339E0,-3.783826804E0,-2.571210757E-1,9.939081048E0
1.295503687E1,9.411904017E0,-5.214408340E0,-5.833211571E-2,1.075999044E1
1.296498087E1,9.494166740E0,-6.916236362E0,-5.553588948E-1,1.175933463E1
1.297492487E1,8.608039334E0,-8.972301573E0,-4.396475256E0,1.318823458E1
1.298486887E1,5.798387309E0,-1.172997419E1,-1.480178437E1,1.975617399E1
1.299481287E1,3.889947629E0,-1.334137210E1,-2.064051923E1,2.488282411E1
1.300475687E1,6.108587362E0,-1.320045069E1,-1.519708890E1,2.103611773E1
1.301470087E1,7.802283661E0,-1.139873995E1,-9.816723129E0,1.694623721E1
1.302464487E1,7.085027937E0,-8.524672072E0,-5.652416248E0,1.244256663E1
1.303458887E1,6.286566666E0,-5.341173052E0,-1.469732738E0,8.379090901E0
1.304453287E1,5.523499176E0,-3.222682967E0,1.237619911E0,6.513557530E0
1.305447687E1,5.052153368E0,-2.457058489E0,2.943224065E0,6.342236039E0
1.306442087E1,4.673620414E0,-3.202291387E0,3.825020438E0,6.835801288E0
1.307436487E1,3.712121522E0,-4.990113825E0,4.109084022E0,7.454237297E0
1.308430887E1,1.933264473E0,-7.399203511E0,4.582294507E0,8.915332135E0
1.309425287E1,-1.082156334E0,-1.011998429E1,5.865011069E0,1.174663778E1
1.310419687E1,-5.020645062E0,-1.316552527E1,7.481434659E0,1.595336319E1
1.311414087E1,-8.755986754E0,-1.522419893E1,8.840447445E0,1.966207131E1
1.312408487E1,-1.166668159E1,-1.606271070E1,9.900554659E0,2.218429888E1
1.313402887E1,-1.260342308E1,-1.497963095E1,8.904863881E0,2.150656219E1
1.314397287E1,-1.212807602E1,-1.181909160E1,7.023968972E0,1.833350197E1
1.315391687E1,-1.049277937E1,-6.593350191E0,2.102026080E0,1.256937545E1
1.316386087E1,-8.579652856E0,-1.465934971E0,-2.855188386E0,9.160322548E0
1.317380387E1,-7.442698025E0,2.017043817E0,-6.468166566E-1,7.738255064E0
1.318374887E1,-7.269887660E0,3.489244664E0,-7.426318366E-2,8.064217875E0
1.319369287E1,-6.893039873E0,4.511885844E0,2.427938624E-1,8.241969511E0
1.320363687E1,-6.011337640E0,5.445593798E0,4.977290297E-1,8.126401801E0
1.321357987E1,-4.761656093E0,6.427951171E0,1.341075282E0,8.111128646E0
1.322352488E1,-3.594343103E0,7.323709525E0,2.233490199E0,8.458398313E0
1.323346788E1,-2.617404638E0,8.044053749E0,2.814298807E0,8.915037046E0
1.324341287E1,-2.045667399E0,8.656182384E0,3.384947294E0,9.516938413E0
1.325335587E1,-1.628978148E0,9.241644207E0,3.874054019E0,1.015233234E1
1.326329987E1,-1.294063084E0,9.739719976E0,4.406865174E0,1.076834273E1
1.327324387E1,-1.136097921E0,1.019807386E1,4.965586510E0,1.139949465E1
1.328318787E1,-1.206396364E0,1.061418628E1,5.215823951E0,1.188785776E1
1.329313187E1,-1.493091487E0,1.116950571E1,5.147810308E0,1.238899233E1
1.330307587E1,-2.009216442E0,1.184785289E1,4.842963381E0,1.295619015E1
1.331301987E1,-2.856903375E0,1.249601207E1,4.935661629E0,1.373582797E1
1.332296387E1,-3.888622650E0,1.305866975E1,5.309061313E0,1.462314514E1
1.333290787E1,-5.011963116E0,1.360937104E1,4.857794259E0,1.529486579E1
1.334285187E1,-6.354713625E0,1.354095745E1,3.256391580E0,1.530829840E1
1.335279587E1,-7.501145623E0,1.262133193E1,1.888789819E0,1.480313252E1
1.336273987E1,-7.900575356E0,1.109585886E1,1.024213496E0,1.365965549E1
1.337268387E1,-8.637492929E0,9.789838216E0,-2.545666026E0,1.330141466E1
1.338262787E1,-1.021789826E1,6.836835267E0,-1.486127512E1,1.928743786E1
1.339257187E1,-1.304956797E1,-1.979369037E0,-4.327210894E1,4.524029772E1
1.340251587E1,-4.433294588E0,-8.035694570E0,-1.283622061E1,1.577957692E1
1.341245987E1,1.204995722E1,-6.565509258E0,2.267251086E1,2.650188917E1
1.342240387E1,1.586932691E1,-1.220081187E1,1.813765950E1,2.701240528E1
1.343234787E1,1.083989933E1,-1.960993343E1,1.279471357E1,2.580227901E1
1.344229187E1,6.118398989E0,-2.216352010E1,9.078143778E0,2.471981237E1
1.345223587E1,5.486955832E0,-1.898028537E1,5.899268736E0,2.061939108E1
1.346217988E1,5.135141730E0,-1.238141599E1,3.032798731E0,1.374288946E1
1.347212387E1,5.488110657E0,-5.961619935E0,1.098669017E0,8.177245529E0
1.348206787E1,5.526588260E0,-1.713605484E0,-1.823034371E0,6.066553871E0
1.349201187E1,1.827011063E0,-4.966841322E-1,-1.048364017E1,1.065323312E1
1.350195587E1,-1.827421537E0,-6.112108555E0,-1.918018647E1,2.021328508E1
1.351189988E1,4.269504430E0,-1.219018047E1,-1.475872899E1,1.961247688E1
1.352184387E1,7.392084526E0,-1.387607307E1,-1.268136529E1,2.019914214E1
1.353178787E1,3.850180130E0,-8.772465377E0,-7.484115608E0,1.215697422E1
1.354173187E1,-5.414904687E-1,-2.415549690E0,-5.456142175E-1,2.534913629E0
1.355167587E1,-2.465487835E0,1.120094969E0,2.986090588E0,4.031126394E0
1.356161988E1,-3.922259927E0,3.123320646E0,3.919045420E0,6.363817392E0
1.357156387E1,-5.019242315E0,4.226458690E0,4.998315715E0,8.248569964E0
1.358150787E1,-5.954680459E0,4.694306109E0,5.481855891E0,9.356573797E0
1.359145187E1,-5.851449037E0,4.694118998E0,5.674167305E0,9.405869636E0
1.360139587E1,-5.334200247E0,4.675230737E0,5.936721321E0,9.249655927E0
1.361133988E1,-4.942646713E0,4.103392342E0,5.869626861E0,8.701729985E0
1.362128387E1,-4.818932494E0,3.128105423E0,5.420540818E0,7.898697151E0
1.363122787E1,-5.349165611E0,2.313467245E0,5.203747112E0,7.813109971E0
1.364117187E1,-5.995397546E0,1.469614624E0,5.316608899E0,8.146833069E0
1.365111587E1,-6.372276907E0,1.079850923E0,5.471363647E0,8.468046478E0
1.366105988E1,-6.910267525E0,9.611506909E-1,5.196105970E0,8.699145083E0
1.367100387E1,-7.110772642E0,1.174358300E0,4.168475361E0,8.325766741E0
1.368094787E1,-6.882972722E0,1.794472477E0,3.416946766E0,7.891195737E0
1.369089187E1,-6.662248517E0,2.496028427E0,2.811707321E0,7.649928841E0
1.370083587E1,-5.891275592E0,3.226742104E0,2.385442961E0,7.128066416E0
1.371077988E1,-4.667159241E0,3.752828960E0,1.884621924E0,6.278367652E0
1.372072387E1,-3.237767029E0,4.073914774E0,1.509968598E0,5.418479684E0
1.373066787E1,-1.903070328E0,4.273315353E0,1.436860861E0,4.893615219E0
1.374061187E1,-9.082282729E-1,4.284775311E0,1.609163688E0,4.666217508E0
1.375055587E1,-2.958752516E-1,4.016115047E0,1.859258457E0,4.435489178E0
1.376049987E1,8.769887924E-2,3.422188210E0,1.921922044E0,3.925919967E0
1.377044387E1,6.899772942E-2,2.562814740E0,1.821142797E0,3.144732288E0
1.378038787E1,1.561370301E-1,1.411454709E0,1.366874367E0,1.971022248E0
1.379033187E1,1.735555932E-1,2.970812398E-1,8.066732468E-1,8.769837707E-1
1.380027533E1,4.074778408E-2,-7.151665145E-1,6.466494262E-1,9.650279819E-1
1.381021933E1,3.142615288E-2,-1.653571537E0,6.001152375E-1,1.759381916E0
1.382016333E1,3.827549359E-1,-2.261201908E0,4.385784499E-1,2.334927508E0
1.383010733E1,9.249970642E-1,-2.492289133E0,2.934211752E-1,2.674550556E0
1.384005133E1,1.550455011E0,-2.445031351E0,1.832543698E-1,2.900977631E0
1.384999533E1,2.202873593E0,-2.460913559E0,-2.449281693E-2,3.302930140E0
1.385993933E1,2.712045039E0,-2.376205530E0,-7.018073809E-1,3.673428183E0
1.386988333E1,2.432958313E0,-1.730073583E0,-5.017844245E0,5.838767132E0
1.387982733E1,3.208178363E0,-2.634020963E0,-1.279592628E1,1.345236798E1
1.388977133E1,5.436248193E0,-1.877654967E0,-1.255587586E1,1.381044537E1
1.389971533E1,6.991681232E0,-2.375744770E0,-8.973027213E0,1.162079976E1
1.390965933E1,6.778128052E0,-3.692053585E0,-5.944392868E0,9.742180769E0
1.391960333E1,6.680965455E0,-4.053834266E0,-4.315459452E0,8.927041052E0
1.392954733E1,6.516319556E0,-3.859933578E0,-2.969299139E0,8.135001239E0
1.393949133E1,6.448800588E0,-3.425262092E0,-1.864511303E0,7.536302264E0
1.394943533E1,6.725674435E0,-2.926360111E0,-9.452678990E-1,7.395391234E0
1.395937933E1,7.125192461E0,-2.564235613E0,-2.973297465E-1,7.578395402E0
1.396932333E1,7.648871434E0,-2.625231428E0,7.908096045E-2,8.087232410E0
1.397926733E1,8.128654774E0,-3.204186469E0,2.729044649E-1,8.741642649E0
1.398921133E1,8.654097852E0,-4.211970459E0,3.379038683E-1,9.630591041E0
1.399915533E1,9.107033701E0,-5.466468358E0,1.906969982E-1,1.062340362E1
1.400909933E1,9.199770541E0,-6.887760422E0,-7.832152408E-1,1.151913398E1
1.401904333E1,7.753689206E0,-9.014831296E0,-5.983697852E0,1.331133050E1
1.402898733E1,4.383872167E0,-1.161980446E1,-1.642091698E1,2.058846049E1
1.403893133E1,3.495981241E0,-1.256144475E1,-1.911474210E1,2.313839114E1
1.404887533E1,6.586196122E0,-1.169144221E1,-1.182105159E1,1.788309428E1
1.405881933E1,6.694337452E0,-9.417821399E0,-6.072315913E0,1.305306609E1
1.406876333E1,5.701271489E0,-6.475294322E0,-2.718686891E0,9.045727807E0
1.407870733E1,5.176603167E0,-4.314059921E0,-7.178230508E-1,6.776695602E0
1.408865133E1,4.857155743E0,-3.109707159E0,6.295422274E-1,5.801600119E0
1.409859533E1,4.599725057E0,-2.813089018E0,1.610019135E0,5.626997605E0
1.410853933E1,3.953776127E0,-3.383029992E0,2.485902219E0,5.766883685E0
1.411848333E1,2.707830951E0,-4.866165717E0,3.218688734E0,6.432097201E0
1.412842733E1,6.529363525E-1,-7.307423276E0,3.594073547E0,8.169585391E0
1.413837133E1,-2.402974814E0,-1.031758744E1,4.759544079E0,1.161379173E1
1.414831533E1,-5.911984676E0,-1.299857090E1,6.755905709E0,1.579736276E1
1.415825933E1,-8.970684818E0,-1.441458409E1,8.796157710E0,1.912134439E1
1.416820333E1,-1.066485591E1,-1.433158638E1,9.088834827E0,2.004346373E1
1.417814733E1,-1.100380263E1,-1.227874824E1,8.509542986E0,1.855434323E1
1.418809133E1,-1.002296261E1,-8.796303306E0,7.148913445E0,1.513081937E1
1.419803533E1,-8.624502169E0,-4.558862375E0,4.442884022E0,1.071935083E1
1.420797933E1,-7.506849582E0,-2.107383299E-1,1.219604055E0,7.608195275E0
1.421792333E1,-6.200607918E0,3.366368351E0,5.500218852E-1,7.076898932E0
1.422786733E1,-5.825763972E0,5.000248219E0,4.989790913E-1,7.693567979E0
1.423781133E1,-5.625109166E0,5.910973107E0,-2.272953423E-1,8.162911207E0
1.424775533E1,-5.200727025E0,6.408718509E0,-9.297236609E-1,8.305637880E0
1.425769933E1,-4.447881052E0,6.983419701E0,-3.318820767E-1,8.286250195E0
1.426764333E1,-3.175566395E0,7.665720770E0,6.913969982E-1,8.326195210E0
1.427758733E1,-2.066410397E0,8.070772601E0,1.225833605E0,8.420812926E0
1.428753133E1,-1.677428176E0,8.456644980E0,1.925490453E0,8.833805697E0
1.429747533E1,-1.382381768E0,8.814589888E0,2.743562701E0,9.334618928E0
1.430741933E1,-1.253266475E0,9.142207042E0,3.468413959E0,9.858018150E0
1.431736333E1,-1.280100225E0,9.566992641E0,3.939452788E0,1.042522388E1
1.432730733E1,-1.365363739E0,9.958244458E0,4.099848930E0,1.085539553E1
1.433725133E1,-1.644237334E0,1.041886238E1,4.105357007E0,1.131857614E1
1.434719533E1,-2.209758689E0,1.094098950E1,3.914922549E0,1.182856303E1
1.435713933E1,-2.905753061E0,1.156702165E1,4.264886591E0,1.266604312E1
1.436708333E1,-3.566883701E0,1.218802051E1,4.623492819E0,1.351470270E1
1.437702733E1,-4.037885693E0,1.220524056E1,3.724519665E0,1.338448597E1
1.438697133E1,-4.913224694E0,1.156633284E1,2.589976226E0,1.283073689E1
1.439691533E1,-6.171555442E0,1.065909056E1,2.060872207E0,1.248805439E1
1.440685933E1,-7.354944767E0,9.493928173E0,1.256359652E0,1.207511177E1
1.441680333E1,-9.046938357E0,7.801037035E0,-5.530558519E0,1.316397926E1
1.442674733E1,-1.240697067E1,9.369484806E-1,-3.667479375E1,3.872791358E1
1.443669133E1,-7.134001291E0,-1.019024093E1,-3.579203025E1,3.789200989E1
1.444663533E1,1.070716987E1,-7.922951481E0,2.170122519E1,2.546291071E1
1.445657933E1,1.585131047E1,-1.185397141E1,2.175819345E1,2.941427653E1
1.446652333E1,1.002248314E1,-1.768234851E1,1.571674265E1,2.569302661E1
1.447646733E1,4.387908500E0,-1.897175195E1,1.075597190E1,2.224571969E1
1.448641133E1,4.074341621E0,-1.539932421E1,6.762263972E0,1.730513391E1
1.449635533E1,4.694655480E0,-8.892592329E0,3.091459168E0,1.052022377E1
1.450629933E1,4.380061537E0,-2.803506017E0,4.806697780E-1,5.222607442E0
1.451624333E1,4.525203463E0,9.634176564E-1,-1.798210602E0,4.963789009E0
1.452618733E1,3.237621433E0,3.305342131E0,-8.175007991E0,9.393520895E0
1.453613033E1,-2.238913491E0,-1.459542795E0,-2.086994292E1,2.104037823E1
1.454607433E1,-4.896505165E-1,-1.124309408E1,-1.856995701E1,2.171382568E1
1.455601833E1,5.539711751E0,-1.717905410E1,-8.453877493E0,1.993179246E1
1.456596233E1,2.914430037E0,-1.750851313E1,-4.070292424E0,1.821014044E1
1.457590633E1,-1.008709312E0,-1.058163366E1,-4.040361696E-1,1.063727929E1
1.458585033E1,-2.116173711E0,-3.362055445E0,1.807117081E0,4.364318977E0
1.459579433E1,-2.407805930E0,9.279572171E-1,3.370386558E0,4.244777914E0
1.460573833E1,-3.381273781E0,3.679911842E0,4.649391307E0,6.825804207E0
1.461568233E1,-4.223170216E0,5.009282752E0,5.441618861E0,8.517000422E0
1.462562633E1,-4.455212291E0,5.632131672E0,5.574227865E0,9.090755745E0
1.463557033E1,-3.975768967E0,6.305530356E0,5.237856259E0,9.110520849E0
1.464551433E1,-3.780735966E0,6.036663685E0,4.963557526E0,8.681715050E0
1.465545833E1,-3.687785118E0,5.365326730E0,4.759639388E0,8.064778800E0
1.466540233E1,-4.082077487E0,4.449988389E0,4.942174258E0,7.803258273E0
1.467534633E1,-5.237511274E0,3.402976014E0,4.649536318E0,7.786524132E0
1.468529033E1,-6.724368167E0,2.262134539E0,4.757294655E0,8.542027414E0
1.469523433E1,-7.584324020E0,1.479931451E0,5.226049562E0,9.328652741E0
1.470517833E1,-8.296788536E0,1.188555340E0,4.973557434E0,9.746057529E0
1.471512233E1,-8.412582117E0,1.529346855E0,4.407552806E0,9.619613372E0
1.472506633E1,-7.665491560E0,2.426607944E0,3.996980034E0,8.979088838E0
1.473501033E1,-6.683642310E0,3.439280791E0,3.699382485E0,8.377658244E0
1.474495433E1,-5.269662774E0,4.346555237E0,3.258580778E0,7.568370820E0
1.475489833E1,-3.717034060E0,4.877950780E0,3.057183375E0,6.852526264E0
1.476484233E1,-2.412009932E0,5.246446989E0,3.243707800E0,6.623038442E0
1.477478633E1,-1.328918044E0,5.144369221E0,3.175527511E0,6.189873410E0
1.478473033E1,-5.439565319E-1,4.428270661E0,2.738967374E0,5.235208881E0
1.479467471E1,-1.702691656E-1,3.529079990E0,2.227062939E0,4.176506495E0
1.480461871E1,-2.119960660E-1,2.500533122E0,1.901502836E0,3.148542720E0
1.481456271E1,-1.597669816E-1,1.348216487E0,1.473674930E0,2.003729269E0
1.482450671E1,-7.744461715E-2,2.337921470E-1,1.073469856E0,1.101360054E0
1.483445071E1,-8.944778144E-2,-8.684343159E-1,9.372009341E-1,1.280829675E0
1.484439471E1,-9.581832290E-2,-1.777039003E0,9.225923967E-1,2.004551197E0
1.485433871E1,1.737090826E-1,-2.388254303E0,8.825082716E-1,2.552009857E0
1.486428271E1,9.594690317E-1,-2.630495092E0,6.677514428E-1,2.878537344E0
1.487422671E1,1.736553759E0,-2.726323940E0,5.006184313E-1,3.270944817E0
1.488417071E1,2.403471681E0,-2.750518548E0,3.190571228E-1,3.666582313E0
1.489411471E1,2.125250928E0,-1.747753224E0,-3.267040529E0,4.271403359E0
1.490405871E1,2.714264934E0,-3.878762782E0,-1.781257419E1,1.843094772E1
1.491400271E1,4.285550652E0,-4.031839380E0,-1.911243478E1,1.999767078E1
1.492394671E1,5.738091990E0,-3.726420010E0,-1.138596963E1,1.328353154E1
1.493389071E1,5.756526507E0,-4.680220751E0,-6.146091403E0,9.634132200E0
1.494383471E1,5.507081949E0,-4.697926705E0,-3.871789978E0,8.209094015E0
1.495377871E1,5.161362984E0,-4.144515225E0,-1.904224422E0,6.887869406E0
1.496372271E1,4.890659119E0,-3.215169879E0,-1.607376194E-1,5.855057690E0
1.497366671E1,5.110294572E0,-2.322577207E0,6.867557707E-1,5.655184257E0
1.498361071E1,5.827004167E0,-1.695714174E0,8.346607983E-1,6.125853636E0
1.499355471E1,6.811119213E0,-1.570722923E0,5.966408220E-1,7.015304391E0
1.500349871E1,7.899666699E0,-2.008538457E0,2.250382805E-1,8.154115704E0
1.501344271E1,8.750859915E0,-2.867012626E0,1.789595899E-1,9.210284316E0
1.502338671E1,9.301803870E0,-3.909041419E0,5.496920657E-1,1.010476726E1
1.503333071E1,9.635400971E0,-5.098863850E0,9.044496560E-1,1.093880220E1
1.504327471E1,9.714634836E0,-6.542140861E0,7.688579875E-1,1.173732847E1
1.505321871E1,9.451742266E0,-8.182324027E0,-4.708148807E-1,1.251029676E1
1.506316271E1,6.756345420E0,-9.995023445E0,-8.162014893E0,1.456595978E1
1.507310671E1,2.068584976E0,-1.274675704E1,-2.411690411E1,2.735660656E1
1.508305071E1,3.600656050E0,-1.346157682E1,-2.079529035E1,2.503243646E1
1.509299471E1,7.350178701E0,-1.111697549E1,-8.849232302E0,1.599753679E1
1.510293871E1,6.851637493E0,-7.870334142E0,-4.111994766E0,1.121586362E1
1.511288271E1,6.612269441E0,-5.049448446E0,-9.671037412E-1,8.375817955E0
1.512282671E1,6.243456314E0,-3.199024547E0,9.081018269E-1,7.073835857E0
1.513277071E1,5.816690848E0,-2.439891649E0,1.952425067E0,6.602948381E0
1.514271471E1,5.304156668E0,-2.848364101E0,2.218019782E0,6.416141190E0
1.515265871E1,4.306873693E0,-4.179397960E0,2.292908435E0,6.424481100E0
1.516260271E1,2.610593216E0,-6.196305537E0,2.315700297E0,7.111389956E0
1.517254671E1,-1.232512660E-1,-8.977612599E0,2.859355697E0,9.422772090E0
1.518249071E1,-4.215150467E0,-1.242971516E1,4.252598668E0,1.379673541E1
1.519243471E1,-8.509029016E0,-1.509893286E1,6.968847855E0,1.868010141E1
1.520237871E1,-1.169189478E1,-1.609041715E1,9.295583017E0,2.195472139E1
1.521232271E1,-1.277320751E1,-1.499356369E1,9.239878932E0,2.175631276E1
1.522226671E1,-1.168898521E1,-1.213447638E1,8.378600439E0,1.881698269E1
1.523221071E1,-1.007285456E1,-7.454253293E0,6.268926201E0,1.401169964E1
1.524215471E1,-8.673936285E0,-2.433677813E0,2.911623373E0,9.467708753E0
1.525209871E1,-7.815056319E0,2.084204351E0,1.827757752E0,8.292147578E0
1.526204271E1,-7.754714808E0,4.509914163E0,1.116537523E-1,8.971476694E0
1.527198671E1,-7.434100279E0,6.048213106E0,-1.626447473E0,9.720702655E0
1.528193071E1,-6.679752742E0,7.144447927E0,-1.396095243E0,9.879843865E0
1.529187471E1,-5.601230307E0,8.136074890E0,2.073399282E-1,9.879903108E0
1.530181871E1,-4.208255723E0,8.867642845E0,1.055000256E0,9.872058114E0
1.531176271E1,-3.122824218E0,9.329047801E0,1.853168582E0,1.001086399E1
1.532170671E1,-1.871809798E0,9.839027917E0,2.444034401E0,1.030938633E1
1.533165071E1,-8.854444510E-1,1.029754786E1,2.952601830E0,1.074901676E1
1.534159471E1,-4.309400859E-1,1.067209710E1,3.163883951E0,1.113954791E1
1.535153871E1,-2.465411420E-1,1.098942550E1,3.033308609E0,1.140303540E1
1.536148271E1,-3.002021912E-1,1.126328920E1,3.015075821E0,1.166372527E1
1.537142671E1,-6.773019925E-1,1.174514070E1,3.180981209E0,1.218711243E1
1.538137071E1,-1.783358382E0,1.250563424E1,3.627036055E0,1.314255095E1
1.539131471E1,-2.980555614E0,1.364306855E1,4.459791831E0,1.465969898E1
1.540125871E1,-4.066171599E0,1.384158269E1,3.755699650E0,1.490732849E1
1.541120271E1,-4.943613258E0,1.294860293E1,2.670950807E0,1.411522611E1
1.542114671E1,-6.830278199E0,1.144375181E1,2.128264875E0,1.349598708E1
1.543109071E1,-8.486895550E0,9.683817086E0,2.349106025E0,1.308900334E1
1.544103471E1,-9.749841506E0,8.121917027E0,-2.691449976E-1,1.269241445E1
1.545097871E1,-1.302309763E1,4.136764156E0,-2.186824039E1,2.578631085E1
1.546092271E1,-1.383286566E1,-9.726870720E0,-5.979702800E1,6.214213341E1
1.547086671E1,4.904363238E0,-1.074339454E1,7.519032841E0,1.400032714E1
1.548081071E1,1.734431162E1,-1.008686800E1,2.883850970E1,3.513160533E1
1.549075471E1,1.501708236E1,-1.681120225E1,1.937714408E1,2.972546041E1
1.550069871E1,7.435812929E0,-2.083997009E1,1.273403467E1,2.552942041E1
1.551064271E1,3.536330245E0,-1.917643490E1,7.825880685E0,2.101156100E1
1.552058571E1,4.183958788E0,-1.292005214E1,3.563246441E0,1.404029856E1
1.553053071E1,4.113274429E0,-4.672235209E0,1.454167449E-1,6.226552369E0
1.554047471E1,3.761502135E0,6.575223237E-1,-1.809326743E0,4.225505553E0
1.555041771E1,3.384544128E0,3.826568196E0,-4.236480818E0,6.636680860E0
1.556036171E1,8.646611077E-1,6.971269187E0,-1.101018779E1,1.306026294E1
1.557030571E1,-7.505481918E0,4.736904244E0,-2.584823660E1,2.732950522E1
1.558024971E1,-6.337073160E0,-5.356832480E0,-2.116325797E1,2.273186394E1
1.559019371E1,3.543253056E0,-1.238736378E1,-2.297407867E0,1.308737967E1
1.560013771E1,4.379354316E0,-1.738670159E1,3.870301276E0,1.834271976E1
1.561008171E1,-2.536659377E-1,-1.806635621E1,4.510857319E0,1.862271212E1
1.562002571E1,-2.902045341E0,-1.127680562E1,4.017893186E0,1.231794130E1
1.562996971E1,-2.548655707E0,-3.726972572E0,3.768978385E0,5.881425723E0
1.563991371E1,-1.964870574E0,7.848448598E-1,3.588480685E0,4.165800217E0
1.564985771E1,-2.266917561E0,3.547558361E0,3.914057161E0,5.748384905E0
1.565980171E1,-2.690688376E0,5.164149767E0,4.517990338E0,7.370243106E0
1.566974571E1,-2.678580254E0,6.770302724E0,4.246438626E0,8.428762196E0
1.567968971E1,-2.364809014E0,7.479541331E0,3.671477233E0,8.661154962E0
1.568963371E1,-2.382684830E0,7.477074975E0,3.179145184E0,8.467042062E0
1.569957771E1,-2.526192751E0,7.023686551E0,3.059056238E0,8.066699924E0
1.570952171E1,-3.287430355E0,6.090594894E0,3.010213276E0,7.547445162E0
1.571946571E1,-4.729080085E0,4.706244954E0,2.985782440E0,7.309434779E0
1.572940971E1,-6.226123998E0,3.308339998E0,3.529098701E0,7.884432207E0
1.573935371E1,-6.985634041E0,1.696674871E0,4.165157651E0,8.308208401E0
1.574929771E1,-7.453762711E0,2.136338711E-1,4.197401537E0,8.557008686E0
1.575924171E1,-7.617937909E0,-3.717905295E-1,4.477564443E0,8.844195244E0
1.576918571E1,-6.856101843E0,2.505298018E-2,4.186854914E0,8.033462155E0
1.577912971E1,-5.558440967E0,1.628239059E0,3.806260232E0,6.930731951E0
1.578907371E1,-4.460464261E0,3.432154205E0,3.982842636E0,6.894813947E0
1.579901796E1,-3.329810389E0,4.669709796E0,4.254267463E0,7.140911599E0
1.580896196E1,-2.295331521E0,5.274550461E0,4.274125192E0,7.166419993E0
1.581890596E1,-1.133635367E0,5.110220897E0,3.595696149E0,6.350473806E0
1.582884996E1,-1.990322042E-1,4.430344668E0,2.656146827E0,5.169398772E0
1.583879396E1,-4.668124616E-3,3.653008218E0,1.983424227E0,4.156737001E0
1.584873796E1,-1.947307000E-1,2.623859087E0,1.524149996E0,3.040656140E0
1.585868196E1,-3.285509545E-1,1.480743629E0,1.013221316E0,1.824051770E0
1.586862596E1,-5.830562782E-1,3.306144369E-1,6.030308054E-1,9.016133771E-1
1.587856996E1,-6.657718679E-1,-7.292466098E-1,4.662139991E-1,1.091974492E0
1.588851396E1,-4.652685043E-1,-1.580717568E0,4.177378039E-1,1.699896375E0
1.589845796E1,1.268179214E-1,-2.331127591E0,2.530265629E-1,2.348246382E0
1.590840196E1,8.134775054E-1,-2.890302086E0,1.002154291E-2,3.002614233E0
1.591834596E1,1.414243830E0,-3.034974480E0,-6.857556045E-2,3.349008557E0
1.592828996E1,1.853350138E0,-2.031557776E0,-5.214520606E-1,2.798936580E0
1.593823396E1,2.225039218E0,-2.241504977E0,-1.277582238E1,1.316042483E1
1.594817796E1,3.573149870E0,-4.120157479E0,-2.124009974E1,2.192908877E1
1.595812196E1,5.631441700E0,-4.177306995E0,-1.338764229E1,1.511264356E1
1.596806596E1,5.984189603E0,-4.889941666E0,-5.743885412E0,9.628825178E0
1.597800996E1,5.626125412E0,-5.102910708E0,-3.430187494E0,8.334216885E0
1.598795396E1,5.580950993E0,-4.574503092E0,-1.826367284E0,7.443702707E0
1.599789796E1,5.848331301E0,-3.588045652E0,-1.531032023E-1,6.862979761E0
1.600784196E1,6.476990014E0,-2.621489795E0,9.645549399E-1,7.053649738E0
1.601778596E1,7.467634061E0,-2.201605917E0,1.579750731E0,7.944069452E0
1.602772996E1,8.701880128E0,-2.669271487E0,1.740266156E0,9.266944175E0
1.603767396E1,9.854556953E0,-3.718510482E0,1.564899973E0,1.064840480E1
1.604761796E1,1.088250799E1,-5.010171529E0,1.291451132E0,1.204984004E1
1.605756196E1,1.150097150E1,-6.281971339E0,7.598790032E-1,1.312680180E1
1.606750596E1,1.173287558E1,-7.667685435E0,-5.962622148E-1,1.402887372E1
1.607744996E1,1.082949012E1,-9.581190850E0,-5.147390478E0,1.534837786E1
1.608739396E1,8.284582474E0,-1.244464778E1,-1.639096053E1,2.218484059E1
1.609733796E1,7.911108531E0,-1.352516646E1,-2.172587472E1,2.678673922E1
1.610728196E1,1.091311349E1,-1.185297856E1,-1.515001530E1,2.211587914E1
1.611722596E1,1.094736764E1,-9.249726813E0,-8.182702342E0,1.650330034E1
1.612716996E1,9.643866570E0,-6.209041942E0,-2.905673246E0,1.183213004E1
1.613711396E1,8.795924406E0,-4.117051438E0,-1.795948899E-1,9.713426431E0
1.614705796E1,7.931439300E0,-3.227238532E0,1.336416805E0,8.666533781E0
1.615700196E1,6.942810788E0,-3.550434022E0,2.572077899E0,8.211198944E0
1.616694596E1,5.589464539E0,-4.649036381E0,3.450023296E0,8.047255050E0
1.617688996E1,3.465252954E0,-6.752704359E0,4.103120447E0,8.628012030E0
1.618683396E1,5.550834909E-2,-9.967748523E0,4.893114365E0,1.110412806E1
1.619677796E1,-4.378690365E0,-1.375681209E1,6.476214674E0,1.582290001E1
1.620672196E1,-8.839289111E0,-1.685804547E1,9.411978861E0,2.123469037E1
1.621666596E1,-1.198375270E1,-1.836263112E1,1.003149838E1,2.411280801E1
1.622660996E1,-1.330936795E1,-1.867630734E1,9.092868236E0,2.467030571E1
1.623655396E1,-1.301287903E1,-1.619551033E1,8.457458328E0,2.243118759E1
1.624649796E1,-1.110500858E1,-1.096421230E1,7.576201068E0,1.734744908E1
1.625644196E1,-9.431204506E0,-4.240911838E0,2.711963178E0,1.069054236E1
1.626638596E1,-8.407761673E0,1.604512228E0,-5.253954813E0,1.004335387E1
1.627632996E1,-8.224647928E0,5.458900892E0,-5.777294648E0,1.143772556E1
1.628627396E1,-8.841509299E0,6.724226664E0,-4.228740274E0,1.188569540E1
1.629621796E1,-9.482803261E0,7.235013696E0,-1.163906987E0,1.198430892E1
1.630616196E1,-8.320717682E0,8.015505888E0,7.578365707E-1,1.157829839E1
1.631610596E1,-6.102999762E0,8.850880047E0,1.617272022E0,1.087199395E1
1.632604996E1,-4.829257215E0,9.586481996E0,2.189664148E0,1.095522667E1
1.633599396E1,-4.030690694E0,1.019668105E1,2.698205849E0,1.129154935E1
1.634593796E1,-3.388325230E0,1.071284986E1,2.743195496E0,1.156594231E1
1.635588196E1,-2.736565922E0,1.113271970E1,2.917739561E0,1.182960038E1
1.636582596E1,-2.071528465E0,1.160773347E1,3.214180530E0,1.222136093E1
1.637576896E1,-1.368761263E0,1.209603211E1,3.486359063E0,1.266263005E1
1.638571396E1,-8.982910761E-1,1.252409507E1,3.785770419E0,1.311456983E1
1.639565696E1,-8.827038610E-1,1.302581424E1,4.053301585E0,1.367041537E1
1.640560096E1,-1.455436880E0,1.377419236E1,4.823647689E0,1.466677363E1
1.641554496E1,-1.730256016E0,1.382889657E1,3.930858550E0,1.448046322E1
1.642548896E1,-2.856240301E0,1.228250800E1,2.584634210E0,1.287239082E1
1.643543296E1,-4.849984717E0,1.049682214E1,1.464524038E0,1.165549044E1
1.644537696E1,-6.331040003E0,9.269417896E0,6.955765148E-1,1.124668851E1
1.645532096E1,-7.650367736E0,8.029976578E0,-7.455913317E-1,1.111595955E1
1.646526496E1,-1.050568885E1,5.599477311E0,-1.105532830E1,1.624635123E1
1.647520896E1,-1.462385477E1,-2.444531999E0,-4.290784143E1,4.539730963E1
1.648515296E1,-5.258366538E0,-1.142416598E1,-2.508496212E1,2.806095706E1
1.649509696E1,1.290234794E1,-7.870142938E0,2.410518161E1,2.845117771E1
1.650504096E1,1.812321570E1,-1.122010400E1,2.257586341E1,3.104853120E1
1.651498496E1,1.259708704E1,-1.700985439E1,1.585998306E1,2.644921191E1
1.652492896E1,4.925186343E0,-1.863115865E1,1.047477463E1,2.193395625E1
1.653487296E1,3.574548232E0,-1.535631326E1,5.825972718E0,1.680879859E1
1.654481696E1,3.904965033E0,-8.037345239E0,1.658745153E0,9.088405024E0
1.655476096E1,3.781301099E0,-1.433246697E0,-7.648391962E-1,4.115508850E0
1.656470496E1,3.056158358E0,2.598914865E0,-3.002332984E0,5.010834833E0
