"Time (s)","Linear Acceleration x (m/s^2)","Linear Acceleration y (m/s^2)","Linear Acceleration z (m/s^2)","Absolute acceleration (m/s^2)"
3.747958224E-3,1.272351202E-1,-1.511739135E-1,5.211038589E-3,1.976600184E-1
1.369295828E-2,1.575160959E-1,-2.522225708E-1,-4.062758725E-2,3.001302160E-1
2.363795834E-2,1.358410522E-1,-2.851915115E-1,-8.577978652E-2,3.273303553E-1
3.358295839E-2,1.288524601E-1,-2.324806166E-1,-1.257853031E-1,2.940614494E-1
4.352895822E-2,8.389994323E-2,-1.550289828E-1,-1.414406018E-1,2.260058181E-1
5.347395828E-2,6.433077425E-2,-1.509634137E-2,-1.485789557E-1,1.626101292E-1
6.341895834E-2,3.260699809E-2,6.205649972E-2,-1.811222192E-1,1.942150451E-1
7.336395839E-2,-9.024475694E-2,6.310315132E-2,-1.938539100E-1,2.229472186E-1
8.330895798E-2,-1.952402848E-1,1.137341917E-1,-2.046092419E-1,3.048264704E-1
9.325395804E-2,-3.096053910E-1,2.095940298E-1,-2.169082753E-1,4.322433983E-1
1.031989581E-1,-3.836144766E-1,2.220567852E-1,-2.246593444E-1,4.969316890E-1
1.131449584E-1,-3.639684168E-1,1.037518251E-1,-2.245915532E-1,4.400895538E-1
1.230899580E-1,-2.735432732E-1,-2.386482596E-2,-2.261562681E-1,3.557275781E-1
1.330349580E-1,-9.553502530E-2,-4.786413789E-2,-2.541387033E-1,2.756889503E-1
1.429799581E-1,6.552039027E-2,-4.878858268E-2,-3.074676124E-1,3.181345314E-1
1.529249582E-1,1.402390355E-1,-3.858869970E-2,-3.948788452E-1,4.208151343E-1
1.628699582E-1,1.468019503E-1,1.766209960E-2,-4.541777980E-1,4.776402774E-1
1.728149583E-1,1.099548438E-1,6.491695762E-2,-4.778391774E-1,4.946054575E-1
1.827609581E-1,-2.470770210E-2,1.547863233E-1,-4.474196227E-1,4.740818444E-1
1.927059582E-1,-1.152822420E-1,2.571406639E-1,-3.078571101E-1,4.173575404E-1
2.026509582E-1,-1.255280256E-1,2.782725012E-1,-9.992774606E-2,3.212139857E-1
2.125959583E-1,-8.658586174E-2,1.977423084E-1,1.894837375E-1,2.872337354E-1
2.225409583E-1,-7.287998825E-2,1.548734468E-1,5.101672633E-1,5.381151492E-1
2.324859584E-1,-5.796608001E-2,2.519360572E-1,7.666693747E-1,8.090820561E-1
2.424319582E-1,-4.000284880E-2,3.839743727E-1,8.986772847E-1,9.780886508E-1
2.523769583E-1,-3.579256117E-2,3.974498659E-1,9.355802321E-1,1.017132181E0
2.623219583E-1,-2.611220330E-2,2.302844024E-1,8.455260944E-1,8.767138242E-1
2.722669584E-1,2.499099970E-2,-5.657005727E-2,6.408150744E-1,6.437924208E-1
2.822119580E-1,7.265896350E-2,-3.154777497E-1,3.378193760E-1,4.678968544E-1
2.921569580E-1,1.076212201E-1,-4.882074237E-1,-3.856001180E-2,5.014136915E-1
3.021029583E-1,9.652349710E-2,-4.322712046E-1,-4.682508401E-1,6.445417202E-1
3.120479584E-1,1.376598287E-1,-2.292324883E-1,-9.470817053E-1,9.841044247E-1
3.219929580E-1,2.093700814E-1,-2.041672289E-2,-1.345721480E0,1.362064233E0
3.319379580E-1,2.788130763E-1,3.372849405E-2,-1.647344252E0,1.671112631E0
3.418829581E-1,3.218839592E-1,-4.916689754E-2,-1.817809299E0,1.846742352E0
3.518279581E-1,3.744934049E-1,-1.772881633E-1,-1.829278028E0,1.875615767E0
3.617729582E-1,4.533045164E-1,-2.393738991E-1,-1.624790372E0,1.703739593E0
3.717189580E-1,5.835863283E-1,-1.916904402E-1,-1.392113289E0,1.521610212E0
3.816639581E-1,7.666778532E-1,-5.166015029E-2,-1.161168151E0,1.392399072E0
3.916089581E-1,8.904683787E-1,1.215256065E-1,-1.086666437E0,1.410158272E0
4.015539582E-1,8.545775843E-1,1.001587111E-1,-1.275705750E0,1.538752669E0
4.114989582E-1,5.507001257E-1,-2.196144032E-1,-1.544230943E0,1.654131288E0
4.214439583E-1,-2.897704661E-2,-6.204655945E-1,-1.680445340E0,1.791567404E0
4.313899581E-1,-6.306081748E-1,-7.538136864E-1,-1.633920214E0,1.906724157E0
4.413349582E-1,-1.155033837E0,-6.228062350E-1,-1.500794317E0,1.993583294E0
4.512799582E-1,-1.699756646E0,-4.133116078E-1,-1.279658468E0,2.167377433E0
4.612249583E-1,-2.292315820E0,-1.364798605E-1,-9.332273126E-1,2.478760131E0
4.711699584E-1,-2.836772873E0,2.106740105E-1,-4.949714828E-1,2.887327595E0
4.811149579E-1,-3.109676461E0,4.530095243E-1,-6.623258114E-2,3.143197747E0
4.910599580E-1,-2.989422331E0,6.081349862E-1,1.685238449E-1,3.055302657E0
5.010059583E-1,-2.514847399E0,6.237014437E-1,4.893410526E-2,2.591496764E0
5.109509584E-1,-1.888436940E0,4.647910792E-1,-3.727973469E-1,1.980202688E0
5.208959579E-1,-1.344010584E0,2.265345830E-1,-8.636009344E-1,1.613533062E0
5.308409580E-1,-8.327247852E-1,-1.024139822E-2,-1.255777270E0,1.506821823E0
5.407859581E-1,-3.791925198E-1,-2.267690563E-1,-1.511547346E0,1.574797305E0
5.507309581E-1,1.805357069E-2,-4.131297594E-1,-1.593644593E0,1.646421944E0
5.606769579E-1,3.872660628E-1,-4.687215775E-1,-1.593906402E0,1.705934506E0
5.706219580E-1,6.892946318E-1,-3.548143083E-1,-1.523523613E0,1.709428116E0
5.805669581E-1,8.481801456E-1,-1.171887267E-1,-1.440620620E0,1.675867098E0
5.905119581E-1,7.948541236E-1,1.368219227E-1,-1.397031966E0,1.613137202E0
6.004569582E-1,5.591815120E-1,3.184218228E-1,-1.371630638E0,1.515073275E0
6.104019582E-1,1.210557827E-1,4.430049384E-1,-1.423700094E0,1.495937778E0
6.203469583E-1,-3.374419382E-1,4.875379175E-1,-1.476983285E0,1.591552672E0
6.302933330E-1,-8.097753409E-1,4.813445467E-1,-1.526415500E0,1.793703697E0
6.402383330E-1,-1.199805675E0,4.301644528E-1,-1.498678794E0,1.967387415E0
6.501833331E-1,-1.536406491E0,3.323697710E-1,-1.496808854E0,2.170587781E0
6.601283331E-1,-1.748678546E0,2.809353232E-1,-1.500609545E0,2.321342352E0
6.700733332E-1,-1.867061274E0,2.023048908E-1,-1.443182724E0,2.368463942E0
6.800183333E-1,-1.877160585E0,1.952660125E-1,-1.280819579E0,2.280868139E0
6.899643331E-1,-1.815794056E0,2.115072387E-1,-1.040552956E0,2.103471849E0
6.999093331E-1,-1.784554722E0,3.277586567E-1,-8.783359909E-1,2.015821273E0
7.098543332E-1,-1.661609704E0,4.518845201E-1,-7.726503454E-1,1.887361911E0
7.197993333E-1,-1.527799390E0,5.265903014E-1,-8.129918942E-1,1.808984284E0
7.297443333E-1,-1.396705984E0,5.492722356E-1,-9.047044484E-1,1.752420536E0
7.396893334E-1,-1.245375658E0,5.578723204E-1,-9.718274143E-1,1.675300146E0
7.496353332E-1,-1.030828744E0,5.978093880E-1,-9.272429797E-1,1.509888574E0
7.595803333E-1,-7.475168198E-1,6.211584896E-1,-7.428763233E-1,1.223308831E0
7.695253333E-1,-4.130952609E-1,6.649962348E-1,-4.805591194E-1,9.185884574E-1
7.794703334E-1,-9.083444864E-2,7.659144992E-1,-2.347559144E-1,8.062172514E-1
7.894153330E-1,2.326431692E-1,9.234975457E-1,-9.131275088E-2,9.567176070E-1
7.993603330E-1,6.580225530E-1,1.056833943E0,-4.633567572E-2,1.245808436E0
8.093053331E-1,1.124301749E0,1.115587935E0,-2.826544046E-3,1.583855692E0
8.192513334E-1,1.616888444E0,1.141761827E0,2.115814984E-3,1.979381921E0
8.291963330E-1,2.016289526E0,1.222915918E0,4.841523796E-2,2.358662933E0
8.391413330E-1,2.328286428E0,1.367584219E0,8.174962968E-2,2.701460215E0
8.490863331E-1,2.525451909E0,1.517565300E0,7.560069770E-2,2.947308476E0
8.590313331E-1,2.644608224E0,1.566558536E0,8.214928687E-2,3.074866958E0
8.689763332E-1,2.621008569E0,1.774260406E0,-7.127083451E-2,3.165875146E0
8.789223330E-1,2.567571450E0,1.844386649E0,-1.284913945E-1,3.163968283E0
8.888673331E-1,2.521464108E0,1.845819216E0,-7.700666070E-2,3.125821468E0
8.988123331E-1,2.504192602E0,1.770252140E0,8.596722633E-2,3.067924965E0
9.087573332E-1,2.581781646E0,1.679354834E0,2.837969506E-1,3.092954871E0
9.187023332E-1,2.674940363E0,1.619229670E0,4.636654902E-1,3.161043554E0
9.286473333E-1,2.653122062E0,1.597727119E0,6.148967063E-1,3.157512721E0
9.385933331E-1,2.360169541E0,1.474456118E0,5.807782030E-1,2.842837391E0
9.485383332E-1,1.577709468E0,1.111696613E0,1.100904992E-1,1.933172637E0
9.584833332E-1,2.419022352E-1,2.258171296E-1,-8.600552559E-1,9.215232556E-1
9.684283333E-1,-1.553485916E0,-1.283468513E0,-1.586457195E0,2.564655210E0
9.783733333E-1,-3.341310401E0,-2.688088996E0,-1.111233222E0,4.430013196E0
9.883183334E-1,-4.418363431E0,-3.213492898E0,3.435414612E-1,5.474165941E0
9.982643332E-1,-4.081364419E0,-2.388206356E0,1.704582938E0,5.026596076E0
1.008209333E0,-3.092769529E0,-1.255394277E0,3.036662571E0,4.512489083E0
1.018154333E0,-2.055738351E0,-4.355684495E-1,3.809606009E0,4.350733040E0
1.028099333E0,-1.474263160E0,-1.101709569E0,4.052475081E0,4.450816793E0
1.038044333E0,-2.435629029E0,-3.721809481E0,2.575886775E0,5.139975414E0
1.047989333E0,-3.673776358E0,-7.880412987E0,-3.038306808E-1,8.699991648E0
1.057934333E0,-3.829812816E0,-1.003968448E1,-3.026994785E0,1.116357595E1
1.067880333E0,-2.409473556E0,-6.334554180E0,-3.232305729E0,7.508657657E0
1.077825333E0,-3.531864434E-2,-1.334938045E0,-1.409977556E0,1.941994773E0
1.087770333E0,1.817151195E0,2.364080744E0,-2.859741613E-2,2.981901078E0
1.097715333E0,2.749197662E0,5.112855653E0,9.418250585E-1,5.881021608E0
1.107660333E0,3.148737616E0,6.309791806E0,2.357108670E0,7.435319932E0
1.117605333E0,3.079684045E0,6.298577431E0,3.829756683E0,7.988965373E0
1.127551333E0,2.328057218E0,4.878013930E0,4.770301201E0,7.209066782E0
1.137496333E0,1.341845068E0,2.409277967E0,5.327213409E0,5.998697460E0
1.147441333E0,3.417814493E-1,-2.203511524E-1,5.323812668E0,5.339321166E0
1.157386333E0,-3.463726830E-1,-2.300340831E0,5.092452378E0,5.598626010E0
1.167331333E0,-5.403900227E-1,-3.513080839E0,5.039364338E0,6.166761815E0
1.177276333E0,-2.700331897E-1,-3.439226997E0,4.828023745E0,5.933886883E0
1.187222333E0,6.455951732E-1,-2.292148882E0,4.252504528E0,4.873862368E0
1.197167333E0,1.737568251E0,-9.029948688E-1,3.690570731E0,4.177900846E0
1.207112333E0,2.434415439E0,-8.854321718E-2,3.208556678E0,4.028530053E0
1.217057333E0,2.709678378E0,9.616681695E-2,2.636886098E0,3.782165156E0
1.227002333E0,2.669053678E0,-1.818717957E-2,1.972006223E0,3.318582055E0
1.236947333E0,2.533247125E0,-2.911036313E-1,1.523989052E0,2.970627029E0
1.246893333E0,1.962947717E0,-4.540895051E-1,8.989123428E-1,2.206219485E0
1.256838333E0,1.155719715E0,-5.546966976E-1,-1.374364650E-1,1.289288668E0
1.266783333E0,5.776783016E-1,-8.517019236E-1,-1.627081311E0,1.925227773E0
1.276728333E0,2.102459943E-1,-1.379537097E0,-3.429628208E0,3.702657913E0
1.286673333E0,3.338333291E-1,-1.855332636E0,-4.420278686E0,4.805472666E0
1.296618333E0,9.672452438E-1,-2.004899150E0,-4.144776596E0,4.704716463E0
1.306564333E0,1.743311971E0,-1.850066634E0,-3.111425071E0,4.017816465E0
1.316509333E0,2.330460716E0,-1.554451291E0,-1.944762876E0,3.410200670E0
1.326454333E0,2.522884104E0,-1.245865070E0,-1.016582880E0,2.991749443E0
1.336399333E0,2.297211986E0,-1.017745306E0,-3.939480050E-1,2.543262363E0
1.346344333E0,1.862908874E0,-8.256087238E-1,8.064128995E-2,2.039255318E0
1.356289333E0,1.338859187E0,-6.490619874E-1,3.831563473E-1,1.536435542E0
1.366234333E0,7.690430519E-1,-2.235022169E-1,4.299773419E-1,9.089889830E-1
1.376180333E0,2.379357764E-1,2.712347925E-1,3.444711685E-1,4.988407885E-1
1.386125333E0,-4.496201858E-1,5.695036018E-1,1.196796405E-1,7.354018495E-1
1.396070333E0,-1.314897298E0,6.034010804E-1,-2.940564386E-1,1.476318718E0
1.406015333E0,-2.317113276E0,4.198885560E-1,-6.909982181E-1,2.454139131E0
1.415960333E0,-3.165070058E0,1.565738171E-1,-9.363029480E-1,3.304367874E0
1.425905333E0,-3.450310102E0,-1.530923849E-1,-8.483713496E-1,3.556376108E0
1.435851333E0,-3.000574726E0,-4.232401800E-1,-2.248079002E-1,3.038604865E0
1.445796333E0,-2.091978517E0,-5.890742326E-1,4.999018550E-1,2.230086194E0
1.455741333E0,-9.911609405E-1,-2.494544989E-1,1.280845453E0,1.638655739E0
1.465686333E0,1.520097730E-1,2.332623893E-1,1.865648879E0,1.886309639E0
1.475631333E0,1.178921759E0,5.513152528E-1,2.239532712E0,2.590233925E0
1.485576333E0,1.899514490E0,7.064179105E-1,2.575462267E0,3.277222521E0
1.495522333E0,2.247075912E0,7.773300183E-1,2.612763995E0,3.532722435E0
1.505467333E0,2.496169930E0,6.993141282E-1,2.480523366E0,3.587882487E0
1.515412333E0,2.745471817E0,4.104493958E-1,2.403043081E0,3.671607311E0
1.525357333E0,2.872015796E0,-5.261383116E-2,2.346528572E0,3.709102221E0
1.535302333E0,2.863492602E0,-7.351014268E-1,2.184688168E0,3.675979649E0
1.545247333E0,2.736534348E0,-1.269280245E0,1.944029635E0,3.588724536E0
1.555193333E0,2.727201022E0,-1.651170670E0,1.835478415E0,3.678718664E0
1.565138333E0,2.731387044E0,-1.812637437E0,1.728263869E0,3.705809717E0
1.575083333E0,2.724627078E0,-1.654106557E0,1.552735133E0,3.545510909E0
1.585028333E0,2.741094299E0,-1.407649925E0,1.361655142E0,3.368854552E0
1.594973333E0,2.766179731E0,-1.169262452E0,1.150736718E0,3.216072135E0
1.604918333E0,2.618325574E0,-9.020675004E-1,8.955560410E-1,2.910562696E0
1.614864333E0,2.282378769E0,-6.644799256E-1,2.897388911E-1,2.394730682E0
1.624809333E0,1.676543785E0,-4.318145370E-1,-2.456391724E-1,1.748599857E0
1.634754250E0,8.853707761E-1,-2.110073018E-1,-4.392358232E-1,1.010610509E0
1.644699250E0,1.176614740E-1,-5.979362726E-2,-4.186968935E-1,4.390063655E-1
1.654644250E0,-4.479651314E-1,3.722512901E-2,-1.198491915E-1,4.652120999E-1
1.664589250E0,-9.139621988E-1,1.815174544E-1,2.669826972E-1,9.693065809E-1
1.674535250E0,-1.087875057E0,2.664307201E-1,6.316138959E-1,1.285843529E0
1.684480250E0,-1.194982307E0,2.624622148E-1,8.436783743E-1,1.486156898E0
1.694425250E0,-1.395519584E0,2.192203009E-1,9.255838323E-1,1.688856975E0
1.704370250E0,-1.615199184E0,1.011439669E-1,9.327607048E-1,1.867924259E0
1.714315250E0,-1.774221815E0,-3.404424369E-2,9.354001379E-1,2.005989899E0
1.724260250E0,-1.997304494E0,1.193527812E-1,7.526851737E-1,2.137757072E0
1.734206250E0,-1.833088074E0,2.921134454E-1,6.645629561E-1,1.971594805E0
1.744151250E0,-1.356432994E0,2.116388011E-1,5.350635016E-1,1.473429469E0
1.754096250E0,-8.350893992E-1,-1.284130418E-1,4.442585083E-1,9.545835931E-1
1.764041250E0,-2.555537295E-1,-4.960660815E-1,4.614727477E-1,7.241176443E-1
1.773986250E0,4.584293085E-1,-8.068812615E-1,6.284762800E-1,1.120802050E0
1.783931250E0,1.256837955E0,-1.070835686E0,8.126015925E-1,1.840285863E0
1.793877250E0,2.058903449E0,-1.142965769E0,1.040597468E0,2.574547970E0
1.803822250E0,2.674329621E0,-1.071802815E0,1.365003258E0,3.188108231E0
1.813767250E0,3.143649661E0,-9.368783140E-1,1.748281227E0,3.717090450E0
1.823712250E0,3.499609731E0,-7.944728851E-1,2.058159099E0,4.136964384E0
1.833657250E0,3.724236368E0,-6.707341075E-1,2.310724901E0,4.433877573E0
1.843602250E0,3.706818389E0,-6.132746887E-1,2.330921184E0,4.421515801E0
1.853548250E0,3.505276268E0,-5.883684736E-1,2.122421168E0,4.139783906E0
1.863493250E0,3.228229343E0,-6.324132103E-1,1.694569874E0,3.700402440E0
1.873438250E0,2.948583038E0,-7.981554615E-1,1.065556819E0,3.235213349E0
1.883383250E0,2.494806067E0,-8.354776543E-1,5.318838588E-1,2.684209504E0
1.893328250E0,1.995432800E0,-8.435111439E-1,2.507018562E-1,2.180851790E0
1.903273250E0,1.526845709E0,-7.894197214E-1,2.210528183E-1,1.733004808E0
1.913219250E0,1.144043703E0,-7.080387586E-1,3.853387474E-1,1.399514497E0
1.923164250E0,7.060012963E-1,-5.542967480E-1,7.160080019E-1,1.148194310E0
1.933109250E0,1.844118261E-1,-4.253831846E-1,1.340837885E0,1.418733523E0
1.943054250E0,-3.585650048E-1,-1.103802288E-1,2.057286694E0,2.091215245E0
1.952999250E0,-7.355645263E-1,2.402328551E-1,2.766040567E0,2.872237354E0
1.962944250E0,-9.179418138E-1,5.113045102E-1,3.308911271E0,3.471734909E0
1.972890250E0,-9.779193360E-1,6.735781932E-1,3.530455256E0,3.724801756E0
1.982835250E0,-7.838338763E-1,7.494779760E-1,3.469219705E0,3.634776216E0
1.992780250E0,-3.576420218E-1,8.149334621E-1,2.896372665E0,3.030016333E0
2.002725250E0,1.614749533E-1,6.176571769E-1,2.099736164E0,2.194644962E0
2.012670250E0,4.081578720E-1,1.401899189E-1,1.537284597E0,1.596712245E0
2.022615250E0,2.440621966E-1,-4.844751459E-1,1.302398436E0,1.410859386E0
2.032560250E0,-1.557961375E-1,-1.383192192E0,1.049244403E0,1.743102663E0
2.042506250E0,-6.054452670E-1,-2.619788840E0,5.298814067E-1,2.740553200E0
2.052451250E0,-1.034666564E0,-4.033950809E0,-6.174387833E-1,4.210050437E0
2.062396250E0,-1.540056031E0,-5.217316160E0,-2.477331663E0,5.977401832E0
2.072341250E0,-1.721841872E0,-5.609283092E0,-3.852150350E0,7.019106678E0
2.082286250E0,-1.618412229E0,-4.979958381E0,-4.106519433E0,6.654528193E0
2.092231250E0,-1.604902822E0,-3.845100362E0,-2.702857894E0,4.966482724E0
2.102177250E0,-1.667820616E0,-2.737288638E0,-4.047115231E-1,3.230815085E0
2.112122250E0,-1.547586660E0,-1.722233051E0,1.411305312E0,2.711621994E0
2.122067250E0,-9.067403027E-1,-9.145407808E-1,1.963748201E0,2.348375994E0
2.132012250E0,9.361743093E-2,-1.562633300E-1,1.283222638E0,1.296087493E0
2.141957250E0,1.128713180E0,3.093580538E-1,5.331701732E-1,1.286066205E0
2.151903250E0,1.937594774E0,5.898647761E-1,4.770690626E-1,2.080819275E0
2.161848250E0,2.579151276E0,7.976473385E-1,6.230477250E-1,2.770640909E0
2.171793250E0,2.857919036E0,1.056767285E0,6.703242177E-1,3.119902702E0
2.181738250E0,2.992196835E0,1.303715082E0,3.938234228E-1,3.287554076E0
2.191683250E0,2.727327322E0,1.384304917E0,-1.468083823E-1,3.062052763E0
2.201628250E0,2.339380935E0,1.336796874E0,6.677344859E-2,2.695215713E0
2.211574250E0,1.932117687E0,1.091044832E0,4.510641557E-1,2.264269520E0
2.221519250E0,1.695405441E0,8.313992214E-1,1.676431811E-1,1.895713193E0
2.231464250E0,1.650200909E0,6.226577157E-1,-2.114926207E-1,1.776399392E0
2.241409250E0,1.525774499E0,5.824189317E-1,-2.755634862E-1,1.656241187E0
2.251354250E0,1.304690983E0,7.844279534E-1,2.244693464E-1,1.538808715E0
2.261299250E0,1.037589879E0,1.229105195E0,1.136652530E0,1.969586584E0
2.271245250E0,7.829050460E-1,1.728938053E0,2.151136844E0,2.868720416E0
2.281190250E0,5.676465261E-1,2.211694703E0,3.071352348E0,3.827142704E0
2.291135250E0,3.847190157E-1,2.573833233E0,3.696010688E0,4.520301012E0
2.301080250E0,2.310749459E-1,2.716595342E0,4.173660379E0,4.985250931E0
2.311025250E0,-6.549349308E-2,2.583958856E0,4.370868252E0,5.077954514E0
2.320970250E0,-3.617385811E-1,2.291160117E0,4.261246992E0,4.851648731E0
2.330916250E0,-6.780223694E-1,1.831903428E0,3.931331882E0,4.389869573E0
2.340861250E0,-9.471901712E-1,1.395611678E0,3.292581167E0,3.699458328E0
2.350806250E0,-1.249589746E0,9.387424064E-1,2.319053967E0,2.796555585E0
2.360751250E0,-1.513010319E0,1.969236982E-1,1.349513984E0,2.036950456E0
2.370696250E0,-2.124252077E0,-5.483992463E-1,5.852058609E-1,2.270606642E0
2.380641250E0,-2.720351593E0,-8.087564635E-1,-3.421907544E-2,2.838233739E0
2.390587250E0,-3.079350169E0,-6.525054127E-1,-3.053601663E-1,3.162499899E0
2.400532250E0,-3.280216937E0,-1.202766412E-1,-6.443350983E-1,3.345064625E0
2.410477250E0,-3.109810070E0,6.801820385E-1,-9.553133424E-1,3.323580879E0
2.420422250E0,-2.676654181E0,1.537580904E0,-1.280665358E0,3.341965949E0
2.430367250E0,-2.210895973E0,2.121730612E0,-1.653963300E0,3.482153987E0
2.440312250E0,-1.802974036E0,2.322439798E0,-2.228131810E0,3.689039625E0
2.450258250E0,-1.347996631E0,1.986219050E0,-3.103014436E0,3.923118609E0
2.460203250E0,-1.115745956E0,9.738917738E-1,-4.247001713E0,4.497819224E0
2.470148250E0,-1.292401305E0,-5.868908823E-1,-5.372647444E0,5.556985028E0
2.480093250E0,-1.652220099E0,-2.144580946E0,-6.168981498E0,6.736868071E0
2.490038250E0,-1.982288844E0,-3.119372606E0,-6.033524315E0,7.075547342E0
2.499983250E0,-2.048876351E0,-3.403387658E0,-5.051567477E0,6.426451262E0
2.509929250E0,-2.372268015E0,-2.624334465E0,-4.251848470E0,5.531094135E0
2.519874250E0,-2.739983912E0,-1.193520795E0,-3.699498260E0,4.755869122E0
2.529819250E0,-2.887453907E0,1.075799972E-1,-3.747982203E0,4.732476531E0
2.539764250E0,-3.494670588E0,4.184290910E-1,-4.613777670E0,5.802994900E0
2.549709250E0,-5.069603798E0,-4.407549298E-1,-5.460571441E0,7.464113346E0
2.559654250E0,-6.732802191E0,-1.590429794E0,-6.647608259E0,9.594310180E0
2.569600250E0,-8.171174557E0,-2.632419410E0,-8.228311794E0,1.189129264E1
2.579545250E0,-9.058077888E0,-3.660106738E0,-9.162396893E0,1.339382967E1
2.589490250E0,-9.047879174E0,-4.098483020E0,-8.532480444E0,1.309446078E1
2.599435250E0,-7.888051790E0,-3.579479481E0,-6.964392861E0,1.111471108E1
2.609380250E0,-6.187044716E0,-2.630070584E0,-5.238260302E0,8.522685292E0
2.619325250E0,-4.515885925E0,-2.159182613E0,-4.003615454E0,6.409698273E0
2.629271208E0,-2.929792426E0,-2.097966943E0,-3.237143716E0,4.843990957E0
2.639216208E0,-1.286930211E0,-2.229219977E0,-2.669842760E0,3.708594267E0
2.649161208E0,3.519656910E-1,-2.316175091E0,-2.298401309E0,3.281949950E0
2.659106208E0,1.618760284E0,-2.247510068E0,-2.145681392E0,3.503660229E0
2.669051208E0,1.810279840E0,-1.829212539E0,-1.892206348E0,3.194303754E0
2.678996208E0,2.088840901E0,-1.195831615E0,-1.373626732E0,2.771302935E0
2.688942208E0,2.581315038E0,-6.438608891E-1,-9.344259187E-1,2.819733315E0
2.698887208E0,3.197320669E0,-1.910396451E-1,-7.386261284E-1,3.287084447E0
2.708832208E0,3.797068116E0,-5.412826002E-2,-1.063081108E0,3.943449961E0
2.718777208E0,4.186318432E0,-2.063459015E-1,-1.680040712E0,4.515570555E0
2.728722208E0,3.893860001E0,-5.360060728E-1,-2.463841259E0,4.638961303E0
2.738667208E0,2.211152812E0,-2.059319186E-1,-3.729320229E0,4.340441692E0
2.748613208E0,2.593398017E-1,-6.579228580E-2,-4.756719289E0,4.764238045E0
2.758558208E0,-1.540881219E0,-1.846112162E-1,-5.660228713E0,5.869121341E0
2.768503208E0,-3.068264433E0,-3.238316667E-1,-6.143197031E0,6.874444221E0
2.778448208E0,-4.197863759E0,-4.316794664E-1,-5.556114360E0,6.977020430E0
2.788393208E0,-4.714430179E0,-3.904782307E-1,-4.170608425E0,6.306528347E0
2.798338208E0,-4.670632487E0,-1.402419591E-1,-2.443484763E0,5.273053520E0
2.808284208E0,-4.343816986E0,1.978580832E-1,-9.230485526E-1,4.445212308E0
2.818229208E0,-3.933150659E0,5.736095166E-1,-1.190025330E-2,3.974775918E0
2.828174208E0,-3.570552829E0,7.800138903E-1,3.076709859E-1,3.667687365E0
2.838119208E0,-3.226979501E0,7.431781858E-1,1.840774385E-1,3.316563736E0
2.848064208E0,-2.931828134E0,5.742380923E-1,-2.661924461E-1,2.999370603E0
2.858009208E0,-2.631150857E0,4.787729412E-1,-6.377159040E-1,2.749338090E0
2.867955208E0,-2.454597689E0,4.335593462E-1,-7.896432312E-1,2.614681616E0
2.877900208E0,-2.382041928E0,5.038200742E-1,-6.708871584E-1,2.525479755E0
2.887845208E0,-2.135849884E0,6.251082838E-1,-4.351658687E-1,2.267594414E0
2.897790208E0,-2.103594888E0,7.058630097E-1,-2.999368738E-1,2.239043584E0
2.907735208E0,-2.066303393E0,8.431433541E-1,-1.327339880E-1,2.235647275E0
2.917680208E0,-2.041980438E0,9.089707232E-1,1.946926931E-1,2.243616974E0
2.927626208E0,-2.140655710E0,9.562571561E-1,4.017268118E-1,2.378701126E0
2.937571208E0,-2.098283277E0,1.034740824E0,4.065919876E-1,2.374615406E0
2.947516208E0,-2.054618025E0,1.106085625E0,1.253324363E-1,2.336790290E0
2.957461208E0,-1.975727099E0,1.145199990E0,-3.501602170E-1,2.310323086E0
2.967406208E0,-1.696176104E0,1.105383959E0,-5.964475715E-1,2.110601047E0
2.977352208E0,-1.120395516E0,1.126362015E0,-4.812284794E-1,1.659987455E0
2.987297208E0,-2.721411109E-1,1.238668317E0,6.228454113E-2,1.269739874E0
2.997242208E0,9.598251271E-1,1.374091585E0,1.121514966E0,2.016726996E0
3.007187208E0,2.307030922E0,1.411830685E0,2.213725733E0,3.495173698E0
3.017132208E0,3.578338104E0,1.404152121E0,2.959312094E0,4.851151909E0
3.027077208E0,4.676401350E0,1.429005711E0,3.427777856E0,5.971636956E0
3.037023208E0,5.474674925E0,1.507986392E0,3.663922338E0,6.757989005E0
3.046968208E0,6.182380393E0,1.654963759E0,3.156146623E0,7.135964817E0
3.056913208E0,7.043044928E0,1.730730225E0,1.937210612E0,7.506843140E0
3.066858208E0,7.809300905E0,1.561639273E0,7.741783690E-1,8.001452992E0
3.076803208E0,8.276227972E0,1.044476438E0,-2.506058156E-1,8.345638606E0
3.086748208E0,8.493970681E0,2.646859109E-1,-9.617848215E-1,8.552346264E0
3.096694208E0,8.612461583E0,-5.429753691E-1,-1.572128886E0,8.771596548E0
3.106639208E0,8.425358284E0,-1.159240909E0,-2.614090143E0,8.897413611E0
3.116584208E0,7.316086510E0,-1.300016134E0,-3.937326448E0,8.409381864E0
3.126529208E0,4.972993762E0,-6.638379014E-1,-3.827176307E0,6.310200172E0
3.136474208E0,1.536305042E0,3.996799940E-1,-1.456390269E0,2.154309610E0
3.146419208E0,-1.562363743E0,2.821649927E-1,2.936904687E0,3.338563567E0
3.156365208E0,-3.132099071E0,-2.446931112E-1,7.724888746E0,8.339294061E0
3.166310208E0,-4.013114549E0,-4.017464000E-1,9.748336433E0,1.054971809E1
3.176255208E0,-3.234763314E0,-9.098682708E-1,8.362500715E0,9.012378830E0
3.186200208E0,-3.312586246E0,-6.750090069E-1,4.867399187E0,5.926250049E0
3.196145208E0,-5.152515562E0,3.423708487E-1,1.005827512E0,5.260924196E0
3.206091208E0,-6.978083532E0,6.944024670E-1,-2.263660370E0,7.368853563E0
3.216036208E0,-8.008778082E0,-1.069063979E0,-3.416798247E0,8.772567151E0
3.225981208E0,-8.258733103E0,-6.414780902E0,-5.655702968E0,1.188877885E1
3.235926208E0,-7.558621414E0,-1.478669973E1,-8.210590053E0,1.852546991E1
3.245871208E0,-5.504799196E0,-1.975897194E1,-5.698001726E0,2.128818945E1
3.255816208E0,-3.413521760E0,-1.382013744E1,-3.441381696E-1,1.423961940E1
3.265762208E0,7.751127541E-2,-4.575861400E0,4.143888696E0,6.173842327E0
3.275707208E0,3.378883731E0,3.498190320E-1,6.254009954E0,7.117012655E0
3.285652208E0,4.813750691E0,3.193186687E0,6.530026599E0,8.718364774E0
3.295597208E0,4.959465060E0,5.482994928E0,6.999299569E0,1.018085073E1
3.305542208E0,4.993330379E0,6.432255306E0,7.330886983E0,1.095669478E1
3.315487208E0,4.668371953E0,6.596040494E0,6.849553546E0,1.059329178E1
3.325433208E0,4.138517444E0,6.215920022E0,6.069022762E0,9.622786791E0
3.335378208E0,3.761350107E0,4.880368019E0,4.920794499E0,7.885427391E0
3.345323208E0,3.313014555E0,2.990201765E0,3.618899070E0,5.745763876E0
3.355268208E0,2.731539656E0,1.084998811E0,2.624504035E0,3.940374695E0
3.365213208E0,2.077019877E0,-6.979528964E-1,1.855649117E0,2.871338270E0
3.375158208E0,1.305287691E0,-2.231529043E0,1.494275987E0,2.986027218E0
3.385104208E0,7.093491197E-2,-3.740853277E0,1.509327889E0,4.034487041E0
3.395049208E0,-1.997247776E0,-4.802129935E0,-1.894837010E0,5.535328164E0
3.404994208E0,-3.453417897E0,-5.731072408E0,-6.377272768E0,9.243424369E0
3.414939208E0,-2.399439734E0,-4.433924333E0,-6.467648503E0,8.200455669E0
3.424884208E0,-4.097611785E-1,-2.241034276E0,-3.738059478E0,4.377582382E0
3.434829208E0,8.771010590E-1,-4.402848136E-1,-8.372019982E-1,1.289986113E0
3.444775208E0,1.453854039E0,8.192568934E-1,7.488833872E-1,1.829125406E0
3.454720208E0,1.582146920E0,1.631204767E0,1.318597416E0,2.627302231E0
3.464665208E0,1.714077647E0,1.893319073E0,1.726610277E0,3.082839979E0
3.474610208E0,1.474625103E0,1.449034179E0,2.023584512E0,2.892942019E0
3.484555208E0,1.064594952E0,5.539049846E-1,2.026004090E0,2.354753855E0
3.494500208E0,7.894229373E-1,-2.138478792E-1,1.937200087E0,2.102775230E0
3.504446208E0,7.081747064E-1,-6.457021773E-1,1.840949070E0,2.075460478E0
3.514391208E0,7.515487674E-1,-7.622716838E-1,1.651986941E0,1.968487877E0
3.524336208E0,8.346450108E-1,-6.735454488E-1,1.242112327E0,1.641078547E0
3.534281208E0,8.491048828E-1,-5.508176547E-1,4.696683148E-1,1.115781124E0
3.544226208E0,8.262180036E-1,-4.931869125E-1,-4.279377600E-1,1.053090806E0
3.554172208E0,6.985914123E-1,-3.995870233E-1,-1.379858694E0,1.597407201E0
3.564117208E0,5.099377236E-1,-3.747094595E-1,-2.193405197E0,2.282864433E0
3.574062208E0,2.722913843E-1,-4.601478052E-1,-2.526825128E0,2.582774444E0
3.584007208E0,5.898875803E-2,-5.978222519E-1,-2.258277715E0,2.336811794E0
3.593952208E0,-2.819293499E-2,-7.806225854E-1,-1.635810034E0,1.812744033E0
3.603897208E0,1.621593699E-1,-9.596444482E-1,-9.973606702E-1,1.393535588E0
3.613843208E0,4.324925217E-1,-9.564553767E-1,-4.275332788E-1,1.133420210E0
3.623788208E0,5.303643867E-1,-9.218264115E-1,1.981938596E-1,1.081818433E0
3.633733125E0,4.984166622E-1,-8.964454025E-1,7.942354882E-1,1.297244595E0
3.643678125E0,4.292195427E-1,-7.016728950E-1,1.120848091E0,1.390278645E0
3.653623125E0,4.177502292E-1,-3.003428167E-1,1.314926534E0,1.412003134E0
3.663568125E0,2.454099798E-1,-8.547050536E-2,1.399276128E0,1.423202356E0
3.673514125E0,-7.831175923E-3,4.777116716E-2,1.371660898E0,1.372514856E0
3.683459125E0,-1.495653445E-1,2.361029667E-1,1.415528025E0,1.442856193E0
3.693404125E0,-3.472445029E-1,4.978564990E-1,1.531114469E0,1.647043216E0
3.703349125E0,-6.349997261E-1,8.399881965E-1,1.632595235E0,1.942722838E0
3.713294125E0,-8.269816500E-1,1.281047181E0,1.802042867E0,2.360580231E0
3.723239125E0,-9.512905312E-1,1.656174717E0,1.970713989E0,2.744372787E0
3.733185125E0,-7.948626021E-1,1.736007337E0,2.095721612E0,2.835062099E0
3.743130125E0,-2.289173234E-1,1.381269627E0,2.127047485E0,2.546495617E0
3.753075125E0,4.186603484E-1,7.939437121E-1,2.246688534E0,2.419345464E0
3.763020125E0,9.081456810E-1,1.610814357E-1,2.391189605E0,2.562901390E0
3.772965125E0,1.339534541E0,-5.599013042E-1,2.511227095E0,2.900707462E0
3.782911125E0,1.712301848E0,-1.284317529E0,2.635869852E0,3.395476257E0
3.792856125E0,2.065906659E0,-1.814409728E0,2.718147193E0,3.866313121E0
3.802801125E0,2.375670218E0,-2.189674088E0,2.731835525E0,4.231005428E0
3.812746125E0,2.728783278E0,-2.530403039E0,2.727795099E0,4.614115714E0
3.822691125E0,2.887201892E0,-2.500125571E0,2.552564571E0,4.593707493E0
3.832636125E0,2.938122662E0,-2.102797328E0,2.369786457E0,4.320903751E0
3.842582125E0,3.104853093E0,-1.512911502E0,2.163005522E0,4.075243162E0
3.852527125E0,3.200786898E0,-9.426857686E-1,1.808088888E0,3.795112469E0
3.862472125E0,2.755772272E0,-1.807152164E-1,1.188565865E0,3.006597349E0
3.872417125E0,1.812848814E0,4.853487200E-1,-3.300881509E-1,1.905503185E0
3.882362125E0,6.692597321E-1,5.914131188E-1,-1.742859689E0,1.958376359E0
3.892308125E0,-3.722460276E-1,6.686940140E-1,-2.162852325E0,2.294264364E0
3.902253125E0,-9.589734802E-1,4.775754315E-1,-1.947406987E0,2.222634113E0
3.912198125E0,-1.164001419E0,2.136572599E-1,-1.213334670E0,1.694912903E0
3.922143125E0,-1.208400789E0,3.126915514E-2,-2.948563377E-1,1.244246956E0
3.932088125E0,-1.073797300E0,-1.128705579E-1,6.182038915E-1,1.244168982E0
3.942033125E0,-9.341128734E-1,-5.224136353E-2,1.390209435E0,1.675702329E0
3.951979125E0,-7.749159953E-1,1.636670744E-1,1.942097715E0,2.097385336E0
3.961924125E0,-6.038197410E-1,2.792296904E-1,2.316456342E0,2.410090762E0
3.971869125E0,-5.004216725E-1,2.383582377E-1,2.465263302E0,2.526808194E0
3.981814125E0,-4.117679429E-1,9.751869321E-2,2.389490404E0,2.426669966E0
3.991759125E0,-3.090759256E-1,-9.418636501E-2,2.040850171E0,2.066269203E0
4.001704125E0,-1.981644773E-1,-1.953718472E-1,1.533313022E0,1.558360722E0
4.011650125E0,-6.980113685E-3,-2.899125534E-1,9.677995598E-1,1.010313812E0
4.021595125E0,2.996449515E-1,-5.389062917E-1,3.050223799E-1,6.879285868E-1
4.031540125E0,6.814058608E-1,-8.249497426E-1,-4.851317883E-1,1.174822913E0
4.041485125E0,1.098259127E0,-9.445557082E-1,-1.033062673E0,1.779206869E0
4.051430125E0,1.666029614E0,-1.024874232E0,-1.249687979E0,2.321150989E0
4.061376125E0,2.247654494E0,-1.023218885E0,-1.003109726E0,2.665549987E0
4.071321125E0,2.739664070E0,-1.061656727E0,-3.857256138E-1,2.963386318E0
4.081266125E0,3.143067571E0,-1.114134902E0,3.956484119E-1,3.358081000E0
4.091211125E0,3.429964715E0,-1.181169137E0,1.174061335E0,3.812904207E0
4.101156125E0,3.661807985E0,-1.246541592E0,1.789291259E0,4.261955757E0
4.111101125E0,3.756077380E0,-1.203320729E0,2.331000706E0,4.581447627E0
4.121047125E0,3.654090537E0,-1.116475543E0,2.828111100E0,4.753641519E0
4.130992125E0,3.444586262E0,-1.162063360E0,3.136103829E0,4.801115808E0
4.140937125E0,3.106221341E0,-1.016788117E0,3.099594107E0,4.504437004E0
4.150882125E0,2.642571054E0,-7.872796404E-1,2.909167542E0,4.008272296E0
4.160827125E0,2.172647581E0,-6.210327744E-1,2.375026731E0,3.278235988E0
4.170772125E0,1.637587588E0,-4.525657207E-1,1.606885028E0,2.338501300E0
4.180718125E0,1.161502027E0,-3.541149813E-1,1.057696846E0,1.610343751E0
4.190663125E0,8.163584286E-1,-3.763946271E-1,1.030225457E0,1.367288738E0
4.200608125E0,5.224738616E-1,-3.007415968E-1,1.461226354E0,1.580698233E0
4.210553125E0,3.253297234E-1,-1.317705131E-1,2.179171758E0,2.207259035E0
4.220498125E0,2.237694347E-1,5.566549301E-3,2.976878300E0,2.985281923E0
4.230443125E0,2.744776583E-1,1.557581306E-1,3.505481797E0,3.519659247E0
4.240389125E0,5.139889669E-1,3.451582164E-1,3.491469530E0,3.545938286E0
4.250334125E0,7.807067853E-1,5.438770097E-1,2.927351214E0,3.078098506E0
4.260279125E0,7.914171302E-1,6.866771257E-1,1.907293772E0,2.176151668E0
4.270224125E0,5.208454120E-1,5.678418231E-1,7.363734886E-1,1.065819025E0
4.280169125E0,-2.742870390E-2,-2.052390236E-1,-1.817855492E-1,2.755383394E-1
4.290115125E0,-9.358433568E-1,-1.506238074E0,-7.405864075E-1,1.921724265E0
4.300060125E0,-2.374350793E0,-3.048076336E0,-1.102410650E0,4.017912429E0
4.310005125E0,-3.847881297E0,-4.176399508E0,-1.441178445E0,5.858796688E0
4.319950125E0,-5.120543572E0,-4.607890109E0,-1.983421450E0,7.168443232E0
4.329895125E0,-6.125039088E0,-3.863146039E0,-1.260709104E0,7.350468596E0
4.339840125E0,-6.074772913E0,-2.292511994E0,6.423283339E-1,6.524650403E0
4.349786125E0,-4.916295066E0,-8.296889108E-1,2.008565062E0,5.375190646E0
4.359731125E0,-3.212111201E0,8.508400440E-2,2.079462552E0,3.827409327E0
4.369676125E0,-1.366130016E0,1.926879752E-1,8.254797927E-1,1.607748975E0
4.379621125E0,5.478899539E-2,-3.689306563E-1,-9.819390044E-1,1.050388438E0
4.389566125E0,9.551795143E-1,-7.515578306E-1,-2.685952424E0,2.948143060E0
4.399512125E0,1.561706224E0,-1.141799249E0,-4.004914706E0,4.447693071E0
4.409457125E0,1.819309987E0,-1.423247373E0,-4.549543667E0,5.102339610E0
4.419402125E0,1.663622900E0,-1.392568787E0,-4.121150629E0,4.657335234E0
4.429347125E0,1.267827796E0,-1.020904557E0,-2.992663443E0,3.406709251E0
4.439292125E0,7.157696548E-1,-3.976954490E-1,-2.046566117E0,2.204295973E0
4.449237125E0,3.224388599E-2,3.373983765E-1,-1.523601674E0,1.560845730E0
4.459183125E0,-6.318322894E-1,1.015980032E0,-1.195222920E0,1.691149105E0
4.469128125E0,-8.802135319E-1,1.524590730E0,-9.167130214E-1,1.984821281E0
4.479073125E0,-7.203471476E-1,1.813474758E0,-4.673869506E-1,2.006499757E0
4.489018125E0,-4.216985616E-1,2.015170369E0,4.346331874E-1,2.104197543E0
4.498963125E0,1.345438474E-1,2.212517990E0,1.499379290E0,2.676093452E0
4.508908125E0,7.791838780E-1,2.436635919E0,2.316338813E0,3.451050219E0
4.518854125E0,1.488168716E0,2.791661897E0,3.162080962E0,4.472893726E0
4.528799125E0,2.080884302E0,3.062932357E0,4.083422931E0,5.512347680E0
4.538744125E0,2.625739551E0,3.258980727E0,4.685380919E0,6.282376774E0
4.548689125E0,3.037747815E0,3.279150113E0,5.048474885E0,6.742984199E0
4.558634125E0,3.140249213E0,3.269783458E0,5.301630671E0,6.975667477E0
4.568580125E0,2.953744376E0,3.254115259E0,5.269023673E0,6.861230387E0
4.578525125E0,2.761398170E0,3.099918920E0,5.058891699E0,6.544249567E0
4.588470125E0,2.451485508E0,2.731212212E0,4.559188065E0,5.852819590E0
4.598415125E0,1.842670491E0,2.184901006E0,3.653502600E0,4.638675263E0
4.608360125E0,1.150739057E0,1.323903179E0,2.716172004E0,3.233343526E0
4.618305125E0,1.908602817E-1,1.291690868E-1,1.708493410E0,1.723966946E0
4.628251125E0,-1.065911453E0,-8.360454190E-1,5.285400555E-1,1.454129897E0
4.638196000E0,-2.292772195E0,-1.347785547E0,-5.856641364E-1,2.723294457E0
4.648141000E0,-3.322748122E0,-1.211862341E0,-1.530788194E0,3.853904243E0
4.658086000E0,-3.830608038E0,-6.082823360E-1,-2.212071848E0,4.465067435E0
4.668031000E0,-3.686371846E0,1.797931105E-1,-2.615698128E0,4.523664404E0
4.677977000E0,-2.884315706E0,1.066126338E0,-2.769676366E0,4.138479145E0
4.687922000E0,-1.765774927E0,1.820268638E0,-2.526580714E0,3.579797356E0
4.697867000E0,-8.223363295E-1,2.210251025E0,-2.386728179E0,3.355282110E0
4.707812000E0,-3.108303827E-1,2.009117916E0,-2.570372851E0,3.277191926E0
4.717757000E0,-2.725694194E-1,1.425985039E0,-2.873535780E0,3.219461958E0
4.727702000E0,-3.204148462E-1,5.183632690E-1,-3.258421733E0,3.314917547E0
4.737648000E0,-4.670592141E-1,-6.692500842E-1,-3.587240490E0,3.678903956E0
4.747593000E0,-7.230906612E-1,-1.885637001E0,-3.565779455E0,4.097959263E0
4.757538000E0,-1.135793281E0,-3.029803203E0,-3.187098566E0,4.541732169E0
4.767483000E0,-1.897142128E0,-3.414797915E0,-2.992222563E0,4.920710205E0
4.777428000E0,-2.280632352E0,-3.153824986E0,-3.158654201E0,5.012483648E0
4.787374000E0,-2.541901588E0,-2.534758045E0,-3.775771095E0,5.209866543E0
4.797319000E0,-3.399760045E0,-1.902583986E0,-4.434866320E0,5.903069834E0
4.807264000E0,-4.477438728E0,-1.403672065E0,-5.003172997E0,6.859263288E0
4.817209000E0,-5.840648060E0,-1.062298166E0,-6.527727474E0,8.823427516E0
4.827154000E0,-7.731464524E0,-1.211547761E0,-8.687982466E0,1.169292226E1
4.837099000E0,-9.628044589E0,-1.795336695E0,-1.018314591E1,1.412865659E1
4.847045000E0,-1.031196943E1,-2.298819970E0,-9.762568556E0,1.438502804E1
4.856990000E0,-9.292036681E0,-2.298853299E0,-7.680150529E0,1.227238299E1
4.866935000E0,-7.402289672E0,-1.972997911E0,-5.604966677E0,9.492221268E0
4.876880000E0,-5.357302011E0,-1.838378050E0,-3.757122570E0,6.796785174E0
4.886825000E0,-3.791650671E0,-1.589521136E0,-2.641562701E0,4.886823688E0
4.896771000E0,-2.010642870E0,-1.159543794E0,-1.980946031E0,3.051454365E0
4.906716000E0,-3.247983576E-1,-6.828197175E-1,-1.385526985E0,1.578423823E0
4.916661000E0,9.791218159E-1,-2.578674728E-1,-8.615714389E-1,1.329466249E0
4.926606000E0,1.496340200E0,7.778083205E-2,-4.544543713E-1,1.565762635E0
4.936551000E0,1.389454267E0,5.218523026E-1,1.587519050E-2,1.484306238E0
4.946496000E0,1.635281446E0,5.256021219E-1,3.397518808E-1,1.750952409E0
4.956442000E0,1.902355067E0,4.214988792E-1,5.307342231E-1,2.019478874E0
4.966387000E0,2.212707148E0,1.754340112E-1,5.250706100E-1,2.280909722E0
4.976332000E0,2.534643732E0,-9.388991117E-2,2.686748632E-1,2.550572553E0
4.986277000E0,2.970525592E0,-8.143101490E-1,-2.992967498E-1,3.094624672E0
4.996222000E0,3.013687984E0,-1.699618360E0,-1.399974285E0,3.732418229E0
5.006167000E0,2.167770126E0,-1.600934901E0,-3.138576032E0,4.136771614E0
5.016113000E0,1.208754254E0,-1.237930398E0,-4.646636099E0,4.958304705E0
5.026058000E0,2.678941320E-1,-8.150638551E-1,-5.759365915E0,5.822919551E0
5.036003000E0,-6.224162257E-1,-4.748611540E-1,-6.220268011E0,6.269340412E0
5.045948000E0,-1.325300079E0,-2.692110711E-1,-5.632241600E0,5.792325987E0
5.055893000E0,-1.725621220E0,-1.350472927E-1,-4.131593463E0,4.479516817E0
5.065839000E0,-2.180438411E0,8.024192512E-2,-2.457348511E0,3.286230688E0
5.075784000E0,-2.473320181E0,4.598010653E-1,-1.105475761E0,2.747873067E0
5.085729000E0,-2.555120097E0,8.746124840E-1,-3.622129364E-1,2.724845668E0
5.095674000E0,-2.600612311E0,1.024459664E0,-1.714741306E-1,2.800375935E0
5.105619000E0,-2.688069116E0,9.744566149E-1,-3.842893915E-1,2.884954004E0
5.115565000E0,-2.690405956E0,7.423046118E-1,-7.035592067E-1,2.878245281E0
5.125510000E0,-2.779977406E0,5.785270250E-1,-1.091553540E0,3.042113907E0
5.135455000E0,-2.839620175E0,5.547352892E-1,-1.566380049E0,3.290094290E0
5.145400000E0,-2.871371725E0,6.553641164E-1,-1.914946754E0,3.513018471E0
5.155345000E0,-2.872362536E0,7.733252603E-1,-1.814517609E0,3.484389853E0
5.165290000E0,-2.787791040E0,8.358489525E-1,-1.425595615E0,3.240793917E0
5.175236000E0,-2.545219299E0,7.740041220E-1,-7.209476566E-1,2.756263627E0
5.185181000E0,-2.246097088E0,7.465795112E-1,8.934867114E-2,2.368610622E0
5.195126000E0,-1.981204478E0,8.397911453E-1,6.447936662E-1,2.246370233E0
5.205071000E0,-1.645115293E0,9.230326921E-1,9.064964738E-1,2.092875901E0
5.215016000E0,-1.311543919E0,9.941506219E-1,1.037904460E0,1.945694883E0
5.224961000E0,-1.112745604E0,1.121855566E0,1.036114334E0,1.889522586E0
5.234907000E0,-8.359881163E-1,1.358829183E0,9.579057786E-1,1.860880533E0
5.244852000E0,-4.049568138E-1,1.674161337E0,8.273476857E-1,1.910840233E0
5.254797000E0,2.933863842E-1,1.902792147E0,8.426130116E-1,2.101592304E0
5.264742000E0,1.101149991E0,2.020663244E0,9.390163484E-1,2.485430133E0
5.274687000E0,1.922510712E0,2.070311952E0,1.235013807E0,3.083423117E0
5.284633000E0,2.623279335E0,2.081795298E0,1.470681448E0,3.657645425E0
5.294578000E0,3.237681659E0,2.069905570E0,1.600957413E0,4.162950424E0
5.304523000E0,3.745547422E0,2.130118443E0,1.786261232E0,4.664467736E0
5.314468000E0,4.237073141E0,2.095608176E0,1.745281021E0,5.038885618E0
5.324413000E0,4.667844535E0,2.022475880E0,1.629732438E0,5.341835743E0
5.334359000E0,5.047550440E0,1.704718886E0,1.562285098E0,5.551987631E0
5.344304000E0,5.519886766E0,1.162938103E0,1.311061817E0,5.791412438E0
5.354249000E0,5.976423331E0,6.226226324E-1,8.753732067E-1,6.072196721E0
5.364194000E0,6.353991494E0,2.423302513E-1,2.805254334E-1,6.364795863E0
5.374139000E0,6.533751276E0,1.382264239E-1,-3.435712820E-1,6.544238191E0
5.384084000E0,6.481532716E0,3.838094813E-1,-8.100858280E-1,6.543226659E0
5.394030000E0,6.004049671E0,6.969834280E-1,-1.313603016E0,6.185462896E0
5.403975000E0,4.972757535E0,7.632446605E-1,-1.941275304E0,5.392532774E0
5.413920000E0,3.403986413E0,5.964768076E-1,-2.046076120E0,4.016134406E0
5.423865000E0,1.105639190E0,2.821141219E-1,-1.735770232E0,2.077239682E0
5.433810000E0,-1.636477786E0,-7.650818557E-1,-7.568823051E-1,1.958642544E0
5.443756000E0,-3.553928026E0,-2.237494372E0,1.853335520E0,4.590385390E0
5.453701000E0,-4.573296519E0,-2.438177830E0,4.365713932E0,6.776371471E0
5.463646000E0,-4.664068110E0,-1.662811307E0,4.712834766E0,6.835882116E0
5.473591000E0,-4.138978497E0,-1.075124034E0,3.830386721E0,5.740983985E0
5.483536000E0,-3.535297335E0,-7.640983540E-1,3.206882620E0,4.833866949E0
5.493481000E0,-3.460641840E0,-2.679036337E-1,2.807356116E0,4.464197874E0
5.503427000E0,-3.894100906E0,-4.238728487E-1,2.481917634E0,4.637197990E0
5.513372000E0,-4.996892502E0,-2.043670868E0,6.742389286E-1,5.440599547E0
5.523317000E0,-6.894885839E0,-6.796704072E0,-3.654052823E0,1.034827227E1
5.533262000E0,-7.505187804E0,-1.388229334E1,-6.424036460E0,1.703860783E1
5.543207000E0,-4.910395226E0,-1.558965692E1,-4.616943645E0,1.698427369E1
5.553153000E0,-1.805863438E0,-9.472102856E0,-8.298681280E-1,9.678355045E0
5.563098000E0,1.114367329E0,-2.930800486E0,3.667820385E0,4.825382100E0
5.573043000E0,2.922030247E0,7.870972073E-1,6.235353827E0,6.930903270E0
5.582988000E0,3.170869035E0,3.114534620E0,6.729507869E0,8.064800834E0
5.592933000E0,2.815080580E0,4.847721845E0,7.370469124E0,9.260070241E0
5.602878000E0,2.500255087E0,5.315393263E0,7.241472530E0,9.324355498E0
5.612824000E0,1.923319090E0,5.255140629E0,6.479472742E0,8.561496736E0
5.622769000E0,1.212020508E0,4.640632762E0,5.658800822E0,7.417984423E0
5.632714500E0,4.026503795E-1,3.566940712E0,4.856166394E0,6.038836429E0
5.642659500E0,-3.059383097E-1,2.058929762E0,3.850055877E0,4.376724834E0
5.652604500E0,-1.068308519E0,4.774391913E-1,2.954897739E0,3.178152281E0
5.662550500E0,-1.893326674E0,-1.069679106E0,2.494045637E0,3.308951937E0
5.672495500E0,-2.464415164E0,-2.714578053E0,1.153891876E0,3.843662650E0
5.682440500E0,-3.005855931E0,-4.094798105E0,-2.584538316E0,5.699331514E0
5.692385500E0,-3.149507986E0,-3.869238253E0,-5.484137474E0,7.413917254E0
5.702330500E0,-1.799640538E0,-2.266181982E0,-5.803499529E0,6.484974451E0
5.712275500E0,3.127792597E-2,-6.287312186E-1,-3.379133992E0,3.437270398E0
5.722221500E0,1.350744238E0,3.127283889E-1,-6.573579439E-1,1.534414712E0
5.732166500E0,1.864720341E0,8.841259038E-1,1.154153831E0,2.364515094E0
5.742111500E0,2.591208527E0,1.152837038E0,2.094131169E0,3.525447521E0
5.752056500E0,3.004682395E0,9.766078055E-1,2.657529109E0,4.128479146E0
5.762001500E0,3.141592026E0,5.718448269E-1,2.752900704E0,4.216049009E0
5.771947500E0,3.061574634E0,5.747169793E-2,2.405868455E0,3.894193788E0
5.781892500E0,2.949295229E0,-5.628126329E-1,2.099271018E0,3.663610134E0
5.791837500E0,3.012883700E0,-1.302392442E0,1.652049214E0,3.674637515E0
5.801782500E0,3.202928441E0,-2.051271079E0,1.054436585E0,3.946935539E0
5.811727500E0,3.394307517E0,-2.638889939E0,2.347471435E-1,4.305829752E0
5.821672500E0,3.492413563E0,-2.791252592E0,-1.080569984E0,4.599529869E0
5.831618500E0,3.233307942E0,-2.249826150E0,-2.538947575E0,4.686390161E0
5.841563500E0,2.873783994E0,-1.460489459E0,-3.389221609E0,4.677444496E0
5.851508500E0,2.377600383E0,-8.268243599E-1,-3.320658327E0,4.166940584E0
5.861453500E0,1.818869399E0,-4.807159710E-1,-2.639067110E0,3.240995055E0
5.871398500E0,1.145336230E0,-2.646174985E-1,-1.706732082E0,2.072378320E0
5.881344500E0,4.700924572E-1,-2.744741499E-2,-8.464965861E-1,9.686571887E-1
5.891289500E0,-1.629993224E-1,2.265199649E-1,-2.514619942E-1,3.756503802E-1
5.901234500E0,-6.573273191E-1,3.214337236E-1,-9.661931835E-2,7.380610650E-1
5.911179500E0,-1.055851319E0,2.320414907E-1,-1.233282300E-1,1.088060252E0
5.921124500E0,-1.277269295E0,-2.362567484E-2,3.366373613E-2,1.277931247E0
5.931070500E0,-1.231627392E0,-4.559015572E-1,3.723577825E-1,1.365065046E0
5.941015500E0,-1.054167320E0,-8.855485314E-1,7.437623227E-1,1.564815431E0
5.950960500E0,-7.878140759E-1,-1.037464457E0,1.056150915E0,1.677032579E0
5.960905500E0,-4.105333033E-1,-8.978955120E-1,1.298750796E0,1.631412754E0
5.970850500E0,1.097943377E-1,-4.165351778E-1,1.518126633E0,1.578057295E0
5.980795500E0,6.378136986E-1,1.741353446E-1,1.842641401E0,1.957666152E0
5.990741500E0,9.789200869E-1,5.636324126E-1,2.397731324E0,2.650487037E0
6.000686500E0,1.133128413E0,8.214197785E-1,2.926408643E0,3.243852339E0
6.010631500E0,1.141300482E0,1.030123862E0,3.346444548E0,3.682718164E0
6.020576500E0,1.125443125E0,1.131236254E0,3.598223608E0,3.936182265E0
6.030521500E0,1.107467615E0,1.058199268E0,3.709112252E0,4.012952019E0
6.040467500E0,1.174350406E0,6.253591293E-1,3.578632804E0,3.817955692E0
6.050412500E0,1.245728245E0,-2.359585404E-2,3.296536224E0,3.524137724E0
6.060357500E0,1.363115777E0,-6.793470562E-1,2.989891863E0,3.355450848E0
6.070302500E0,1.570270348E0,-1.189634736E0,2.657143192E0,3.307777156E0
6.080247500E0,1.831030439E0,-1.491218331E0,2.405743325E0,3.371054067E0
6.090192500E0,2.067110016E0,-1.578604969E0,2.186299660E0,3.397770397E0
6.100138500E0,2.094193150E0,-1.386743791E0,1.872467902E0,3.132864397E0
6.110083500E0,1.849977171E0,-1.107144556E0,6.408525697E-1,2.249194660E0
6.120028500E0,1.161297082E0,-9.176053065E-1,-1.178478102E0,1.891935794E0
6.129973500E0,2.806362382E-1,-8.454793167E-1,-2.746183423E0,2.887059986E0
6.139918500E0,-4.168825024E-1,-7.994851184E-1,-3.437726601E0,3.554002203E0
6.149864500E0,-6.847823355E-1,-4.495894879E-1,-2.350876561E0,2.489513640E0
6.159809500E0,-5.991229650E-1,4.059721828E-3,-8.320283818E-1,1.025298023E0
6.169754500E0,-4.249537066E-1,3.441378772E-1,7.316199946E-1,9.133916727E-1
6.179699500E0,-3.422106349E-1,5.588739485E-1,1.764579756E0,1.882336294E0
6.189644500E0,-2.566366339E-1,6.284517217E-1,2.435828419E0,2.528650631E0
6.199590500E0,-1.600216278E-1,6.029508448E-1,2.721353806E0,2.791938964E0
6.209535500E0,-3.101450890E-1,5.329807234E-1,2.550067810E0,2.623567087E0
6.219480500E0,-6.187114298E-1,3.174231184E-1,2.112739348E0,2.224236683E0
6.229425500E0,-9.118583706E-1,5.321317077E-2,1.439393874E0,1.704749851E0
6.239370500E0,-1.118409509E0,-2.383477128E-1,6.246989787E-1,1.303034258E0
6.249315500E0,-1.283610601E0,-3.830294627E-1,-3.490787745E-1,1.384277333E0
6.259261500E0,-1.135259431E0,-4.211117935E-1,-1.213042382E0,1.713948931E0
6.269206500E0,-7.396458828E-1,-4.999778688E-1,-1.615487452E0,1.845766401E0
6.279151500E0,-2.076299500E-1,-6.576965708E-1,-1.426741669E0,1.584697689E0
6.289096500E0,4.689671606E-1,-7.831994534E-1,-7.426208731E-1,1.176782623E0
6.299041500E0,1.122274811E0,-8.475878227E-1,8.558131009E-3,1.406406453E0
6.308987500E0,1.694860773E0,-8.925458944E-1,5.747509662E-1,1.999882468E0
6.318932500E0,2.184943691E0,-9.970724756E-1,9.885045505E-1,2.597166475E0
6.328877500E0,2.683038756E0,-1.172460294E0,1.201557208E0,3.164980226E0
6.338822500E0,3.168814031E0,-1.348435757E0,1.316025810E0,3.686676726E0
6.348767500E0,3.587227626E0,-1.505749832E0,1.421543348E0,4.142012807E0
6.358712500E0,3.943598464E0,-1.569223697E0,1.459415910E0,4.488243159E0
6.368658500E0,4.171805058E0,-1.502456095E0,1.489044921E0,4.677455135E0
6.378603500E0,4.307826204E0,-1.333378592E0,1.422063604E0,4.728374982E0
6.388548500E0,4.380326124E0,-1.118710349E0,1.298603446E0,4.703736887E0
6.398493500E0,4.301000165E0,-9.505321473E-1,1.140172042E0,4.549956710E0
6.408438500E0,4.001924440E0,-8.318465334E-1,1.032424157E0,4.215835328E0
6.418384500E0,3.456715727E0,-8.746329492E-1,1.034179491E0,3.712599309E0
6.428329500E0,2.712624498E0,-1.069217176E0,1.172619338E0,3.142704751E0
6.438274500E0,1.913452206E0,-1.106936980E0,1.463858771E0,2.651318789E0
6.448219500E0,1.222964450E0,-1.074621758E0,1.896217099E0,2.499218529E0
6.458164500E0,6.290519384E-1,-8.773706156E-1,2.363062013E0,2.597989148E0
6.468110500E0,2.596356708E-1,-5.536254877E-1,2.926220070E0,2.989427330E0
6.478055500E0,8.084243417E-2,-1.386895233E-1,3.454844910E0,3.458572485E0
6.488000500E0,1.741300821E-2,3.259349102E-1,3.937968764E0,3.951472481E0
6.497945500E0,-7.518876135E-2,7.272562176E-1,4.303312154E0,4.364980006E0
6.507890500E0,-2.091829705E-1,1.002083539E0,4.331615016E0,4.450934462E0
6.517835500E0,-4.666464007E-1,1.117454951E0,3.835370010E0,4.022005414E0
6.527781500E0,-6.655751091E-1,1.177293018E0,3.121140804E0,3.401548029E0
6.537726500E0,-8.837861806E-1,1.055957446E0,2.410853937E0,2.776389895E0
6.547671500E0,-1.240235370E0,5.556644118E-1,1.599238039E0,2.098692216E0
6.557616500E0,-2.064771130E0,-2.713505673E-1,6.881365907E-1,2.193272194E0
6.567561500E0,-3.322514818E0,-1.589049851E0,-1.029861322E-1,3.684398226E0
6.577507500E0,-4.654794134E0,-3.004845532E0,-6.774797478E-1,5.581682892E0
6.587452500E0,-5.800746076E0,-4.106734611E0,-1.135455605E0,7.197442853E0
6.597397500E0,-6.400362838E0,-4.503316165E0,-1.520425466E0,7.972213904E0
6.607342500E0,-5.848257626E0,-3.947258821E0,-1.380536386E0,7.189495822E0
6.617287500E0,-4.170561647E0,-2.933196090E0,-4.202677479E-1,5.116038383E0
6.627233500E0,-2.167162308E0,-1.925702707E0,5.242610630E-1,2.946145456E0
6.637177875E0,-3.607334447E-1,-1.137078207E0,9.069709754E-1,1.498556578E0
6.647122875E0,1.135503552E0,-6.185827911E-1,7.300514790E-1,1.484920250E0
6.657067875E0,2.273885688E0,-3.262354571E-1,1.611448780E-1,2.302814228E0
6.667012875E0,3.012712376E0,-1.901023364E-1,-6.476782438E-1,3.087403742E0
6.676957875E0,3.433371010E0,-1.983276147E-1,-1.800141937E0,3.881736896E0
6.686903875E0,3.419763955E0,-2.769989777E-1,-3.123267437E0,4.639645829E0
6.696848875E0,2.862410282E0,-2.453047299E-1,-3.920603703E0,4.860524708E0
6.706793875E0,2.031367741E0,-2.915731627E-1,-3.611101808E0,4.153495645E0
6.716738875E0,1.323512293E0,-3.497120279E-1,-2.483348156E0,2.835665945E0
6.726683875E0,5.958806840E-1,-1.033097756E-1,-1.223543616E0,1.364846394E0
6.736629875E0,4.039201024E-1,3.884580177E-1,1.234800383E-1,5.738452758E-1
6.746574875E0,2.458730793E-1,9.625253713E-1,1.307622192E0,1.642188923E0
6.756519875E0,2.579636595E-1,1.534092456E0,2.290992010E0,2.769229008E0
6.766464875E0,3.560083097E-1,1.971145513E0,3.096342763E0,3.687749321E0
6.776409875E0,6.548846447E-1,2.412772847E0,3.824352102E0,4.569027873E0
6.786355875E0,1.050105260E0,2.829339015E0,4.195929793E0,5.168530463E0
6.796300875E0,1.241465040E0,3.081343485E0,4.342745484E0,5.467664168E0
6.806245875E0,1.164551642E0,3.175823965E0,4.415757619E0,5.562459324E0
6.816190875E0,7.717813030E-1,3.251160076E0,4.494981836E0,5.600941879E0
6.826135875E0,3.997928452E-1,3.294446429E0,4.641165444E0,5.705578697E0
6.836080875E0,1.742060959E-2,3.229199104E0,4.744967847E0,5.739577528E0
6.846026875E0,-3.198017657E-1,3.091508285E0,4.552663449E0,5.512389784E0
6.855971875E0,-7.279134446E-1,2.999322252E0,4.012468139E0,5.062182585E0
6.865916875E0,-1.184584788E0,2.591231623E0,3.424553994E0,4.454805552E0
6.875861875E0,-1.786009217E0,1.687389493E0,2.747054366E0,3.685569143E0
6.885806875E0,-2.536930870E0,7.019307572E-1,1.759214059E0,3.166000495E0
6.895752875E0,-3.103149214E0,7.123078108E-3,2.321040559E-1,3.111825521E0
6.905697875E0,-3.442505531E0,-3.328808177E-1,-1.498800270E0,3.769357534E0
6.915642875E0,-3.407248282E0,-3.739212549E-1,-2.903135555E0,4.491920971E0
6.925587875E0,-2.742395597E0,-1.211268264E-1,-3.745735703E0,4.643914434E0
6.935532875E0,-1.670376873E0,1.885668576E-1,-3.784648923E0,4.141169379E0
6.945478875E0,-7.362354943E-1,5.257477176E-1,-3.318966143E0,3.440056631E0
6.955423875E0,-1.312607820E-1,6.695921463E-1,-2.799852676E0,2.881797711E0
6.965368875E0,2.028444426E-1,2.438247997E-1,-2.690947115E0,2.709574280E0
6.975313875E0,1.733674590E-1,-4.423418641E-1,-3.010093993E0,3.047357617E0
6.985258875E0,-2.227653216E-1,-1.165157706E0,-3.418221459E0,3.618211549E0
6.995203875E0,-7.351512744E-1,-1.813779983E0,-3.878425983E0,4.344241398E0
7.005149875E0,-1.241379378E0,-2.290328643E0,-4.321840226E0,5.046278926E0
7.015094875E0,-1.593959758E0,-2.408172258E0,-4.830649145E0,5.628070050E0
7.025039875E0,-1.872774003E0,-2.222769914E0,-5.484482460E0,6.207055374E0
7.034984875E0,-2.513457808E0,-1.930337795E0,-6.148815036E0,6.917485128E0
7.044929875E0,-3.566742491E0,-2.004233737E0,-6.090604835E0,7.337170580E0
7.054875875E0,-4.540364708E0,-2.147170093E0,-5.952275500E0,7.788121386E0
7.064820875E0,-5.355695196E0,-2.049343836E0,-6.743611938E0,8.852094846E0
7.074765875E0,-6.198645592E0,-1.889233038E0,-7.773340529E0,1.012013990E1
7.084710875E0,-6.896423657E0,-1.826791792E0,-8.886383171E0,1.139586036E1
7.094655875E0,-7.242326224E0,-2.171638352E0,-9.580640627E0,1.220475223E1
7.104600875E0,-6.838147967E0,-2.631945786E0,-9.276828657E0,1.182146168E1
7.114546875E0,-5.716882385E0,-2.704358874E0,-7.961503344E0,1.016768590E1
7.124491875E0,-4.225773689E0,-2.665736845E0,-6.220632877E0,7.978695983E0
7.134436875E0,-2.483938724E0,-2.613105472E0,-4.515992929E0,5.778621283E0
7.144381875E0,-6.173877664E-1,-2.509768800E0,-3.009421563E0,3.966954150E0
7.154326875E0,9.108832012E-1,-2.305171800E0,-1.845532118E0,3.090228800E0
7.164272875E0,1.384233142E0,-1.904659747E0,-1.145587733E0,2.618434914E0
7.174217875E0,5.753306445E-1,-1.236862696E0,-4.864246076E-1,1.448255357E0
7.184162875E0,9.906805918E-2,-8.730080080E-1,2.389768366E-1,9.105313783E-1
7.194107875E0,5.284333438E-2,-6.579444927E-1,2.783577975E-1,7.163563617E-1
7.204052875E0,4.112016401E-1,-4.908088499E-1,1.207765782E-1,6.515881351E-1
7.213998875E0,1.079974153E0,-3.316148955E-1,-1.959022079E-1,1.146599444E0
7.223943875E0,1.829099396E0,-2.374589360E-1,-7.884900141E-1,2.005918206E0
7.233888875E0,2.064688100E0,-1.252081829E-1,-1.810337727E0,2.748806418E0
7.243833875E0,1.301246388E0,6.638519347E-2,-2.880533727E0,3.161506557E0
7.253778875E0,7.717111364E-2,1.481433016E-1,-3.650056543E0,3.653876652E0
7.263723875E0,-8.313730551E-1,2.072095352E-1,-4.287716460E0,4.372485494E0
7.273669875E0,-1.316061771E0,1.910671270E-1,-4.499790294E0,4.692189033E0
7.283614875E0,-1.513576038E0,7.321006358E-2,-3.985917102E0,4.264247563E0
7.293559875E0,-1.723164513E0,1.855847776E-2,-3.125086505E0,3.568726106E0
7.303504875E0,-1.779429930E0,3.269119799E-2,-2.294312936E0,2.903672061E0
7.313449875E0,-1.716238486E0,7.504667401E-2,-1.604233900E0,2.350462284E0
7.323395875E0,-1.570161005E0,1.858905870E-1,-1.370781476E0,2.092606688E0
7.333340875E0,-1.432959598E0,3.718916863E-1,-1.717374015E0,2.267388397E0
7.343285875E0,-1.293916318E0,5.526156735E-1,-2.324730152E0,2.717346831E0
7.353230875E0,-1.197224714E0,6.857655448E-1,-2.700901415E0,3.032901227E0
7.363175875E0,-1.255367087E0,7.432711565E-1,-2.518436712E0,2.910484841E0
7.373121875E0,-1.306817030E0,8.263267618E-1,-1.842816817E0,2.405527071E0
7.383066875E0,-1.013227455E0,1.190645719E0,-9.909100950E-1,1.850991605E0
7.393011875E0,-1.364944493E0,1.500936989E0,-4.256610735E-1,2.072938172E0
7.402956875E0,-1.566920478E0,1.936579113E0,-3.596724674E-2,2.491359486E0
7.412901875E0,-1.824358473E0,2.084521855E0,3.663365391E-1,2.794229350E0
7.422846875E0,-2.113004227E0,1.986243024E0,7.058548236E-1,2.984657308E0
7.432792875E0,-2.324712026E0,1.822211668E0,9.088577257E-1,3.090430994E0
7.442737875E0,-2.387403825E0,1.524432271E0,1.014170319E0,3.008676155E0
7.452682875E0,-2.468780695E0,1.126571930E0,8.530459061E-1,2.844596588E0
7.462627875E0,-2.464676242E0,5.989039868E-1,7.386503944E-1,2.641764442E0
7.472572875E0,-2.507278763E0,2.904551750E-1,5.902895764E-1,2.592152153E0
7.482518875E0,-2.337594026E0,1.491542852E-1,4.145462474E-1,2.378747869E0
7.492463875E0,-1.812794727E0,1.804614472E-1,2.497848666E-1,1.838799482E0
7.502408875E0,-8.193171197E-1,3.493857533E-1,2.859627593E-1,9.354815054E-1
7.512353875E0,4.062016860E-1,5.330906510E-1,6.279973930E-1,9.184585878E-1
7.522298875E0,1.558382374E0,8.962670624E-1,1.121992683E0,2.119131391E0
7.532244875E0,2.916110526E0,1.202880433E0,1.476567840E0,3.482940500E0
7.542189875E0,4.284512771E0,1.479585296E0,1.916451243E0,4.921281103E0
7.552134875E0,5.261021758E0,1.831623931E0,2.312800663E0,6.031769481E0
7.562079875E0,5.813252100E0,2.135038875E0,2.546094627E0,6.695885963E0
7.572024875E0,6.194750762E0,2.440200967E0,2.398187553E0,7.076780433E0
7.581969875E0,6.643458490E0,2.510261135E0,1.821674893E0,7.331810901E0
7.591915875E0,7.213855546E0,2.317114154E0,7.051443869E-1,7.609596471E0
7.601860875E0,7.710822099E0,1.769735831E0,-3.161750302E-1,7.917620160E0
7.611805875E0,7.654944352E0,1.029693507E0,-8.312615195E-1,7.768490038E0
7.621750875E0,6.596569083E0,5.534167421E-1,-1.113529131E0,6.712744661E0
7.631696000E0,4.419599825E0,3.389443803E-1,-1.783394927E0,4.777891100E0
7.641642000E0,1.717371676E0,-1.015480095E-1,-2.799014186E0,3.285446375E0
7.651587000E0,-9.064710385E-1,-1.362323479E0,-2.597203092E0,3.069703391E0
7.661532000E0,-2.547818386E0,-3.231474840E0,-2.466726860E-1,4.122457469E0
7.671477000E0,-3.372907292E0,-3.867998058E0,1.959575335E0,5.493436818E0
7.681422000E0,-3.912830999E0,-2.885206822E0,2.745107827E0,5.583035180E0
7.691368000E0,-4.220458862E0,-1.916108011E0,2.011750040E0,5.052809233E0
7.701313000E0,-4.425703148E0,-1.268043559E0,1.163224032E0,4.748460063E0
7.711258000E0,-4.402123666E0,-7.540218472E-1,1.345253995E0,4.664434589E0
7.721203000E0,-3.900515594E0,-7.104267615E-1,1.838894651E0,4.370384608E0
7.731148000E0,-3.570042075E0,-1.089187757E0,2.244432678E0,4.355342516E0
7.741094000E0,-4.424232574E0,-2.350630394E0,1.067785486E0,5.122446970E0
7.751039000E0,-5.667282794E0,-6.030479085E0,-2.323884645E0,8.595650767E0
7.760984000E0,-5.234650231E0,-1.128722185E1,-3.034390636E0,1.280665712E1
7.770929000E0,-2.574772004E0,-1.150218655E1,-8.748832101E-1,1.181927100E1
7.780874000E0,9.372326553E-2,-6.529443047E0,1.886147463E0,6.797055451E0
7.790819000E0,2.705798458E0,-1.626366781E0,4.822037658E0,5.763545903E0
7.800765000E0,4.299644488E0,1.481923597E0,6.103908420E0,7.611881388E0
7.810710000E0,4.930237752E0,3.329416872E0,6.711380332E0,8.968549880E0
7.820655000E0,5.069306175E0,4.289839000E0,7.100738820E0,9.722194996E0
7.830600000E0,4.709860580E0,4.637510934E0,6.597322204E0,9.338841181E0
7.840545000E0,3.965791571E0,4.181342744E0,5.601516820E0,8.036673479E0
7.850491000E0,3.031203903E0,3.119001308E0,4.642240162E0,6.361348912E0
7.860436000E0,2.389265871E0,1.742415885E0,3.734319599E0,4.763375629E0
7.870381000E0,1.422328483E0,7.145823777E-2,2.967740271E0,3.291748306E0
7.880326000E0,4.490854579E-1,-1.577740166E0,2.338264117E0,2.856294954E0
7.890271000E0,-5.488676083E-1,-3.124871328E0,2.077188131E0,3.792200812E0
7.900217000E0,-1.630274768E0,-4.398604227E0,6.125974350E-1,4.730834026E0
7.910162000E0,-3.478751836E0,-4.476770976E0,-4.384934607E0,7.167345688E0
7.920107000E0,-4.044763773E0,-2.969292707E0,-6.934358053E0,8.559330276E0
7.930052000E0,-2.542196288E0,-9.353212005E-1,-6.290443954E0,6.848888440E0
7.939997000E0,-4.780858934E-1,3.427023858E-1,-3.507060546E0,3.556049032E0
7.949942000E0,7.212005487E-1,1.127534966E0,-7.733433867E-1,1.545808955E0
7.959888000E0,1.406750039E0,1.467679780E0,1.334186239E0,2.431683065E0
7.969833000E0,1.814435163E0,1.519379107E0,2.056582689E0,3.135318196E0
7.979778000E0,2.228625900E0,1.179493909E0,2.363414161E0,3.455966693E0
7.989723000E0,2.408764289E0,6.051061285E-1,2.539910027E0,3.552385363E0
7.999668000E0,2.389478125E0,-1.520550889E-1,2.577445643E0,3.517947200E0
8.009614000E0,2.430808584E0,-9.627423030E-1,2.330740943E0,3.502578544E0
8.019559000E0,2.457789976E0,-1.447413915E0,1.936485411E0,3.447566440E0
8.029504000E0,2.648444874E0,-1.732320668E0,1.450594655E0,3.481295736E0
8.039449000E0,2.764688399E0,-1.884883879E0,7.550884525E-1,3.430225612E0
8.049394000E0,2.280646824E0,-1.541276929E0,-3.633237612E-1,2.776488549E0
8.059340000E0,1.351944671E0,-8.532029039E-1,-1.378864521E0,2.111155361E0
8.069285000E0,3.529961166E-1,-3.355073869E-1,-2.179947245E0,2.233683383E0
8.079230000E0,-6.395982689E-1,-5.776990592E-2,-2.482456455E0,2.564178886E0
8.089175000E0,-1.498255455E0,1.185908890E-1,-2.462261342E0,2.884712139E0
8.099120000E0,-1.911374398E0,1.481865710E-1,-2.220899974E0,2.933889576E0
8.109066000E0,-2.032819897E0,2.487095636E-1,-1.573936991E0,2.582922924E0
8.119011000E0,-1.900792399E0,1.396560681E-1,-8.429205751E-1,2.083993920E0
8.128956000E0,-1.564213802E0,-7.628979206E-2,-2.472180120E-1,1.585465767E0
8.138901000E0,-1.032272129E0,-1.985644269E-1,3.504119396E-2,1.051780141E0
8.148846000E0,-4.629544687E-1,-2.582820404E-1,2.017382956E-1,5.672167067E-1
8.158791000E0,1.337609053E-2,-3.198789489E-1,1.625853395E-1,3.590758338E-1
8.168737000E0,3.989210254E-1,-4.942932057E-1,6.133729219E-2,6.381426339E-1
8.178682000E0,5.173677805E-1,-7.146654081E-1,3.158541642E-2,8.828440997E-1
8.188627000E0,4.727894855E-1,-7.942565382E-1,8.249134898E-2,9.279968581E-1
8.198572000E0,3.775547147E-1,-7.269813985E-1,2.588386953E-1,8.590966107E-1
8.208517000E0,2.683918762E-1,-4.859129763E-1,6.021778429E-1,8.190016936E-1
8.218463000E0,1.985749519E-1,-1.874938935E-1,1.219872880E0,1.250070324E0
8.228408000E0,1.822237980E-1,1.861455256E-1,1.878067195E0,1.896046429E0
8.238353000E0,2.455035353E-1,6.339685696E-1,2.391631655E0,2.486380925E0
8.248298000E0,4.565000197E-1,9.379378295E-1,2.602240176E0,2.803528772E0
8.258243000E0,7.409509814E-1,1.070377264E0,2.712041531E0,3.008302696E0
8.268189000E0,9.834312138E-1,9.557063484E-1,2.782906276E0,3.102431130E0
8.278134000E0,1.208351381E0,5.596954823E-1,2.868372688E0,3.162425330E0
8.288079000E0,1.303223916E0,-9.589375198E-2,2.935559535E0,3.213269047E0
8.298024000E0,1.294150792E0,-7.623079365E-1,2.875153120E0,3.243831858E0
8.307969000E0,1.434303873E0,-1.419267173E0,2.888815724E0,3.523748458E0
8.317914000E0,1.613666044E0,-1.863835073E0,2.863210766E0,3.778329680E0
8.327860000E0,1.897280269E0,-1.995860524E0,2.718395115E0,3.869470720E0
8.337805000E0,2.281538232E0,-1.911852407E0,2.596243272E0,3.949819674E0
8.347750000E0,2.715801290E0,-1.636310556E0,2.479721128E0,4.025183941E0
8.357695000E0,3.072417710E0,-1.271133227E0,2.307699552E0,4.047345734E0
8.367640000E0,3.350528829E0,-8.760444671E-1,2.047876185E0,4.023343660E0
8.377586000E0,3.517165704E0,-5.236111450E-1,1.778984957E0,3.976104965E0
8.387531000E0,3.398591772E0,-1.934855354E-1,1.432688287E0,3.693299123E0
8.397476000E0,2.735957520E0,1.634279233E-1,9.476383603E-1,2.900032879E0
8.407421000E0,1.619785155E0,3.283322686E-1,8.668150026E-2,1.654998402E0
8.417366000E0,4.683605120E-1,1.780196500E-1,-7.898874255E-1,9.354008285E-1
8.427312000E0,-6.749411792E-1,-1.459523499E-2,-1.422432271E0,1.574506965E0
8.437257000E0,-1.618064319E0,-1.639863324E-1,-1.735590430E0,2.378507474E0
8.447202000E0,-2.075628532E0,-2.966760278E-1,-1.774552767E0,2.746868762E0
8.457147000E0,-2.225938812E0,-2.799114758E-1,-1.255372642E0,2.570819811E0
8.467092000E0,-2.186520977E0,-5.729745090E-2,-6.316372848E-1,2.276647237E0
8.477038000E0,-1.822841413E0,1.508441305E-1,3.625507593E-2,1.829431387E0
8.486983000E0,-1.368433819E0,2.765107352E-1,7.437962365E-1,1.581866665E0
8.496928000E0,-1.049477853E0,2.976577753E-1,1.147372230E0,1.583182539E0
8.506873000E0,-7.727066249E-1,1.023847461E-1,1.350208633E0,1.559045066E0
8.516818000E0,-5.663642317E-1,-1.416102076E-1,1.343146366E0,1.464535440E0
8.526763000E0,-3.384938523E-1,-3.560194194E-1,1.151172920E0,1.251609767E0
8.536709000E0,-8.071964264E-2,-5.196204203E-1,9.078527355E-1,1.049150910E0
8.546654000E0,2.416934896E-1,-5.417515469E-1,6.356285942E-1,8.694447603E-1
8.556599000E0,5.756063408E-1,-4.644355685E-1,4.343031120E-1,8.576958959E-1
8.566544000E0,9.353261706E-1,-3.312658167E-1,2.923245299E-1,1.034420474E0
8.576489000E0,1.277400858E0,-2.698858398E-1,2.349703610E-1,1.326575436E0
8.586435000E0,1.525793502E0,-4.305497843E-1,2.819024527E-1,1.610244677E0
8.596380000E0,1.754689191E0,-6.646202588E-1,4.312859488E-1,1.925269284E0
8.606325000E0,1.942973628E0,-8.898620224E-1,5.952828792E-1,2.218414444E0
8.616270000E0,2.163434123E0,-1.043813948E0,7.789217035E-1,2.525215592E0
8.626215000E0,2.402872050E0,-1.103887072E0,9.607853861E-1,2.813444386E0
8.636162125E0,2.715237619E0,-1.161918933E0,1.113516925E0,3.156341375E0
8.646107125E0,3.050131340E0,-1.213393142E0,1.218631151E0,3.501526238E0
8.656052125E0,3.336359271E0,-1.225102776E0,1.354618603E0,3.803572210E0
8.665997125E0,3.457948320E0,-1.166691431E0,1.579866214E0,3.976751530E0
8.675942125E0,3.372157972E0,-1.029863661E0,1.877253263E0,3.994514784E0
8.685887125E0,3.078478934E0,-9.276566702E-1,2.124837238E0,3.853895786E0
8.695833125E0,2.634050491E0,-9.936430836E-1,2.272893562E0,3.618230743E0
8.705778125E0,2.092890683E0,-1.010863718E0,2.213024944E0,3.209285944E0
8.715723125E0,1.376388956E0,-8.872190809E-1,2.125511860E0,2.683170685E0
8.725668125E0,7.694611278E-1,-7.728463733E-1,2.081292876E0,2.349711042E0
8.735613125E0,1.750457561E-1,-5.814079481E-1,2.197251495E0,2.279603113E0
8.745559125E0,-2.453023911E-1,-2.334676266E-1,2.272046739E0,2.297145354E0
8.755504125E0,-4.696302348E-1,2.271064407E-1,2.224353486E0,2.284705303E0
8.765449125E0,-4.895090139E-1,5.889034939E-1,2.324843588E0,2.447718143E0
8.775394125E0,-4.200996405E-1,8.146679986E-1,2.449243101E0,2.615140421E0
8.785339125E0,-3.405944645E-1,8.617199582E-1,2.500588671E0,2.666741378E0
8.795285125E0,-1.160280544E-1,5.963890994E-1,2.434102174E0,2.508783742E0
8.805230125E0,1.442034477E-1,1.862016588E-1,2.385833555E0,2.397429341E0
8.815175125E0,3.167886955E-1,-2.465653896E-2,2.275224408E0,2.297304753E0
8.825120125E0,3.412598777E-1,-2.357246518E-2,2.095763858E0,2.123497142E0
8.835065125E0,2.265170413E-1,9.080550492E-2,1.797965165E0,1.814451527E0
8.845011125E0,-1.006609869E-1,2.179344982E-1,1.356628876E0,1.377704608E0
8.854956125E0,-6.873834693E-1,1.494326127E-1,8.322251406E-1,1.089690242E0
8.864901125E0,-1.566368501E0,-3.694972515E-1,2.627153993E-1,1.630661792E0
8.874846125E0,-2.944422160E0,-1.381346226E0,-4.655702206E-1,3.285497661E0
8.884791125E0,-4.520662515E0,-2.802370487E0,-9.474263987E-1,5.402525956E0
8.894736125E0,-5.939935536E0,-3.951919051E0,-1.003674567E0,7.204711028E0
8.904682125E0,-6.974633675E0,-4.427232780E0,-1.071657804E0,8.330327450E0
8.914627125E0,-7.250496538E0,-4.119572173E0,-1.134088818E0,8.415861951E0
8.924572125E0,-6.154358781E0,-3.320923206E0,-1.155267433E0,7.087969088E0
8.934517125E0,-3.589674686E0,-2.701546363E0,-3.914517921E-1,4.509695290E0
8.944462125E0,-9.998656905E-1,-2.156080665E0,9.856987640E-1,2.572939425E0
8.954408125E0,1.131288294E0,-1.500834662E0,2.342676134E0,3.003406292E0
8.964353125E0,2.644097469E0,-7.401218462E-1,2.897342718E0,3.991694703E0
8.974298125E0,3.476493933E0,2.156874132E-1,2.464960417E0,4.267149047E0
8.984243125E0,3.999445513E0,1.242888252E0,1.027441452E0,4.312304668E0
8.994188125E0,4.342457801E0,1.760468579E0,-1.175775957E0,4.831008018E0
9.004134125E0,4.514262445E0,1.395819839E0,-3.542905732E0,5.905849598E0
9.014079125E0,4.377408655E0,2.988394976E-1,-5.218536474E0,6.817927435E0
9.024024125E0,4.047749361E0,-8.598605436E-1,-5.301334802E0,6.725160647E0
9.033969125E0,3.762653452E0,-1.402647048E0,-3.736598551E0,5.485175336E0
9.043914125E0,3.432753544E0,-1.265224031E0,-1.406143098E0,3.919416686E0
9.053860125E0,3.046263115E0,-6.593986952E-1,7.311446160E-1,3.201421255E0
9.063805125E0,2.852015980E0,1.074308932E-1,2.416132658E0,3.739416206E0
9.073750125E0,2.585182679E0,1.112050955E0,3.442600840E0,4.446496076E0
9.083695125E0,2.458277049E0,2.009475766E0,4.145387630E0,5.221624029E0
9.093640125E0,2.168599261E0,2.762070308E0,4.639708902E0,5.818827531E0
9.103585125E0,1.731722790E0,3.298296236E0,4.948179933E0,6.193715083E0
9.113531125E0,1.169652168E0,3.628728240E0,5.047774973E0,6.325803270E0
9.123476125E0,4.382341951E-1,3.761288711E0,5.132392370E0,6.378149686E0
9.133421125E0,-2.497801888E-1,3.792183645E0,5.069542987E0,6.335875081E0
9.143366125E0,-9.757435870E-1,3.655045388E0,4.750631168E0,6.072884720E0
9.153311125E0,-1.651706567E0,3.325842469E0,4.162869051E0,5.578426431E0
9.163257125E0,-2.474417118E0,2.796913866E0,3.216750966E0,4.928788292E0
9.173202125E0,-3.279229050E0,1.974155660E0,1.967642154E0,4.303748294E0
9.183147125E0,-3.894005304E0,1.400580057E0,8.237393689E-1,4.219413271E0
9.193092125E0,-4.169409161E0,1.170451190E0,-3.756859446E-1,4.346845830E0
9.203037125E0,-4.059180375E0,1.304672856E0,-1.343669399E0,4.470409829E0
9.212983125E0,-3.693705423E0,1.631721661E0,-1.826836231E0,4.432076934E0
9.222928125E0,-3.119037853E0,2.015461560E0,-1.909671542E0,4.175802657E0
9.232873125E0,-2.612948767E0,2.250374619E0,-1.599600567E0,3.801369379E0
9.242818125E0,-2.298126198E0,2.287119107E0,-1.170989280E0,3.447247268E0
9.252763125E0,-1.953987736E0,2.031357216E0,-8.047499514E-1,2.931228871E0
9.262709125E0,-1.584483468E0,1.443746542E0,-8.309420422E-1,2.299012095E0
9.272654125E0,-1.131524229E0,5.599001348E-1,-1.231879699E0,1.763905563E0
9.282599125E0,-8.606472865E-1,-8.454325390E-1,-1.867618221E0,2.223391047E0
9.292544125E0,-6.342316943E-1,-2.111612005E0,-2.692647486E0,3.480158845E0
9.302489125E0,-3.621777070E-1,-2.652798711E0,-3.656063388E0,4.531590581E0
9.312434125E0,2.368122339E-2,-3.116041448E0,-4.489024401E0,5.464578225E0
9.322380125E0,-1.065877247E-1,-2.830490917E0,-5.345863103E0,6.049900172E0
9.332325125E0,-4.177723025E-1,-2.213474595E0,-5.965676733E0,6.376778369E0
9.342270125E0,-1.253579594E0,-1.450622867E0,-6.306627878E0,6.591610099E0
9.352215125E0,-2.555331181E0,-8.702913916E-1,-6.340111374E0,6.890873441E0
9.362160125E0,-4.201170067E0,-7.950687164E-1,-6.227501602E0,7.554054567E0
9.372106125E0,-5.942389612E0,-1.242973037E0,-6.297834835E0,8.747553937E0
9.382051125E0,-7.183990892E0,-2.067398869E0,-6.290108909E0,9.769817465E0
9.391996125E0,-7.454264402E0,-2.734186106E0,-6.136613651E0,1.003493192E1
9.401941125E0,-6.892852762E0,-2.713640744E0,-6.157896931E0,9.633014061E0
9.411886125E0,-5.563711647E0,-2.372379112E0,-6.207545055E0,8.666988263E0
9.421832125E0,-4.038642030E0,-2.037054158E0,-6.158651222E0,7.641282874E0
9.431777125E0,-2.261368115E0,-1.960859676E0,-6.015467529E0,6.718973583E0
9.441722125E0,-2.927731575E-1,-2.167828306E0,-5.554609872E0,5.969831364E0
9.451667125E0,1.439191561E0,-2.419214140E0,-4.859936094E0,5.616302007E0
9.461612125E0,2.431522529E0,-2.347704447E0,-4.174602073E0,5.371342519E0
9.471558125E0,2.508004110E0,-1.934016863E0,-3.318883697E0,4.587536903E0
9.481503125E0,2.320791467E0,-1.256670724E0,-2.746668157E0,3.809131175E0
9.491448125E0,2.164189876E0,-4.876262105E-1,-2.531818650E0,3.366244616E0
9.501393125E0,2.440593022E0,2.575113773E-3,-2.726950176E0,3.659611755E0
9.511338125E0,2.564327999E0,1.965190709E-2,-3.035678485E0,3.973853061E0
9.521284125E0,2.012805755E0,-2.020850354E-1,-2.977931383E0,3.600041763E0
9.531229125E0,1.016103262E0,-3.652100730E-1,-2.682926490E0,2.892047508E0
9.541174125E0,9.187700719E-2,-5.943472517E-1,-2.436919509E0,2.510033214E0
9.551119125E0,-6.183702448E-1,-8.305817807E-1,-2.390972673E0,2.605570605E0
9.561064125E0,-1.332221721E0,-1.012736582E0,-2.407954157E0,2.932352864E0
9.571009125E0,-2.066899517E0,-1.098102422E0,-2.400663264E0,3.352772979E0
9.580955125E0,-2.776237234E0,-9.937459946E-1,-2.519125514E0,3.878275085E0
9.590900125E0,-3.365226682E0,-6.859573334E-1,-2.749607552E0,4.399503356E0
9.600845125E0,-3.747920807E0,-3.628565687E-1,-3.075428442E0,4.861772862E0
9.610790125E0,-3.873117880E0,-7.573372185E-2,-3.270024948E0,5.069501048E0
9.620735125E0,-3.621453134E0,1.212349999E-1,-3.144371792E0,4.797571750E0
9.630681125E0,-3.048189772E0,2.345961392E-1,-2.798105528E0,4.144380627E0
9.640624958E0,-2.346470100E0,3.064280140E-1,-2.304794655E0,3.303316282E0
9.650569958E0,-1.730867927E0,3.227581179E-1,-1.994238507E0,2.660275137E0
9.660514958E0,-1.195135211E0,2.978799695E-1,-1.865790235E0,2.235677493E0
9.670459958E0,-8.434202197E-1,3.006568122E-1,-1.835664357E0,2.042404421E0
9.680405958E0,-6.019492167E-1,3.172015089E-1,-1.754107539E0,1.881449685E0
9.690350958E0,-5.014475664E-1,3.798251885E-1,-1.578905955E0,1.699606087E0
9.700295958E0,-5.559137955E-1,5.263827252E-1,-1.469793402E0,1.657230089E0
9.710240958E0,-7.348812792E-1,7.390032738E-1,-1.447349450E0,1.783534907E0
9.720185958E0,-9.318681273E-1,1.006587650E0,-1.308469892E0,1.895703131E0
9.730131958E0,-1.081915282E0,1.125679060E0,-9.697785500E-1,1.837978362E0
9.740076958E0,-1.639235626E0,1.247048546E0,-6.989793751E-1,2.175039236E0
9.750021958E0,-1.750332138E0,1.355757056E0,-2.800567791E-1,2.231629805E0
9.759966958E0,-1.910031000E0,1.431323547E0,5.507960200E-2,2.387454561E0
9.769911958E0,-2.002986234E0,1.504749373E0,3.697744095E-1,2.532381812E0
9.779857958E0,-1.918769664E0,1.600982264E0,6.881409761E-1,2.591979790E0
9.789802958E0,-1.613184526E0,1.618806916E0,1.111445768E0,2.541301210E0
9.799747958E0,-1.234936331E0,1.669758384E0,1.395833872E0,2.502301541E0
9.809692958E0,-8.413459200E-1,1.820445809E0,1.534520764E0,2.525200957E0
9.819637958E0,-2.549953204E-1,1.957535534E0,1.422820234E0,2.433389693E0
9.829582958E0,5.882334030E-1,1.903414291E0,1.408089344E0,2.439614744E0
9.839528958E0,1.580972215E0,1.670328487E0,1.501284313E0,2.746511421E0
9.849473958E0,2.627821745E0,1.350020937E0,1.794470723E0,3.456606548E0
9.859418958E0,3.602409922E0,8.835318267E-1,2.000660796E0,4.214336170E0
9.869363958E0,4.500495176E0,4.403660899E-1,1.921228418E0,4.913196287E0
9.879308958E0,5.297253445E0,-4.070246816E-3,1.668266759E0,5.553739696E0
9.889254958E0,6.028829001E0,-3.880726862E-1,1.270723338E0,6.173501222E0
9.899199958E0,6.688731142E0,-6.280178583E-1,8.786657739E-1,6.775365987E0
9.909144958E0,7.190423999E0,-4.315859109E-1,6.454846609E-1,7.232227467E0
9.919089958E0,7.422781239E0,4.795517904E-1,7.235216010E-1,7.473361677E0
9.929034958E0,7.267368679E0,1.719787745E0,9.092502201E-1,7.523234236E0
9.938980958E0,6.739775580E0,2.755775195E0,9.670084316E-1,7.345337099E0
9.948925958E0,5.631950408E0,3.583913425E0,4.393536445E-1,6.690017374E0
9.958870958E0,3.481613171E0,3.609418395E0,-7.470490426E-1,5.070267615E0
9.968815958E0,5.607596755E-1,2.786128677E0,-2.253770974E0,3.627181829E0
9.978760958E0,-2.897606720E0,9.598654729E-1,-2.849674754E0,4.175896627E0
9.988706958E0,-5.786954833E0,-1.441023493E0,-1.326468645E0,6.109411920E0
9.998651958E0,-7.710611014E0,-3.196997318E0,1.134491107E0,8.423858032E0
1.000859696E1,-8.066035187E0,-3.714160153E0,2.399117845E0,9.198460508E0
1.001854196E1,-7.603768351E0,-2.772495893E0,2.872811602E0,8.588193822E0
1.002848696E1,-6.054193053E0,-1.718569770E0,3.487475589E0,7.195083152E0
1.003843196E1,-4.514586966E0,-1.031049476E0,4.020132084E0,6.132374782E0
1.004837796E1,-3.343305471E0,-7.728305858E-1,4.575615525E0,5.719371995E0
1.005832296E1,-3.665732051E0,-1.502456095E0,3.635919730E0,5.377255627E0
1.006826796E1,-5.345721016E0,-5.010965581E0,-1.635276476E0,7.507372269E0
1.007821296E1,-4.608984123E0,-1.085475360E1,-5.440882112E0,1.298736341E1
1.008815796E1,-2.042028385E0,-1.164549245E1,-3.403620670E0,1.230333321E1
1.009810396E1,1.121986544E0,-7.179814226E0,1.189352900E-2,7.266961372E0
1.010804896E1,3.617061290E0,-2.687466853E0,3.190007264E0,5.521028600E0
1.011799396E1,4.706036793E0,4.337172210E-1,4.817506943E0,6.748575114E0
1.012793896E1,4.590038852E0,2.726626241E0,5.642932649E0,7.768245374E0
1.013788396E1,3.902334663E0,3.904740792E0,6.643601747E0,8.637862041E0
1.014782996E1,3.307547116E0,3.767710708E0,6.925904149E0,8.550067847E0
1.015777496E1,2.436597328E0,3.024713786E0,6.530538815E0,7.598278571E0
1.016771996E1,1.385151009E0,1.942289504E0,6.115122210E0,6.563981374E0
1.017766496E1,2.498491859E-1,5.341033888E-1,5.533573344E0,5.564901167E0
1.018760996E1,-7.322310287E-1,-1.109737796E0,4.807041596E0,4.987517335E0
1.019755596E1,-1.585538598E0,-2.549112960E0,4.189753379E0,5.154216031E0
1.020750096E1,-2.081961652E0,-3.424052303E0,3.576278715E0,5.371076981E0
1.021744596E1,-1.855003146E0,-3.413692206E0,2.964058864E0,4.886714244E0
1.022739096E1,-7.833666837E-1,-2.247721152E0,2.280480763E0,3.296438419E0
1.023733596E1,1.048224503E-1,-8.350186479E-1,1.373179858E0,1.610548606E0
1.024728196E1,3.222321609E-1,3.610772610E-2,-4.381903410E-2,3.271963342E-1
1.025722696E1,4.710195333E-2,6.339457655E-1,-1.566175543E0,1.690269700E0
1.026717196E1,-2.897964862E-1,1.019772536E0,-2.881072841E0,3.069934648E0
1.027711696E1,-4.432160228E-1,9.798448241E-1,-3.303764552E0,3.474391535E0
1.028706196E1,-4.727009001E-1,7.685551018E-1,-2.699277059E0,2.846088496E0
1.029700696E1,-4.707660565E-1,3.977229309E-1,-1.952213544E0,2.047179018E0
1.030695296E1,-5.146958953E-1,5.685481668E-2,-1.080600390E0,1.198266054E0
1.031689796E1,-5.812763858E-1,-2.594947529E-1,-4.308180984E-1,7.686507642E-1
1.032684296E1,-4.369407910E-1,-3.940350920E-1,-9.279070772E-2,5.956433698E-1
1.033678796E1,-1.730018619E-1,-1.848111910E-1,4.626331642E-2,2.573424080E-1
1.034673296E1,6.111597508E-2,1.055732328E-1,2.304394998E-2,1.241446476E-1
1.035667896E1,2.200348181E-1,2.414870828E-1,-2.040233874E-1,3.851712281E-1
1.036662396E1,2.842635584E-1,-5.847215652E-6,-6.047190428E-1,6.681997391E-1
1.037656896E1,3.697469276E-1,-4.799844843E-1,-8.794059583E-1,1.067919817E0
1.038651396E1,5.733697808E-1,-8.815671623E-1,-7.473677889E-1,1.290144247E0
1.039645896E1,9.804941574E-1,-9.163165802E-1,-2.507484146E-1,1.365239772E0
1.040640496E1,1.589425242E0,-6.425125211E-1,4.258621446E-1,1.766480542E0
1.041634996E1,2.212113656E0,-1.869080025E-1,1.086988107E0,2.471826161E0
1.042629496E1,2.617924163E0,1.617398322E-1,1.553829732E0,3.048618299E0
1.043623996E1,2.897839439E0,1.927540487E-1,1.958172880E0,3.502723022E0
1.044618496E1,3.054008337E0,4.198417783E-2,2.266793600E0,3.803561859E0
1.045613096E1,2.963133250E0,-1.372382444E-1,2.376909535E0,3.801143503E0
1.046607596E1,2.752439359E0,-4.239558792E-1,2.276291817E0,3.596827136E0
1.047602096E1,2.570324319E0,-7.447727215E-1,2.159855043E0,3.438928222E0
1.048596596E1,2.410319648E0,-1.014996530E0,1.974683079E0,3.277076750E0
1.049591096E1,2.129700952E0,-1.280333821E0,1.611873872E0,2.961928125E0
1.050585696E1,1.639604293E0,-1.341072943E0,9.173427665E-1,2.308310340E0
1.051580196E1,1.023981947E0,-1.123819061E0,-4.227151366E-1,1.578035613E0
1.052574696E1,4.066185924E-1,-1.048254324E0,-1.914560838E0,2.220297054E0
1.053569196E1,-8.670631438E-2,-1.257841337E0,-3.447079808E0,3.670428042E0
1.054563696E1,-2.860358495E-1,-1.505987813E0,-4.055146966E0,4.335208498E0
1.055558296E1,-1.273582041E-2,-1.383964609E0,-2.828177758E0,3.148667920E0
1.056552796E1,4.587023735E-1,-9.974747640E-1,-9.435265982E-1,1.447620881E0
1.057547296E1,8.832029209E-1,-4.664932036E-1,9.780263400E-1,1.397926618E0
1.058541796E1,1.239570250E0,1.404150367E-2,2.154888418E0,2.486016022E0
1.059536296E1,1.490833585E0,2.224450403E-1,3.005985739E0,3.362739484E0
1.060530796E1,1.715323104E0,2.105634981E-1,3.420441062E0,3.832243129E0
1.061525396E1,1.748121014E0,5.958078861E-2,3.305597069E0,3.739846111E0
1.062519896E1,1.779952671E0,-2.726638520E-1,3.169407231E0,3.645232404E0
1.063514421E1,1.814839498E0,-6.203065503E-1,3.058340539E0,3.609968071E0
1.064508921E1,1.840178700E0,-8.965734565E-1,2.894052490E0,3.544804850E0
1.065503421E1,1.796761369E0,-1.033891808E0,2.714152375E0,3.415246229E0
1.066498021E1,1.713990524E0,-9.621119732E-1,2.485080686E0,3.168445830E0
1.067492521E1,1.587091618E0,-7.962223721E-1,2.152319151E0,2.790216407E0
1.068487021E1,1.386715724E0,-6.830799186E-1,1.817106464E0,2.385676964E0
1.069481521E1,1.009024769E0,-4.821461999E-1,1.273652208E0,1.694929464E0
1.070476021E1,4.142158797E-1,-4.902013242E-1,-3.142492497E-1,7.145801034E-1
1.071470621E1,-3.712400141E-1,-6.143646097E-1,-2.030577782E0,2.153719841E0
1.072465121E1,-9.424893022E-1,-7.713705361E-1,-3.736452663E0,3.929933472E0
1.073459621E1,-9.879560816E-1,-8.141528589E-1,-3.849692180E0,4.056973253E0
1.074454121E1,-5.340440395E-1,-7.311510479E-1,-2.516024151E0,2.673978762E0
1.075448621E1,-7.596527159E-2,-6.170122290E-1,-1.052671895E0,1.222535452E0
1.076443221E1,2.707582444E-1,-2.950019699E-1,3.477327454E-1,5.303340941E-1
1.077437721E1,5.526183048E-1,1.533169180E-1,1.377653124E0,1.492253731E0
1.078432221E1,6.802978134E-1,5.782405114E-1,2.111978041E0,2.292949727E0
1.079426721E1,7.799758834E-1,8.241761559E-1,2.621986223E0,2.856998507E0
1.080421221E1,8.208751103E-1,7.216493225E-1,2.690581080E0,2.904107477E0
1.081415821E1,7.094116849E-1,2.719832361E-1,2.391881915E0,2.509649162E0
1.082410321E1,5.053169614E-1,-2.591409963E-1,1.978129427E0,2.058031904E0
1.083404821E1,2.934588897E-1,-6.381095678E-1,1.522215006E0,1.676436836E0
1.084399321E1,2.641698942E-1,-7.919819713E-1,9.458315706E-1,1.261593649E0
1.085393821E1,3.014765918E-1,-7.745929366E-1,2.798547578E-1,8.770410699E-1
1.086388421E1,3.153172436E-1,-6.794259936E-1,-3.369539150E-1,8.213297667E-1
1.087382921E1,3.108602035E-1,-6.101674783E-1,-6.279090270E-1,9.290899654E-1
1.088377421E1,2.880353048E-1,-5.279281443E-1,-5.966628221E-1,8.471593627E-1
1.089371921E1,4.340671769E-1,-5.631213659E-1,-2.230092236E-1,7.451530719E-1
1.090366421E1,6.947763965E-1,-6.013323355E-1,3.077214912E-1,9.690239083E-1
1.091360921E1,9.880069524E-1,-6.552237833E-1,8.036389073E-1,1.432240007E0
1.092355521E1,1.370138867E0,-6.681724423E-1,1.201738399E0,1.941110535E0
1.093350021E1,1.750228058E0,-7.368485749E-1,1.499930244E0,2.419924547E0
1.094344521E1,1.978513882E0,-7.800676847E-1,1.739105923E0,2.747273591E0
1.095339021E1,2.063742312E0,-7.769166201E-1,1.910547309E0,2.917674208E0
1.096333521E1,2.100160233E0,-6.375260156E-1,1.952958333E0,2.937883367E0
1.097328121E1,2.167647335E0,-5.237859768E-1,1.889738530E0,2.923039245E0
1.098322621E1,2.146652030E0,-3.391694981E-1,1.622648975E0,2.712220600E0
1.099317121E1,2.003726491E0,-3.315002900E-1,1.250167451E0,2.384896423E0
1.100311621E1,1.732850133E0,-5.741334271E-1,8.315655747E-1,2.005966121E0
1.101306121E1,1.234965860E0,-9.364157993E-1,3.635844009E-1,1.591919860E0
1.102300721E1,6.399555337E-1,-1.255866147E0,-3.612877607E-2,1.409981615E0
1.103295221E1,1.209721676E-1,-1.448513192E0,-1.275615411E-1,1.459142447E0
1.104289721E1,-6.727513969E-2,-1.468081484E0,1.305006440E-1,1.475404896E0
1.105284221E1,-1.033378422E-2,-1.290102764E0,5.696977293E-1,1.410328838E0
1.106278721E1,2.508993459E-1,-9.894009286E-1,1.282570089E0,1.639161588E0
1.107273321E1,5.656233895E-1,-6.364191377E-1,2.122828134E0,2.287216305E0
1.108267821E1,1.035319113E0,-2.348931777E-1,3.201856646E0,3.373269401E0
1.109262321E1,1.589457986E0,1.404290700E-1,4.440920235E0,4.718884354E0
1.110256821E1,2.029776714E0,5.071676052E-1,5.655902942E0,6.030460230E0
1.111251321E1,2.228115438E0,1.021397477E0,6.596802971E0,7.037439922E0
1.112245921E1,2.135045891E0,1.556601312E0,6.864507215E0,7.355466532E0
1.113240421E1,1.666490667E0,1.846056613E0,6.404558215E0,6.870479029E0
1.114234921E1,7.111222878E-1,1.617752663E0,5.477002702E0,5.755030598E0
1.115229421E1,-8.671543604E-1,8.921734267E-1,4.069319447E0,4.255266252E0
1.116223921E1,-2.804723115E0,-1.303648424E-1,2.324952054E0,3.645390074E0
1.117218521E1,-4.660138489E0,-1.171271555E0,4.461539564E-1,4.825745657E0
1.118213021E1,-5.945116754E0,-2.065015544E0,-1.349878558E0,6.436681950E0
1.119207521E1,-6.472099403E0,-2.871386343E0,-2.419811141E0,7.482540757E0
1.120202021E1,-6.336791909E0,-3.289297371E0,-2.758789143E0,7.654105201E0
1.121196521E1,-5.689044961E0,-3.055297648E0,-2.245155394E0,6.836724291E0
1.122191021E1,-4.516981693E0,-2.316936398E0,-1.361467739E0,5.255940667E0
1.123185621E1,-2.949951287E0,-1.536541854E0,-8.216925511E-1,3.426127860E0
1.124180121E1,-1.290058910E0,-8.745154202E-1,-8.482330629E-1,1.774409350E0
1.125174621E1,2.243810534E-2,-3.478602147E-1,-1.190823475E0,1.240794401E0
1.126169121E1,8.947538030E-1,-9.663342476E-2,-1.706154085E0,1.928959344E0
1.127163621E1,1.228867798E0,-2.033497882E-1,-2.309104930E0,2.623629696E0
1.128158221E1,1.200190129E0,-5.058163136E-1,-2.825982421E0,3.111668867E0
1.129152721E1,9.143793976E-1,-7.543826205E-1,-3.106511363E0,3.324995589E0
1.130147221E1,4.471468136E-1,-9.203821492E-1,-3.257951325E0,3.414863161E0
1.131141721E1,-3.256489813E-2,-1.006174251E0,-3.316716427E0,3.466129679E0
1.132136221E1,-2.096978179E-1,-9.439364880E-1,-3.133595666E0,3.279391874E0
1.133130821E1,2.584352374E-2,-5.600287735E-1,-2.627451908E0,2.686597038E0
1.134125321E1,5.410522199E-1,-7.148279607E-2,-1.836023668E0,1.915419068E0
1.135119821E1,1.145395871E0,3.720945847E-1,-8.812283161E-1,1.492296695E0
1.136114321E1,1.669054379E0,8.041558743E-1,2.076822826E-1,1.864280322E0
1.137108821E1,2.067069086E0,1.144919323E0,1.211208330E0,2.655304216E0
1.138103421E1,2.340912906E0,1.333870343E0,2.000842352E0,3.355957902E0
1.139097921E1,2.338091624E0,1.538920501E0,2.557375075E0,3.791453023E0
1.140092421E1,2.313058232E0,1.791066474E0,3.150108495E0,4.298993025E0
1.141086921E1,2.264619021E0,2.034296027E0,3.757692089E0,4.836022071E0
1.142081421E1,1.918148689E0,2.352238963E0,4.416156107E0,5.358615240E0
1.143076021E1,1.616739340E0,2.605799376E0,4.916734777E0,5.794680091E0
1.144070521E1,1.621401325E0,2.606651900E0,4.977269831E0,5.847802268E0
1.145065021E1,1.179500634E0,2.449295726E0,4.524893268E0,5.278724314E0
1.146059521E1,3.987593499E-1,2.350612267E0,3.812171474E0,4.496336108E0
1.147054021E1,-1.657568693E-1,2.072838534E0,3.087751449E0,3.722679671E0
1.148048621E1,-7.980092812E-1,1.598549822E0,2.214127875E0,2.845090964E0
1.149043121E1,-1.632759834E0,1.293635652E0,1.025620629E0,2.321916353E0
1.150037621E1,-2.534467438E0,1.511236859E0,-3.013513152E-1,2.966171717E0
1.151032121E1,-3.463643800E0,1.765236983E0,-1.335268851E0,4.110454097E0
1.152026621E1,-4.134618228E0,2.031911532E0,-2.116511680E0,5.069847538E0
1.153021121E1,-4.286813650E0,2.363048126E0,-2.498845031E0,5.495907041E0
1.154015721E1,-4.021731883E0,2.581825792E0,-2.505590379E0,5.396122210E0
1.155010221E1,-3.503604257E0,2.492641135E0,-2.064341944E0,4.769697085E0
1.156004721E1,-2.942801604E0,2.228096142E0,-1.555468122E0,4.005493076E0
1.156999221E1,-2.152313742E0,1.700504213E0,-1.302659075E0,3.036624720E0
1.157993721E1,-1.398866238E0,9.433336401E-1,-1.490259973E0,2.251128582E0
1.158988321E1,-1.058071214E0,-3.912722826E-2,-1.636176070E0,1.948876026E0
1.159982821E1,-1.326664819E0,-7.661349392E-1,-1.743660758E0,2.321067669E0
1.160977321E1,-1.244235158E0,-1.192592257E0,-2.227858161E0,2.816691216E0
1.161971821E1,-8.907648325E-1,-1.104211008E0,-3.451986791E0,3.732151758E0
1.162966321E1,-3.838331625E-1,-6.136179203E-1,-5.352770419E0,5.401481835E0
1.163960896E1,-6.181066816E-1,-9.635942423E-1,-7.133327107E0,7.224605550E0
1.164955396E1,-2.439407646E0,-2.021250889E0,-8.073295675E0,8.672615976E0
1.165949896E1,-4.177184496E0,-3.088674139E0,-8.479842054E0,9.944671916E0
1.166944396E1,-5.870586973E0,-3.779583480E0,-9.364073793E0,1.168053598E1
1.167938896E1,-7.323599598E0,-4.053841283E0,-1.047966524E1,1.341238695E1
1.168933496E1,-7.799026178E0,-3.788980540E0,-1.040530736E1,1.354443074E1
1.169927996E1,-6.600957418E0,-2.945576985E0,-8.498755458E0,1.115696674E1
1.170922496E1,-4.373213570E0,-2.303719352E0,-6.301665931E0,8.008939586E0
1.171916996E1,-2.330324475E0,-2.051044207E0,-4.331403347E0,5.329000793E0
1.172911496E1,-6.763095738E-1,-1.776530880E0,-2.579089295E0,3.203928557E0
1.173906096E1,8.794055928E-1,-1.565781441E0,-1.277130132E0,2.203653124E0
1.174900596E1,2.226911935E0,-1.308419167E0,-5.654894882E-1,2.644026446E0
1.175895096E1,2.786461675E0,-1.022347650E0,-2.524558930E-1,2.978808044E0
1.176889596E1,2.531659898E0,-6.222981119E-1,4.666838229E-2,2.607438344E0
1.177884096E1,3.000251667E0,-5.552849275E-1,3.510299903E-1,3.071330896E0
1.178878596E1,3.731244548E0,-5.380239469E-1,2.018131399E-1,3.775232998E0
1.179873196E1,4.803765694E0,-6.765743065E-1,-3.656883752E-1,4.864940454E0
1.180867696E1,5.793010209E0,-1.028670244E0,-1.222553390E0,6.009306661E0
1.181862196E1,6.444264318E0,-1.340533245E0,-2.159484329E0,6.927405326E0
1.182856696E1,6.114231094E0,-1.019794756E0,-3.535099114E0,7.135876187E0
1.183851196E1,4.754869230E0,-4.057581747E-1,-4.672113587E0,6.678477855E0
1.184845796E1,2.940735198E0,-2.724878508E-1,-5.151451954E0,5.937982011E0
1.185840296E1,1.060156623E0,-4.683578807E-1,-5.189927802E0,5.317766614E0
1.186834796E1,-8.058123904E-1,-7.005385351E-1,-4.565330565E0,4.688531861E0
1.187829296E1,-2.655990121E0,-7.207517749E-1,-3.533236191E0,4.478562786E0
1.188823796E1,-4.394838328E0,-3.911027133E-1,-2.601208727E0,5.121899267E0
1.189818396E1,-5.513152528E0,9.503655016E-2,-2.029583756E0,5.875635537E0
1.190812896E1,-5.951662127E0,7.041497755E-1,-1.798667854E0,6.257260984E0
1.191807396E1,-5.885072865E0,1.236077415E0,-1.577989258E0,6.217074883E0
1.192801896E1,-5.487356951E0,1.392879859E0,-1.412684670E0,5.834970316E0
1.193796396E1,-4.840660747E0,1.164912123E0,-1.253162395E0,5.134143815E0
1.194790996E1,-4.088819619E0,6.859438848E-1,-1.151784539E0,4.302972521E0
1.195785496E1,-3.095657469E0,7.257505596E-2,-1.062750010E0,3.273805108E0
1.196779996E1,-2.132036037E0,-5.704426646E-1,-1.149485414E0,2.488433084E0
1.197774496E1,-1.378810581E0,-1.118789871E0,-1.288976444E0,2.194144404E0
1.198768996E1,-8.343786702E-1,-1.379230703E0,-1.442676355E0,2.163279955E0
1.199763596E1,-4.385935065E-1,-1.287430002E0,-1.652486001E0,2.140222011E0
1.200758096E1,-1.101556957E-1,-7.815704191E-1,-1.950650876E0,2.104287394E0
1.201752596E1,5.259131938E-2,-1.764403170E-1,-2.343774826E0,2.350994995E0
1.202747096E1,5.710215390E-2,4.570768476E-1,-2.459667809E0,2.502427948E0
1.203741596E1,-1.422975478E-1,9.605361485E-1,-2.126143798E0,2.337384379E0
1.204736196E1,-4.295127806E-1,1.418480723E0,-1.565502821E0,2.155775469E0
1.205730696E1,-5.711808756E-1,1.707520872E0,-1.087551413E0,2.103483586E0
1.206725196E1,-6.319723302E-1,1.842669906E0,-7.086018455E-1,2.072905686E0
1.207719696E1,-7.022298422E-1,1.875480387E0,-4.649302429E-1,2.055897265E0
1.208714196E1,-6.634791747E-1,1.786201590E0,-8.497904688E-2,1.907339030E0
1.209708796E1,-4.662891358E-1,1.731366987E0,3.651457536E-1,1.829860274E0
1.210703296E1,-1.511569566E-1,1.699006156E0,5.826174447E-1,1.802474253E0
1.211697796E1,1.605657113E-1,1.754738308E0,5.928588429E-1,1.859131379E0
1.212692296E1,5.819210413E-1,1.694842939E0,6.506609085E-1,1.906432350E0
1.213686796E1,1.117194166E0,1.534152097E0,7.776235485E-1,2.050961688E0
1.214681296E1,1.786089908E0,1.203732957E0,9.533607379E-1,2.355416500E0
1.215675896E1,2.526122292E0,7.519449162E-1,1.087269870E0,2.851117459E0
1.216670396E1,3.400781262E0,3.793737835E-1,9.562831762E-1,3.552986796E0
1.217664896E1,4.427038068E0,2.156646091E-1,8.055220762E-1,4.504891019E0
1.218659396E1,5.483010716E0,3.646469861E-1,6.665094942E-1,5.535395997E0
1.219653896E1,6.252401969E0,8.685150075E-1,6.694664311E-1,6.347836955E0
1.220648496E1,6.563325323E0,1.643240676E0,7.738629118E-1,6.810017843E0
1.221642996E1,6.417925535E0,2.335224735E0,9.408409721E-1,6.894071690E0
1.222637496E1,5.909189706E0,3.075987436E0,1.056138709E0,6.745046380E0
1.223631996E1,4.851807879E0,3.633244629E0,1.143913310E0,6.168390705E0
1.224626496E1,3.635951305E0,4.027438180E0,1.212965418E0,5.559827812E0
1.225621096E1,2.502271500E0,4.345293408E0,1.436072364E0,5.215864386E0
1.226615596E1,1.342937620E0,4.540441892E0,1.606638568E0,5.000038151E0
1.227610096E1,1.126688290E-1,4.382887496E0,1.338474148E0,4.584093162E0
1.228604596E1,-1.330794708E0,3.431680580E0,5.060835314E-1,3.715315155E0
1.229599096E1,-3.211484379E0,1.569304973E0,-9.735880110E-1,3.704621928E0
1.230593696E1,-5.229196533E0,-1.508185782E0,-2.104320235E0,5.835005089E0
1.231588196E1,-6.819502366E0,-5.351399832E0,-1.980946616E0,8.891976280E0
1.232582696E1,-8.165094037E0,-7.428760602E0,-1.698268822E0,1.116867771E1
1.233577196E1,-8.541305646E0,-7.152364472E0,-1.313407427E0,1.121763160E1
1.234571696E1,-7.352624592E0,-5.402039643E0,4.733698216E-1,9.136038511E0
1.235566296E1,-4.878889259E0,-3.557363557E0,2.939239480E0,6.715469053E0
1.236560796E1,-3.020916604E0,-2.599981982E0,4.061078089E0,5.690184415E0
1.237555296E1,-4.327305326E0,-3.610757992E0,8.233505291E-1,5.695704588E0
1.238549796E1,-3.692821032E0,-8.313620916E0,-2.686415523E0,9.485254255E0
1.239544296E1,-3.094121405E-1,-1.082093330E1,-8.412672749E-1,1.085799539E1
1.240538796E1,2.098318360E0,-7.811941507E0,1.934521770E0,8.316955244E0
1.241533396E1,3.515198408E0,-3.714359543E0,4.954837573E0,7.120639160E0
1.242527896E1,4.416765679E0,-2.226163638E-1,6.408715585E0,7.786463418E0
1.243522396E1,4.317654789E0,2.267805169E0,6.151189005E0,7.849981487E0
1.244516896E1,3.546079600E0,3.838630418E0,6.282035658E0,8.171519811E0
1.245511396E1,3.240973934E0,3.595534181E0,6.269814978E0,7.921007382E0
1.246505996E1,2.722826720E0,2.767779529E0,5.904614260E0,7.066743127E0
1.247500496E1,1.891503512E0,1.943632025E0,5.411777011E0,6.053331430E0
1.248494996E1,8.867010176E-1,9.245933139E-1,5.038528186E0,5.198834271E0
1.249489496E1,-3.689534605E-2,-2.046490395E-1,4.644046659E0,4.648700019E0
1.250483996E1,-7.311902243E-1,-1.393722442E0,3.874471218E0,4.181940771E0
1.251478596E1,-1.341427869E0,-2.369024565E0,3.268429828E0,4.253744192E0
1.252473096E1,-2.143808529E0,-2.455241175E0,2.428569685E0,4.064735533E0
1.253467596E1,-2.635530129E0,-1.743904002E0,1.197106308E0,3.379391031E0
1.254462096E1,-2.675854867E0,-5.848987359E-1,-4.279881191E-1,2.772269762E0
1.255456596E1,-2.194674335E0,6.690565413E-1,-2.188930907E0,3.171064586E0
1.256451196E1,-1.278095507E0,1.396924962E0,-2.639848298E0,3.248649952E0
1.257445696E1,-4.428567114E-1,1.505289071E0,-1.684746552E0,2.302257196E0
1.258440196E1,3.917953160E-1,1.248626710E0,-5.066962465E-1,1.403322242E0
1.259434696E1,1.172226698E0,7.541493165E-1,5.205916429E-1,1.487908694E0
1.260429196E1,1.783159869E0,8.399349868E-2,1.027505479E0,2.059728510E0
1.261423796E1,2.244855140E0,-4.991721225E-1,1.294819129E0,2.639148344E0
1.262418296E1,2.595102480E0,-9.449188203E-1,1.438777724E0,3.114082497E0
1.263412796E1,2.737904643E0,-1.288585412E0,1.221960629E0,3.263397306E0
1.264407308E1,2.760755269E0,-1.469832725E0,7.257236624E-1,3.210740215E0
1.265401808E1,2.773220071E0,-1.607608913E0,-7.641141415E-3,3.205497522E0
1.266396408E1,2.650974964E0,-1.578162335E0,-1.197287645E0,3.309344697E0
1.267390908E1,2.207411909E0,-1.208073345E0,-2.840332950E0,3.794680463E0
1.268385408E1,1.500870330E0,-7.113547146E-1,-4.363472986E0,4.668889994E0
1.269379908E1,5.367317122E-1,-2.874257326E-1,-4.994028536E0,5.031005417E0
1.270374408E1,-2.400244018E-1,-4.650758386E-2,-4.274541514E0,4.281527744E0
1.271368908E1,-6.289276850E-1,-1.565182686E-2,-2.481023887E0,2.559545769E0
1.272363508E1,-6.660744613E-1,-1.686407161E-1,-5.911289442E-1,9.063819878E-1
1.273358008E1,-3.348174155E-1,-4.244493842E-1,9.042414220E-1,1.053523863E0
1.274352508E1,1.477369201E-1,-5.657619685E-1,1.592403814E0,1.696367504E0
1.275347008E1,4.754026061E-1,-5.298203033E-1,1.845958965E0,1.978454369E0
1.276341508E1,9.151307648E-1,-6.546086562E-1,1.938892272E0,2.241713641E0
1.277336108E1,1.207430152E0,-7.033036834E-1,1.991069316E0,2.432463908E0
1.278330608E1,1.328581536E0,-5.498072559E-1,1.969256862E0,2.438316942E0
1.279325108E1,1.529308264E0,-3.120167828E-1,1.923933924E0,2.477430117E0
1.280319608E1,1.719879254E0,-1.564580423E-1,1.937297151E0,2.595300372E0
1.281314108E1,1.877133103E0,-3.145954049E-1,1.815499649E0,2.630330384E0
1.282308708E1,1.875186857E0,-6.213280588E-1,1.609276539E0,2.547968855E0
1.283303208E1,1.780405830E0,-7.727966720E-1,1.345809188E0,2.361834454E0
1.284297708E1,1.441634235E0,-5.901302397E-1,1.087417220E0,1.899747135E0
1.285292208E1,8.069946975E-1,-1.230230784E-1,9.382594264E-1,1.243666302E0
1.286286708E1,1.588176861E-1,4.170403773E-1,1.047770759E0,1.138845598E0
1.287281308E1,-2.809478948E-1,1.042584863E0,1.183149004E0,1.601797891E0
1.288275808E1,-4.878071818E-1,1.242578350E0,1.332186345E0,1.885915496E0
1.289270308E1,-5.622644565E-1,8.886235821E-1,1.358832107E0,1.718201933E0
1.290264808E1,-3.721814159E-1,-6.830717325E-3,1.262219732E0,1.315965165E0
1.291259308E1,5.294361413E-2,-8.601985127E-1,1.161081612E0,1.445978913E0
1.292253908E1,5.650100166E-1,-1.460723348E0,1.065184937E0,1.894087634E0
1.293248408E1,1.073933541E0,-1.766746150E0,9.660839868E-1,2.282113818E0
1.294242908E1,1.487647437E0,-1.763966968E0,8.871161699E-1,2.472175046E0
1.295237408E1,1.785722119E0,-1.554237868E0,8.751574445E-1,2.523957089E0
1.296231908E1,2.020531096E0,-1.127287629E0,8.658346438E-1,2.470423636E0
1.297226508E1,2.200140897E0,-6.552927804E-1,9.254891074E-1,2.475188615E0
1.298221008E1,2.270924658E0,-4.571803433E-1,9.106371796E-1,2.489050570E0
1.299215508E1,2.132897332E0,-5.472835976E-1,8.748241532E-1,2.369406606E0
1.300210008E1,1.829812171E0,-6.623462766E-1,9.126649940E-1,2.149388881E0
1.301204508E1,1.493239129E0,-6.666878343E-1,9.487750590E-1,1.890610980E0
1.302199008E1,1.173626521E0,-5.552515984E-1,9.045525670E-1,1.582377608E0
1.303193608E1,7.528483111E-1,-2.813528144E-1,7.013127065E-1,1.066667473E0
1.304188108E1,1.924982330E-1,7.948704958E-2,3.568555713E-1,4.131823562E-1
1.305182608E1,-4.146050119E-1,5.069606137E-1,-2.549261771E-2,6.554054114E-1
1.306177108E1,-9.804421172E-1,8.041576284E-1,-2.937208084E-1,1.301617513E0
1.307171608E1,-1.567722716E0,9.212527996E-1,-4.300147641E-1,1.868521858E0
1.308166208E1,-2.013963504E0,7.630756760E-1,-4.263941316E-1,2.195482962E0
1.309160708E1,-2.076336338E0,3.335579252E-1,-2.798196379E-1,2.121492990E0
1.310155208E1,-1.920806541E0,-1.091365260E-1,-9.822116308E-3,1.923929579E0
1.311149708E1,-1.502226884E0,-4.537901276E-1,3.382708176E-1,1.605315619E0
1.312144208E1,-7.528629291E-1,-6.351941460E-1,6.693646896E-1,1.190933785E0
1.313138808E1,8.052960813E-2,-6.676958942E-1,9.637158644E-1,1.175181302E0
1.314133308E1,9.046472919E-1,-6.427569348E-1,1.233983527E0,1.659589873E0
1.315127808E1,1.586898660E0,-5.923755705E-1,1.438860608E0,2.222493200E0
1.316122308E1,2.071418830E0,-6.238464546E-1,1.506593585E0,2.636244411E0
1.317116808E1,2.412843891E0,-7.686334544E-1,1.452552449E0,2.919335823E0
1.318111408E1,2.635557611E0,-9.773071325E-1,1.280074790E0,3.088670364E0
1.319105908E1,2.767458225E0,-1.205742061E0,9.766300980E-1,3.172766189E0
1.320100408E1,2.845384360E0,-1.419817981E0,5.578196955E-1,3.228507096E0
1.321094908E1,2.951675631E0,-1.530116349E0,1.997595978E-1,3.330697970E0
1.322089408E1,3.127457259E0,-1.449006112E0,-1.671360813E-2,3.446866253E0
1.323084008E1,3.234359564E0,-1.208645203E0,3.789346576E-2,3.453019104E0
1.324078508E1,3.242850013E0,-9.783169466E-1,3.249705581E-1,3.402761543E0
1.325073008E1,3.048342969E0,-8.253625560E-1,6.644812413E-1,3.227251699E0
1.326067508E1,2.705975044E0,-7.343184847E-1,1.028573327E0,2.986551132E0
1.327062008E1,2.278771914E0,-6.849960512E-1,1.408936898E0,2.765343416E0
1.328056608E1,1.806765371E0,-6.584303963E-1,1.750342956E0,2.600313857E0
1.329051108E1,1.318351540E0,-6.733554143E-1,2.119355034E0,2.585173893E0
1.330045608E1,9.129474145E-1,-5.968346572E-1,2.409416546E0,2.644801066E0
1.331040108E1,5.944791064E-1,-4.400269514E-1,2.503083093E0,2.610067834E0
1.332034608E1,3.070384634E-1,-2.335588431E-1,2.493636332E0,2.523300320E0
1.333029108E1,1.204994202E-2,-2.425308108E-2,2.523733120E0,2.523878419E0
1.334023708E1,-4.479262474E-1,9.167206228E-2,2.630695359E0,2.670131038E0
1.335018208E1,-9.025709456E-1,1.024046266E-1,2.788278698E0,2.932510719E0
1.336012708E1,-1.267513801E0,1.827360141E-1,2.941245368E0,3.207944513E0
1.337007208E1,-1.338708914E0,2.077018708E-1,3.187963954E0,3.463870061E0
1.338001708E1,-1.252035636E0,3.098176450E-1,3.491253183E0,3.721885140E0
1.338996308E1,-1.118463011E0,4.584638071E-1,3.831412615E0,4.017570310E0
1.339990808E1,-9.542948306E-1,5.748140430E-1,3.812048098E0,3.971498522E0
1.340985308E1,-7.083954388E-1,4.542514729E-1,3.424261633E0,3.526150341E0
1.341979808E1,-3.823886079E-1,5.242555082E-2,2.857422023E0,2.883371308E0
1.342974308E1,-8.131430447E-2,-5.133258927E-1,2.259072644E0,2.318086431E0
1.343968908E1,9.954826176E-2,-1.040519627E0,1.633203346E0,1.939057533E0
1.344963408E1,1.715274864E-1,-1.497333350E0,9.852494055E-1,1.800595798E0
1.345957908E1,2.035866004E-1,-1.941842777E0,4.272341207E-1,1.998682032E0
1.346952408E1,1.172086072E-1,-2.332642604E0,-7.949611276E-2,2.336937956E0
1.347946908E1,-9.791805804E-2,-2.765374569E0,-6.037513286E-1,2.832207641E0
1.348941508E1,-2.725866687E-1,-3.314518751E0,-1.379713098E0,3.600548052E0
1.349936008E1,-4.499192709E-1,-3.870146910E0,-2.293860069E0,4.521311588E0
1.350930508E1,-6.363179809E-1,-4.190045739E0,-2.988013445E0,5.185519089E0
1.351925008E1,-7.980315006E-1,-4.096635300E0,-2.746493033E0,4.996248496E0
1.352919508E1,-8.322488219E-1,-3.203380138E0,-1.207442723E0,3.523095279E0
1.353914108E1,-5.120588011E-1,-1.734954253E0,7.019021058E-1,1.940344568E0
1.354908608E1,-4.009377301E-2,-8.256677806E-2,1.783041755E0,1.785402667E0
1.355903108E1,2.939336836E-2,1.205829184E0,1.579195246E0,1.987145092E0
1.356897608E1,-4.538339818E-1,1.955783708E0,5.183293551E-2,2.008417748E0
1.357892108E1,-1.172017075E0,2.097145994E0,-1.932846251E0,3.083429904E0
1.358886708E1,-1.719800609E0,1.590758992E0,-3.150456112E0,3.926016050E0
1.359881208E1,-2.006797156E0,9.639415669E-1,-3.420937199E0,4.081571938E0
1.360875708E1,-2.073092887E0,5.819149017E-1,-2.860241843E0,3.580128834E0
1.361870208E1,-1.901945178E0,3.405582118E-1,-1.824174286E0,2.657251810E0
1.362864708E1,-1.699115207E0,2.339739954E-1,-6.201881441E-1,1.823833778E0
1.363859171E1,-1.455590077E0,3.211840475E-1,5.028017816E-1,1.573121514E0
1.364853771E1,-9.718277067E-1,6.451022530E-1,1.287822058E0,1.737553355E0
1.365848271E1,-2.818580139E-1,1.059800820E0,1.697673284E0,2.021068108E0
1.366842771E1,3.572844645E-1,1.534910481E0,2.097235748E0,2.623356659E0
1.367837271E1,9.700349504E-1,1.966802786E0,2.561305281E0,3.371878667E0
1.368831771E1,1.540503050E0,2.338764054E0,3.086824957E0,4.167907781E0
1.369826371E1,1.992183503E0,2.720686639E0,3.671205630E0,4.984845201E0
1.370820871E1,2.524888822E0,3.025606071E0,4.239039267E0,5.787815613E0
1.371815371E1,2.979163099E0,3.159590340E0,4.509609523E0,6.260591182E0
1.372809871E1,3.187189490E0,3.093565335E0,4.576142944E0,6.377257057E0
1.373804371E1,3.372857299E0,2.828170742E0,4.397103539E0,6.221674665E0
1.374798971E1,3.255145246E0,2.356219162E0,3.854393049E0,5.568131203E0
1.375793471E1,2.925268143E0,1.815749910E0,2.937563083E0,4.525861058E0
1.376787971E1,2.427346448E0,9.993932354E-1,1.672144632E0,3.112372935E0
1.377782471E1,1.475496046E0,1.372043306E-1,2.068589947E-1,1.496230013E0
1.378776971E1,2.472571152E-1,-1.984433895E-1,-1.544574613E0,1.576777281E0
1.379771571E1,-7.789947206E-1,-1.732874984E-1,-2.729741929E0,2.844002872E0
1.380766071E1,-1.399422308E0,1.750387394E-1,-3.068550947E0,3.377132847E0
1.381760571E1,-1.502205250E0,9.713020420E-1,-2.946428339E0,3.446953471E0
1.382755071E1,-1.350177058E0,1.857089725E0,-2.906976006E0,3.704358221E0
1.383749571E1,-1.358517234E0,2.328081776E0,-2.988472159E0,4.024487505E0
1.384744171E1,-1.596996217E0,2.104248022E0,-2.906179615E0,3.927357459E0
1.385738671E1,-1.583943770E0,1.073200300E0,-2.963151376E0,3.527166402E0
1.386733171E1,-1.526800101E0,-4.927740991E-1,-3.051525024E0,3.447571585E0
1.387727671E1,-1.712041062E0,-2.069488664E0,-2.702668444E0,3.810286688E0
1.388722171E1,-2.053538190E0,-3.030701335E0,-1.961713954E0,4.153371079E0
1.389716771E1,-2.549629269E0,-2.963878185E0,-1.148639907E0,4.074868947E0
1.390711271E1,-2.895858110E0,-1.908527681E0,-5.865716243E-1,3.517461922E0
1.391705771E1,-3.371459522E0,-1.005511177E0,-4.095144260E-1,3.541961900E0
1.392700271E1,-3.872824350E0,2.811733049E-1,-7.636194670E-1,3.957390752E0
1.393694771E1,-3.588656686E0,1.283614694E0,-1.470570059E0,4.085180509E0
1.394689271E1,-3.538595457E0,1.528862121E0,-2.696303750E0,4.704161041E0
1.395683871E1,-4.183165613E0,7.692713857E-1,-4.286944043E0,6.038918963E0
1.396678371E1,-5.236202667E0,2.661360204E-2,-5.927623054E0,7.909187172E0
1.397672871E1,-6.462534528E0,-9.566278696E-2,-7.565022361E0,9.950028503E0
1.398667371E1,-7.692474121E0,3.057392120E-2,-8.566137602E0,1.151320139E1
1.399661871E1,-8.276827896E0,1.559961122E-1,-8.426170462E0,1.181230559E1
1.400656471E1,-7.822800372E0,2.289863205E-1,-7.355114921E0,1.073994208E1
1.401650971E1,-6.652916361E0,1.485707331E-1,-5.903057147E0,8.895473739E0
1.402645471E1,-5.157036045E0,-4.965186560E-1,-4.597703674E0,6.926790788E0
1.403639971E1,-3.608344261E0,-1.466351293E0,-3.796867265E0,5.439350645E0
1.404634471E1,-1.988518175E0,-2.392612233E0,-3.462719940E0,4.655021720E0
1.405629071E1,-1.525942022E-1,-3.040671422E0,-3.319210557E0,4.504012257E0
1.406623571E1,1.800332849E0,-3.354044759E0,-3.061885706E0,4.885279796E0
1.407618071E1,3.586095898E0,-3.299711262E0,-2.663704938E0,5.553692663E0
1.408612571E1,4.625434972E0,-2.745008132E0,-2.164496562E0,5.797824048E0
1.409607071E1,4.583610131E0,-1.999589878E0,-1.759783285E0,5.301384604E0
1.410601671E1,4.366398348E0,-1.193583945E0,-1.189142400E0,4.680185554E0
1.411596171E1,4.549772878E0,-7.503954041E-1,-9.554011238E-1,4.709173793E0
1.412590671E1,4.631511106E0,-8.169846654E-1,-1.217310777E0,4.858004178E0
1.413585171E1,3.928801500E0,-1.255172083E0,-1.913447528E0,4.546671268E0
1.414579671E1,2.411049965E0,-1.494304492E0,-2.491606178E0,3.775474698E0
1.415574271E1,8.681840551E-1,-1.472629448E0,-2.795535092E0,3.276796835E0
1.416568771E1,-4.097699493E-1,-1.181004830E0,-2.838507450E0,3.101581590E0
1.417563271E1,-1.565983170E0,-6.289072198E-1,-2.600172601E0,3.099794369E0
1.418557771E1,-2.436242402E0,-1.964605987E-2,-2.182047565E0,3.270626023E0
1.419552271E1,-3.228953813E0,5.471730852E-1,-1.820738754E0,3.747082962E0
1.420546871E1,-3.729597387E0,1.079999442E0,-1.713657525E0,4.244162765E0
1.421541371E1,-3.882095110E0,1.566646244E0,-1.801573920E0,4.557489604E0
1.422535871E1,-4.047924193E0,1.958431327E0,-1.884478083E0,4.875694943E0
1.423530371E1,-4.061300283E0,1.979922768E0,-1.738209983E0,4.841035851E0
1.424524871E1,-3.999864758E0,1.759114364E0,-1.437322791E0,4.599923720E0
1.425519371E1,-3.632351467E0,1.423668373E0,-1.079917581E0,4.048089771E0
1.426513971E1,-2.970657739E0,1.042898274E0,-7.318057899E-1,3.232334130E0
1.427508471E1,-2.323365704E0,7.018296003E-1,-4.238235860E-1,2.463781527E0
1.428502971E1,-1.737663268E0,4.149160838E-1,-1.485484406E-1,1.792678340E0
1.429497471E1,-1.355986851E0,2.390897244E-1,-9.898502871E-2,1.380457270E0
1.430491971E1,-1.191295052E0,2.431500310E-1,-4.177949604E-1,1.285635434E0
1.431486571E1,-9.754073721E-1,2.510028416E-1,-1.018128884E0,1.432134209E0
1.432481071E1,-1.003709358E0,2.510887957E-1,-1.661395111E0,1.957220420E0
1.433475571E1,-1.237781586E0,2.219339937E-1,-2.178862148E0,2.515710280E0
1.434470071E1,-1.364585767E0,2.384190488E-1,-2.446113817E0,2.811122688E0
1.435464571E1,-1.427312065E0,3.072314215E-1,-2.435472616E0,2.839566470E0
1.436459171E1,-1.541279268E0,3.738136661E-1,-2.252050285E0,2.754452563E0
1.437453671E1,-1.814226710E0,4.899294287E-1,-1.944089277E0,2.703873613E0
1.438448171E1,-1.908574458E0,4.715001744E-1,-1.378599204E0,2.401146527E0
1.439442671E1,-1.701264643E0,5.641153926E-1,-6.486643767E-1,1.906119890E0
1.440437171E1,-1.472290310E0,7.299336576E-1,6.786278486E-2,1.644702787E0
1.441431771E1,-1.026828664E0,8.563527989E-1,7.699730515E-1,1.542911443E0
1.442426271E1,-5.995936659E-1,9.434231025E-1,1.210233453E0,1.647490433E0
1.443420771E1,-3.105421150E-1,1.074449265E0,1.227273263E0,1.660444907E0
1.444415271E1,-5.049187660E-2,1.171628235E0,1.074487564E0,1.590529999E0
1.445409771E1,1.400738516E-1,1.197015091E0,1.059124882E0,1.604434894E0
1.446404371E1,4.994001639E-1,1.145258462E0,9.125158900E-1,1.547159564E0
1.447398871E1,1.122589976E0,1.013470407E0,4.710917464E-1,1.584063747E0
1.448393371E1,1.916912588E0,9.200938815E-1,-3.891322017E-4,2.126294140E0
1.449387871E1,2.751937668E0,8.759608519E-1,-3.062002650E-1,2.904174055E0
1.450382371E1,3.475896056E0,8.841498774E-1,-3.886708564E-1,3.607580828E0
1.451376971E1,4.030740103E0,9.546515107E-1,-2.433017662E-1,4.149388031E0
1.452371471E1,4.380476105E0,1.125752150E0,1.524418822E-1,4.525386982E0
1.453365971E1,4.628338991E0,1.285968783E0,5.423146337E-1,4.834184801E0
1.454360471E1,4.787638196E0,1.454787254E0,9.227759993E-1,5.088162831E0
1.455354971E1,4.909647367E0,1.707478772E0,1.226264033E0,5.340771902E0
1.456349471E1,5.092398584E0,1.852257586E0,1.457733374E0,5.611449732E0
1.457344071E1,5.203061818E0,2.020864972E0,1.657028703E0,5.822498745E0
1.458338571E1,5.268575191E0,2.282404497E0,1.742665269E0,6.000344746E0
1.459333071E1,5.069626018E0,2.613515947E0,1.489156311E0,5.894841820E0
1.460327571E1,4.217611853E0,2.733403748E0,4.697413319E-1,5.047811676E0
1.461322071E1,2.524269602E0,2.214962711E0,-1.278159826E0,3.593283927E0
1.462316671E1,2.546982819E-1,9.368210113E-1,-2.627695152E0,2.801300883E0
1.463311171E1,-1.887832630E0,-9.320613778E-1,-2.616165028E0,3.358119996E0
1.464305721E1,-3.314801171E0,-2.862525473E0,-1.205150030E0,4.542504318E0
1.465300221E1,-3.919252412E0,-4.200977109E0,9.200327781E-1,5.818522875E0
1.466294721E1,-3.580694825E0,-4.313140154E0,2.426889195E0,6.108546847E0
1.467289321E1,-2.369537658E0,-3.339695692E0,3.023774431E0,5.090332783E0
1.468283821E1,-1.102263300E0,-1.939591599E0,3.593934675E0,4.230055130E0
1.469278321E1,-5.545929095E-1,-4.384674990E-1,3.992281796E0,4.054397734E0
1.470272821E1,-7.296851510E-1,4.449555695E-1,3.895902141E0,3.988543515E0
1.471267321E1,-1.535787271E0,3.835691607E-1,3.174741061E0,3.547498928E0
1.472261921E1,-3.377843512E0,-1.152416623E0,1.081784012E0,3.729362883E0
1.473256421E1,-6.245953660E0,-5.741275799E0,-3.460940340E0,9.162548388E0
1.474250921E1,-7.501103523E0,-1.170143978E1,-5.499519160E0,1.494774090E1
1.475245421E1,-5.474288424E0,-1.187313742E1,-2.963837839E0,1.340610162E1
1.476239921E1,-2.660522298E0,-6.054284855E0,1.206409374E0,6.722214485E0
1.477234521E1,2.911913395E-2,-1.096703768E0,4.539829396E0,4.670509396E0
1.478229021E1,1.727629446E0,1.691011258E0,6.173005552E0,6.629496219E0
1.479223521E1,1.953175265E0,3.298030772E0,6.440586419E0,7.494868512E0
1.480218021E1,1.969670845E0,3.967949778E0,6.702841058E0,8.034445029E0
1.481212521E1,1.570902140E0,3.723211058E0,6.511579803E0,7.663596131E0
1.482207021E1,8.253564164E-1,3.036639767E0,6.037231450E0,6.808124402E0
1.483201621E1,2.882765025E-2,2.066362742E0,5.346640198E0,5.732124163E0
1.484196121E1,-5.763939607E-1,9.815855402E-1,4.672222930E0,4.808888362E0
1.485190621E1,-1.029627433E0,-1.483111167E-1,3.989659028E0,4.123045961E0
1.486185121E1,-1.357713242E0,-1.087482709E0,3.295343392E0,3.726297353E0
1.487179621E1,-1.545211813E0,-1.775903474E0,2.701486137E0,3.583230392E0
1.488174221E1,-1.330592979E0,-2.001037649E0,2.089411297E0,3.184378890E0
1.489168721E1,-5.965285555E-1,-1.815761020E0,1.541179866E-3,1.911239591E0
1.490163221E1,-3.567544144E-1,-1.290837175E0,-3.047122071E0,3.328436155E0
1.491157721E1,-1.941462708E-1,-7.027850354E-1,-5.637997599E0,5.684946482E0
1.492152221E1,4.394132861E-1,-1.639494950E-1,-5.309826128E0,5.330498756E0
1.493146821E1,1.278392546E0,1.270857239E-1,-3.286498893E0,3.528670183E0
1.494141321E1,1.854726280E0,2.166744232E-1,-1.116536500E0,2.175686360E0
1.495135821E1,2.113161810E0,2.330483812E-1,6.127800874E-1,2.212524309E0
1.496130321E1,2.244080676E0,1.895521134E-1,1.634069026E0,2.782446705E0
1.497124821E1,2.579559996E0,-9.154283881E-2,2.340061405E0,3.484020270E0
1.498119421E1,2.596866000E0,-3.931048000E-1,2.588196334E0,3.687411649E0
1.499113921E1,2.657896606E0,-7.883017337E-1,2.305894224E0,3.605964803E0
1.500108421E1,2.693526907E0,-1.224142663E0,1.435255069E0,3.288399242E0
1.501102921E1,2.679657019E0,-1.543445662E0,-2.171180807E-2,3.092451722E0
1.502097421E1,2.270189078E0,-1.646281228E0,-1.967697995E0,3.425760606E0
1.503092021E1,1.603428154E0,-1.563752457E0,-3.698860914E0,4.324104028E0
1.504086521E1,9.958205867E-1,-1.425469315E0,-4.602180887E0,4.919724619E0
1.505081021E1,5.598624203E-1,-1.194771515E0,-4.101449897E0,4.308458676E0
1.506075521E1,3.394618589E-1,-9.671341467E-1,-2.773643117E0,2.956971246E0
1.507070021E1,1.982767439E-1,-6.514178306E-1,-1.307957822E0,1.474588933E0
1.508064521E1,1.535616240E-1,-2.253680634E-1,-8.892796397E-2,2.868451135E-1
1.509059121E1,1.930738914E-1,8.784330547E-2,6.293030032E-1,6.640905388E-1
1.510053621E1,1.506073183E-1,3.910407329E-1,1.192402807E0,1.263890768E0
1.511048121E1,1.051794228E-1,5.678301287E-1,1.666312766E0,1.763545293E0
1.512042621E1,1.298637360E-1,5.335572588E-1,1.887344388E0,1.965608500E0
1.513037121E1,2.865346169E-1,4.874396843E-1,1.916904402E0,1.998554982E0
1.514031721E1,3.818842855E-1,3.519754851E-1,1.796335984E0,1.869905163E0
1.515026221E1,5.184164786E-1,-2.914720058E-2,1.812442725E0,1.885352443E0
1.516020721E1,4.227598312E-1,-3.283018631E-1,1.674785235E0,1.758241613E0
1.517015221E1,2.415999341E-1,-4.616213036E-1,1.517105709E0,1.604080574E0
1.518009721E1,1.115566885E-1,-1.994877023E-1,1.220434359E0,1.241652231E0
1.519004321E1,7.378016710E-2,3.099375129E-1,8.547787285E-1,9.122233551E-1
1.519998821E1,9.258013487E-2,6.099359286E-1,5.242520364E-1,8.095882386E-1
1.520993321E1,1.851345420E-2,5.752426440E-1,4.340762766E-1,7.208807539E-1
1.521987821E1,-6.864192635E-2,3.316359454E-1,5.748141161E-1,6.671621860E-1
1.522982321E1,-1.192370063E-1,-6.165070295E-2,8.521544981E-1,8.626619045E-1
1.523976921E1,-2.305586368E-2,-5.356464690E-1,1.245357531E0,1.355862859E0
1.524971421E1,8.225073606E-2,-7.484646535E-1,1.461835488E0,1.644362343E0
1.525965921E1,2.640854019E-1,-7.519636273E-1,1.559040771E0,1.750942181E0
1.526960421E1,5.355312788E-1,-6.402467251E-1,1.592106775E0,1.797641122E0
1.527954921E1,8.439534858E-1,-5.812331164E-1,1.638355912E0,1.932433574E0
1.528949521E1,1.202019431E0,-6.248007202E-1,1.666091595E0,2.147344372E0
1.529944021E1,1.538578439E0,-6.089571047E-1,1.633597448E0,2.325229664E0
1.530938521E1,1.866249388E0,-6.329546624E-1,1.570572649E0,2.519963656E0
1.531933021E1,2.183424000E0,-7.138532299E-1,1.450795945E0,2.716934977E0
1.532927521E1,2.428006891E0,-7.566185957E-1,1.335950782E0,2.872708418E0
1.533922121E1,2.654816878E0,-7.965375370E-1,1.209130595E0,3.023990988E0
1.534916621E1,2.736701870E0,-8.589162183E-1,1.050281553E0,3.054564705E0
1.535911121E1,2.618791305E0,-9.068101770E-1,7.754951620E-1,2.877805647E0
1.536905621E1,2.306546188E0,-8.766631025E-1,5.192795277E-1,2.521575845E0
1.537900121E1,1.844569959E0,-8.247158539E-1,2.359994892E-1,2.034278823E0
1.538894721E1,1.287440819E0,-8.113222218E-1,-7.388775587E-2,1.523550791E0
1.539889221E1,6.991761339E-1,-8.236487371E-1,-4.483878851E-1,1.169741939E0
1.540883721E1,1.070701200E-1,-8.169513363E-1,-7.591685665E-1,1.120361731E0
1.541878221E1,-3.803175241E-1,-7.464906335E-1,-9.322543359E-1,1.253390534E0
1.542872721E1,-6.739433518E-1,-5.962119287E-1,-7.811353862E-1,1.191570727E0
1.543867321E1,-7.574910003E-1,-4.194476759E-1,-3.206414258E-1,9.233308683E-1
1.544861821E1,-6.426484689E-1,-1.866828847E-1,4.047314036E-1,7.820837954E-1
1.545856321E1,-3.405810159E-1,1.497156179E-1,9.996575296E-1,1.066642101E0
1.546850821E1,1.856941205E-1,3.457224727E-1,1.449332972E0,1.501523359E0
1.547845321E1,5.653234273E-1,3.355553341E-1,1.728683699E0,1.849468922E0
1.548839921E1,8.074794316E-1,1.663088465E-1,1.792821808E0,1.973294631E0
1.549834421E1,9.428988996E-1,-9.281402349E-2,1.739808612E0,1.981062034E0
1.550828921E1,9.575844741E-1,-4.102114141E-1,1.535485847E0,1.855521009E0
1.551823421E1,9.037938908E-1,-6.363103795E-1,1.239608549E0,1.660832216E0
1.552817921E1,7.835988182E-1,-6.729273981E-1,9.026744413E-1,1.371743248E0
1.553812521E1,6.574673599E-1,-5.439015681E-1,4.683514488E-1,9.733680314E-1
1.554807021E1,4.629471597E-1,-2.754740238E-1,1.629505713E-2,5.389541162E-1
1.555801521E1,2.893231541E-1,-8.410225689E-2,-2.534767985E-1,3.937404786E-1
1.556796021E1,1.503368846E-1,-3.312681556E-2,-2.458567071E-1,2.900759990E-1
1.557790521E1,1.179178745E-2,-2.182941020E-2,4.958804324E-4,2.481562609E-2
1.558785021E1,-3.853022754E-2,-1.541402060E-1,3.399150181E-1,3.752146067E-1
1.559779621E1,-8.271646678E-2,-3.876487631E-1,7.028878733E-1,8.069479164E-1
1.560774121E1,6.234652162E-2,-6.313104254E-1,1.071103415E0,1.244870462E0
1.561768621E1,3.876069555E-1,-7.013091981E-1,1.395719851E0,1.609381138E0
1.562763121E1,8.210689455E-1,-6.496929020E-1,1.642499249E0,1.947834403E0
1.563757621E1,1.243594596E0,-5.860956609E-1,1.808085380E0,2.271389087E0
1.564752196E1,1.627679189E0,-6.181810874E-1,1.893558809E0,2.572363186E0
1.565746696E1,2.018211214E0,-6.994538766E-1,1.969613543E0,2.905475819E0
1.566741196E1,2.364577172E0,-7.437085283E-1,1.990392208E0,3.178991777E0
1.567735696E1,2.576602474E0,-7.952716148E-1,1.966632778E0,3.337511309E0
1.568730196E1,2.680618301E0,-9.138525635E-1,1.838368109E0,3.376453508E0
1.569724796E1,2.693269045E0,-1.028619373E0,1.536948967E0,3.267103930E0
1.570719296E1,2.648282906E0,-1.102836912E0,1.175284353E0,3.100152402E0
1.571713796E1,2.626680953E0,-1.154606405E0,9.178162448E-1,3.012466670E0
1.572708296E1,2.593031981E0,-1.178889892E0,8.818758953E-1,2.981828521E0
1.573702796E1,2.616724314E0,-1.031436562E0,1.054426060E0,3.003817876E0
1.574697396E1,2.677682122E0,-8.128898603E-1,1.426473867E0,3.140955136E0
1.575691896E1,2.743460374E0,-6.493344676E-1,1.897597919E0,3.398394906E0
1.576686396E1,2.667507967E0,-5.903723145E-1,2.324974566E0,3.587428738E0
1.577680896E1,2.428123543E0,-6.099411911E-1,2.722514186E0,3.698634301E0
1.578675396E1,2.034938051E0,-5.651807553E-1,3.077429359E0,3.732421951E0
1.579669996E1,1.447627923E0,-3.771372235E-1,3.332484906E0,3.652850221E0
1.580664496E1,8.987228930E-1,-1.329732853E-1,3.357881702E0,3.478613842E0
1.581658996E1,4.629152924E-1,4.618774116E-2,3.247563454E0,3.280715206E0
1.582653496E1,4.563342512E-2,2.611401594E-1,3.023090307E0,3.034691351E0
1.583647996E1,-3.628056979E-1,4.585351431E-1,2.689939055E0,2.752753998E0
1.584642596E1,-8.425276423E-1,5.797292125E-1,2.320383332E0,2.535767654E0
1.585637096E1,-1.456624449E0,6.072403622E-1,1.885574728E0,2.458838689E0
1.586631596E1,-2.302562773E0,3.081359857E-1,1.093388397E0,2.567536035E0
1.587626096E1,-3.197545202E0,-5.884497499E-1,-2.096779373E-1,3.257995283E0
1.588620596E1,-4.276392742E0,-2.186974429E0,-1.685709734E0,5.090384008E0
1.589615196E1,-5.331993508E0,-4.345226165E0,-3.645741591E0,7.784765696E0
1.590609696E1,-5.955959830E0,-6.165684253E0,-5.372884841E0,1.011716419E1
1.591604196E1,-5.945471095E0,-6.547098130E0,-5.284312388E0,1.030228508E1
1.592598696E1,-5.373485935E0,-5.099846182E0,-3.094138070E0,8.028478845E0
1.593593196E1,-4.445773716E0,-2.745216878E0,-2.080389628E-1,5.229187303E0
1.594587696E1,-3.229627412E0,-4.143676150E-1,1.987575897E0,3.814793794E0
1.595582296E1,-1.753698965E0,1.402611964E0,2.958457524E0,3.714195916E0
1.596576796E1,-2.364383045E-1,2.575648209E0,2.552570710E0,3.633935057E0
1.597571296E1,9.965655220E-1,3.072744570E0,9.020166296E-1,3.353883723E0
1.598565796E1,2.058408482E0,3.151719988E0,-1.251274621E0,3.966871884E0
1.599560296E1,2.400992462E0,2.110614470E0,-3.012013049E0,4.392229599E0
1.600554896E1,2.714686811E0,5.015840989E-1,-4.051300668E0,4.902463482E0
1.601549396E1,2.741809998E0,-7.861154598E-1,-3.370671317E0,4.415532211E0
1.602543896E1,2.753876312E0,-1.332004496E0,-1.492002151E0,3.403548316E0
1.603538396E1,2.763449958E0,-1.022773327E0,3.336143509E-1,2.965471208E0
1.604532896E1,2.939905478E0,-1.515107131E-1,1.534225187E0,3.319615436E0
1.605527496E1,3.170947387E0,7.532500148E-1,2.230137405E0,3.949152537E0
1.606521996E1,3.310255838E0,1.505836955E0,2.556459986E0,4.445315097E0
1.607516496E1,3.088097896E0,1.956136295E0,2.316329165E0,4.327608880E0
1.608510996E1,2.485884970E0,1.837446588E0,2.202185083E0,3.795451645E0
1.609505496E1,9.190334889E-1,1.442314559E0,3.020340361E0,3.470929233E0
1.610500096E1,-5.512705216E-1,1.427507654E0,3.844417699E0,4.137780170E0
1.611494596E1,-1.295589792E0,2.050546609E0,4.230565774E0,4.876574728E0
1.612489096E1,-1.574075862E0,3.160414213E0,4.091250307E0,5.404096769E0
1.613483596E1,-1.745931378E0,4.492471334E0,3.721663885E0,6.089446374E0
1.614478096E1,-1.772746709E0,5.753309954E0,3.159220504E0,6.798814640E0
1.615472696E1,-1.633900187E0,6.776790794E0,2.564256663E0,7.427646702E0
1.616467196E1,-1.492528985E0,7.309130663E0,1.982235050E0,7.718826958E0
1.617461696E1,-1.406365584E0,6.693291385E0,8.828991580E-1,6.896196390E0
1.618456196E1,-1.463089862E0,5.052659152E0,-7.676712951E-1,5.315949179E0
1.619450696E1,-1.678502895E0,3.036698239E0,-2.370749932E0,4.202304535E0
1.620445296E1,-2.133987399E0,1.172096012E0,-3.327783744E0,4.123330684E0
1.621439796E1,-2.404833937E0,-7.126931423E-1,-3.625289784E0,4.408387891E0
1.622434296E1,-2.261148845E0,-2.627670887E0,-3.537066118E0,4.952603871E0
1.623428796E1,-1.952074527E0,-4.119106150E0,-3.111178318E0,5.518791621E0
1.624423296E1,-1.522061078E0,-4.868491740E0,-2.475485405E0,5.669824489E0
1.625417796E1,-1.149226529E0,-4.243886901E0,-2.252946224E0,4.940350629E0
1.626412396E1,-7.579637477E-1,-3.272823426E0,-2.022475880E0,3.921261392E0
1.627406896E1,-5.757314712E-1,-2.449224390E0,-1.751000183E0,3.065317027E0
1.628401396E1,-9.566594446E-1,-1.586751895E0,-1.673950253E0,2.497015882E0
1.629395896E1,-1.832161436E0,-5.566508371E-1,-1.678273684E0,2.546228238E0
1.630390396E1,-2.934882135E0,3.417791104E-1,-1.566386628E0,3.344235813E0
1.631384996E1,-4.157932831E0,9.772650325E-1,-1.559552987E0,4.547049361E0
1.632379496E1,-5.333237211E0,1.180425956E0,-1.920617968E0,5.790129356E0
1.633373996E1,-6.605148118E0,1.082506143E0,-2.673990775E0,7.207636774E0
1.634368496E1,-7.953756368E0,8.892509884E-1,-3.997485234E0,8.946110656E0
1.635362996E1,-9.191582685E0,2.337640804E-1,-6.200928345E0,1.109014654E1
1.636357596E1,-1.004442540E1,-1.450628130E0,-9.744056271E0,1.406916615E1
1.637352096E1,-1.005679226E1,-4.434758146E0,-1.317633795E1,1.715873049E1
