"Time (s)","Linear Acceleration x (m/s^2)","Linear Acceleration y (m/s^2)","Linear Acceleration z (m/s^2)","Absolute acceleration (m/s^2)"
-2.196582966E-3,-3.118880563E0,1.975132729E0,-4.304392719E0,5.670657982E0
7.747416850E-3,-2.919231770E0,2.594228321E0,-4.281836500E0,5.795348007E0
1.769041689E-2,-2.361453590E0,2.314473551E0,-2.029058530E0,3.879475402E0
2.763341693E-2,-1.819003154E0,1.737661514E0,8.884505045E-1,2.667880116E0
3.757741675E-2,-1.257789004E0,1.252995164E0,3.237451279E0,3.692305627E0
4.752041679E-2,-5.398532483E-1,8.845357937E-1,4.250225283E0,4.374729712E0
5.746341683E-2,2.023458213E-1,5.525554472E-1,3.824159728E0,3.869167738E0
6.740641687E-2,4.540026739E-1,8.976224470E-1,2.682052331E0,2.864480615E0
7.735041669E-2,3.955531023E-1,1.893643008E0,1.300677015E0,2.331117071E0
8.729312522E-2,-5.756823546E-1,3.497748270E0,-8.306788445E-2,3.545779661E0
9.723612526E-2,-1.838867169E0,5.028372157E0,-9.743285608E-1,5.441991838E0
1.071791253E-1,-2.526043940E0,6.187898995E0,-7.836531973E-1,6.729420799E0
1.171231251E-1,-2.837802568E0,6.999270918E0,1.279823944E-1,7.553760407E0
1.270661252E-1,-3.133626949E0,7.442438993E0,1.204560338E0,8.164587046E0
1.370091252E-1,-3.266217534E0,7.830525128E0,2.252222485E0,8.778257622E0
1.469521252E-1,-3.273449955E0,8.226106224E0,2.981185359E0,9.341935793E0
1.568961251E-1,-3.159689451E0,8.613947361E0,3.460940632E0,9.806214184E0
1.668391251E-1,-3.093280576E0,8.820047094E0,3.679931138E0,1.004507385E1
1.767821251E-1,-2.899315569E0,8.770182624E0,3.787145976E0,9.983216349E0
1.867251252E-1,-2.540645899E0,8.349438620E0,3.820389736E0,9.526981925E0
1.966691250E-1,-2.126507202E0,7.544829587E0,3.692023764E0,8.664728839E0
2.066121250E-1,-1.807988316E0,6.537832632E0,3.469907337E0,7.619208240E0
2.165551251E-1,-1.576100607E0,5.663649918E0,2.974733833E0,6.588631489E0
2.264991254E-1,-1.542523263E0,4.962910239E0,2.374324042E0,5.713779022E0
2.364421249E-1,-1.504764284E0,4.403839824E0,1.652507051E0,4.938511952E0
2.463851250E-1,-1.530383859E0,3.823231190E0,9.124642883E-1,4.218028280E0
2.563281250E-1,-1.673163510E0,3.133190162E0,4.587409651E-1,3.581452218E0
2.662721253E-1,-2.021466359E0,2.429029861E0,3.743634506E-1,3.182241395E0
2.762151253E-1,-2.498986534E0,1.832872896E0,5.190421307E-1,3.142254204E0
2.861581249E-1,-3.059013553E0,1.543298312E0,8.292103162E-1,3.525184158E0
2.961011250E-1,-3.480081785E0,1.687063803E0,9.132415295E-1,3.973809708E0
3.060451252E-1,-2.986368915E0,1.839139357E0,4.718072994E-1,3.538846564E0
3.159881253E-1,-1.543095706E0,1.487288418E0,3.567526603E-1,2.172658200E0
3.259311253E-1,-8.807979611E-1,4.020381761E-1,6.499226975E-1,1.166121459E0
3.358741254E-1,-2.176459673E0,-1.142124354E0,-3.425334013E-1,2.481683679E0
3.458181252E-1,-3.841264296E0,-3.322030084E0,-8.834170751E-1,5.154766823E0
3.557611252E-1,-5.133132627E0,-5.544937992E0,-7.670047125E-1,7.594977560E0
3.657041253E-1,-5.846590000E0,-7.349132634E0,-1.657618979E0,9.536250091E0
3.756471253E-1,-5.005822955E0,-8.577570078E0,-2.786587683E0,1.031494270E1
3.855911251E-1,-3.288247211E0,-8.252656091E0,-3.186871694E0,9.437958120E0
3.955341252E-1,-1.829553140E0,-6.551848408E0,-3.232900976E0,7.531641984E0
4.054771252E-1,-8.289188325E-1,-4.690010744E0,-2.938363860E0,5.596185253E0
4.154211250E-1,-5.660243623E-1,-3.165791312E0,-2.360216758E0,3.989140428E0
4.253641251E-1,-7.880177783E-1,-1.873586474E0,-1.677873734E0,2.635632479E0
4.353071251E-1,-8.607604301E-1,-8.208368111E-1,-1.186168433E0,1.679784849E0
4.452501251E-1,-6.351144777E-1,-7.998406291E-3,-6.226803736E-1,8.894746888E-1
4.551941250E-1,-3.727640909E-1,4.825145745E-1,-7.015489340E-3,6.097725799E-1
4.651371250E-1,-2.222196302E-1,4.691846770E-1,6.090343610E-1,8.002741268E-1
4.750801250E-1,-9.145893127E-2,-1.847047716E-1,1.134918903E0,1.153482339E0
4.850231251E-1,-2.351482625E-1,-1.267127300E0,1.647821385E0,2.091942068E0
4.949671254E-1,-7.049866582E-1,-2.367108432E0,2.025985379E0,3.194499221E0
5.049101249E-1,-1.344211582E0,-3.159384518E0,2.037841194E0,3.992669789E0
5.148531250E-1,-1.705528872E0,-3.490027606E0,1.841850711E0,4.299015639E0
5.247961250E-1,-1.603355210E0,-3.249149219E0,1.552549192E0,3.941843169E0
5.347401253E-1,-1.221285422E0,-2.559646134E0,1.222984988E0,3.088530183E0
5.446831253E-1,-7.295243526E-1,-1.692603455E0,9.035784209E-1,2.052697299E0
5.546261249E-1,-2.579402706E-1,-8.258443666E-1,7.424444333E-1,1.140077119E0
5.645701252E-1,5.957026362E-2,-3.174049920E-1,7.269679499E-1,7.954727810E-1
5.745131252E-1,2.066329998E-1,-1.353852618E-1,7.557818592E-1,7.951305455E-1
5.844561253E-1,1.276046643E-1,-1.242521632E-1,7.785205114E-1,7.986336689E-1
5.943991253E-1,-3.037920892E-2,-1.100761735E-1,8.770473377E-1,8.844499380E-1
6.043431251E-1,-3.965640128E-2,-2.950797379E-1,9.857867646E-1,1.029767074E0
6.142861252E-1,-1.292015389E-1,-2.818170834E-1,9.147325695E-1,9.658413844E-1
6.242291252E-1,-3.537360817E-2,-1.322417986E-1,1.109834275E0,1.118244742E0
6.341721253E-1,-1.032729381E-1,-2.430851269E-1,1.372961318E0,1.398133921E0
6.441161251E-1,-2.258267775E-1,-4.648542291E-1,1.527980361E0,1.613013072E0
6.540591251E-1,-1.292655659E-1,-7.963211900E-1,1.593519462E0,1.786096666E0
6.640021252E-1,9.950323820E-2,-9.472325635E-1,1.737411253E0,1.981350117E0
6.739451252E-1,3.376655942E-1,-8.751089126E-1,1.701722773E0,1.943114525E0
6.838891250E-1,6.584207484E-1,-6.576240653E-1,1.595381216E0,1.846951141E0
6.938321250E-1,1.033869004E0,-4.328290290E-1,1.236517711E0,1.668892487E0
7.037751251E-1,1.393707240E0,-8.869232118E-2,8.159713429E-1,1.617434830E0
7.137191249E-1,1.582913490E0,3.583822793E-1,3.167763432E-1,1.653602197E0
7.236621249E-1,1.681524151E0,8.667280984E-1,-2.540726664E-1,1.908741467E0
7.336051250E-1,1.651726155E0,1.465030407E0,-8.313828492E-1,2.359175879E0
7.435481250E-1,1.795049597E0,1.878723253E0,-1.392626674E0,2.948086357E0
7.534921253E-1,1.997868166E0,2.126800148E0,-1.676373339E0,3.365261304E0
7.634351254E-1,2.304374825E0,2.350898196E0,-1.774544581E0,3.739769262E0
7.733781249E-1,2.639961441E0,2.447577814E0,-1.485878654E0,3.894594837E0
7.833211250E-1,3.146362769E0,2.283877410E0,-6.900041914E-1,3.948645399E0
7.932651252E-1,3.405989084E0,2.156392906E0,2.762270721E-1,4.040679820E0
8.032081253E-1,3.378184989E0,1.970106463E0,1.149148614E0,4.076026967E0
8.131511253E-1,3.206640546E0,1.799154342E0,1.660576501E0,4.034478188E0
8.230941249E-1,3.207741869E0,1.600184119E0,1.588357540E0,3.920851538E0
8.330381252E-1,3.117947055E0,1.458336514E0,7.286050972E-1,3.518409387E0
8.429811252E-1,2.970135875E0,1.372542073E0,-9.073272170E-1,3.395411836E0
8.529241253E-1,2.523706807E0,1.407123676E0,-2.677735332E0,3.939461841E0
8.628681251E-1,1.947575971E0,1.128388075E0,-3.580823171E0,4.229492451E0
8.728111251E-1,1.913856248E0,8.847229046E-1,-3.500255556E0,4.086241466E0
8.827541252E-1,1.809850069E0,7.144297653E-1,-3.089515554E0,3.651174266E0
8.926971252E-1,1.778059927E0,4.021720773E-1,-2.426702085E0,3.035147853E0
9.026411250E-1,1.706542633E0,2.931501567E-2,-2.109363166E0,2.713403784E0
9.125841251E-1,1.962534903E0,-7.809997308E-1,-2.290909857E0,3.116050673E0
9.225271251E-1,2.313508760E0,-1.661624907E0,-3.088756585E0,4.201635081E0
9.324701251E-1,2.308616395E0,-2.310538960E0,-3.137497805E0,4.529038797E0
9.424141250E-1,2.343211446E0,-2.541994559E0,-1.726880418E0,3.864517072E0
9.523571250E-1,2.516751544E0,-2.368954398E0,1.450855002E-2,3.456326630E0
9.623001250E-1,2.564698128E0,-2.037239515E0,1.038475440E0,3.436051887E0
9.722431251E-1,2.168543420E0,-1.828294526E0,1.172625331E0,3.069249356E0
9.821871254E-1,1.402535366E0,-1.843877356E0,9.470087613E-1,2.502761425E0
9.921301249E-1,5.076622796E-1,-2.080298411E0,5.228276181E-1,2.204248441E0
1.002073125E0,-5.568782938E-1,-2.539789574E0,-6.501852375E-1,2.680183829E0
1.012017125E0,-1.489493403E0,-3.527677243E0,-2.449264443E0,4.545546573E0
1.021960125E0,-1.996802511E0,-4.721504433E0,-2.864486336E0,5.872402093E0
1.031903125E0,-1.893004493E0,-5.488082006E0,-6.868443561E-1,5.845875921E0
1.041846125E0,-1.061134570E0,-5.705520660E0,2.127874428E0,6.181166731E0
1.051790125E0,-6.875811052E-1,-5.744169002E0,2.896943353E0,6.469971104E0
1.061733125E0,-6.950251955E-1,-6.103996128E0,1.195135796E0,6.258608337E0
1.071676125E0,-6.359063369E-1,-6.643064387E0,-1.405771361E0,6.819888155E0
1.081619125E0,-5.397149616E-1,-7.226370926E0,-3.250832340E0,7.942269191E0
1.091562750E0,-1.139639872E-1,-7.382576369E0,-4.090971687E0,8.441058641E0
1.101505750E0,5.856103420E-1,-6.702403101E0,-4.207058213E0,7.935016422E0
1.111448750E0,1.286878610E0,-5.625844161E0,-4.335520372E0,7.218234962E0
1.121392750E0,1.643987365E0,-4.687842597E0,-4.628361211E0,6.789719447E0
1.131335750E0,1.644034728E0,-3.857968914E0,-4.860369372E0,6.419498794E0
1.141278750E0,1.345229144E0,-3.279324945E0,-4.798791175E0,5.965903979E0
1.151221750E0,9.203236771E-1,-3.027706391E0,-4.529239211E0,5.525215787E0
1.161165750E0,5.041539502E-1,-2.957622249E0,-4.061940261E0,5.049857350E0
1.171108750E0,2.571804249E-1,-2.949311602E0,-3.431730282E0,4.532256990E0
1.181051750E0,8.444928914E-2,-2.790180212E0,-2.736401616E0,3.908980826E0
1.190994750E0,-1.168519270E-1,-2.888681822E0,-2.066328828E0,3.553568892E0
1.200938750E0,-4.743246719E-1,-2.853202672E0,-1.404959037E0,3.215534058E0
1.210881750E0,-1.104870574E0,-2.799887175E0,-6.764152622E-1,3.085068036E0
1.220824750E0,-1.800244263E0,-3.163969905E0,-1.162344245E-1,3.642127868E0
1.230767750E0,-2.367593751E0,-3.677144355E0,6.110130588E-1,4.415906219E0
1.240711750E0,-3.225227675E0,-4.000513507E0,1.485473442E0,5.349096486E0
1.250654750E0,-4.035054764E0,-4.174864029E0,1.718542289E0,6.055125449E0
1.260597750E0,-4.397109679E0,-4.074053353E0,1.790115716E0,6.255957044E0
1.270540750E0,-4.414194951E0,-3.562488642E0,1.946745082E0,5.997187574E0
1.280484750E0,-3.984682755E0,-2.612937073E0,1.849605289E0,5.111377165E0
1.290427750E0,-3.345168394E0,-1.593681430E0,1.577834891E0,4.027348386E0
1.300370750E0,-2.515942875E0,-3.777663839E-1,1.443431962E0,2.925093471E0
1.310314750E0,-1.625887309E0,6.530357552E-1,1.657870409E0,2.412156615E0
1.320257750E0,-1.195137843E0,1.503952398E0,2.120964188E0,2.861593326E0
1.330200750E0,-7.243609688E-1,2.323210461E0,2.822397201E0,3.726651529E0
1.340143750E0,-1.822349077E-1,2.947323548E0,3.601066232E0,4.656995133E0
1.350087750E0,5.412865470E-1,3.198229326E0,4.302797306E0,5.388480918E0
1.360030750E0,1.257494597E0,2.976297086E0,4.642372894E0,5.656081956E0
1.369973750E0,2.004975602E0,2.490842532E0,4.846049541E0,5.805895266E0
1.379916750E0,2.567220032E0,2.115127936E0,4.170233034E0,5.334344237E0
1.389860750E0,2.482369039E0,1.571515805E0,2.526232220E0,3.874747373E0
1.399803750E0,1.406170287E0,1.328064643E0,9.521116264E-1,2.155826320E0
1.409746750E0,-9.061786777E-1,1.648565150E0,-2.764902699E-1,1.901413611E0
1.419690750E0,-2.709110906E0,2.153353524E0,-8.381583104E-1,3.560719401E0
1.429633750E0,-3.356737402E0,2.817025949E0,-4.704326190E-1,4.407337976E0
1.439576750E0,-3.444013820E0,3.609101475E0,4.678113122E-1,5.010558060E0
1.449519750E0,-3.433905154E0,4.497781776E0,1.454310122E0,5.842667493E0
1.459463750E0,-3.428542964E0,5.320259900E0,2.380566384E0,6.762186671E0
1.469406750E0,-3.441610322E0,6.092740822E0,3.162577683E0,7.679066997E0
1.479349750E0,-3.363810486E0,6.809932812E0,3.497000119E0,8.361783047E0
1.489292750E0,-3.252948740E0,7.359046589E0,3.581899059E0,8.807226752E0
1.499236750E0,-3.019844810E0,7.737029319E0,3.504727214E0,9.014665729E0
1.509179750E0,-2.683622601E0,7.959828116E0,3.481404718E0,9.092902326E0
1.519122750E0,-2.337181213E0,8.018708993E0,3.736926287E0,9.150231036E0
1.529066750E0,-2.131031485E0,7.814096206E0,4.225042787E0,9.135227488E0
1.539009750E0,-1.729912199E0,7.578389681E0,4.614431974E0,9.039777033E0
1.548952750E0,-1.530469813E0,7.202587962E0,4.820690167E0,8.801060441E0
1.558895750E0,-1.752994376E0,6.667070716E0,4.521033229E0,8.243940967E0
1.568839750E0,-2.396243938E0,5.944246688E0,3.629950892E0,7.365636237E0
1.578782750E0,-3.234883182E0,5.267730854E0,2.352637889E0,6.614254499E0
1.588725750E0,-3.888604523E0,4.720468891E0,1.422915544E0,6.279232463E0
1.598668750E0,-3.758740495E0,4.290911964E0,1.035810133E0,5.797668343E0
1.608612750E0,-2.688047774E0,3.407746757E0,1.244921329E0,4.515325892E0
1.618555750E0,-1.723168313E0,1.854236868E0,2.176157080E0,3.338137660E0
1.628498750E0,-2.556326669E0,9.587387145E-2,2.815822884E0,3.804320748E0
1.638441750E0,-5.482842901E0,-1.929083567E0,2.045916345E0,6.161874988E0
1.648385750E0,-7.215623744E0,-5.084404855E0,1.275470546E0,8.918700795E0
1.658328750E0,-7.707047136E0,-8.704253513E0,2.114939363E-1,1.162786887E1
1.668271750E0,-6.988764641E0,-1.225196449E1,-1.407559440E0,1.417514333E1
1.678215750E0,-5.246011956E0,-1.411378695E1,-3.245245618E0,1.540296214E1
1.688158750E0,-3.289021382E0,-1.306469823E1,-4.914329817E0,1.434066383E1
1.698101750E0,-9.938355301E-1,-1.018463228E1,-5.846535037E0,1.178543235E1
1.708044750E0,1.269573483E0,-6.994197289E0,-5.734731596E0,9.133332306E0
1.717988750E0,2.290091100E0,-3.849871105E0,-4.955635718E0,6.680145967E0
1.727931750E0,2.096678363E0,-1.553812190E0,-3.952576278E0,4.736375377E0
1.737874750E0,1.369283712E0,6.927781105E-2,-2.935005219E0,3.239443306E0
1.747817750E0,6.099933775E-1,1.167457416E0,-1.837574935E0,2.260913616E0
1.757761750E0,-2.687491411E-1,1.693215659E0,-7.524009991E-1,1.872248015E0
1.767704750E0,-1.004541124E0,1.786912612E0,3.620375200E-1,2.081641352E0
1.777647750E0,-1.468337007E0,1.564933010E0,1.237346992E0,2.477106471E0
1.787591750E0,-1.753071997E0,1.241396627E0,1.974624606E0,2.917785008E0
1.797534750E0,-1.826853919E0,8.985878223E-1,2.540088952E0,3.255289111E0
1.807477750E0,-1.727859973E0,6.696687448E-1,2.955588880E0,3.488475590E0
1.817420750E0,-1.486425954E0,5.469713563E-1,3.173861639E0,3.547116785E0
1.827364750E0,-1.132730218E0,3.130874079E-1,3.096073791E0,3.311612053E0
1.837307750E0,-9.277250826E-1,5.984859109E-2,2.807028379E0,2.956968719E0
1.847250750E0,-8.702469528E-1,-1.616737586E-1,2.621946462E0,2.767322066E0
1.857193750E0,-8.158722326E-1,-3.516948187E-1,2.529156997E0,2.680666309E0
1.867137750E0,-6.945480627E-1,-4.500654513E-1,2.387111757E0,2.526511124E0
1.877080750E0,-4.811691302E-1,-5.587377083E-1,2.295944309E0,2.411446004E0
1.887023750E0,-3.235138705E-1,-7.853880662E-1,2.165634431E0,2.326256247E0
1.896966750E0,7.080393434E-3,-1.038164953E0,1.952733800E0,2.211561868E0
1.906910750E0,4.266815588E-1,-1.315056342E0,1.677346315E0,2.173688339E0
1.916853750E0,7.495405412E-1,-1.458232434E0,1.673153862E0,2.342583339E0
1.926796750E0,7.999645901E-1,-1.579880832E0,2.034262698E0,2.697070913E0
1.936740750E0,1.022496462E0,-1.743419268E0,1.375921179E0,2.445029416E0
1.946683750E0,1.347673573E0,-1.912380996E0,5.847952402E-1,2.411516246E0
1.956626750E0,1.606657571E0,-1.932983075E0,2.120855284E-1,2.522449681E0
1.966569750E0,1.852772725E0,-1.525605807E0,-3.727952639E-2,2.400339478E0
1.976513750E0,2.067723389E0,-1.023896577E0,-3.322610128E-1,2.331145983E0
1.986456750E0,1.948018898E0,-3.508072114E-1,-8.672256964E-1,2.161000633E0
1.996399750E0,1.892574137E0,3.523356736E-1,-1.539465462E0,2.464940405E0
2.006342750E0,1.963815736E0,9.807575744E-1,-2.136655630E0,3.063291521E0
2.016286750E0,2.215246009E0,1.520108255E0,-2.703531493E0,3.811446775E0
2.026229750E0,2.446147585E0,1.801611342E0,-2.843232000E0,4.160938553E0
2.036172750E0,2.783150690E0,1.708164650E0,-2.587369537E0,4.166321562E0
2.046116750E0,2.982203651E0,1.445210100E0,-2.176428975E0,3.964721168E0
2.056059750E0,3.031037842E0,1.324427674E0,-1.455552070E0,3.613852639E0
2.066002750E0,3.178455797E0,1.144866698E0,-6.626036272E-1,3.442723424E0
2.075945750E0,2.997356711E0,1.031620165E0,3.124499884E-1,3.185280586E0
2.085889750E0,2.673839332E0,1.129421863E0,1.142818930E0,3.119462394E0
2.095833667E0,2.261672901E0,1.338976132E0,1.613686948E0,3.084154172E0
2.105776667E0,2.237670666E0,1.346905541E0,1.771431670E0,3.155835025E0
2.115719667E0,2.100780038E0,1.292007203E0,1.081458249E0,2.692974438E0
2.125663667E0,7.876518157E-1,1.158903524E0,-7.863144113E-1,1.606780357E0
2.135606667E0,-3.558299696E-1,1.340152007E0,-3.459577646E0,3.727103414E0
2.145549667E0,-1.552914935E0,1.385021201E0,-6.126254724E0,6.469994240E0
2.155493667E0,-2.341351739E0,1.300315511E0,-6.364672018E0,6.905200815E0
2.165436667E0,-1.427686579E0,8.979908216E-1,-3.192286801E0,3.610453088E0
2.175379667E0,4.958555818E-1,4.087367463E-1,2.410467875E-1,6.863250247E-1
2.185322667E0,2.305760615E0,8.490741849E-2,1.683118833E0,2.855981493E0
2.195266667E0,3.973250864E0,-5.034686565E-1,1.350883255E0,4.226711332E0
2.205209667E0,4.958391511E0,-8.916582870E-1,3.076911588E-1,5.047313615E0
2.215152667E0,5.088894348E0,-8.615264153E-1,-8.287469244E-1,5.227417614E0
2.225095667E0,4.911105663E0,-1.162422379E0,-1.595225680E0,5.292913147E0
2.235039667E0,4.325045085E0,-1.686329393E0,-1.904808998E0,5.017770334E0
2.244982667E0,3.446247749E0,-2.404218371E0,-1.639914926E0,4.510677386E0
2.254925667E0,2.103918824E0,-2.935922647E0,-8.116059579E-1,3.702002220E0
2.264868667E0,4.615219009E-1,-3.132831727E0,2.754962432E-1,3.178605870E0
2.274812667E0,-9.202190119E-1,-3.346255099E0,1.295340554E0,3.704339802E0
2.284755667E0,-1.738139817E0,-4.056425167E0,2.042923594E0,4.863049657E0
2.294698667E0,-2.677772169E0,-5.022947695E0,2.085283455E0,6.062084990E0
2.304642667E0,-3.803547708E0,-5.804549105E0,1.132878737E0,7.031584438E0
2.314585667E0,-4.610136609E0,-6.412062532E0,-4.563284039E-1,7.910508269E0
2.324528667E0,-4.450312325E0,-7.031269805E0,-1.886161496E0,8.532387711E0
2.334471667E0,-2.743491949E0,-7.382062984E0,-2.623618474E0,8.300902112E0
2.344415667E0,-7.535575783E-1,-7.176628663E0,-2.759209850E0,7.725612402E0
2.354358667E0,4.894423556E-1,-6.521408388E0,-2.750691626E0,7.094689958E0
2.364301667E0,9.847927380E-1,-5.804737385E0,-2.868498403E0,6.549280566E0
2.374244667E0,1.123548920E0,-5.256554486E0,-3.093410969E0,6.201848003E0
2.384188667E0,1.118718535E0,-4.765219971E0,-3.521869789E0,6.030125980E0
2.394131667E0,1.070416440E0,-4.225815496E0,-3.890163099E0,5.842660088E0
2.404074667E0,1.027530622E0,-3.647966748E0,-4.001778844E0,5.511598180E0
2.414018667E0,1.179768729E0,-3.013923334E0,-3.813606673E0,5.001918030E0
2.423961667E0,1.508783952E0,-2.311164027E0,-3.592013572E0,4.529952503E0
2.433904667E0,1.865862010E0,-1.870366412E0,-3.405436522E0,4.310070703E0
2.443847667E0,2.046890052E0,-1.573512629E0,-3.160125360E0,4.080697633E0
2.453791667E0,1.912514897E0,-1.443060079E0,-2.773767663E0,3.665231598E0
2.463734667E0,1.423849636E0,-1.641525103E0,-2.269532436E0,3.142090057E0
2.473677667E0,6.567735878E-1,-2.064082328E0,-1.505170373E0,2.637674213E0
2.483620667E0,-2.750059542E-1,-2.519444187E0,-4.463986258E-1,2.573421656E0
2.493564667E0,-1.250314801E0,-3.453527532E0,4.133841133E-1,3.696082513E0
2.503507667E0,-2.218895549E0,-4.389842759E0,1.312543209E0,5.090872870E0
2.513450667E0,-2.901791280E0,-5.385304912E0,1.951638178E0,6.421120868E0
2.523393667E0,-3.296295026E0,-6.134782888E0,2.294303434E0,7.332458676E0
2.533337667E0,-3.398904013E0,-6.217733828E0,2.652645806E0,7.566326203E0
2.543280667E0,-3.315764208E0,-5.435317317E0,2.520363954E0,6.847568990E0
2.553223667E0,-2.864285777E0,-3.983905660E0,1.767110431E0,5.215200533E0
2.563167667E0,-2.239442080E0,-2.211475432E0,1.075302958E-1,3.149172459E0
2.573110667E0,-1.901111949E0,-4.024714547E-1,-1.909021186E0,2.724072650E0
2.583053667E0,-1.439717225E0,7.098613358E-1,-3.029124341E0,3.428160305E0
2.592996667E0,-1.382542858E0,1.068018497E0,-2.049274985E0,2.692882513E0
2.602940667E0,-1.143226554E0,1.070897081E0,-1.885620336E-1,1.577765241E0
2.612883667E0,-6.452082337E-1,8.692190123E-1,1.480815842E0,1.834298480E0
2.622826667E0,-2.229961404E-1,6.567130691E-1,2.925659029E0,3.006739112E0
2.632769667E0,1.519071543E-1,6.425873655E-1,3.502140698E0,3.563843961E0
2.642713667E0,6.768586273E-1,7.366158557E-1,3.117390693E0,3.273967814E0
2.652656667E0,8.025850198E-1,1.271730228E0,2.475930963E0,2.896838728E0
2.662599667E0,-3.981584023E-1,2.616583981E0,1.511341670E0,3.047818152E0
2.672543667E0,-2.169460264E0,4.223592385E0,5.277360633E-1,4.777425648E0
2.682486667E0,-3.107585204E0,5.444863481E0,1.466215637E-1,6.270974566E0
2.692429667E0,-3.213279474E0,6.435014023E0,4.644933097E-1,7.207657351E0
2.702372667E0,-3.115280725E0,7.684224869E0,9.554338682E-1,8.346564545E0
2.712316667E0,-3.123229137E0,8.431539960E0,1.845171930E0,9.178784549E0
2.722259667E0,-2.867797615E0,8.852686252E0,2.758810193E0,9.705944092E0
2.732202667E0,-2.486141955E0,9.278069437E0,3.646123706E0,1.027412733E1
2.742145667E0,-2.092348061E0,9.572404239E0,4.205516303E0,1.066279563E1
2.752089667E0,-1.761937692E0,9.732636659E0,4.438427567E0,1.084104608E1
2.762032667E0,-1.571198009E0,9.656767867E0,4.471570462E0,1.075717301E1
2.771975667E0,-1.413075849E0,9.441799076E0,4.367281862E0,1.049845246E1
2.781919667E0,-1.289164579E0,8.840548017E0,4.298266007E0,9.914248596E0
2.791862667E0,-1.125708004E0,7.921023654E0,4.361096678E0,9.112024938E0
2.801805667E0,-9.820191112E-1,6.728257735E0,4.241075560E0,8.013771620E0
2.811748667E0,-9.130862859E-1,5.616599128E0,3.495626900E0,6.678272214E0
2.821692667E0,-1.210162556E0,4.636456096E0,2.164714079E0,5.258061010E0
2.831635667E0,-2.020519987E0,3.828988944E0,6.569764861E-1,4.378958261E0
2.841578667E0,-2.970304568E0,3.334688721E0,-6.484269798E-1,4.512573062E0
2.851521667E0,-3.454304920E0,3.091049278E0,-1.386586793E0,4.838329366E0
2.861465667E0,-2.856628848E0,2.543795502E0,-9.526845074E-1,3.941932483E0
2.871408667E0,-1.636680977E0,1.401357152E0,8.402894743E-1,2.312706831E0
2.881351667E0,-1.392897693E0,1.823337257E-1,2.773003724E0,3.108530074E0
2.891295667E0,-4.085879639E0,-7.008022445E-1,3.254554093E0,5.270451456E0
2.901238667E0,-6.778643777E0,-1.959510723E0,3.080264089E0,7.699202594E0
2.911181667E0,-7.640153820E0,-3.741116987E0,2.475706429E0,8.859854910E0
2.921124667E0,-7.794023300E0,-5.724772618E0,1.528406038E0,9.790599866E0
2.931068667E0,-6.890062471E0,-7.462648140E0,6.907725155E-1,1.018043441E1
2.941011667E0,-5.166218512E0,-8.617313603E0,-1.751520292E-1,1.004881016E1
2.950954667E0,-3.724117084E0,-8.925057825E0,-1.591099738E0,9.800882798E0
2.960897667E0,-2.370188745E0,-8.682853289E0,-2.903651572E0,9.457321416E0
2.970841667E0,-7.363153088E-1,-7.458675542E0,-3.812699186E0,8.408964036E0
2.980784667E0,6.200932731E-1,-5.856620314E0,-4.265988207E0,7.272081721E0
2.990727667E0,1.488048556E0,-4.382632558E0,-4.204008890E0,6.252635236E0
3.000671667E0,1.661305649E0,-3.223619106E0,-3.930794231E0,5.348158551E0
3.010614667E0,1.290514701E0,-2.345963731E0,-3.205233121E0,4.176421121E0
3.020557667E0,7.288921224E-1,-1.694851125E0,-2.305636654E0,2.952924727E0
3.030500667E0,2.007672192E-1,-1.165160045E0,-1.336556554E0,1.784457573E0
3.040444667E0,-3.806095925E-1,-6.510745990E-1,-6.351747771E-1,9.860064873E-1
3.050387667E0,-8.450648953E-1,-2.685117441E-1,1.050233021E-3,8.866985604E-1
3.060330667E0,-1.252976453E0,1.434438944E-2,4.890706189E-1,1.345119260E0
3.070273667E0,-1.540594852E0,1.402220786E-1,9.987008520E-1,1.841330530E0
3.080217667E0,-1.808604612E0,1.844738066E-1,1.412825296E0,2.302424059E0
3.090160375E0,-2.004329924E0,8.356665194E-2,1.643107359E0,2.593091518E0
3.100103375E0,-2.210696583E0,-6.590630651E-2,1.746370357E0,2.818036985E0
3.110047375E0,-2.273084620E0,-1.578882712E-1,1.929514507E0,2.985777726E0
3.119990375E0,-2.174587103E0,-4.178069472E-2,1.954106727E0,2.923885735E0
3.129933375E0,-1.912290656E0,1.138406110E-1,1.993548535E0,2.764787695E0
3.139876375E0,-1.538577270E0,2.778351295E-1,2.051492103E0,2.579347248E0
3.149820375E0,-1.333476533E0,1.541869837E-1,2.359263808E0,2.714416881E0
3.159763375E0,-1.204643076E0,5.864991188E-2,2.625293409E0,2.889077748E0
3.169706375E0,-9.702191377E-1,-1.590220463E-1,2.568589450E0,2.750320881E0
3.179649375E0,-6.559847984E-1,-6.567879134E-1,2.544229950E0,2.708282197E0
3.189593375E0,-1.004542878E-1,-8.474580145E-1,2.096873513E0,2.263880448E0
3.199536375E0,5.101868150E-1,-8.329118961E-1,1.643678048E0,1.911991197E0
3.209479375E0,1.012184897E0,-9.360936177E-1,1.185205470E0,1.818103829E0
3.219423375E0,1.474241818E0,-7.858236837E-1,1.087911894E0,1.993604798E0
3.229366375E0,2.027900342E0,-4.539591122E-1,1.105290989E0,2.353747404E0
3.239309375E0,2.656353526E0,-7.965369523E-2,1.073400275E0,2.866137979E0
3.249252375E0,3.209313600E0,3.645212710E-1,1.067486401E0,3.401778470E0
3.259196375E0,3.610886630E0,8.311004287E-1,1.002035592E0,3.838398821E0
3.269139375E0,3.868213236E0,1.302907582E0,8.812198377E-1,4.175786178E0
3.279082375E0,4.164125032E0,1.773152359E0,3.456126181E-1,4.539102847E0
3.289025375E0,4.126903119E0,2.116589155E0,-8.421505699E-1,4.713862174E0
3.298969375E0,3.745430770E0,2.352149500E0,-2.455468047E0,5.058673962E0
3.308912375E0,3.108068184E0,2.243843864E0,-3.690384790E0,5.321077242E0
3.318855375E0,2.578636721E0,1.791603833E0,-4.592900187E0,5.563626853E0
3.328799375E0,2.390197917E0,1.559709692E0,-4.365853972E0,5.215977503E0
3.338742375E0,2.539783142E0,1.361237066E0,-3.288271769E0,4.372207222E0
3.348685375E0,2.862523718E0,1.028059795E0,-1.715811639E0,3.492128085E0
3.358628375E0,3.077962040E0,2.437008387E-1,2.522061986E-1,3.097878046E0
3.368572375E0,3.107695132E0,-3.185270727E-1,1.793617029E0,3.602261869E0
3.378515375E0,2.879929710E0,-6.451320738E-1,1.881920511E0,3.500259324E0
3.388458375E0,2.627493131E0,-7.977169204E-1,6.317289399E-1,2.817650421E0
3.398401375E0,2.189869970E0,-4.084864855E-1,-1.247016825E0,2.552928251E0
3.408345375E0,1.725724424E0,4.131589955E-1,-2.938412976E0,3.432651448E0
3.418288375E0,1.567086539E0,1.549529105E0,-3.829276042E0,4.418162024E0
3.428231375E0,1.849808772E0,2.162285730E0,-3.524477647E0,4.529813987E0
3.438175375E0,2.314513312E0,1.235877441E0,-2.150717160E0,3.392631607E0
3.448118375E0,2.851584747E0,-5.386548615E-1,-1.521386017E0,3.276629373E0
3.458061375E0,3.031414695E0,-1.639580319E0,-1.433852030E0,3.732777829E0
3.468004375E0,2.719797862E0,-2.180416777E0,-1.144220727E0,3.668890677E0
3.477948375E0,2.080655091E0,-2.701432343E0,-1.079774909E0,3.576699060E0
3.487891375E0,1.035528443E0,-3.120773014E0,-8.679573293E-1,3.400719525E0
3.497834375E0,-1.220717365E-1,-3.099475116E0,-1.448916650E-1,3.105260230E0
3.507777375E0,-8.652125001E-1,-3.231268433E0,8.868913445E-1,3.460674012E0
3.517721375E0,-1.508051296E0,-3.843982959E0,1.085369525E0,4.269478973E0
3.527664375E0,-2.126483229E0,-4.896870031E0,7.343605846E-2,5.339162845E0
3.537607375E0,-2.709952320E0,-6.183465636E0,-1.416967463E0,6.898324843E0
3.547551375E0,-3.237293989E0,-7.368438971E0,-2.658427533E0,8.475918958E0
3.557494375E0,-3.416108860E0,-8.390363867E0,-2.943015612E0,9.525195350E0
3.567437375E0,-2.700840020E0,-8.750800858E0,-2.861919993E0,9.594875639E0
3.577380375E0,-1.246564397E0,-8.307413512E0,-2.922607952E0,8.894306004E0
3.587324375E0,3.210203254E-1,-7.260653152E0,-2.981024560E0,7.855357768E0
3.597267375E0,1.442857180E0,-6.000616186E0,-2.847806861E0,6.797001940E0
3.607210375E0,2.241434226E0,-4.844923368E0,-2.674267348E0,5.970679666E0
3.617153375E0,2.739241024E0,-3.984930092E0,-2.534613911E0,5.459613256E0
3.627097375E0,3.008976590E0,-3.435547344E0,-2.562740480E0,5.236846803E0
3.637040375E0,3.040274981E0,-3.144647196E0,-2.785371462E0,5.185592746E0
3.646983375E0,2.857692164E0,-3.015898524E0,-2.960872132E0,5.101843999E0
3.656927375E0,2.557923544E0,-3.014047295E0,-2.959030843E0,4.937946687E0
3.666870375E0,2.149808649E0,-2.939979445E0,-2.622172165E0,4.487866222E0
3.676813375E0,1.578204727E0,-2.892814634E0,-2.137791744E0,3.928009701E0
3.686756375E0,8.108784181E-1,-3.038992102E0,-1.748389401E0,3.598591711E0
3.696700375E0,-2.318847853E-1,-3.354182169E0,-1.665205157E0,3.751961726E0
3.706643375E0,-1.311157126E0,-3.825899860E0,-1.852603741E0,4.448458538E0
3.716586375E0,-2.519829226E0,-4.486886074E0,-1.813641404E0,5.456279054E0
3.726529375E0,-3.783935562E0,-5.074757534E0,-1.151060654E0,6.433993550E0
3.736473375E0,-4.839231103E0,-5.338871003E0,-1.607142305E-1,7.207463515E0
3.746416375E0,-5.309334962E0,-5.295439639E0,2.219942931E-1,7.501999745E0
3.756359375E0,-5.035411620E0,-4.606897252E0,7.079468843E-1,6.861491184E0
3.766303375E0,-4.732360373E0,-3.334734914E0,1.508703260E0,5.982631292E0
3.776246375E0,-4.345668215E0,-2.141495370E0,2.061815947E0,5.265160933E0
3.786189375E0,-3.441634880E0,-1.041872672E0,2.547464629E0,4.406804438E0
3.796132375E0,-2.563852913E0,-8.310238302E-2,2.533830092E0,3.605626534E0
3.806076375E0,-1.776650748E0,1.016764144E0,2.508193560E0,3.237488554E0
3.816019375E0,-9.820916167E-1,2.107639992E0,2.433731753E0,3.365962050E0
3.825962375E0,-1.702162483E-1,2.798837015E0,2.130856361E0,3.521790885E0
3.835905375E0,5.927956930E-1,3.114342831E0,2.029845857E0,3.764413926E0
3.845849375E0,1.127498421E0,3.038344815E0,2.215581639E0,3.925760297E0
3.855792375E0,1.198054434E0,2.746821354E0,2.509695417E0,3.908827582E0
3.865735375E0,1.054315401E0,2.574646581E0,2.285370351E0,3.600458807E0
3.875679375E0,6.640555640E-1,2.679350917E0,1.420255791E0,3.104354626E0
3.885622375E0,-2.728345907E-1,3.083360775E0,6.804615355E-1,3.169318583E0
3.895565375E0,-1.326594068E0,3.779184700E0,1.787863661E-1,4.009245986E0
3.905508375E0,-2.024973811E0,4.479509811E0,2.762236369E-1,4.923700497E0
3.915452375E0,-2.275978991E0,5.271771280E0,8.925727916E-1,5.811053173E0
3.925395375E0,-2.232215213E0,5.962539702E0,1.623417592E0,6.570399465E0
3.935338375E0,-2.126722380E0,6.680569013E0,2.389981570E0,7.407088654E0
3.945281375E0,-2.057550696E0,7.372202239E0,3.212109447E0,8.300634182E0
3.955225375E0,-2.030378685E0,8.006809909E0,3.825530316E0,9.103083254E0
3.965168375E0,-1.959737888E0,8.392856535E0,4.079569616E0,9.535381569E0
3.975111375E0,-1.887170725E0,8.574964558E0,4.180062788E0,9.724420571E0
3.985055375E0,-1.864332378E0,8.542504326E0,4.298132105E0,9.742897668E0
3.994998375E0,-1.907635396E0,8.328107978E0,4.388240622E0,9.604848309E0
4.004941375E0,-1.902771974E0,7.802511703E0,4.483558424E0,9.197935975E0
4.014884375E0,-1.856114117E0,6.954820969E0,4.513877406E0,8.496457118E0
4.024828375E0,-1.954657534E0,6.055564225E0,4.205040924E0,7.627116974E0
4.034771375E0,-2.534257816E0,5.233920498E0,3.233919561E0,6.653917807E0
4.044714375E0,-3.481954063E0,4.699587314E0,1.882551425E0,6.144438533E0
4.054658375E0,-4.142345324E0,4.660192868E0,2.984782858E-1,6.242236109E0
4.064601375E0,-3.926695917E0,4.574591970E0,-5.410704924E-1,6.052981893E0
4.074544375E0,-3.100617370E0,3.923729040E0,7.538511086E-1,5.057446900E0
4.084487375E0,-2.661566611E0,2.922464696E0,3.571054813E0,5.327022545E0
4.094431625E0,-4.530633772E0,2.029643397E0,4.898941408E0,6.974648494E0
4.104374625E0,-6.381952295E0,9.643333304E-1,4.593555952E0,7.922121569E0
4.114317625E0,-6.846279105E0,-8.561317742E-1,4.228766001E0,8.092401442E0
4.124260625E0,-6.909675786E0,-3.385994530E0,3.454509280E0,8.434584329E0
4.134204625E0,-6.358554661E0,-6.259427399E0,1.962031019E0,9.135710945E0
4.144147625E0,-5.219084358E0,-9.166661267E0,2.818757017E-1,1.055206019E1
4.154090625E0,-4.177677124E0,-1.127891179E1,-1.811180749E0,1.216335533E1
4.164034625E0,-3.521024281E0,-1.197947137E1,-3.986315882E0,1.310709963E1
4.173977625E0,-2.181687961E0,-1.113407158E1,-5.363697696E0,1.254976355E1
4.183920625E0,-3.277180186E-1,-8.753284755E0,-5.818511671E0,1.051582004E1
4.193863625E0,1.121648721E0,-5.813893540E0,-5.417393847E0,8.025435193E0
4.203807625E0,1.529426816E0,-3.404448343E0,-4.576560727E0,5.905448586E0
4.213750625E0,1.155804646E0,-1.603131700E0,-3.533802202E0,4.048910178E0
4.223693625E0,3.793730526E-1,-3.543389297E-1,-2.461737431E0,2.515875826E0
4.233636625E0,-2.858594097E-1,2.903399849E-1,-1.674584091E0,1.723439812E0
4.243580625E0,-7.959620248E-1,5.382484800E-1,-1.051469707E0,1.424378993E0
4.253523625E0,-1.023212599E0,5.744947851E-1,-6.396362027E-1,1.336466518E0
4.263466625E0,-1.312801363E0,5.328906763E-1,-1.755989027E-1,1.427674636E0
4.273410625E0,-1.591872594E0,3.568006074E-1,3.389302739E-1,1.666204897E0
4.283353625E0,-1.841778498E0,8.093598962E-2,9.023400537E-1,2.052538975E0
4.293296625E0,-2.120880134E0,-2.708348429E-1,1.583704326E0,2.660752422E0
4.303239625E0,-2.338109458E0,-7.282215929E-1,2.016108263E0,3.172026963E0
4.313183625E0,-2.453268032E0,-9.994055146E-1,2.244668906E0,3.472156954E0
4.323126625E0,-2.401263480E0,-7.890267885E-1,2.348237128E0,3.450050316E0
4.333069625E0,-2.112811854E0,-3.539372259E-1,2.573556075E0,3.348497628E0
4.343013625E0,-1.754152417E0,2.224351001E-1,2.540849382E0,3.095552238E0
4.352956625E0,-1.311679282E0,3.189474875E-1,2.633111136E0,2.958970141E0
4.362899625E0,-9.560381779E-1,1.296573293E-1,2.428314747E0,2.612954751E0
4.372842625E0,-5.932997230E-1,-2.469963294E-1,2.058319312E0,2.156314017E0
4.382786625E0,-1.225693345E-1,-5.510755169E-1,2.003212813E0,2.081242187E0
4.392729625E0,3.550642768E-1,-8.395169109E-1,2.156446116E0,2.341179005E0
4.402672625E0,8.753109339E-1,-1.011261329E0,2.175154867E0,2.553452056E0
4.412615625E0,1.573452403E0,-1.030462416E0,1.855054893E0,2.641748268E0
4.422559625E0,2.042816297E0,-1.070739791E0,1.905261426E0,2.991588746E0
4.432502625E0,2.604767050E0,-8.521088898E-1,1.702456598E0,3.226338391E0
4.442445625E0,3.330644202E0,-3.602949035E-1,1.474835018E0,3.660347190E0
4.452389625E0,3.999497260E0,2.087292266E-1,1.242328674E0,4.193200062E0
4.462332625E0,4.475818757E0,7.189221811E-1,1.036425991E0,4.650159296E0
4.472275625E0,4.769976389E0,1.207708479E0,9.173281485E-1,5.005269768E0
4.482218625E0,4.912455200E0,1.562447943E0,7.857044005E-1,5.214478984E0
4.492162625E0,4.474977635E0,2.123987637E0,3.961582160E-1,4.969274559E0
4.502105625E0,3.862506353E0,2.543685574E0,-8.133160492E-1,4.695825234E0
4.512048625E0,3.751595197E0,2.311058192E0,-2.172133026E0,4.912597925E0
4.521991625E0,3.736787124E0,1.763983340E0,-2.700860485E0,4.936584101E0
4.531935625E0,3.911822940E0,1.243653653E0,-2.784086244E0,4.959855777E0
4.541878625E0,4.127331428E0,8.948257238E-1,-2.835758674E0,5.086954398E0
4.551821625E0,4.040327198E0,8.121759152E-1,-2.751959302E0,4.955517489E0
4.561765625E0,3.862440280E0,8.111017817E-1,-2.203068305E0,4.519938160E0
4.571708625E0,3.491146179E0,8.438859504E-1,-1.341820364E0,3.834152713E0
4.581651625E0,3.139535560E0,7.009893554E-1,-5.388864843E-1,3.261666484E0
4.591594625E0,2.060889748E0,4.530937243E-1,-6.328491202E-1,2.202965839E0
4.601538625E0,9.643672442E-1,2.681182265E-2,-1.404425186E0,1.703858315E0
4.611481625E0,4.660248417E-1,-2.486405665E-1,-2.169967071E0,2.233328989E0
4.621424625E0,1.660194093E-1,-2.632264459E-1,-2.495991590E0,2.515317997E0
4.631368625E0,1.484122735E-1,-4.248879254E-2,-2.263705247E0,2.268962967E0
4.641311625E0,1.407898432E-1,5.218903095E-1,-1.534406597E0,1.626835849E0
4.651254625E0,-1.021643060E-1,1.262189326E0,-7.938427015E-1,1.494572071E0
4.661197625E0,-6.315378821E-1,1.469085451E0,-4.019285408E-1,1.648817367E0
4.671141625E0,-1.266492877E0,8.542647582E-1,-7.195908102E-1,1.688663205E0
4.681084625E0,-1.736757535E0,-4.973893064E-1,-1.331271256E0,2.244104724E0
4.691027625E0,-1.559755885E0,-2.230602844E0,-1.655747578E0,3.185895088E0
4.700970625E0,-1.165102742E0,-3.189377811E0,-1.943329139E0,3.912304099E0
4.710914625E0,-7.166926378E-1,-3.222047959E0,-1.391064591E0,3.581941105E0
4.720857625E0,-2.919690192E-1,-2.898974091E0,5.172096133E-2,2.914098788E0
4.730800625E0,-6.659043074E-2,-2.956032391E0,1.348716716E0,3.249861314E0
4.740744625E0,9.601712823E-3,-3.321589204E0,1.914689330E0,3.833938219E0
4.750687625E0,3.340748191E-1,-4.061364895E0,1.752642081E0,4.435994258E0
4.760630625E0,7.639018875E-1,-4.989160144E0,9.417354499E-1,5.134406557E0
4.770573625E0,1.017222565E0,-5.767467817E0,-2.656878313E-1,5.862509428E0
4.780517625E0,9.798641199E-1,-6.663305694E0,-1.139989682E0,6.830765180E0
4.790460625E0,7.306294763E-1,-7.565167957E0,-1.375183407E0,7.723775958E0
4.800403625E0,4.784706402E-1,-8.162314271E0,-1.306232893E0,8.280009226E0
4.810347625E0,2.775158715E-1,-8.339752123E0,-1.756367927E0,8.527209908E0
4.820290625E0,1.301414788E-1,-7.937939065E0,-2.587361351E0,8.349985159E0
4.830233625E0,2.319596297E-1,-7.093170184E0,-3.298658763E0,7.826111306E0
4.840176625E0,6.323062062E-1,-6.101633853E0,-3.618145949E0,7.121848560E0
4.850120625E0,1.080578316E0,-5.171913115E0,-3.744676187E0,6.476027680E0
4.860063625E0,1.398528269E0,-4.386085923E0,-4.000469360E0,6.098965990E0
4.870006625E0,1.632252588E0,-3.910583915E0,-4.293843758E0,6.032744755E0
4.879949625E0,1.758847731E0,-3.325113906E0,-4.523173894E0,5.882943983E0
4.889893625E0,1.790270668E0,-2.905315982E0,-4.510505902E0,5.656022764E0
4.899836625E0,1.694535375E0,-2.701124779E0,-4.202878624E0,5.275577119E0
4.909779625E0,1.461047283E0,-2.568059108E0,-3.738086375E0,4.764753560E0
4.919723625E0,1.079032020E0,-2.562121260E0,-2.986336171E0,4.080070977E0
4.929666625E0,5.240011543E-1,-2.639132014E0,-1.961187705E0,3.329542342E0
4.939609625E0,-2.466858423E-1,-2.774352969E0,-7.472156882E-1,2.883785634E0
4.949552625E0,-1.186143948E0,-2.942384405E0,3.352138567E-1,3.190130371E0
4.959496625E0,-2.002242760E0,-3.010316187E0,1.236361005E0,3.820938125E0
4.969439625E0,-2.631457543E0,-2.923485619E0,2.146637996E0,4.481003421E0
4.979382625E0,-3.125703387E0,-2.729078563E0,2.335780220E0,4.761697250E0
4.989326625E0,-3.559432010E0,-2.670302936E0,1.762130942E0,4.785935589E0
4.999269625E0,-3.952091252E0,-2.654451719E0,8.628444508E-1,4.838350932E0
5.009212625E0,-4.151164094E0,-2.701795455E0,-2.189465781E-1,4.957801894E0
5.019155625E0,-3.826149536E0,-2.708153132E0,-1.416709017E0,4.896996845E0
5.029099625E0,-3.217494732E0,-2.445920713E0,-2.035190066E0,4.525129732E0
5.039042625E0,-2.426689221E0,-1.928246831E0,-1.651908442E0,3.512229764E0
5.048985625E0,-1.825451318E0,-1.260579003E0,-5.851751630E-1,2.294288977E0
5.058928625E0,-1.554163900E0,-4.802142799E-1,1.054829664E0,1.938735878E0
5.068872625E0,-1.177882709E0,1.611983800E-1,2.552206721E0,2.815519800E0
5.078815625E0,-2.910089064E-1,6.412664795E-1,3.406888386E0,3.478907495E0
5.088758625E0,6.547443116E-1,1.233623339E0,3.872442527E0,4.116591767E0
5.098701750E0,1.746780539E0,1.563840165E0,3.843637973E0,4.502265117E0
5.108644750E0,2.478714237E0,1.797118342E0,3.548614368E0,4.686824356E0
5.118587750E0,2.482687713E0,2.109346209E0,2.976129856E0,4.412530864E0
5.128530750E0,1.571794425E0,2.490607474E0,2.142294685E0,3.641852526E0
5.138474750E0,1.172486606E-1,2.962227516E0,1.224660727E0,3.207543141E0
5.148417750E0,-1.305196913E0,3.154028469E0,3.902631994E-1,3.435657132E0
5.158360750E0,-2.106784544E0,3.311239048E0,-1.660126850E-2,3.924680974E0
5.168304750E0,-2.377832664E0,3.591663909E0,1.463841668E-1,4.309938067E0
5.178247750E0,-2.364550860E0,3.987026319E0,6.302845314E-1,4.678112678E0
5.188190750E0,-2.384208322E0,4.547910540E0,1.303702219E0,5.297884396E0
5.198133750E0,-2.516508593E0,5.208491542E0,1.995217623E0,6.118994444E0
5.208077750E0,-2.568880349E0,6.042268826E0,2.332069723E0,6.967546771E0
5.218020750E0,-2.680663325E0,7.035427176E0,2.188642201E0,7.840493995E0
5.227963750E0,-2.845967327E0,7.620596638E0,1.913862680E0,8.356787272E0
5.237907750E0,-2.896071534E0,8.003741875E0,1.810915724E0,8.702099177E0
5.247850750E0,-2.940271514E0,8.195867933E0,1.945078626E0,8.921926844E0
5.257793750E0,-3.040640725E0,8.184417331E0,2.394310118E0,9.053336622E0
5.267736750E0,-3.106843777E0,7.980147191E0,3.074624157E0,9.098820866E0
5.277680750E0,-3.096074668E0,7.655802723E0,3.889594749E0,9.128304388E0
5.287623750E0,-2.951145873E0,7.401547660E0,4.425057616E0,9.114455806E0
5.297566750E0,-2.810651607E0,7.204007081E0,4.735948809E0,9.067893449E0
5.307509750E0,-2.998078550E0,7.036273268E0,4.765423746E0,9.011486002E0
5.317453750E0,-3.639880049E0,6.804322994E0,4.191116072E0,8.781400350E0
5.327396750E0,-4.456077679E0,6.268675355E0,3.216234365E0,8.336491017E0
5.337339750E0,-5.286839554E0,5.715140499E0,2.506192058E0,8.178905919E0
5.347283750E0,-4.598916387E0,5.653364666E0,1.959621967E0,7.546567580E0
5.357226750E0,-2.442542484E0,5.225401690E0,1.752124895E0,6.028331299E0
5.367169750E0,-5.915628076E-1,3.278187661E0,2.715126522E0,4.297484488E0
5.377112750E0,1.177149852E-1,2.582101196E-1,4.078222418E0,4.088083582E0
5.387056750E0,-3.425903824E0,-2.933435242E0,3.356985032E0,5.622384532E0
5.396999750E0,-5.696360412E0,-7.221271570E0,1.332816821E0,9.293636840E0
5.406942750E0,-5.689197573E0,-1.240964401E1,-7.845513296E-1,1.367412719E1
5.416886750E0,-4.477778451E0,-1.746745047E1,-2.819099371E0,1.825129165E1
5.426829750E0,-3.521412829E0,-1.985885174E1,-5.281116300E0,2.084860979E1
5.436772750E0,-2.352573131E0,-1.699235601E1,-7.713997722E0,1.880905431E1
5.446715750E0,7.683943033E-1,-1.046913323E1,-8.292632335E0,1.337762802E1
5.456659750E0,2.595674630E0,-4.065581322E0,-6.551089439E0,8.135308913E0
5.466602750E0,2.532696317E0,-4.570078504E-1,-4.106656258E0,4.846445340E0
5.476545750E0,2.023200643E0,1.463465692E0,-1.819854801E0,3.089812967E0
5.486488750E0,1.096210336E0,2.642468435E0,-5.291635879E-1,2.909352271E0
5.496432750E0,-2.973850027E-2,3.238504947E0,3.767303304E-1,3.260479169E0
5.506375750E0,-1.025067336E0,3.342729228E0,1.063213328E0,3.654452670E0
5.516318750E0,-1.627251465E0,2.978253565E0,1.534849670E0,3.724742291E0
5.526262750E0,-1.900703960E0,2.162762863E0,2.058753322E0,3.539588110E0
5.536205750E0,-1.984200299E0,1.016762974E0,2.449942574E0,3.312563417E0
5.546148750E0,-2.023652194E0,-1.823237854E-1,2.657436723E0,3.345202550E0
5.556091750E0,-2.161914286E0,-1.195441605E0,2.576292572E0,3.569346919E0
5.566035750E0,-2.373446083E0,-1.851906753E0,2.187912322E0,3.721527275E0
5.575978750E0,-2.551859981E0,-2.305478779E0,1.640131127E0,3.810151162E0
5.585921750E0,-2.517899353E0,-2.519188664E0,1.022200885E0,3.705539546E0
5.595865750E0,-2.250007414E0,-2.484981283E0,5.254693902E-1,3.393196637E0
5.605808750E0,-1.891798212E0,-2.167401459E0,1.228149176E-1,2.879516116E0
5.615751750E0,-1.432105905E0,-1.786409751E0,-1.295415910E-1,2.293244022E0
5.625694750E0,-8.755345899E-1,-1.442342041E0,-1.538741577E-1,1.694281156E0
5.635638750E0,-5.416082901E-1,-1.141715049E0,-6.178635836E-2,1.265176014E0
5.645581750E0,-2.141571969E-1,-1.093202455E0,9.273214420E-2,1.117834587E0
5.655524750E0,4.788548023E-2,-1.111110138E0,2.538486997E-1,1.140744459E0
5.665468750E0,2.445653495E-1,-1.068634794E0,2.500140774E-1,1.124410766E0
5.675411750E0,2.685810336E-1,-1.037718810E0,3.486846721E-1,1.127198785E0
5.685354750E0,2.352764627E-1,-1.013456374E0,8.754486358E-1,1.359727601E0
5.695297750E0,4.603243911E-1,-1.010184272E0,1.463795475E0,1.837135814E0
5.705241750E0,7.617910427E-1,-1.102311248E0,1.508845348E0,2.017927145E0
5.715184750E0,1.133014685E0,-1.131345597E0,1.634480962E0,2.288054447E0
5.725127750E0,1.497561099E0,-8.770566201E-1,1.573677521E0,2.342728857E0
5.735071750E0,1.992514163E0,-4.864690465E-1,1.362326403E0,2.462254668E0
5.745014750E0,2.585599585E0,-5.860547304E-2,1.270597622E0,2.881523579E0
5.754957750E0,2.917143729E0,4.297598255E-1,1.224175993E0,3.192652174E0
5.764900750E0,2.871402423E0,1.155325028E0,8.640605986E-1,3.213460520E0
5.774844750E0,2.581364155E0,1.724099482E0,-4.918389101E-2,3.104573880E0
5.784787750E0,2.242546366E0,2.339238263E0,-1.057204145E0,3.408625891E0
5.794730750E0,1.954518955E0,2.643147882E0,-1.953334894E0,3.823858298E0
5.804674750E0,1.926006762E0,2.643988127E0,-2.765209093E0,4.283288058E0
5.814617750E0,2.200007288E0,2.515328917E0,-2.842109919E0,4.386855414E0
5.824560750E0,2.565615849E0,2.250639498E0,-2.182142290E0,4.050865069E0
5.834503750E0,2.702984194E0,2.148754104E0,-1.167597676E0,3.645072301E0
5.844447750E0,2.835202896E0,2.002014134E0,5.892590046E-2,3.471297785E0
5.854390750E0,3.362645429E0,1.857024236E0,1.270181301E0,4.045897160E0
5.864333750E0,3.800365069E0,1.927952131E0,1.713532248E0,4.593034601E0
5.874276750E0,3.813279814E0,1.951564357E0,1.042131631E0,4.408598952E0
5.884220750E0,3.300995895E0,1.904427028E0,-8.301328607E-1,3.900325214E0
5.894163750E0,2.718341321E0,1.850998095E0,-3.057530407E0,4.490441590E0
5.904106750E0,1.856548272E0,1.715715160E0,-4.609484060E0,5.257165899E0
5.914050750E0,1.391662468E0,1.216191035E0,-4.354835479E0,4.730796668E0
5.923993750E0,1.389665644E0,6.013709271E-1,-2.711049843E0,3.105255037E0
5.933936750E0,1.524594823E0,2.411175388E-1,-7.683527881E-1,1.724207948E0
5.943879750E0,1.805147738E0,-1.240364009E-1,3.908201467E-1,1.851130404E0
5.953823750E0,2.046102725E0,-4.642315006E-1,4.182368638E-1,2.139385267E0
5.963766750E0,2.272650756E0,-9.658120912E-1,3.052455609E-1,2.488153795E0
5.973709750E0,2.508744952E0,-1.561943328E0,6.631916378E-1,3.028744186E0
5.983653750E0,2.533331909E0,-1.782605553E0,6.309783036E-1,3.161263472E0
5.993596750E0,2.493671415E0,-1.804723231E0,1.742351858E-1,3.083144655E0
6.003539750E0,2.372331750E0,-1.897081756E0,-3.713053568E-1,3.060187051E0
6.013482750E0,1.958479275E0,-2.043379676E0,-8.411554469E-1,2.952724853E0
6.023426750E0,1.270772454E0,-2.391760293E0,-8.980412538E-1,2.853394124E0
6.033369750E0,6.176542532E-1,-2.827538073E0,-3.820747586E-1,2.919323458E0
6.043312750E0,-1.566884226E-1,-2.965191470E0,-2.722008987E-1,2.981778839E0
6.053256750E0,-9.993862188E-1,-2.948518134E0,-6.614523835E-1,3.182774145E0
6.063199750E0,-1.427511747E0,-3.263001273E0,-1.327232584E0,3.800856933E0
6.073142750E0,-1.399294254E0,-4.027069806E0,-1.501072644E0,4.519793658E0
6.083085750E0,-6.873624194E-1,-5.383250200E0,-1.001830940E0,5.518651560E0
6.093030375E0,-1.871904230E-1,-6.190754190E0,-8.775549491E-1,6.255444060E0
6.102973375E0,4.149067283E-2,-5.697789472E0,-1.605695850E0,5.919863639E0
6.112916375E0,3.809186178E-1,-5.040707443E0,-2.278527939E0,5.544864299E0
6.122859375E0,6.293358207E-1,-4.844766662E0,-2.164284893E0,5.343403100E0
6.132803375E0,5.658707267E-1,-5.569826666E0,-1.555058524E0,5.810454868E0
6.142746375E0,8.069157600E-3,-6.752899656E0,-1.051135101E0,6.834222990E0
6.152689375E0,-6.770479310E-1,-6.786535764E0,-7.347201884E-1,6.859684783E0
6.162633375E0,-5.100771797E-1,-5.003585810E0,-6.424768531E-1,5.070387184E0
6.172576375E0,3.404038453E-1,-2.421279377E0,-1.209407095E0,2.727844226E0
6.182519375E0,1.040152422E0,-6.333025718E-1,-2.053545645E0,2.387475429E0
6.192462375E0,1.420886267E0,-1.150182402E-1,-2.601678843E0,2.966627679E0
6.202406375E0,1.613088339E0,-4.656061810E-1,-2.552034813E0,3.054787193E0
6.212349375E0,1.742417055E0,-1.312501109E0,-2.526231635E0,3.337742145E0
6.222292375E0,1.840136892E0,-2.212310999E0,-2.583398693E0,3.867088381E0
6.232236375E0,1.888238427E0,-2.832860793E0,-2.528346573E0,4.240646298E0
6.242179375E0,1.784915788E0,-3.132228295E0,-2.105812883E0,4.175072018E0
6.252122375E0,1.585622798E0,-3.133304767E0,-1.496792628E0,3.817353349E0
6.262065375E0,1.475018620E0,-2.812835249E0,-1.226297655E0,3.404633315E0
6.272009375E0,1.415912626E0,-2.284796008E0,-1.310503700E0,2.990404874E0
6.281952375E0,1.260132861E0,-1.658498400E0,-1.531775204E0,2.585514851E0
6.291895375E0,1.021607977E0,-1.210204656E0,-2.344073911E0,2.828950453E0
6.301839375E0,6.308101961E-1,-9.851763153E-1,-3.502365816E0,3.692568237E0
6.311782375E0,7.394798219E-2,-7.813324374E-1,-4.021157101E0,4.097029792E0
6.321725375E0,-7.127475214E-1,-5.766114771E-1,-3.193037583E0,3.322044375E0
6.331668375E0,-2.055283730E0,-6.560991114E-1,-1.696738021E0,2.744736266E0
6.341612375E0,-3.252609601E0,-7.935075098E-1,-3.339292234E-1,3.364614705E0
6.351555375E0,-4.041513890E0,-9.623628187E-1,5.099286604E-1,4.185690380E0
6.361498375E0,-4.497623608E0,-1.196865987E0,7.244127166E-1,4.710188966E0
6.371442375E0,-4.812741170E0,-1.349788803E0,4.538912845E-1,5.019006344E0
6.381385375E0,-5.211071334E0,-1.202078195E0,-7.291242203E-2,5.348417771E0
6.391328375E0,-5.581707038E0,-7.114921242E-1,-9.433055735E-1,5.705392178E0
6.401271375E0,-5.754544301E0,3.121401590E-1,-2.149478574E0,6.150810494E0
6.411215375E0,-5.819818524E0,1.363032746E0,-2.854395504E0,6.623874969E0
6.421158375E0,-5.572208236E0,1.991277477E0,-2.837981200E0,6.562684505E0
6.431101375E0,-5.082864114E0,2.394061757E0,-1.962781656E0,5.951432695E0
6.441045375E0,-4.366483718E0,2.595714684E0,-1.028848073E0,5.182899105E0
6.450988375E0,-3.613835966E0,2.640517219E0,-3.792481414E-1,4.491766994E0
6.460931375E0,-2.457281561E0,2.799701234E0,2.507158164E-1,3.733553011E0
6.470874375E0,-1.714649505E0,3.003498918E0,6.606841325E-1,3.521012951E0
6.480818375E0,-1.230274639E0,3.240914000E0,9.084901551E-1,3.583636924E0
6.490761375E0,-1.141219790E0,3.542996948E0,1.034087397E0,3.863230090E0
6.500704375E0,-1.260323187E0,3.818894895E0,1.183311557E0,4.191968392E0
6.510648375E0,-1.373736513E0,4.076446618E0,1.305014480E0,4.495289961E0
6.520591375E0,-1.380108809E0,4.238755969E0,1.468830074E0,4.693528979E0
6.530534375E0,-1.438674959E0,4.496783656E0,1.610169994E0,4.988336025E0
6.540477375E0,-1.525665302E0,4.840450832E0,1.357784578E0,5.253684215E0
6.550421375E0,-1.667196718E0,5.067454362E0,8.211562152E-1,5.397493505E0
6.560364375E0,-2.054180945E0,5.291207424E0,4.868612485E-1,5.696803423E0
6.570307375E0,-2.276218435E0,5.460424091E0,4.425732677E-1,5.932391821E0
6.580250375E0,-2.289247055E0,5.448779946E0,5.900099333E-1,5.939525797E0
6.590194375E0,-2.290076628E0,5.214459211E0,1.012265296E0,5.784437471E0
6.600137375E0,-2.347515143E0,4.811525826E0,1.591765444E0,5.585277553E0
6.610080375E0,-2.544057749E0,4.342419502E0,2.145598361E0,5.471053764E0
6.620024375E0,-2.867569281E0,4.052249086E0,2.537850637E0,5.575335155E0
6.629967375E0,-3.260336697E0,4.029150245E0,2.649702026E0,5.821062437E0
6.639910375E0,-3.683582139E0,4.332823051E0,2.620029745E0,6.261524482E0
6.649854375E0,-3.900835437E0,4.928483588E0,2.528322015E0,6.774871201E0
6.659797375E0,-3.886480522E0,5.698305781E0,2.404850163E0,7.304705602E0
6.669740375E0,-3.643868727E0,6.463917979E0,2.346707497E0,7.782483602E0
6.679683375E0,-3.343802192E0,6.946813207E0,2.226367121E0,8.024707932E0
6.689627375E0,-3.076499067E0,7.135929703E0,1.706491177E0,7.956032389E0
6.699570375E0,-2.779965711E0,7.117891628E0,1.081300886E0,7.717629311E0
6.709513375E0,-2.556505010E0,6.790323590E0,5.483681099E-1,7.276325989E0
6.719457375E0,-2.494606677E0,5.744963053E0,-2.218832691E-1,6.267128142E0
6.729400375E0,-2.457985858E0,3.838191292E0,-3.220247309E-1,4.569147272E0
6.739343375E0,-2.238859697E0,1.227055162E0,5.462030321E-4,2.553068235E0
6.749286375E0,-1.256959284E0,-2.181699656E0,9.826246635E-1,2.702833931E0
6.759230375E0,4.820137605E-1,-5.547178645E0,2.252183747E0,6.006318325E0
6.769173375E0,2.312175595E0,-8.266103518E0,3.263911099E0,9.183013613E0
6.779116375E0,3.974767924E0,-9.783679928E0,4.056761967E0,1.131266947E1
6.789059375E0,5.310327820E0,-9.871961775E0,4.222056906E0,1.197835445E1
6.799003375E0,6.884587723E0,-8.792402628E0,3.812278186E0,1.179988801E1
6.808946375E0,7.803587590E0,-7.107506388E0,3.044530585E0,1.098552652E1
6.818889375E0,7.584076098E0,-6.461415371E0,1.898462284E0,1.014259621E1
6.828833375E0,6.365236859E0,-8.108119937E0,2.574131441E-1,1.031135834E1
6.838776375E0,4.125162111E0,-1.091245041E1,-2.370295165E0,1.190448804E1
6.848719375E0,4.489486915E0,-1.261399952E1,-5.350564265E0,1.441863429E1
6.858662375E0,7.604851840E0,-1.209519362E1,-9.818973137E0,1.733608127E1
6.868606375E0,1.040883440E1,-8.635130653E0,-1.631678509E1,2.119308356E1
6.878549375E0,1.101056903E1,-3.289964538E0,-2.182117030E1,2.466211609E1
6.888492375E0,7.206965772E0,1.323385701E0,-1.849322517E1,1.989198539E1
6.898436375E0,2.120887151E0,3.461331226E0,-8.760517176E0,9.655342426E0
6.908379375E0,-1.046340530E0,3.399418568E0,-1.195418217E0,3.752319258E0
6.918322375E0,-2.669428192E0,3.921258591E0,2.808624669E0,5.512756874E0
6.928265375E0,-3.702127461E0,4.509762136E0,4.485742943E0,7.359727713E0
6.938209375E0,-4.389956780E0,4.900435663E0,4.887057234E0,8.195689027E0
6.948152375E0,-4.932049220E0,4.969184886E0,4.932766088E0,8.564466663E0
6.958095375E0,-5.326197163E0,4.160167637E0,3.957531794E0,7.831821556E0
6.968039375E0,-6.134173608E0,3.262712420E0,3.667930312E0,7.856659020E0
6.977982375E0,-7.181191245E0,2.430668836E0,4.483463114E0,8.807899874E0
6.987925375E0,-7.795481011E0,1.559549478E0,4.899703592E0,9.338565953E0
6.997868375E0,-7.956520346E0,6.066386837E-1,4.925595648E0,9.377404705E0
7.007812375E0,-8.217264065E0,-2.545059085E-1,5.408935264E0,9.840974680E0
7.017755375E0,-8.743248010E0,-3.959208190E-1,6.210014918E0,1.073151547E1
7.027698375E0,-8.925629683E0,2.634299290E-1,6.024190990E0,1.077158937E1
7.037642375E0,-7.693203853E0,2.042865706E0,5.446421764E0,9.644801494E0
7.047585375E0,-6.512712994E0,3.840574032E0,4.600658273E0,8.850508232E0
7.057528375E0,-5.971569557E0,4.525059621E0,3.364318317E0,8.213065523E0
7.067471375E0,-5.307029405E0,4.398056928E0,2.230447454E0,7.244471112E0
7.077415375E0,-4.614926063E0,3.788960660E0,1.151737177E0,6.081140023E0
7.087358375E0,-3.786192880E0,2.991233799E0,3.875883906E-1,4.840760366E0
7.097300667E0,-2.955423988E0,2.357475144E0,-1.082262607E-1,3.782054062E0
7.107244667E0,-2.212428820E0,1.733708797E0,-3.570970613E-1,2.833391217E0
7.117187667E0,-1.564452369E0,1.105998502E0,-4.298995739E-1,1.963557369E0
7.127130667E0,-1.107582220E0,5.469427049E-1,-2.341501428E-1,1.257263292E0
7.137073667E0,-7.461427242E-1,-2.860107064E-2,8.930043161E-2,7.520116709E-1
7.147017667E0,-4.545976281E-1,-5.187135172E-1,4.106489320E-1,8.027174234E-1
7.156960667E0,-1.083796039E-1,-1.098729828E0,7.575769544E-1,1.338983277E0
7.166903667E0,3.103321999E-1,-1.694749968E0,1.092324057E0,2.040013572E0
7.176847667E0,7.836292237E-1,-2.074769869E0,1.330481297E0,2.586295662E0
7.186790667E0,1.279506733E0,-2.198251369E0,1.470940626E0,2.938215936E0
7.196733667E0,1.870313203E0,-2.133653085E0,1.439205594E0,3.181487027E0
7.206676667E0,2.501507269E0,-2.092375835E0,1.366382616E0,3.535898288E0
7.216620667E0,2.974368967E0,-2.105244387E0,1.116911014E0,3.811353421E0
7.226563667E0,3.367906169E0,-2.201183163E0,7.244565707E-1,4.088133633E0
7.236506667E0,3.589751285E0,-2.420151449E0,2.274069875E-1,4.335338656E0
7.246450667E0,3.744809504E0,-2.619985891E0,-1.651376492E-1,4.573313321E0
7.256393667E0,3.844960029E0,-2.715387307E0,-5.267025679E-1,4.736503082E0
7.266336667E0,3.985103754E0,-2.724168656E0,-8.315380928E-1,4.898326490E0
7.276279667E0,4.193286851E0,-2.557421268E0,-1.114330492E0,5.036446228E0
7.286223667E0,4.479286448E0,-2.175887523E0,-1.362622272E0,5.162870621E0
7.296166667E0,4.811668498E0,-1.817269601E0,-1.513649566E0,5.361507022E0
7.306109667E0,5.102230677E0,-1.605352473E0,-1.625379186E0,5.590328429E0
7.316053667E0,5.276874145E0,-1.390566115E0,-1.919231155E0,5.784680033E0
7.325996667E0,5.345420469E0,-1.224034490E0,-2.098801048E0,5.871690239E0
7.335939667E0,5.357309028E0,-1.314897298E0,-2.220962539E0,5.946628417E0
7.345882667E0,5.312100111E0,-1.596936575E0,-2.407623935E0,6.046922112E0
7.355826667E0,5.169785898E0,-2.007509347E0,-2.516010995E0,6.089917187E0
7.365769667E0,5.000334173E0,-2.444771150E0,-2.557386185E0,6.125395654E0
7.375712667E0,4.909202979E0,-2.764841303E0,-2.581374972E0,6.197428343E0
7.385656667E0,4.923170223E0,-2.895472779E0,-2.556749131E0,6.257662005E0
7.395599667E0,5.029303034E0,-2.775071592E0,-2.438151810E0,6.240151889E0
7.405542667E0,5.064936551E0,-2.503836215E0,-2.303549783E0,6.101566984E0
7.415485667E0,4.935553456E0,-2.271472542E0,-2.249678215E0,5.880504017E0
7.425429667E0,4.546291446E0,-2.227597375E0,-2.240074748E0,5.536144042E0
7.435372667E0,3.909655377E0,-2.309700469E0,-2.293212198E0,5.087135108E0
7.445315667E0,2.800469558E0,-2.222641860E0,-2.581062146E0,4.409608643E0
7.455259667E0,7.669091105E-1,-2.142330353E0,-4.068284782E0,4.661402149E0
7.465202667E0,-1.565615965E0,-2.593748265E0,-6.894449052E0,7.530744395E0
7.475145667E0,-3.079001675E0,-3.431257827E0,-9.254994569E0,1.033966663E1
7.485088667E0,-2.508225719E0,-4.082989068E0,-8.793540496E0,1.001440714E1
7.495032667E0,-1.192713002E0,-4.693453000E0,-7.979432076E0,9.333938163E0
7.504975667E0,-6.362618476E-1,-4.819243566E0,-7.548729680E0,8.978488596E0
7.514918667E0,-7.570302397E-2,-4.769952707E0,-7.175654517E0,8.616739379E0
7.524862667E0,3.756903300E-1,-4.347075639E0,-6.390175234E0,7.737735416E0
7.534805667E0,5.952369055E-1,-3.533408684E0,-5.193633183E0,6.309763033E0
7.544748667E0,4.273484337E-1,-2.727899179E0,-3.395544203E0,4.376503290E0
7.554691667E0,-2.640906644E-1,-2.447480750E0,-1.561830477E0,2.915342234E0
7.564635667E0,-1.525652584E0,-2.930967132E0,-1.651593570E-1,3.308392623E0
7.574578667E0,-3.364304869E0,-3.905376969E0,1.757723896E0,5.446109603E0
7.584521667E0,-5.497943920E0,-4.782164617E0,3.609704908E0,8.131817466E0
7.594465667E0,-7.017208421E0,-5.470873066E0,4.133290325E0,9.811001735E0
7.604408667E0,-7.970612136E0,-5.692404771E0,4.097524077E0,1.061714809E1
7.614351667E0,-8.576749713E0,-5.189147199E0,3.755583583E0,1.070477895E1
7.624294667E0,-8.884281097E0,-4.060470856E0,2.887518811E0,1.018605120E1
7.634238667E0,-8.649342311E0,-2.834942987E0,3.641645908E-1,9.109370999E0
7.644181667E0,-7.577074057E0,-1.843870924E0,-3.424072183E0,8.516817573E0
7.654124667E0,-6.032853055E0,-1.171365695E0,-5.308742055E0,8.120970125E0
7.664068667E0,-4.320698850E0,-7.285525453E-1,-5.661679991E0,7.159179261E0
7.674011667E0,-2.735076052E0,-7.303803849E-1,-5.437267363E0,6.130087511E0
7.683954667E0,-1.854658891E0,-8.454980278E-1,-4.437207545E0,4.882974228E0
7.693897667E0,-1.303412197E0,-6.292323250E-1,-3.186482270E0,3.499783697E0
7.703841667E0,-1.366576598E0,-4.322636032E-1,-1.997880152E0,2.458842924E0
7.713784667E0,-1.450925461E0,-3.287854278E-1,-8.979428744E-1,1.737695588E0
7.723727667E0,-8.819799026E-1,-4.036175090E-1,-1.377182643E-1,9.796744166E-1
7.733671667E0,-5.263093427E-2,-5.052497184E-1,8.522012758E-1,9.921160757E-1
7.743614667E0,7.452271233E-1,-4.883302152E-1,2.022459508E0,2.210016363E0
7.753557667E0,1.227087760E0,-2.951803100E-1,2.458116835E0,2.763189129E0
7.763500667E0,9.638279848E-1,-3.465644717E-3,1.780162586E0,2.024340690E0
7.773444667E0,-3.579113591E-1,7.939045358E-1,8.001410298E-1,1.182628691E0
7.783387667E0,-1.751702433E0,1.516293531E0,1.637208688E-1,2.322587352E0
7.793330667E0,-2.577259117E0,1.800086389E0,3.462026753E-2,3.143847026E0
7.803274667E0,-3.287065489E0,2.001352229E0,2.112351970E-1,3.854196490E0
7.813217667E0,-3.659226439E0,2.380405585E0,3.447668914E-1,4.378942006E0
7.823160667E0,-3.653764848E0,2.899440699E0,4.155369119E-1,4.682886381E0
7.833103667E0,-3.530074894E0,3.604266998E0,4.683163655E-1,5.066704014E0
7.843047667E0,-3.474348882E0,4.400253727E0,7.076696531E-1,5.651029053E0
7.852990667E0,-3.365304158E0,5.021565413E0,9.579936330E-1,6.120387494E0
7.862933667E0,-3.256984780E0,5.492822344E0,1.066301901E0,6.474260336E0
7.872877667E0,-2.999804940E0,5.821394933E0,1.027816551E0,6.629017688E0
7.882820667E0,-2.607163824E0,6.128556772E0,7.942610697E-1,6.707261883E0
7.892763667E0,-2.156241902E0,6.261151158E0,6.615900855E-1,6.655005215E0
7.902707667E0,-1.769066910E0,6.276139326E0,1.018477232E0,6.599758969E0
7.912650667E0,-1.463503114E0,6.255234945E0,1.671217410E0,6.637979604E0
7.922593667E0,-1.127208326E0,6.035652702E0,2.283152794E0,6.550762462E0
7.932536667E0,-9.505062734E-1,5.708723180E0,2.442376131E0,6.281574937E0
7.942480667E0,-8.983046709E-1,5.353711236E0,2.262018910E0,5.880978221E0
7.952423667E0,-9.692704269E-1,4.849463730E0,1.827879374E0,5.272373909E0
7.962366667E0,-1.259088548E0,4.061889975E0,1.277391064E0,4.440268243E0
7.972310667E0,-1.733734524E0,3.376550108E0,4.919075418E-1,3.827388020E0
7.982253667E0,-2.232896414E0,3.173412573E0,-3.478672314E-1,3.895816393E0
7.992196667E0,-1.827008431E0,3.388097189E0,-1.176617664E0,4.025120060E0
8.002139667E0,-7.195715144E-1,3.117747665E0,-1.965865624E0,3.755364339E0
8.012083667E0,7.326487391E-1,1.153222954E0,-1.175655066E0,1.802460039E0
8.022026667E0,2.401136011E0,-1.463746943E0,8.757889438E-1,2.945337932E0
8.031969667E0,-4.613745511E-2,-2.855819886E0,1.938550794E-1,2.862763643E0
8.041913667E0,-2.662945677E0,-4.076271787E0,-2.163245258E0,5.327935942E0
8.051856667E0,-3.504567585E0,-6.011945751E0,-3.353764093E0,7.724844287E0
8.061799667E0,-4.489463234E0,-7.668964806E0,-3.501187602E0,9.551262532E0
8.071742667E0,-5.803412406E0,-7.691537397E0,-3.809544028E0,1.036107952E1
8.081686667E0,-5.675232083E0,-5.702490633E0,-3.573184369E0,8.803084979E0
8.091629667E0,-3.233500608E0,-3.070807387E0,-1.592731258E0,4.735206125E0
8.101572792E0,-1.551924563E0,-5.761893082E-1,1.142684810E-1,1.659373753E0
8.111516792E0,-1.324378996E0,1.227734023E0,9.535941879E-1,2.042217528E0
8.121459792E0,-1.186663107E0,2.042484468E0,1.744463288E0,2.936505456E0
8.131402792E0,-1.513062067E0,2.276241531E0,2.477824291E0,3.689206628E0
8.141345792E0,-2.296576393E0,1.805454717E0,3.144648073E0,4.292172104E0
8.151289792E0,-3.094627190E0,8.211847204E-1,3.587941571E0,4.808782227E0
8.161232792E0,-3.564938625E0,-3.152385986E-1,3.852017033E0,5.257965196E0
8.171175792E0,-3.735067458E0,-1.570499559E0,3.869178611E0,5.602476319E0
8.181119792E0,-3.411030846E0,-2.749378341E0,3.817688030E0,5.811106142E0
8.191062792E0,-3.039052328E0,-3.575220954E0,3.642938143E0,5.940458083E0
8.201005792E0,-2.723611709E0,-3.977918111E0,3.175580721E0,5.772885427E0
8.210948792E0,-2.344564492E0,-4.072868707E0,2.582673054E0,5.362410117E0
8.220892792E0,-1.862730680E0,-3.890642570E0,1.815222491E0,4.679946355E0
8.230835792E0,-1.368254602E0,-3.497557651E0,1.101792015E0,3.913946323E0
8.240778792E0,-1.061800422E0,-2.947299575E0,4.910620344E-1,3.170983576E0
8.250722792E0,-8.039711022E-1,-2.357693830E0,-5.823067565E-2,2.491682271E0
8.260665792E0,-5.666216554E-1,-1.827972345E0,-5.902536525E-1,2.002733724E0
8.270608792E0,-3.215480366E-1,-1.451276001E0,-1.031054154E0,1.809051641E0
8.280551792E0,-1.626955596E-1,-1.411196846E0,-1.328515463E0,1.944967794E0
8.290495792E0,-8.719484925E-2,-1.639235333E0,-1.510668510E0,2.230877577E0
8.300438792E0,-2.435599208E-2,-2.008924958E0,-1.642052522E0,2.594746459E0
8.310381792E0,-6.054733336E-2,-2.267885275E0,-1.625151730E0,2.790714558E0
8.320325792E0,-1.835996479E-1,-2.413343536E0,-1.441966649E0,2.817304327E0
8.330268792E0,-2.478710729E-1,-2.477934803E0,-1.309085750E0,2.813415444E0
8.340211792E0,-1.968909538E-1,-2.414862642E0,-1.152641741E0,2.683078570E0
8.350154792E0,-1.446343875E-1,-2.125010900E0,-9.011933416E-1,2.312734284E0
8.360098792E0,-8.497407675E-2,-1.575325266E0,-2.186671543E-1,1.592697590E0
8.370041792E0,5.070149928E-2,-1.034268953E0,6.431317413E-1,1.218975531E0
8.379984792E0,1.105585688E-1,-6.411846185E-1,1.280376506E0,1.436212000E0
8.389928792E0,2.601920334E-1,-1.960729283E-1,1.747400637E0,1.777513283E0
8.399871792E0,4.549630791E-1,2.423261583E-1,2.127984209E0,2.189527384E0
8.409814792E0,9.069589886E-1,5.943595308E-1,2.558669064E0,2.778961180E0
8.419757792E0,1.331025673E0,9.896324784E-1,3.121025029E0,3.534373922E0
8.429701792E0,1.635097843E0,1.284094750E0,3.319602320E0,3.916912540E0
8.439644792E0,2.229350955E0,1.539228065E0,3.046313986E0,4.076672370E0
8.449587792E0,2.815637820E0,1.740721947E0,2.593009762E0,4.204952895E0
8.459531792E0,3.372668433E0,1.933254971E0,2.130387415E0,4.432935560E0
8.469474792E0,3.778381877E0,2.246380386E0,1.826664323E0,4.760157245E0
8.479417792E0,4.037803832E0,2.698073702E0,1.620578038E0,5.119544380E0
8.489360792E0,4.120841603E0,3.183445811E0,1.520892366E0,5.424829614E0
8.499304792E0,4.082662209E0,3.435083075E0,1.050577422E0,5.437981185E0
8.509247792E0,4.045373053E0,3.448432853E0,8.355121529E-1,5.380967649E0
8.519190792E0,3.854304464E0,3.053080968E0,4.045161530E-1,4.933619322E0
8.529134792E0,3.152674546E0,2.463809685E0,-4.526675353E-1,4.026738488E0
8.539077792E0,2.100936451E0,1.871672680E0,-1.644480286E0,3.259050169E0
8.549020792E0,8.370499706E-1,1.341674037E0,-3.454775913E0,3.799502399E0
8.558963792E0,8.855578870E-2,6.471020007E-1,-4.873867085E0,4.917434645E0
8.568907792E0,2.228677940E-1,-3.646440625E-2,-4.590061948E0,4.595614039E0
8.578850792E0,8.455401278E-1,-4.435095531E-1,-3.085849349E0,3.230186533E0
8.588793792E0,1.176497504E0,-5.466895205E-1,-1.469298874E0,1.960065047E0
8.598737792E0,1.001711949E0,-1.564241284E-1,-6.446134988E-1,1.201424945E0
8.608680792E0,6.690009928E-1,2.923677993E-1,-6.289376253E-1,9.636409056E-1
8.618623792E0,3.786545759E-1,3.437542999E-1,-1.208945311E0,1.312667160E0
8.628567792E0,3.912143952E-1,-2.226502776E-2,-1.616508960E0,1.663323676E0
8.638510792E0,4.133244717E-1,-4.371588922E-1,-1.612165648E0,1.720762358E0
8.648453792E0,2.701442868E-1,-1.037777283E0,-1.224636022E0,1.627787766E0
8.658396792E0,1.855029166E-1,-1.686623508E0,-1.836820936E-1,1.706707151E0
8.668340792E0,2.479845089E-1,-2.033352871E0,9.772439095E-1,2.269587159E0
8.678283792E0,-5.017495751E-3,-1.847539467E0,1.184792072E0,2.194802841E0
8.688226792E0,-5.240011543E-1,-1.591612101E0,4.602156329E-1,1.737700986E0
8.698170792E0,-8.978516579E-1,-1.578297991E0,-5.888438523E-2,1.816763473E0
8.708113792E0,-9.779924262E-1,-1.718036504E0,-6.557133414E-2,1.977983371E0
8.718056792E0,-7.771633726E-1,-2.373228128E0,3.469819629E-1,2.521228101E0
8.727999792E0,-3.369060409E-1,-3.515269452E0,9.547433120E-1,3.658163445E0
8.737943792E0,-9.617266417E-2,-4.858992353E0,1.099072621E0,4.982671622E0
8.747886792E0,2.627668548E-1,-6.153844226E0,4.940208717E-1,6.179231489E0
8.757829792E0,1.003580427E0,-7.314917652E0,-7.891261911E-1,7.425490831E0
8.767773792E0,1.776585259E0,-8.221799165E0,-2.329070102E0,8.728046988E0
8.777716792E0,2.533642396E0,-8.537365792E0,-3.235943867E0,9.475087924E0
8.787659792E0,3.363296809E0,-8.033201317E0,-3.552356586E0,9.405494466E0
8.797602792E0,4.114728924E0,-6.828088417E0,-3.812680475E0,8.836872634E0
8.807546792E0,4.638133078E0,-5.408724765E0,-4.468856769E0,8.410544741E0
8.817489792E0,4.752118115E0,-4.186420466E0,-5.085287785E0,8.122123783E0
8.827432792E0,4.297407635E0,-3.569913436E0,-5.255727689E0,7.670375993E0
8.837376792E0,3.334854198E0,-3.428135998E0,-4.993004104E0,6.914004550E0
8.847319792E0,2.364409357E0,-3.457384940E0,-4.544077690E0,6.180014910E0
8.857262792E0,1.592073446E0,-3.588606985E0,-3.925534075E0,5.551811932E0
8.867205792E0,1.011117488E0,-3.892323645E0,-3.211163952E0,5.146272035E0
8.877149792E0,6.675695944E-1,-3.969029759E0,-2.324118533E0,4.647620181E0
8.887092792E0,6.653651941E-1,-3.726094905E0,-1.337874516E0,4.014523920E0
8.897035792E0,7.992626318E-1,-3.263949106E0,-4.446234842E-1,3.389671749E0
8.906979792E0,6.463699293E-1,-3.023305777E0,1.450180014E-1,3.095028615E0
8.916922792E0,6.529878080E-2,-3.114293715E0,6.397415257E-1,3.179993474E0
8.926865792E0,-1.133032226E0,-3.619243471E0,9.897055686E-1,3.919464560E0
8.936808792E0,-2.275974898E0,-4.490555786E0,5.729686618E-1,5.066897088E0
8.946752792E0,-3.000421821E0,-5.308393561E0,-3.701965785E-1,6.108896693E0
8.956695792E0,-3.544295030E0,-5.818521026E0,-1.168664281E0,6.912524170E0
8.966638792E0,-3.921445995E0,-5.915969553E0,-1.993884165E0,7.372381468E0
8.976582792E0,-4.262678683E0,-5.597088139E0,-2.029549842E0,7.322356025E0
8.986525792E0,-4.599870653E0,-4.720938422E0,-1.527960480E0,6.766146084E0
8.996468792E0,-4.745130400E0,-3.399034406E0,-1.217249966E0,5.962499047E0
9.006412792E0,-4.599506663E0,-1.567858372E0,-8.019841453E-1,4.925121317E0
9.016355792E0,-4.255593612E0,3.986292493E-1,8.480823509E-2,4.275064292E0
9.026298792E0,-3.763922590E0,1.822356094E0,1.140277219E0,4.334550395E0
9.036241792E0,-3.024071177E0,2.832221108E0,2.211735194E0,4.696621707E0
9.046185792E0,-2.361862603E0,3.478665297E0,3.305140986E0,5.348220652E0
9.056128792E0,-2.083281222E0,3.969989287E0,4.341721344E0,6.241107259E0
9.066071792E0,-1.120100816E0,4.056193618E0,4.637883986E0,6.262371785E0
9.076015792E0,-3.259702858E-1,3.752746514E0,4.065889471E0,5.542636576E0
9.085958792E0,-2.967996964E-1,3.504504143E0,2.875035006E0,4.542627613E0
9.095902542E0,-9.769729641E-1,3.803322591E0,1.533067439E0,4.215451894E0
9.105845542E0,-2.314432328E0,4.353845546E0,2.727362113E-1,4.938314801E0
9.115789542E0,-3.294953967E0,4.739791600E0,-3.941070127E-1,5.785988800E0
9.125732542E0,-3.661088777E0,5.207872907E0,-3.173820417E-1,6.373871870E0
9.135675542E0,-3.418923418E0,5.617466855E0,2.598971875E-1,6.581224639E0
9.145619542E0,-3.094303254E0,5.969047653E0,9.998091187E-1,6.797342185E0
9.155562542E0,-2.892293063E0,6.345810070E0,1.720876497E0,7.183041175E0
9.165505542E0,-2.791923852E0,6.703587747E0,2.240884880E0,7.599637658E0
9.175448542E0,-2.639943607E0,6.995725166E0,2.430150772E0,7.862258303E0
9.185392542E0,-2.518174172E0,7.168353099E0,2.497144661E0,7.997638324E0
9.195335542E0,-2.313281011E0,7.260220458E0,2.595826950E0,8.049868800E0
9.205278542E0,-2.013614425E0,7.348770107E0,2.939184809E0,8.166876544E0
9.215222542E0,-1.679930200E0,7.320701133E0,3.500319291E0,8.286559340E0
9.225165542E0,-1.416194169E0,7.173807381E0,4.055376177E0,8.361530614E0
9.235108542E0,-1.160511801E0,6.880261368E0,4.644515898E0,8.381903845E0
9.245051542E0,-9.631823060E-1,6.620151488E0,4.913331113E0,8.300298097E0
9.254995542E0,-1.057194424E0,6.165607070E0,4.814096847E0,7.893535269E0
9.264938542E0,-1.495978550E0,5.429610434E0,4.080448160E0,6.954759412E0
9.274881542E0,-2.259951189E0,4.471944684E0,2.932533309E0,5.805636936E0
9.284825542E0,-3.308904547E0,3.383496015E0,1.942659048E0,5.115742249E0
9.294768542E0,-4.326237625E0,2.384468231E0,1.222088537E0,5.088764203E0
9.304711542E0,-4.538507633E0,1.526178249E0,6.730317709E-1,4.835312125E0
9.314655542E0,-3.877496860E0,7.272404301E-1,8.203131929E-1,4.029488091E0
9.324598542E0,-3.813904589E0,-8.040564716E-2,1.228202970E0,4.007594767E0
9.334541542E0,-5.916102285E0,-8.593991983E-1,1.220965433E0,6.101605511E0
9.344484542E0,-8.004043007E0,-2.151669526E0,1.708282764E0,8.462423778E0
9.354428542E0,-8.110875145E0,-4.147611911E0,2.075174496E0,9.343196957E0
9.364371542E0,-7.317157720E0,-5.587326213E0,1.435534858E0,9.317712790E0
9.374314542E0,-5.894655282E0,-6.677869354E0,9.727201380E-1,8.960306048E0
9.384258542E0,-4.379088853E0,-7.235639348E0,1.197147238E-1,8.458441202E0
9.394201542E0,-3.010103933E0,-7.557365432E0,-9.765518184E-1,8.193177126E0
9.404144542E0,-2.039798988E0,-7.439484395E0,-1.813079048E0,7.924264232E0
9.414087542E0,-1.015998158E0,-6.875420458E0,-2.705218999E0,7.458007011E0
9.424031542E0,2.060542716E-1,-6.098824266E0,-3.261697344E0,6.919305265E0
9.433974542E0,1.230576063E0,-5.142534950E0,-3.515183498E0,6.349527398E0
9.443917542E0,1.874621724E0,-4.256117522E0,-3.504235171E0,5.823092572E0
9.453861542E0,1.900716824E0,-3.517478530E0,-3.184181975E0,5.111202843E0
9.463804542E0,1.396277091E0,-2.878441594E0,-2.381059889E0,3.988039859E0
9.473747542E0,7.108639871E-1,-2.197561398E0,-1.491107819E0,2.749182830E0
9.483690542E0,1.784766099E-1,-1.488873013E0,-7.347306403E-1,1.669858037E0
9.493634542E0,-8.610726714E-2,-7.739345402E-1,-8.982726574E-2,7.838737600E-1
9.503577542E0,-1.526462424E-1,-4.097962618E-2,3.118484560E-1,3.496135933E-1
9.513520542E0,-7.839332789E-2,4.811761469E-1,6.379546165E-1,8.029085197E-1
9.523464542E0,3.923101634E-2,7.424408519E-1,9.663505467E-1,1.219258328E0
9.533407542E0,1.958814320E-1,6.925073844E-1,1.420078182E0,1.592029540E0
9.543350542E0,3.715613186E-2,3.394682908E-1,1.672919973E0,1.707419262E0
9.553294542E0,-1.914825717E-1,-1.395630974E-1,1.762774136E0,1.778627586E0
9.563237542E0,-4.048471785E-1,-6.681285882E-1,1.733596530E0,1.901487307E0
9.573180542E0,-5.689232656E-1,-1.217595536E0,1.780430388E0,2.230727446E0
9.583123542E0,-6.414723015E-1,-1.576104700E0,1.812164397E0,2.485866557E0
9.593067542E0,-5.159705883E-1,-1.703651184E0,1.859564266E0,2.574224595E0
9.603010542E0,-2.079220185E-1,-1.610568774E0,1.897320907E0,2.497396638E0
9.612953542E0,2.089730555E-1,-1.438489310E0,1.933561950E0,2.419004557E0
9.622897542E0,6.508693618E-1,-1.172708216E0,1.906585236E0,2.331081883E0
9.632840542E0,1.064440878E0,-8.449618381E-1,2.276142129E0,2.651003184E0
9.642783542E0,1.486411920E0,-5.320726508E-1,2.547404988E0,2.996964110E0
9.652726542E0,1.910378032E0,-3.927779406E-1,2.483572104E0,3.157839314E0
9.662670542E0,2.245728129E0,-3.860659218E-1,2.360000557E0,3.280540253E0
9.672613542E0,2.529987887E0,-3.835101038E-1,2.222760558E0,3.389481259E0
9.682556542E0,2.722905657E0,-1.774279118E-1,1.949384515E0,3.353475193E0
9.692500542E0,2.924202780E0,4.915988088E-2,1.569287431E0,3.319042277E0
9.702443542E0,2.949279734E0,4.260684782E-1,1.196271325E0,3.211051289E0
9.712386542E0,2.542701780E0,9.523886383E-1,6.597097671E-1,2.794207121E0
9.722329542E0,1.748080668E0,1.557467285E0,-6.230909944E-1,2.422753135E0
9.732273542E0,1.168844960E0,2.018424345E0,-2.298198996E0,3.274439494E0
9.742216542E0,1.104268895E0,2.288072203E0,-3.058995427E0,3.976447814E0
9.752159542E0,1.599873632E0,2.267563094E0,-3.074434415E0,4.141688665E0
9.762103542E0,2.048349225E0,2.103173888E0,-2.543249956E0,3.884223898E0
9.772046542E0,2.468395071E0,1.739971749E0,-1.700531695E0,3.465874199E0
9.781989542E0,2.760478111E0,1.351523087E0,-6.933254099E-1,3.150802149E0
9.791932542E0,2.971597679E0,9.948084337E-1,3.685102415E-1,3.155287053E0
9.801876542E0,2.975644537E0,9.812873322E-1,1.161143008E0,3.341502405E0
9.811819542E0,3.044014860E0,1.127439072E0,1.637358377E0,3.635668822E0
9.821762542E0,3.064918656E0,1.207305021E0,1.324156364E0,3.550310108E0
9.831706542E0,3.063142857E0,1.508166486E0,7.530629039E-2,3.415125378E0
9.841649542E0,3.062262266E0,1.924773585E0,-1.308370636E0,3.846301764E0
9.851592542E0,2.943567297E0,2.295509276E0,-2.360975872E0,4.416804087E0
9.861536542E0,2.937044143E0,2.416996876E0,-3.016782038E0,4.854799281E0
9.871479542E0,2.858754603E0,2.197877732E0,-3.265440146E0,4.864796373E0
9.881422542E0,2.990650247E0,1.114013280E0,-2.942431183E0,4.340842747E0
9.891365542E0,3.090113724E0,-4.238938987E-2,-2.246637079E0,3.820730015E0
9.901309542E0,2.829912043E0,-5.710928750E-1,-1.387138478E0,3.202920916E0
9.911252542E0,2.486291644E0,-7.400908560E-1,-5.615502191E-1,2.654189003E0
9.921195542E0,2.116205578E0,-8.654686081E-1,3.313558638E-2,2.286582587E0
9.931139542E0,1.769573278E0,-1.119069952E0,6.123344564E-1,2.181435452E0
9.941082542E0,1.442102305E0,-1.314716034E0,1.194973170E0,2.288252212E0
9.951025542E0,1.172248625E0,-1.511329245E0,1.860325574E0,2.668163069E0
9.960968542E0,7.364340073E-1,-1.806420677E0,2.320356435E0,3.031426182E0
9.970912542E0,1.826956683E-1,-2.393271214E0,2.423654516E0,3.411044711E0
9.980855542E0,-5.239649016E-1,-3.269808016E0,2.067784785E0,3.904089855E0
9.990798542E0,-1.667254021E0,-4.085178266E0,1.108798076E0,4.549489049E0
1.000074254E1,-3.146283247E0,-4.804898007E0,-2.920742691E-1,5.750778252E0
1.001068554E1,-4.638872750E0,-5.771886558E0,-1.748972514E0,7.608726548E0
1.002062854E1,-5.466171319E0,-6.987336166E0,-2.686369330E0,9.269221961E0
1.003057254E1,-5.016857820E0,-8.254821315E0,-3.207671410E0,1.017841310E1
1.004051554E1,-2.924639275E0,-8.871525981E0,-3.864562819E0,1.010902240E1
1.005045854E1,-6.661270863E-1,-7.898691384E0,-4.315194281E0,9.025184350E0
1.006040154E1,1.129318367E0,-6.378842161E0,-4.420103270E0,7.842340225E0
1.007034554E1,2.535473744E0,-5.329663392E0,-4.483855462E0,7.412077899E0
1.008028854E1,3.448789533E0,-4.710357885E0,-4.606839364E0,7.436705560E0
1.009023154E1,3.835347791E0,-4.395095898E0,-4.699755714E0,7.490958844E0
1.010017487E1,3.809512453E0,-4.169037863E0,-4.561795338E0,7.259699618E0
1.011011788E1,3.550104239E0,-3.972653863E0,-4.182114576E0,6.773130823E0
1.012006088E1,3.124227549E0,-3.802029771E0,-3.713906969E0,6.165170974E0
1.013000388E1,2.621733624E0,-3.674846984E0,-3.187531260E0,5.526150838E0
1.013994787E1,1.926134524E0,-3.585309740E0,-2.485194122E0,4.768713658E0
1.014989087E1,1.026136353E0,-3.629407101E0,-1.712171747E0,4.142111034E0
1.015983388E1,-2.181040674E-2,-3.594591610E0,-7.908511198E-1,3.680626309E0
1.016977788E1,-1.005038137E0,-3.529913219E0,3.745141625E-2,3.670393929E0
1.017972088E1,-1.789315525E0,-3.517663887E0,5.537267176E-1,3.985250625E0
1.018966387E1,-2.491666989E0,-3.600826496E0,8.472731694E-1,4.460070365E0
1.019960687E1,-3.008729545E0,-3.459241431E0,7.033698300E-1,4.638268413E0
1.020955088E1,-3.425155965E0,-3.524831988E0,6.829899446E-1,4.962117410E0
1.021949388E1,-3.774947515E0,-3.504571386E0,7.738240278E-1,5.208747735E0
1.022943688E1,-3.992951303E0,-3.398385950E0,8.103879829E-1,5.305602308E0
1.023938088E1,-4.197052166E0,-3.266031885E0,7.401570026E-1,5.369361558E0
1.024932388E1,-3.920077746E0,-2.808346927E0,5.490185396E-1,4.853374430E0
1.025926688E1,-3.235442468E0,-1.945971496E0,1.402535073E-1,3.778169408E0
1.026921088E1,-2.838170358E0,-9.727889889E-1,-2.090392752E-1,3.007528356E0
1.027915388E1,-2.314200194E0,3.323200697E-1,3.268111154E-2,2.338167492E0
1.028909688E1,-1.758805777E0,1.555322526E0,1.085878233E0,2.586804488E0
1.029903988E1,-1.207695323E0,2.285269632E0,1.918090071E0,3.218703902E0
1.030898387E1,-5.163891028E-1,2.406822136E0,2.640937049E0,3.610263010E0
1.031892688E1,-2.161671773E-2,2.091971208E0,3.038823702E0,3.689344157E0
1.032886988E1,4.833950190E-1,1.657603776E0,2.604258635E0,3.124657431E0
1.033881388E1,6.806118089E-1,1.448072897E0,1.787296189E0,2.398869570E0
1.034875687E1,3.535247049E-1,1.688030348E0,1.055469203E0,2.021989468E0
1.035869987E1,-1.060692667E0,2.591683028E0,5.406380908E-1,2.852048281E0
1.036864287E1,-2.737396812E0,3.598817393E0,4.554163845E-1,4.544472688E0
1.037858688E1,-3.413450424E0,4.576356660E0,9.012290096E-1,5.779870050E0
1.038852988E1,-3.363565488E0,5.544326958E0,1.381099473E0,6.630276764E0
1.039847288E1,-3.195477334E0,6.434315280E0,1.826282061E0,7.412610518E0
1.040841688E1,-2.955442699E0,7.172372475E0,2.449308297E0,8.134905015E0
1.041835988E1,-2.605759908E0,7.894944488E0,3.061731924E0,8.859702903E0
1.042830288E1,-2.274483566E0,8.482690233E0,3.568273000E0,9.479550690E0
1.043824588E1,-2.018587482E0,8.850664285E0,4.065243938E0,9.946615604E0
1.044818988E1,-1.629809329E0,9.096263714E0,4.401288099E0,1.023570364E1
1.045813288E1,-1.245090606E0,9.090210677E0,4.578322786E0,1.025393682E1
1.046807588E1,-9.929338163E-1,8.692864891E0,4.692523878E0,9.928323017E0
1.047801988E1,-8.989345622E-1,8.043190700E0,4.617467556E0,9.317832721E0
1.048796288E1,-1.006910124E0,7.258828821E0,4.128557589E0,8.411269322E0
1.049790588E1,-1.352817076E0,6.510541338E0,3.283442262E0,7.416080881E0
1.050784987E1,-2.002221710E0,5.869830344E0,2.269932386E0,6.604270821E0
1.051779287E1,-2.893456951E0,5.343999011E0,1.142290708E0,6.183465583E0
1.052773587E1,-3.712994803E0,4.954500189E0,2.749466050E-1,6.197499348E0
1.053767888E1,-4.390600266E0,4.556551555E0,3.939351046E-1,6.339930413E0
1.054762288E1,-4.925115591E0,4.148779600E0,1.671856949E0,6.653137712E0
1.055756588E1,-5.317187188E0,3.991621646E0,3.260829324E0,7.405304237E0
1.056750887E1,-5.668345817E0,3.899667748E0,4.285453003E0,8.105717753E0
1.057745288E1,-5.696363336E0,3.567746458E0,4.519670535E0,8.099678499E0
1.058739588E1,-5.367935173E0,2.861156055E0,4.012024628E0,7.286788291E0
1.059733888E1,-4.983971910E0,1.496087893E0,2.767454424E0,5.893815315E0
1.060728288E1,-4.312054911E0,-9.805745566E-1,2.411319083E0,5.036844621E0
1.061722588E1,-4.419175901E0,-4.636688815E0,2.050169609E0,6.725414058E0
1.062716888E1,-5.001638103E0,-9.022195280E0,-4.241913758E-2,1.031591929E1
1.063711188E1,-5.124316780E0,-1.458645013E1,-2.282462969E0,1.562794891E1
1.064705588E1,-5.374296359E0,-1.911384630E1,-3.116291124E0,2.009809574E1
1.065699888E1,-4.221248821E0,-1.944193357E1,-4.224074196E0,2.033840027E1
1.066694188E1,-7.285946453E-1,-1.538175800E1,-5.473329481E0,1.634278633E1
1.067688587E1,2.830157041E0,-9.445305651E0,-6.068319926E0,1.157791408E1
1.068682887E1,4.748630543E0,-4.629893766E0,-5.808146896E0,8.815893528E0
1.069677188E1,5.152464691E0,-1.358219318E0,-4.998602228E0,7.306071198E0
1.070671488E1,4.276976879E0,7.596188021E-1,-4.021663470E0,5.919740621E0
1.071665888E1,2.527859208E0,1.870590361E0,-2.777247341E0,4.195507510E0
1.072660187E1,7.605511406E-1,2.285505860E0,-1.441756150E0,2.807247026E0
1.073654487E1,-6.222948959E-1,2.327459632E0,-3.066490388E-1,2.428652488E0
1.074648888E1,-1.473016388E0,2.233160416E0,5.298466889E-1,2.727181739E0
1.075643188E1,-2.094832689E0,2.202201748E0,1.113692341E0,3.237024431E0
1.076637488E1,-2.563516698E0,2.040767140E0,1.692083638E0,3.687749371E0
1.077631788E1,-2.820921656E0,1.424553056E0,2.132146257E0,3.812216949E0
1.078626188E1,-2.961464455E0,4.567540812E-1,2.499690539E0,3.902223571E0
1.079620488E1,-3.222749625E0,-4.346328950E-1,2.621397994E0,4.176930492E0
1.080614788E1,-3.316829278E0,-1.094710452E0,2.539312441E0,4.318316235E0
1.081609188E1,-3.445545790E0,-1.593073320E0,2.421959993E0,4.502838949E0
1.082603488E1,-3.251845955E0,-1.523721249E0,2.204576887E0,4.213832912E0
1.083597788E1,-2.746245696E0,-1.037501879E0,1.926271641E0,3.511238813E0
1.084592187E1,-1.966974402E0,-5.522356045E-1,1.661574036E0,2.633397186E0
1.085586488E1,-1.097040275E0,-1.838808990E-1,1.388600281E0,1.779190909E0
1.086580788E1,-3.089706758E-1,3.108496785E-2,1.116704681E0,1.159076571E0
1.087575088E1,2.821936440E-1,2.591544449E-2,1.004737664E0,1.043936126E0
1.088569487E1,7.991383785E-1,-5.386104226E-2,8.770156896E-1,1.187720371E0
1.089563787E1,1.195166786E0,-3.056941885E-1,7.835432696E-1,1.461441973E0
1.090558087E1,1.459583725E0,-6.774081194E-1,6.917104089E-1,1.751493563E0
1.091552488E1,1.655864522E0,-1.048547269E0,6.402151501E-1,2.061847261E0
1.092546788E1,1.814791259E0,-1.387258930E0,6.564493597E-1,2.376737347E0
1.093541088E1,2.024073632E0,-1.602498447E0,6.500969446E-1,2.662236161E0
1.094535488E1,2.211328667E0,-1.618019881E0,6.060229719E-1,2.806283423E0
1.095529788E1,2.323359565E0,-1.375489070E0,5.009216094E-1,2.746068518E0
1.096524088E1,2.564067798E0,-9.438353312E-1,3.202835763E-1,2.750972624E0
1.097518388E1,2.829113021E0,-4.004348695E-1,1.547325289E-1,2.861497986E0
1.098512788E1,3.079742810E0,2.043104857E-1,9.515058914E-2,3.087978657E0
1.099507088E1,3.279367045E0,8.161309719E-1,1.402326035E-1,3.382304416E0
1.100501388E1,3.402604716E0,1.343493106E0,1.357793641E-1,3.660755197E0
1.101495788E1,3.486957818E0,1.751211852E0,1.047984950E-1,3.903408831E0
1.102490088E1,3.516182202E0,2.051549991E0,-9.997337261E-2,4.072147998E0
1.103484388E1,3.537563131E0,2.154976126E0,-3.575747788E-1,4.157659766E0
1.104478688E1,3.357817383E0,2.249028005E0,-6.604570413E-1,4.095029676E0
1.105473087E1,3.116265396E0,2.257752635E0,-8.554406333E-1,3.942123242E0
1.106467387E1,2.877883185E0,1.966696367E0,-8.647751284E-1,3.591370525E0
1.107461688E1,2.849653412E0,1.391133880E0,-8.742908871E-1,3.289401556E0
1.108456088E1,2.930056136E0,8.285428566E-1,-7.086135399E-1,3.126314983E0
1.109450388E1,2.781708766E0,4.404719245E-1,-4.575247443E-1,2.853287239E0
1.110444738E1,2.661254370E0,3.016023070E-1,-4.037017089E-1,2.708544598E0
1.111439138E1,2.494360217E0,4.193851107E-1,-6.599997890E-1,2.614061301E0
1.112433437E1,2.195323083E0,7.147613025E-1,-1.246976041E0,2.623981022E0
1.113427737E1,1.942774823E0,8.743043357E-1,-1.818723804E0,2.801167321E0
1.114422037E1,2.008725568E0,8.061164457E-1,-1.903801961E0,2.882579407E0
1.115416438E1,2.272305186E0,6.588221598E-1,-1.651496944E0,2.885283288E0
1.116410738E1,2.519330751E0,4.683736682E-1,-1.166603138E0,2.815557531E0
1.117405038E1,2.481549552E0,2.273075849E-1,-5.941536723E-1,2.561791464E0
1.118399438E1,2.115068879E0,-5.001123548E-3,-1.732378336E-1,2.122157563E0
1.119393738E1,1.750535914E0,-4.968478543E-1,3.865941446E-2,1.820090197E0
1.120388038E1,1.497557298E0,-1.082522516E0,1.906239080E-1,1.857651833E0
1.121382338E1,1.258692691E0,-1.552776648E0,2.366882730E-1,2.012819900E0
1.122376738E1,1.064092677E0,-1.909532817E0,4.784905938E-1,2.237758265E0
1.123371038E1,8.649487907E-1,-2.131667370E0,9.206371609E-1,2.477844824E0
1.124365338E1,6.523235643E-1,-2.489690630E0,1.463355764E0,2.960657961E0
1.125359738E1,3.708731014E-1,-3.132844591E0,1.951607042E0,3.709586518E0
1.126354038E1,-2.557256377E-1,-3.909036741E0,2.000606124E0,4.398680337E0
1.127348338E1,-1.085236793E0,-4.823970455E0,1.618654304E0,5.202736934E0
1.128342738E1,-2.226912081E0,-5.510318967E0,5.719271265E-1,5.970749800E0
1.129337037E1,-3.581182190E0,-6.066545881E0,-1.287902019E0,7.161461891E0
1.130331337E1,-4.918668451E0,-6.585505566E0,-3.436594580E0,8.909116971E0
1.131325638E1,-5.564009855E0,-6.993941181E0,-4.805478635E0,1.014721853E1
1.132320038E1,-5.256022389E0,-6.883177959E0,-5.283052897E0,1.014468127E1
1.133314338E1,-3.724766418E0,-6.041202294E0,-5.125964525E0,8.754742848E0
1.134308637E1,-1.591457734E0,-5.030485341E0,-4.644204242E0,7.029022231E0
1.135303038E1,2.473372221E-1,-4.264868465E0,-4.453855737E0,6.171475484E0
1.136297338E1,1.609344367E0,-3.696157746E0,-4.308792457E0,5.900615545E0
1.137291638E1,2.493749768E0,-3.338630914E0,-4.073259301E0,5.827236534E0
1.138285938E1,2.936519063E0,-3.214269408E0,-3.650388665E0,5.681549915E0
1.139280338E1,3.001531915E0,-3.194666033E0,-3.084273525E0,5.359834706E0
1.140274638E1,2.913947641E0,-3.115874802E0,-2.402636114E0,4.896164513E0
1.141268938E1,2.656357327E0,-2.875142595E0,-1.804167745E0,4.310185662E0
1.142263338E1,2.311357277E0,-2.644952917E0,-1.326839651E0,3.754817154E0
1.143257638E1,1.921147726E0,-2.504554253E0,-9.327630436E-1,3.291450666E0
1.144251938E1,1.467077225E0,-2.499771230E0,-7.082878500E-1,2.983763306E0
1.145246337E1,9.400320098E-1,-2.757510649E0,-7.665138388E-1,3.012485456E0
1.146240637E1,2.918988526E-1,-3.273719219E0,-8.202860034E-1,3.387522929E0
1.147234938E1,-6.800019443E-1,-3.861188976E0,-3.348676650E-1,3.934884916E0
1.148229238E1,-1.718867686E0,-4.503063565E0,3.289444721E-1,4.831179159E0
1.149223638E1,-2.630283715E0,-4.807142753E0,5.951155758E-1,5.511912229E0
1.150217937E1,-3.262007246E0,-4.686182572E0,6.297556508E-1,5.744352927E0
1.151212237E1,-3.434439004E0,-4.101543453E0,6.550611576E-1,5.389539413E0
1.152206638E1,-3.131130480E0,-3.175238074E0,5.130977782E-1,4.488806550E0
1.153200938E1,-2.349976967E0,-2.235349613E0,2.511017326E-1,3.253034233E0
1.154195238E1,-1.108245294E0,-1.136192354E0,-2.519610541E-1,1.607054781E0
1.155189538E1,-6.834632036E-1,-9.063535094E-2,-4.043386169E-1,7.992661851E-1
1.156183938E1,-5.644103846E-1,6.720742893E-1,-1.682876904E-1,8.936239026E-1
1.157178238E1,-5.509036088E-1,1.309941198E0,6.092690536E-1,1.546172535E0
1.158172538E1,-5.899852288E-1,1.778395557E0,1.950960925E0,2.704999419E0
1.159166938E1,-5.936116719E-1,2.074664619E0,3.395457079E0,4.023150119E0
1.160161238E1,-7.568606704E-2,2.020046947E0,4.035359988E0,4.513363301E0
1.161155538E1,4.306629279E-1,1.903392656E0,3.257140024E0,3.797016631E0
1.162149937E1,-6.708875969E-2,1.886832172E0,2.068684233E0,2.800730441E0
1.163144238E1,-1.190857535E0,2.291481130E0,8.834463112E-1,2.729378101E0
1.164138538E1,-2.533454701E0,2.956760954E0,2.995797551E-1,3.905198598E0
1.165132838E1,-3.249168515E0,3.696624938E0,5.023563699E-1,4.947170291E0
1.166127237E1,-3.437103873E0,4.546429440E0,1.000918335E0,5.786669267E0
1.167121537E1,-3.359221299E0,5.450713620E0,1.594609530E0,6.598289646E0
1.168115837E1,-3.243246162E0,6.262812352E0,1.991129103E0,7.328441808E0
1.169110238E1,-3.228046033E0,7.019428024E0,2.302816103E0,8.061985672E0
1.170104538E1,-3.115997593E0,7.526095693E0,2.619456718E0,8.556466027E0
1.171098838E1,-2.815954739E0,7.884107258E0,2.773620898E0,8.819394607E0
1.172093238E1,-2.506977631E0,8.079727612E0,2.731191162E0,8.889676051E0
1.173087538E1,-2.293481754E0,8.114798627E0,2.639072957E0,8.835990119E0
1.174081838E1,-2.129351288E0,7.980557081E0,2.591459080E0,8.656736590E0
1.175076138E1,-1.912549980E0,7.748515005E0,2.551507394E0,8.378992911E0
1.176070538E1,-1.708347376E0,7.380563173E0,2.620134995E0,8.016000929E0
1.177064838E1,-1.493612474E0,6.960619653E0,2.785328193E0,7.644550825E0
1.178059138E1,-1.310503115E0,6.486683528E0,2.864001018E0,7.210893387E0
1.179053538E1,-1.107037844E0,6.049074985E0,2.833122164E0,6.770777072E0
1.180047838E1,-9.381579772E-1,5.502454462E0,2.638114014E0,6.173879740E0
1.181042138E1,-1.030485220E0,4.833503171E0,2.158899900E0,5.393097576E0
1.182036537E1,-1.570708889E0,4.214959556E0,1.569983250E0,4.764226892E0
1.183030837E1,-2.502547488E0,3.748365780E0,1.225681651E0,4.670683618E0
1.184025137E1,-2.636116020E0,3.595419576E0,1.139776697E0,4.601656280E0
1.185019438E1,-2.042669824E0,3.372570493E0,9.317140532E-1,4.051521050E0
1.186013838E1,-1.832663566E0,2.518479981E0,9.428987534E-1,3.254297961E0
1.187008138E1,-2.469865646E0,1.089619866E0,8.664123487E-1,2.835168094E0
1.188002437E1,-4.754882094E0,-6.485632199E-1,5.664816146E-1,4.832229237E0
1.188996838E1,-6.622119661E0,-2.960166957E0,7.135975604E-1,7.288640387E0
1.189991138E1,-7.195179539E0,-5.751271030E0,1.028767162E0,9.268553767E0
1.190985438E1,-6.945623884E0,-8.220480618E0,3.156607676E-1,1.076650521E1
1.191979738E1,-5.642466041E0,-9.822248747E0,-4.570310931E-1,1.133679280E1
1.192974138E1,-3.905687748E0,-9.558915882E0,-1.291238294E0,1.040646751E1
1.193968438E1,-2.320569419E0,-7.959591304E0,-2.449998707E0,8.645381994E0
1.194962738E1,-7.864659273E-1,-6.342223388E0,-3.461485008E0,7.268026184E0
1.195957138E1,1.700846860E-1,-4.688471172E0,-3.713597066E0,5.983434959E0
1.196951438E1,5.672265498E-1,-3.349975097E0,-3.652100730E0,4.988177909E0
1.197945738E1,6.676168106E-1,-2.459527768E0,-3.155143533E0,4.055850067E0
1.198940137E1,3.803431056E-1,-1.752332178E0,-2.561851119E0,3.127044946E0
1.199934437E1,-6.801773608E-2,-1.185254002E0,-1.993280733E0,2.320047745E0
1.200928738E1,-4.447199267E-1,-1.018056378E0,-1.328699065E0,1.731951445E0
1.201923038E1,-8.782957913E-1,-1.037507141E0,-4.489596697E-1,1.431568842E0
1.202917438E1,-1.302592563E0,-1.140219916E0,3.747340178E-1,1.771235283E0
1.203911737E1,-1.591314039E0,-1.242609340E0,9.826830626E-1,2.245445244E0
1.204906037E1,-1.736466636E0,-1.176844536E0,1.409756677E0,2.527388638E0
1.205900438E1,-1.673409677E0,-8.998297709E-1,1.637691668E0,2.508391430E0
1.206894738E1,-1.442663053E0,-3.786890745E-1,1.696986089E0,2.259301637E0
1.207889038E1,-1.013013740E0,3.031290150E-1,1.634979730E0,1.947111387E0
1.208883338E1,-4.485951689E-1,7.954061007E-1,1.596447748E0,1.839172070E0
1.209877650E1,2.516641617E-2,1.066667206E0,1.608460268E0,1.930170124E0
1.210871950E1,2.784499642E-1,9.911960238E-1,1.585074914E0,1.890096934E0
1.211866250E1,3.422185287E-1,6.106329167E-1,1.544338531E0,1.695572936E0
1.212860650E1,2.749878278E-1,9.855306566E-2,1.437557849E0,1.466936802E0
1.213854950E1,8.032554030E-2,-6.317372721E-1,1.444354652E0,1.578513394E0
1.214849250E1,-1.302519912E-1,-1.360430735E0,1.398040026E0,1.955058383E0
1.215843650E1,-2.766300184E-1,-2.053457937E0,1.411557620E0,2.507131544E0
1.216837950E1,-2.446919417E-1,-2.563738015E0,1.358698790E0,2.911818875E0
1.217832250E1,-1.085348475E-1,-2.764108062E0,1.257488165E0,3.038642736E0
1.218826550E1,8.259513706E-2,-2.575658149E0,1.129116054E0,2.813492477E0
1.219820950E1,3.065958291E-1,-2.041840104E0,1.344218745E0,2.463744315E0
1.220815250E1,6.081270924E-1,-1.382251375E0,1.625149391E0,2.218456212E0
1.221809550E1,1.012003341E0,-6.887581497E-1,1.577189358E0,1.996513166E0
1.222803950E1,1.398416879E0,-2.022978741E-1,1.613407012E0,2.144662301E0
1.223798250E1,1.683148215E0,2.045817965E-1,1.658451623E0,2.371772209E0
1.224792550E1,1.893641547E0,5.980233961E-1,1.748577096E0,2.645946362E0
1.225786950E1,2.055947389E0,8.352642310E-1,1.645404146E0,2.762596750E0
1.226781250E1,2.179727390E0,8.752901763E-1,1.416452909E0,2.742933326E0
1.227775550E1,2.166217690E0,9.498971397E-1,1.021611485E0,2.576527447E0
1.228769850E1,2.021803743E0,1.179544196E0,4.885617650E-1,2.391172826E0
1.229764250E1,1.859798740E0,1.407128354E0,-1.667666652E-1,2.338091674E0
1.230758550E1,1.738928898E0,1.577734319E0,-8.074525344E-1,2.482961717E0
1.231752850E1,1.758464738E0,1.650073147E0,-1.301852744E0,2.740394168E0
1.232747250E1,1.757191799E0,1.787426582E0,-1.565511299E0,2.955239827E0
1.233741550E1,1.691243393E0,1.966109306E0,-1.488040370E0,2.990009057E0
1.234735850E1,1.873361356E0,1.902902659E0,-1.194008380E0,2.925094411E0
1.235730250E1,2.166860592E0,1.859323361E0,-6.481591773E-1,2.927879523E0
1.236724550E1,2.392105864E0,1.557367882E0,5.112103701E-2,2.854851755E0
1.237718850E1,2.395692546E0,9.768574816E-1,4.176362085E-1,2.620689473E0
1.238713150E1,2.287905557E0,4.578843480E-1,4.974565494E-1,2.385714344E0
1.239707550E1,1.881610608E0,1.916074097E-1,1.542542998E-1,1.897621213E0
1.240701850E1,1.321978860E0,8.223524094E-2,-7.185771954E-1,1.506898778E0
1.241696150E1,7.618243718E-1,3.076430655E-1,-1.896401725E0,2.066726913E0
1.242690550E1,6.392345721E-1,5.573840779E-1,-2.764860599E0,2.892015211E0
1.243684850E1,7.728376025E-1,7.690673178E-1,-3.055157315E0,3.243875570E0
1.244679150E1,1.240862777E0,9.260586262E-1,-2.582413437E0,3.011010490E0
1.245673550E1,2.046165875E0,8.080279005E-1,-1.507712888E0,2.667002442E0
1.246667850E1,2.792034364E0,2.881081027E-1,-6.510529643E-1,2.881376777E0
1.247662150E1,3.227469497E0,-7.188303798E-1,-6.947089342E-1,3.378741922E0
1.248656450E1,3.121765287E0,-1.597805471E0,-1.278640321E0,3.732736517E0
1.249650850E1,2.668429488E0,-2.109333345E0,-1.634818493E0,3.773915023E0
1.250645150E1,2.315463485E0,-2.137310518E0,-1.339785240E0,3.424104538E0
1.251639450E1,2.122255107E0,-1.961061990E0,-6.190570003E-1,2.955158614E0
1.252633850E1,1.935763426E0,-1.894889050E0,7.552190647E-2,2.709887104E0
1.253628150E1,1.410271817E0,-1.936776164E0,4.126834707E-1,2.431105953E0
1.254622450E1,8.812888348E-1,-2.190913113E0,3.871926802E-1,2.393050031E0
1.255616750E1,4.093536276E-1,-2.741680482E0,-1.592956960E-1,2.776644986E0
1.256611150E1,-4.615148842E-2,-3.440323935E0,-1.050871684E0,3.597539441E0
1.257605450E1,-3.888509506E-1,-4.233697543E0,-1.463795621E0,4.496453888E0
1.258599750E1,-5.493143356E-1,-5.043438093E0,-7.057485504E-1,5.122118219E0
1.259594150E1,-6.893674296E-1,-5.735976468E0,5.173166174E-1,5.800368090E0
1.260588450E1,-8.388380492E-1,-6.502656367E0,1.026420236E0,6.636394172E0
1.261582750E1,-8.131418753E-1,-7.158621578E0,5.464491999E-1,7.225349080E0
1.262577150E1,-7.153735059E-1,-7.625298384E0,-7.487231004E-1,7.695292131E0
1.263571450E1,-5.284935701E-1,-7.599964153E0,-2.177079186E0,7.923284316E0
1.264565750E1,2.613705397E-2,-7.087865006E0,-3.206387946E0,7.779423960E0
1.265560050E1,9.389453048E-1,-6.200548276E0,-3.811530327E0,7.338677037E0
1.266554450E1,1.788991297E0,-5.154555071E0,-4.116968408E0,6.835155939E0
1.267548750E1,2.359761406E0,-4.243676986E0,-4.219717435E0,6.432984027E0
1.268543050E1,2.643139111E0,-3.451645898E0,-4.213817010E0,6.054444447E0
1.269537450E1,2.742382733E0,-2.859910013E0,-3.964133885E0,5.604828792E0
1.270531750E1,2.671143765E0,-2.383004673E0,-3.617357744E0,5.089105750E0
1.271526050E1,2.441533547E0,-2.097707326E0,-3.235278454E0,4.563823919E0
1.272520450E1,2.068592870E0,-2.005573334E0,-2.845332320E0,4.049360057E0
1.273514750E1,1.562301470E0,-2.043235835E0,-2.290212284E0,3.443932471E0
1.274509050E1,8.878584740E-1,-2.262568987E0,-1.601667557E0,2.910816046E0
1.275503350E1,-4.049313784E-2,-2.633780642E0,-6.732133269E-1,2.718760076E0
1.276497750E1,-1.200593002E0,-2.974799030E0,5.265043473E-1,3.250855219E0
1.277492050E1,-2.264414368E0,-3.456108493E0,1.203451633E0,4.303551345E0
1.278486350E1,-2.882436996E0,-4.044650629E0,1.597127194E0,5.217131110E0
1.279480750E1,-3.521051179E0,-4.425367518E0,1.909597721E0,5.968939816E0
1.280475050E1,-4.187608328E0,-4.494536571E0,1.771519378E0,6.393371833E0
1.281469350E1,-4.433819084E0,-4.399747358E0,1.591144177E0,6.445794619E0
1.282463750E1,-4.273819968E0,-4.036528262E0,1.261098236E0,6.012442622E0
1.283458050E1,-3.794312908E0,-3.368602572E0,1.231919314E0,5.221294756E0
1.284452350E1,-3.019073270E0,-2.372339351E0,1.023068758E0,3.973596241E0
1.285446650E1,-2.397276849E0,-1.302905828E0,5.060038631E-1,2.774984648E0
1.286441050E1,-2.155186918E0,-2.275034666E-1,2.490912406E-1,2.181429560E0
1.287435350E1,-2.171943576E0,9.066148800E-1,2.309403138E-1,2.364872696E0
1.288429650E1,-1.811897472E0,1.938413385E0,2.648097257E-1,2.666560160E0
1.289424050E1,-1.363425533E0,2.696539977E0,7.149963605E-1,3.105072757E0
1.290418350E1,-1.150065165E0,3.105817006E0,1.566545087E0,3.663715692E0
1.291412650E1,-8.477975915E-1,2.923630046E0,2.564251986E0,3.980171057E0
1.292407050E1,-6.023320632E-1,2.568995247E0,3.449747307E0,4.343189724E0
1.293401350E1,-2.877262795E-1,2.196331728E0,3.120511644E0,3.826780944E0
1.294395650E1,-3.797503442E-2,1.944703234E0,2.156792271E0,2.904318453E0
1.295389950E1,9.564612240E-2,2.096841938E0,1.457774012E0,2.555582001E0
1.296384350E1,-4.402965812E-1,2.691670416E0,1.068244492E0,2.929180261E0
1.297378650E1,-1.547921705E0,3.656304878E0,7.520139134E-1,4.041058264E0
1.298372950E1,-2.388768565E0,4.704351625E0,6.670983088E-1,5.318097369E0
1.299367350E1,-2.882851856E0,5.564260116E0,9.151801738E-1,6.333196682E0
1.300361650E1,-3.193352748E0,6.249529817E0,1.334000444E0,7.143786243E0
1.301355950E1,-3.404514709E0,6.727649040E0,2.074910202E0,7.820309096E0
1.302350350E1,-3.411374370E0,7.085162423E0,2.859179696E0,8.367312004E0
1.303344650E1,-3.182738298E0,7.387658184E0,3.290408050E0,8.691035706E0
1.304338950E1,-2.938732234E0,7.587876204E0,3.339072087E0,8.795533800E0
1.305333250E1,-2.770434165E0,7.708548701E0,3.106693504E0,8.760626294E0
1.306327650E1,-2.640298241E0,7.669823177E0,2.821466032E0,8.588249702E0
1.307321950E1,-2.433450648E0,7.415126064E0,2.814253199E0,8.296131489E0
1.308316250E1,-2.106359744E0,6.997999733E0,3.040493375E0,7.915387015E0
1.309310650E1,-1.568770830E0,6.435041505E0,3.491715113E0,7.487514642E0
1.310305038E1,-1.112446226E0,5.728519514E0,3.960715310E0,7.052711407E0
1.311299337E1,-8.957525074E-1,4.966689295E0,3.961132801E0,6.415679868E0
1.312293738E1,-9.473392752E-1,4.247976444E0,3.274041693E0,5.446292737E0
1.313288038E1,-1.237261769E0,3.545778469E0,2.093408161E0,4.299502223E0
1.314282338E1,-1.784696809E0,2.777072509E0,9.047420168E-1,3.422839835E0
1.315276638E1,-2.309875008E0,1.947398801E0,1.698262390E-1,3.026008195E0
1.316271038E1,-3.136030739E0,1.217819484E0,-3.899277154E-1,3.386711785E0
1.317265338E1,-4.059906600E0,6.918981045E-1,-4.770765178E-1,4.145981981E0
1.318259638E1,-4.268984613E0,5.117804736E-1,-3.497111508E-1,4.313750893E0
1.319254038E1,-3.621455180E0,1.076022166E-1,-3.895020381E-1,3.643930254E0
1.320248338E1,-2.535672257E0,-8.168115878E-1,-2.099881321E-2,2.664067551E0
1.321242638E1,-2.926638730E0,-2.053351518E0,-4.479598689E-1,3.603072961E0
1.322237037E1,-4.997361449E0,-3.838002427E0,-1.229325489E0,6.419900719E0
1.323231337E1,-6.439740912E0,-5.717306308E0,-1.132241975E0,8.685610302E0
1.324225638E1,-6.655924754E0,-7.219604529E0,-8.772190265E-1,9.858678263E0
1.325219938E1,-6.167659442E0,-8.166435388E0,-1.393035979E0,1.032817695E1
1.326214338E1,-4.910292900E0,-8.233851446E0,-2.262018764E0,9.850076897E0
1.327208637E1,-3.015836836E0,-7.359134297E0,-2.222535733E0,8.257832312E0
1.328202937E1,-1.793757947E0,-5.956831650E0,-1.875890862E0,6.497720939E0
1.329197338E1,-1.319665994E0,-4.863214043E0,-1.879669479E0,5.378245672E0
1.330191638E1,-7.503104733E-1,-4.035613173E0,-1.673440522E0,4.432780467E0
1.331185938E1,-3.436329702E-1,-3.297657135E0,-1.109757092E0,3.496310484E0
1.332180237E1,-1.863302976E-1,-2.669192550E0,-6.804708910E-1,2.760860098E0
1.333174638E1,1.439904629E-1,-2.120060647E0,-5.709792928E-1,2.200319921E0
1.334168938E1,5.812990437E-1,-1.584104860E0,-6.281872813E-1,1.800532157E0
1.335163238E1,9.116541566E-1,-1.092814785E0,-7.648251629E-1,1.615646924E0
1.336157638E1,1.208624153E0,-6.847849667E-1,-6.892966783E-1,1.550752303E0
1.337151938E1,1.221825120E0,-2.850266200E-1,-2.461560114E-1,1.278549795E0
1.338146238E1,9.175155517E-1,5.273662269E-2,9.134301022E-2,9.235580570E-1
1.339140637E1,5.154735750E-1,2.638637924E-1,3.851654506E-1,6.954779161E-1
1.340134938E1,6.885768861E-2,3.596815306E-1,7.233439918E-1,8.107642784E-1
1.341129238E1,-2.350533915E-1,4.088571990E-1,9.900716043E-1,1.096656777E0
1.342123638E1,-5.311031824E-1,2.972052008E-1,1.173084703E0,1.321563182E0
1.343117937E1,-7.589545584E-1,1.480614406E-1,1.223494719E0,1.447367797E0
1.344112237E1,-9.952870283E-1,-1.159403461E-1,1.317482936E0,1.655234038E0
1.345106538E1,-1.238891096E0,-3.952261698E-1,1.408042274E0,1.916673659E0
1.346100938E1,-1.370958355E0,-6.878114855E-1,1.545010961E0,2.177078391E0
1.347095238E1,-1.372771869E0,-8.782757646E-1,1.560544674E0,2.256362250E0
1.348089538E1,-9.776617661E-1,-9.344996667E-1,1.616248759E0,2.107456336E0
1.349083938E1,-4.175748128E-1,-8.156409752E-1,1.491386147E0,1.750391831E0
1.350078238E1,1.842276388E-1,-5.853559881E-1,1.469474291E0,1.592462290E0
1.351072538E1,7.551652703E-1,-2.838536686E-1,1.419358975E0,1.632613668E0
1.352066938E1,1.207754672E0,5.525677264E-2,1.287554548E0,1.766216683E0
1.353061238E1,1.388623963E0,5.077850711E-1,1.575235219E0,2.160437035E0
1.354055538E1,1.806503708E0,9.504801071E-1,1.728546875E0,2.674835019E0
1.355049838E1,2.392227778E0,1.113874701E0,1.736047683E0,3.158691525E0
1.356044238E1,2.743689001E0,1.311694778E0,2.018019133E0,3.649763519E0
1.357038538E1,3.095822653E0,1.496579643E0,2.119842546E0,4.039505037E0
1.358032838E1,3.381795060E0,1.584010136E0,2.132655550E0,4.300447143E0
1.359027237E1,3.527886281E0,1.566973688E0,1.953445991E0,4.326354053E0
1.360021537E1,3.567685647E0,1.437865997E0,1.615238360E0,4.171910169E0
1.361015837E1,3.496780556E0,1.288692416E0,1.443421437E0,3.996456911E0
1.362010238E1,3.292559533E0,1.004706600E0,1.403563306E0,3.717576305E0
1.363004538E1,3.046748141E0,6.537122780E-1,1.274539815E0,3.366669826E0
1.363998838E1,2.399645556E0,6.956713128E-1,6.742926499E-1,2.587842334E0
1.364993137E1,1.469727767E0,8.941421843E-1,-4.681134671E-1,1.782896569E0
1.365987538E1,7.688498014E-1,1.197123849E0,-1.397534827E0,1.994326734E0
1.366981838E1,5.779715395E-1,1.594439229E0,-2.456474937E0,2.985055556E0
1.367976138E1,6.539713097E-1,1.859666008E0,-3.228805586E0,3.783017532E0
1.368970538E1,6.173133606E-1,1.899058700E0,-3.474987983E0,4.007872405E0
1.369964838E1,7.404375958E-1,1.604515151E0,-2.836203647E0,3.341671413E0
1.370959138E1,6.964677036E-1,9.407532638E-1,-2.008303253E0,2.324514126E0
1.371953538E1,-2.815691614E-1,5.654497272E-1,-2.367891520E0,2.450698847E0
1.372947838E1,-1.143648139E0,3.345490283E-1,-3.846572691E0,4.026906453E0
1.373942138E1,-1.455914013E0,1.358898765E-1,-5.008885142E0,5.217957650E0
1.374936438E1,-2.560583442E-1,-1.033723408E-1,-3.644130390E0,3.654577680E0
1.375930837E1,1.680571055E0,-2.654735309E-1,-8.428094780E-1,1.898716167E0
1.376925137E1,3.193004254E0,-4.104856485E-1,1.295384993E0,3.470129236E0
1.377919438E1,4.283020561E0,-5.553036386E-1,2.028210683E0,4.771400825E0
1.378913838E1,5.236760491E0,-1.028900625E0,1.297909967E0,5.492437275E0
1.379908138E1,5.942554504E0,-1.526323260E0,-3.975967772E-1,6.148308704E0
1.380902437E1,6.259616264E0,-1.783242899E0,-2.265336474E0,6.891625378E0
1.381896838E1,5.972603930E0,-2.085101314E0,-3.634629250E0,7.295901245E0
1.382891138E1,5.161736621E0,-2.401075493E0,-3.363205007E0,6.612097730E0
1.383885438E1,3.640198138E0,-2.495698645E0,-1.436379050E0,4.641415623E0
1.384879738E1,1.853127651E0,-2.438875403E0,6.532054706E-1,3.131911989E0
1.385874138E1,1.678221059E-1,-2.520805419E0,1.810162164E0,3.107943256E0
1.386868438E1,-1.243930226E0,-2.909878564E0,2.406354797E0,3.975587890E0
1.387862738E1,-2.040042670E0,-3.410051730E0,2.456737477E0,4.671807565E0
1.388857138E1,-2.470559710E0,-3.561527944E0,1.851354483E0,4.713349128E0
1.389851438E1,-2.965993708E0,-3.769753141E0,6.069930249E-1,4.834935155E0
1.390845738E1,-3.483424931E0,-4.319063383E0,-6.767871451E-1,5.589865705E0
1.391840137E1,-3.501586382E0,-5.266046271E0,-1.488558579E0,6.496780523E0
1.392834437E1,-2.812272162E0,-6.313258621E0,-1.845694671E0,7.153509484E0
1.393828738E1,-1.700439309E0,-7.030927743E0,-1.933690004E0,7.487629518E0
1.394823038E1,-4.252434361E-1,-7.329153868E0,-1.960590996E0,7.598766048E0
1.395817438E1,4.972279233E-1,-7.363206882E0,-1.923063274E0,7.626416167E0
1.396811737E1,9.879706997E-1,-7.039605011E0,-1.913332922E0,7.361587308E0
1.397806037E1,1.059166397E0,-6.505476480E0,-2.213210739E0,6.952795083E0
1.398800438E1,8.959934127E-1,-5.961202444E0,-2.735986463E0,6.619997032E0
1.399794738E1,6.426879376E-1,-5.356719044E0,-3.194588850E0,6.269998773E0
1.400789038E1,4.532896060E-1,-4.598769037E0,-3.478283474E0,5.783822616E0
1.401783438E1,3.439285469E-1,-3.721015429E0,-3.622267066E0,5.204331020E0
1.402777738E1,3.493150020E-1,-2.839238352E0,-3.586251141E0,4.587427671E0
1.403772038E1,5.000076896E-1,-2.116311412E0,-3.407326927E0,4.042110646E0
1.404766338E1,6.712311208E-1,-1.652606161E0,-3.241741966E0,3.700074231E0
1.405760738E1,7.887662950E-1,-1.428665988E0,-2.977623820E0,3.395509150E0
1.406755038E1,8.051028308E-1,-1.199714166E0,-2.329095683E0,2.740837709E0
1.407749338E1,6.582096639E-1,-1.095031464E0,-1.521936679E0,1.987114774E0
1.408743737E1,2.500377586E-1,-1.345923209E0,-7.721692657E-1,1.571710387E0
1.409738038E1,-4.961146134E-1,-1.473220602E0,1.722074994E-1,1.564021763E0
1.410732313E1,-1.069161628E0,-1.666299756E0,1.022219596E0,2.228136972E0
1.411726713E1,-1.420909364E0,-2.084933499E0,1.666741805E0,3.023898041E0
1.412721013E1,-1.816079108E0,-2.427126008E0,2.085534593E0,3.679475305E0
1.413715313E1,-2.035138611E0,-2.573171913E0,1.789859608E0,3.737191496E0
1.414709612E1,-2.156320693E0,-2.826533521E0,1.751975498E0,3.963386030E0
1.415704013E1,-2.223162262E0,-3.011389151E0,1.865634845E0,4.182285074E0
1.416698313E1,-1.988317616E0,-3.103555303E0,1.892426788E0,4.143276675E0
1.417692613E1,-1.572662152E0,-3.013614017E0,1.876572793E0,3.882867643E0
1.418687013E1,-1.031622796E0,-2.605445035E0,1.337764589E0,3.105189772E0
1.419681313E1,-4.432671860E-1,-2.017657190E0,1.781483618E-1,2.073442349E0
1.420675613E1,-4.341069379E-1,-1.123893321E0,-4.191505643E-1,1.275645807E0
1.421670013E1,-4.943706813E-1,-2.877590239E-1,-4.985349222E-1,7.587784229E-1
1.422664313E1,1.088538131E-1,1.439841771E-1,-3.459902021E-1,3.902432777E-1
1.423658613E1,4.858873947E-1,4.452865219E-1,-6.909296595E-2,6.626767574E-1
1.424653012E1,4.881305328E-1,6.673971015E-1,3.865430546E-1,9.127463181E-1
1.425647312E1,1.083968532E-1,7.071113902E-1,6.976312995E-1,9.992226108E-1
1.426641612E1,-6.168299420E-1,7.495539898E-1,7.603612523E-1,1.233069177E0
1.427635913E1,-1.639916680E0,8.758386451E-1,8.233477516E-1,2.033303118E0
1.428630313E1,-2.748576981E0,1.239774610E0,9.374583578E-1,3.157616930E0
1.429624613E1,-3.720036313E0,1.803555542E0,1.078041794E0,4.272429855E0
1.430618912E1,-4.291375940E0,2.641069196E0,1.202977936E0,5.180570420E0
1.431613313E1,-4.385310290E0,3.821292838E0,1.355866399E0,5.972570551E0
1.432607613E1,-4.063768978E0,5.086957165E0,1.464570523E0,6.673553650E0
1.433601913E1,-3.672524762E0,6.232333156E0,1.597147367E0,7.408123541E0
1.434596313E1,-3.496570933E0,7.152218876E0,1.960277586E0,8.198959163E0
1.435590613E1,-3.580061571E0,7.868754224E0,2.289166217E0,8.942841599E0
1.436584913E1,-3.658501677E0,8.378457767E0,2.380571061E0,9.447238096E0
1.437579213E1,-3.652247495E0,8.660555516E0,2.235691091E0,9.661389562E0
1.438573613E1,-3.693642858E0,8.795937270E0,2.018834673E0,9.751266762E0
1.439567913E1,-3.718576848E0,8.724759699E0,1.990207728E0,9.690726101E0
1.440562213E1,-3.747016243E0,8.416340708E0,2.218927124E0,9.476210171E0
1.441556612E1,-3.662745001E0,8.088187364E0,2.562110443E0,9.241151752E0
1.442550912E1,-3.299082394E0,7.762178779E0,2.919471214E0,8.925170934E0
1.443545213E1,-2.670395614E0,7.349884002E0,3.396622722E0,8.525775829E0
1.444539613E1,-2.003830571E0,6.908722106E0,3.823889295E0,8.146650074E0
1.445533913E1,-1.409773049E0,6.408087595E0,3.851588432E0,7.608270508E0
1.446528212E1,-1.041653694E0,5.686747590E0,3.529671729E0,6.773678696E0
1.447522613E1,-1.024012645E0,4.605244828E0,2.844527743E0,5.508921846E0
1.448516913E1,-1.223812003E0,3.373344079E0,1.793628431E0,4.011766325E0
1.449511213E1,-1.972443010E0,2.176613747E0,4.996191421E-1,2.979563411E0
1.450505513E1,-3.244967583E0,1.344115834E0,-4.521748343E-1,3.541316714E0
1.451499913E1,-4.157617374E0,1.134034731E0,-8.444887984E-1,4.391466535E0
1.452494213E1,-3.589708892E0,1.227317702E0,-1.191006346E0,3.976281528E0
1.453488513E1,-2.140946024E0,7.290097976E-1,-5.244718552E-1,2.321675234E0
1.454482913E1,-1.959050547E0,-2.952779585E-1,8.736972485E-1,2.165274810E0
1.455477213E1,-4.609644566E0,-1.236488475E0,1.010925260E0,4.878493277E0
1.456471513E1,-6.649875809E0,-2.605807562E0,8.855678272E-1,7.196895977E0
1.457465912E1,-7.158453763E0,-4.798980040E0,6.268413985E-1,8.640983731E0
1.458460212E1,-6.675925739E0,-7.239900799E0,-3.249670498E-1,9.853413197E0
1.459454513E1,-5.138845357E0,-9.686026164E0,-1.130623466E0,1.102293717E1
1.460448813E1,-3.712052817E0,-1.112670877E1,-1.998338720E0,1.189858570E1
1.461443213E1,-2.369634429E0,-1.103973026E1,-2.745001116E0,1.162006208E1
1.462437512E1,-8.848802678E-1,-9.811683998E0,-3.215526559E0,1.036299990E1
1.463431812E1,6.523276573E-1,-7.797581331E0,-3.369086137E0,8.519304395E0
1.464426213E1,1.971050934E0,-5.109787034E0,-3.259963059E0,6.373564502E0
1.465420513E1,2.738218638E0,-2.561453508E0,-2.986551933E0,4.793576727E0
1.466414813E1,2.990178084E0,-8.827594095E-1,-2.556778075E0,4.032064393E0
1.467409213E1,2.523674648E0,-3.831329584E-2,-1.869474420E0,3.140913282E0
1.468403513E1,1.553930012E0,1.168577743E-1,-9.344984972E-1,1.817042009E0
1.469397813E1,4.917813881E-1,-2.291734314E-1,3.587500691E-2,5.437429645E-1
1.470392113E1,-4.212332694E-1,-6.805685395E-1,8.938626143E-1,1.199833896E0
1.471386513E1,-1.154855789E0,-9.971215922E-1,1.540052522E0,2.167880332E0
1.472380813E1,-1.743701542E0,-1.061566679E0,1.879407377E0,2.774813682E0
1.473375113E1,-2.055792730E0,-9.666078973E-1,2.123036295E0,3.109324314E0
1.474369512E1,-2.007923038E0,-7.782111937E-1,2.318520263E0,3.164317272E0
1.475363813E1,-1.791862280E0,-6.069351375E-1,2.350854196E0,3.017557976E0
1.476358113E1,-1.523798140E0,-4.373921961E-1,2.381029337E0,2.860519779E0
1.477352513E1,-1.283543943E0,-2.920093650E-1,2.424301218E0,2.758621198E0
1.478346812E1,-9.634161946E-1,-1.217209035E-1,2.546883416E0,2.725729605E0
1.479341112E1,-6.590803143E-1,5.702204704E-3,2.567808262E0,2.651048594E0
1.480335513E1,-3.412341499E-1,1.375130635E-1,2.501973292E0,2.528877407E0
1.481329813E1,-1.131345597E-1,1.314372218E-1,2.384424376E0,2.390722648E0
1.482324113E1,5.571110129E-2,2.529628283E-1,2.408400300E0,2.422289397E0
1.483318413E1,1.791581029E-1,4.751558536E-1,2.605240967E0,2.654270372E0
1.484312813E1,4.728295389E-1,6.885347861E-1,2.685243741E0,2.812148978E0
1.485307113E1,7.087705377E-1,7.302470684E-1,2.575066996E0,2.768860142E0
1.486301413E1,6.989583251E-1,6.065071213E-1,2.633806955E0,2.791654116E0
1.487295813E1,7.833365706E-1,4.410753572E-1,2.634681698E0,2.783830330E0
1.488290113E1,1.064982623E0,2.445399141E-1,2.262028120E0,2.512122404E0
1.489284413E1,1.215438791E0,1.896135092E-2,1.795695130E0,2.168449212E0
1.490278812E1,1.365716911E0,-3.100719988E-2,1.406728989E0,1.960874951E0
1.491273113E1,1.592398843E0,7.436898172E-2,1.066759007E0,1.918134406E0
1.492267413E1,1.799057571E0,3.104240012E-1,9.089297926E-1,2.039393187E0
1.493261713E1,1.956617521E0,5.494611007E-1,6.136231828E-1,2.122920874E0
1.494256112E1,2.060427818E0,8.347578621E-1,2.890313780E-1,2.241812352E0
1.495250412E1,1.560984970E0,1.618942571E0,-4.313116765E-1,2.289908052E0
1.496244712E1,6.467777726E-1,2.172662784E0,-2.652327425E0,3.489072345E0
1.497239113E1,2.368511179E-1,2.227020839E0,-4.557192410E0,5.077767515E0
1.498233413E1,4.714700612E-1,2.060915476E0,-5.016841448E0,5.444111932E0
1.499227713E1,1.448158851E0,1.491592553E0,-4.104854146E0,4.601286773E0
1.500222113E1,2.678504241E0,6.369167358E-1,-2.846915161E0,3.960425966E0
1.501216413E1,3.666673746E0,9.374080718E-2,-1.503654774E0,3.964121766E0
1.502210713E1,4.345546592E0,-2.235092336E-1,-1.824401450E-1,4.355113772E0
1.503205113E1,4.700270269E0,-4.137542421E-1,1.118684548E0,4.849246157E0
1.504199413E1,4.917701322E0,-5.114699864E-1,2.167354681E0,5.398408483E0
1.505193713E1,5.000627119E0,-5.284602410E-1,2.571855705E0,5.648007045E0
1.506188013E1,4.476071064E0,-3.034646451E-1,1.714983819E0,4.802964966E0
1.507182413E1,3.529168283E0,-1.974341601E-1,-1.119734488E-1,3.536459681E0
1.508176713E1,2.411856589E0,-1.918009526E-1,-2.560399840E0,3.522710200E0
1.509171013E1,1.331813877E0,-2.272438502E-1,-5.091434963E0,5.267644440E0
1.510165400E1,5.967054337E-1,-7.235198468E-1,-5.998149830E0,6.071024603E0
1.511159700E1,7.888069332E-1,-1.606521331E0,-4.704034122E0,5.032997535E0
1.512154000E1,1.587506186E0,-1.974786574E0,-2.629945453E0,3.651927024E0
1.513148400E1,2.126807165E0,-1.431840441E0,-8.770661218E-1,2.709745513E0
1.514142700E1,2.361636023E0,-6.066117865E-1,2.548405154E-1,2.451580358E0
1.515137000E1,2.366151243E0,-2.086251462E-1,5.489754894E-1,2.437943856E0
1.516131400E1,2.028665743E0,-3.497681612E-1,2.049237125E-1,2.068771662E0
1.517125700E1,1.347327710E0,-9.157149017E-1,-3.563588503E-1,1.667578295E0
1.518120000E1,5.577343261E-1,-1.601742402E0,-9.080528565E-1,1.923851941E0
1.519114300E1,-2.845319456E-1,-2.157982764E0,-1.007945373E0,2.398708385E0
1.520108700E1,-8.121893638E-1,-2.592294062E0,-2.796243775E-1,2.730902756E0
1.521103000E1,-8.424299937E-1,-3.007278559E0,7.356848328E-1,3.208526889E0
1.522097300E1,-6.948585498E-1,-2.994857318E0,1.474422204E0,3.409680278E0
1.523091700E1,-5.826007801E-1,-2.621385714E0,1.686573076E0,3.171059046E0
1.524086000E1,-4.368554217E-1,-2.299334525E0,1.138731069E0,2.602785117E0
1.525080300E1,-5.062665492E-1,-2.215298926E0,3.090637927E-1,2.293332854E0
1.526074700E1,-7.461427242E-1,-2.526632754E0,-7.689322472E-2,2.635624140E0
1.527069000E1,-7.553848332E-1,-3.447610735E0,3.607790530E-2,3.529578961E0
1.528063300E1,-5.827884758E-1,-4.589288362E0,-9.807944119E-2,4.627183771E0
1.529057700E1,-6.064392936E-1,-5.517480637E0,-8.055850799E-1,5.608861606E0
1.530052000E1,-6.025087953E-1,-6.248179695E0,-1.828115602E0,6.537948685E0
1.531046300E1,-5.814459550E-1,-6.724935932E0,-2.617328916E0,7.239699810E0
1.532040600E1,-5.300506836E-1,-6.813776772E0,-2.861829654E0,7.409357367E0
1.533035000E1,-3.255840772E-1,-6.432585089E0,-2.984284968E0,7.098599347E0
1.534029300E1,8.179202199E-2,-5.776950247E0,-3.325772302E0,6.666378739E0
1.535023600E1,5.118985873E-1,-5.009937640E0,-3.558345305E0,6.166306563E0
1.536018000E1,8.995257157E-1,-4.234699171E0,-3.678694451E0,5.681075290E0
1.537012300E1,1.313123837E0,-3.538211002E0,-3.632714871E0,5.238305894E0
1.538006600E1,1.678532131E0,-3.052989167E0,-3.430882435E0,4.889700119E0
1.539001000E1,1.867781943E0,-2.725908203E0,-3.148188854E0,4.564019936E0
1.539995300E1,1.966575914E0,-2.705794365E0,-2.829355388E0,4.381095284E0
1.540989600E1,1.947911602E0,-2.810290541E0,-2.504403979E0,4.238411474E0
1.541984000E1,1.786274973E0,-2.948325176E0,-1.972148895E0,3.971494793E0
1.542978300E1,1.527483640E0,-3.132620643E0,-1.524006593E0,3.803828921E0
1.543972600E1,1.155931092E0,-3.253797171E0,-1.044798034E0,3.607627427E0
1.544966900E1,6.395357037E-1,-3.451593273E0,-5.288268614E-1,3.549952097E0
1.545961300E1,8.186628163E-2,-3.924433045E0,-1.242392628E-1,3.927252501E0
1.546955600E1,-5.501960957E-1,-4.416900750E0,1.096867124E-1,4.452388028E0
1.547949900E1,-1.126001827E0,-4.732175016E0,5.101708082E-1,4.890974826E0
1.548944300E1,-1.523095597E0,-5.048685384E0,1.306232893E0,5.432797500E0
1.549938600E1,-1.612400414E0,-4.747347372E0,1.415819070E0,5.209768306E0
1.550932900E1,-1.609350799E0,-4.053983955E0,1.280790489E0,4.545901470E0
1.551927300E1,-1.912161140E0,-3.098496292E0,1.299375279E0,3.865930110E0
1.552921600E1,-2.229879543E0,-2.058997005E0,1.252499321E0,3.283380269E0
1.553915900E1,-2.225659023E0,-1.047474305E0,1.107988894E0,2.697850977E0
1.554910300E1,-2.065997584E0,1.626905894E-1,1.121760402E0,2.356514512E0
1.555904600E1,-2.137395303E0,1.074679061E0,1.471487048E0,2.808677250E0
1.556898900E1,-2.200197615E0,1.729442083E0,2.090924556E0,3.493394476E0
1.557893200E1,-2.245391914E0,2.313576003E0,2.627997161E0,4.159421576E0
1.558887600E1,-2.151666894E0,2.676855910E0,3.245812798E0,4.725518882E0
1.559881900E1,-1.863596945E0,2.894174697E0,3.605565079E0,4.984911262E0
1.560876200E1,-1.354570510E0,3.119261509E0,3.638596001E0,4.980364895E0
1.561870600E1,-7.128828844E-1,3.247678059E0,3.489459257E0,4.819952354E0
1.562864900E1,-4.600267678E-1,3.219404433E0,3.150542943E0,4.527925614E0
1.563859200E1,-4.978664392E-1,3.444522235E0,2.478791420E0,4.272822408E0
1.564853600E1,-9.673920089E-1,3.807917333E0,1.268159333E0,4.128475482E0
1.565847900E1,-1.535001113E0,4.229609170E0,2.198026836E-1,4.504901260E0
1.566842200E1,-1.965245965E0,4.677032264E0,-1.425492704E-1,5.075149535E0
1.567836600E1,-2.129930455E0,5.111375722E0,-5.399187371E-2,5.537660213E0
1.568830900E1,-2.161099623E0,5.656888198E0,2.145132923E-1,6.059434926E0
1.569825200E1,-2.353151128E0,6.173758088E0,7.040994895E-1,6.644423621E0
1.570819500E1,-2.471628289E0,6.593454856E0,1.467826545E0,7.192851180E0
1.571813900E1,-2.451128828E0,6.896363431E0,2.397230948E0,7.701595764E0
1.572808200E1,-2.369213137E0,7.076935390E0,3.226661704E0,8.130653797E0
1.573802500E1,-2.430089669E0,7.240826413E0,3.703365608E0,8.488216525E0
1.574796900E1,-2.572512055E0,7.394559653E0,3.824512900E0,8.713451076E0
1.575791200E1,-2.548212488E0,7.452242435E0,3.703301289E0,8.703088224E0
1.576785500E1,-2.381123331E0,7.405241931E0,3.420952109E0,8.497662603E0
1.577779900E1,-2.151693791E0,7.171724018E0,3.207872846E0,8.145787854E0
1.578774200E1,-1.872430772E0,6.722996410E0,3.060799878E0,7.620575675E0
1.579768500E1,-1.721393099E0,5.987693254E0,2.760638909E0,6.814454629E0
1.580762900E1,-1.784457366E0,5.158048782E0,2.254143734E0,5.905160396E0
1.581757200E1,-2.174366370E0,4.397969220E0,1.478161060E0,5.123959649E0
1.582751500E1,-2.748705912E0,3.685957863E0,8.968748805E-1,4.684661579E0
1.583745800E1,-3.442530674E0,3.147248622E0,8.614433849E-1,4.743234765E0
1.584740200E1,-4.092831394E0,2.905873221E0,1.322794255E0,5.190872050E0
1.585734500E1,-3.944344276E0,2.973590995E0,1.503948305E0,5.163521635E0
1.586728800E1,-3.040105120E0,2.683339888E0,1.262900348E0,4.247054200E0
1.587723200E1,-2.650415971E0,1.505473258E0,1.945156832E0,3.615907860E0
1.588717500E1,-4.330258462E0,2.084356964E-2,2.355197654E0,4.929353791E0
1.589711800E1,-6.308328248E0,-2.037064099E0,1.837522456E0,6.879035122E0
1.590706200E1,-7.090017951E0,-5.066072080E0,1.088861482E0,8.781745851E0
1.591700500E1,-7.083836859E0,-8.478301898E0,-1.656201907E-1,1.104942432E1
1.592694800E1,-5.951505421E0,-1.169812558E1,-1.467001065E0,1.320676535E1
1.593689200E1,-4.317228819E0,-1.280143319E1,-3.007079169E0,1.384043646E1
1.594683500E1,-2.129494983E0,-1.142881569E1,-4.570237548E0,1.249158309E1
1.595677800E1,4.183160935E-1,-9.117762757E0,-5.198567648E0,1.050398456E1
1.596672200E1,2.218809887E0,-6.316360568E0,-4.953168193E0,8.327869073E0
1.597666500E1,2.738796635E0,-3.877477564E0,-4.537717674E0,6.567093798E0
1.598660800E1,2.377025748E0,-2.041893314E0,-3.664485133E0,4.821621201E0
1.599655100E1,1.597900342E0,-6.661206543E-1,-2.710544643E0,3.216217420E0
1.600649500E1,6.593374456E-1,2.276087165E-1,-1.820290858E0,1.949356407E0
1.601643800E1,-1.519799522E-1,6.227939558E-1,-8.221688068E-1,1.042560197E0
1.602638100E1,-8.440178052E-1,5.507802325E-1,6.576495007E-2,1.009975222E0
1.603632500E1,-1.447014843E0,1.490993214E-1,7.830860905E-1,1.652061254E0
1.604626800E1,-1.814381369E0,-4.042741513E-1,1.411024354E0,2.333753858E0
1.605621100E1,-2.041006584E0,-9.701431239E-1,1.938611605E0,2.977431865E0
1.606615500E1,-2.039937128E0,-1.365095644E0,2.282167100E0,3.351584144E0
1.607609800E1,-1.933221349E0,-1.602263973E0,2.370360653E0,3.452999313E0
1.608604100E1,-1.712932762E0,-1.659891207E0,2.250105647E0,3.279078055E0
1.609598500E1,-1.507684675E0,-1.477130635E0,2.028369874E0,2.927338781E0
1.610592804E1,-1.357623487E0,-1.229197581E0,1.798128741E0,2.566580448E0
1.611587104E1,-1.119500015E0,-1.002019220E0,1.591926681E0,2.188961708E0
1.612581404E1,-8.068879858E-1,-8.589735210E-1,1.468545753E0,1.882957875E0
1.613575804E1,-5.529948655E-1,-8.237668508E-1,1.415352463E0,1.728472661E0
1.614570104E1,-2.778801531E-1,-6.847282487E-1,1.400277171E0,1.583302343E0
1.615564404E1,-3.619894266E-2,-4.907503778E-1,1.522641853E0,1.600182649E0
1.616558804E1,2.337181798E-1,-3.309787184E-1,1.632343805E0,1.681879127E0
1.617553104E1,4.713265121E-1,-2.198979932E-1,1.785236800E0,1.859455361E0
1.618547404E1,5.919305974E-1,-1.722051787E-1,2.086643225E0,2.175802474E0
1.619541804E1,7.273252147E-1,-2.044315231E-1,2.135565709E0,2.265267117E0
1.620536104E1,9.213703287E-1,-2.817632890E-1,2.044974797E0,2.260583056E0
1.621530404E1,1.217534725E0,-3.144164801E-1,2.096031514E0,2.444298803E0
1.622524804E1,1.446882988E0,-1.929394054E-1,1.997160945E0,2.473731561E0
1.623519104E1,1.653525051E0,8.265390158E-2,1.812369050E0,2.454721641E0
1.624513404E1,1.963883564E0,4.672235209E-1,1.564776889E0,2.554146273E0
1.625507704E1,2.025782481E0,8.695786160E-1,1.222090291E0,2.520608321E0
1.626502104E1,1.765602434E0,1.388637119E0,4.735116166E-1,2.295621540E0
1.627496404E1,1.336212738E0,1.817487702E0,-1.021375258E0,2.476274106E0
1.628490704E1,1.024436568E0,2.125753496E0,-2.032200385E0,3.114183137E0
1.629485104E1,1.040961384E0,2.208434880E0,-2.430769408E0,3.445203207E0
1.630479404E1,1.383481337E0,2.085238724E0,-2.377201896E0,3.451569208E0
1.631473704E1,1.859747869E0,1.865066496E0,-1.926199136E0,3.263032069E0
1.632468104E1,2.519385130E0,1.480960561E0,-1.119335416E0,3.129450014E0
1.633462404E1,3.113707239E0,1.289218081E0,-1.289533611E-1,3.372519088E0
1.634456704E1,3.282993488E0,1.312588232E0,6.368272734E-1,3.592559406E0
1.635451104E1,3.438225954E0,1.313861756E0,1.065233468E0,3.831755833E0
1.636445404E1,3.668161862E0,1.269707091E0,1.120125375E0,4.040080247E0
1.637439704E1,3.713569584E0,1.223780136E0,8.183106677E-1,3.994730182E0
1.638434104E1,3.669667520E0,1.415644239E0,9.108551346E-2,3.934311234E0
1.639428404E1,3.470463992E0,1.394111867E0,-7.674669349E-1,3.817941031E0
1.640422704E1,2.992228995E0,1.271734906E0,-1.768698535E0,3.701221222E0
1.641417004E1,2.377212421E0,1.088168587E0,-2.548187930E0,3.650823399E0
1.642411404E1,1.964332337E0,6.945024544E-1,-2.766410111E0,3.463229720E0
1.643405704E1,1.717012657E0,2.803798378E-1,-2.581695399E0,3.113181082E0
1.644400004E1,1.593729377E0,-4.688589871E-2,-2.102243596E0,2.638484367E0
