"Time (s)","Linear Acceleration x (m/s^2)","Linear Acceleration y (m/s^2)","Linear Acceleration z (m/s^2)","Absolute acceleration (m/s^2)"
1.850570831E-2,-9.849272239E0,-1.253326117E0,1.602628138E1,1.885260419E1
2.845170861E-2,-1.101291610E1,-2.607548279E-1,1.351046422E1,1.743229639E1
3.839770844E-2,-9.449797482E0,2.972320980E-1,9.563819942E0,1.344818468E1
4.834470851E-2,-7.842654008E0,1.612990106E0,6.126120238E0,1.008158262E1
5.829070834E-2,-6.141273297E0,3.328104172E0,4.267553506E0,8.185568277E0
6.823670864E-2,-3.614468050E0,5.782669993E0,3.666660882E0,7.742612838E0
7.818270847E-2,-1.632006420E0,8.910466683E0,1.584909437E0,9.196292698E0
8.812870830E-2,7.756506979E-2,9.746395158E0,1.178654834E0,9.817711654E0
9.807470860E-2,1.204927543E0,9.061237139E0,1.376287946E0,9.244027119E0
1.080207084E-1,2.739952045E0,7.942974687E0,1.262686340E0,8.496620556E0
1.179667083E-1,2.905756277E0,6.388469601E0,1.706833678E0,7.222828019E0
1.279127086E-1,2.611281141E0,4.852157543E0,3.104977492E-1,5.518933853E0
1.378597086E-1,2.063187119E0,3.427229095E0,-3.275456719E-1,4.013717295E0
1.478057085E-1,7.909709877E-1,2.678466818E0,1.284961454E-1,2.795770173E0
1.577517083E-1,-6.250217450E-1,2.687439371E0,8.110590971E-1,2.875899757E0
1.676977086E-1,-1.459095190E0,3.057445330E0,1.591478784E0,3.742958114E0
1.776437084E-1,-1.884880079E0,3.571051304E0,2.195429503E0,4.596203981E0
1.875897083E-1,-2.144282153E0,4.116974255E0,2.412762322E0,5.231524156E0
1.975357085E-1,-2.362912762E0,4.529238626E0,2.187688959E0,5.557278312E0
2.074817084E-1,-2.197492108E0,5.136225804E0,1.614032664E0,5.815057052E0
2.174277087E-1,-1.712409144E0,5.979669120E0,5.403142282E-1,6.243454759E0
2.273737085E-1,-1.264388464E0,6.590699648E0,-4.214053237E-1,6.724104586E0
2.373207086E-1,-1.031921004E0,6.759271367E0,-1.022799640E0,6.913662522E0
2.472667084E-1,-1.036639122E0,6.354568614E0,-1.748649602E0,6.671801734E0
2.572127087E-1,-1.072398062E0,5.347316721E0,-2.707714591E0,6.088969701E0
2.671587085E-1,-1.180706914E0,3.903420491E0,-3.987829142E0,5.703818160E0
2.771047084E-1,-1.072961149E0,2.078985127E0,-5.103737504E0,5.614406585E0
2.870507087E-1,-5.178721029E-1,-1.703369933E-1,-5.049164271E0,5.078510219E0
2.969967085E-1,9.600163311E-1,-2.782641982E0,-3.653981194E0,4.692153698E0
3.069427083E-1,3.096138110E0,-4.941949140E0,-1.057641882E0,5.926848982E0
3.168887086E-1,4.491312416E0,-6.014337847E0,1.077261630E0,7.583181362E0
3.268347085E-1,4.672441323E0,-7.279708058E0,1.937250227E0,8.864468161E0
3.367817085E-1,4.493191127E0,-8.597040721E0,1.927586095E0,9.890068949E0
3.467277084E-1,4.277638492E0,-9.374484175E0,1.050271978E0,1.035771287E1
3.566737087E-1,3.908467807E0,-9.172057663E0,-7.071470582E-1,9.995139785E0
3.666197085E-1,2.988109924E0,-7.395539646E0,-2.617764534E0,8.394968656E0
3.765657083E-1,2.198440234E0,-4.555044728E0,-4.237228092E0,6.598156852E0
3.865117086E-1,1.888614988E0,-1.637873517E0,-4.223531574E0,4.907923714E0
3.964577084E-1,6.795677885E-1,2.046794450E-1,-2.327166102E0,2.432983379E0
4.064037083E-1,-1.183691626E0,8.211706871E-1,-6.763392484E-1,1.591503045E0
4.163497086E-1,-2.924736339E0,7.558268827E-1,1.835745779E-1,3.026393324E0
4.262957084E-1,-4.855098985E0,9.005893242E-1,-9.456804201E-2,4.938824799E0
4.362427085E-1,-7.016552364E0,1.093191930E0,-1.478121153E0,7.253407324E0
4.461887083E-1,-8.106990255E0,8.715473735E-1,-3.017562057E0,8.694168539E0
4.561344166E-1,-6.752322536E0,-5.201074934E-1,-2.538103237E0,7.232312180E0
4.660804169E-1,-3.207982189E0,-3.597112345E0,3.965757803E-1,4.836076850E0
4.760264168E-1,9.135724819E-1,-6.877969844E0,3.656356333E0,7.842832747E0
4.859724166E-1,2.850120605E0,-7.322497982E0,4.504009645E0,9.056945790E0
4.959184169E-1,1.932639844E0,-4.527983229E0,3.332468534E0,5.945004240E0
5.058644167E-1,1.358856080E0,-1.167856196E0,1.573118527E0,2.384340546E0
5.158104170E-1,1.998764836E0,2.114026905E0,-1.838696723E0,3.441653130E0
5.257564168E-1,2.756161989E0,5.105975819E0,-4.456338465E0,7.316171846E0
5.357024167E-1,2.770640864E0,6.903393538E0,-3.617357744E0,8.271551861E0
5.456494167E-1,1.567999582E0,7.317443064E0,-1.907211180E-1,7.485984921E0
5.555954170E-1,1.649321195E-1,6.723574115E0,3.636803244E0,7.645913243E0
5.655414169E-1,-3.344642437E-1,5.900755683E0,5.461499394E0,8.047282746E0
5.754874167E-1,-2.167317259E-1,5.073783973E0,5.721705168E0,7.650370349E0
5.854334170E-1,-7.377724349E-1,4.247954809E0,5.787066514E0,7.216617426E0
5.953794168E-1,-1.976186398E0,2.974751667E0,5.717994525E0,6.741655698E0
6.053254167E-1,-3.370326039E0,1.361594916E0,5.764550056E0,6.814915676E0
6.152714170E-1,-4.824620081E0,-1.067444301E-1,5.683694758E0,7.456053876E0
6.252174168E-1,-5.967854236E0,-1.246821089E0,5.493888291E0,8.206866367E0
6.351634166E-1,-6.381377513E0,-1.848604830E0,4.742777188E0,8.162919468E0
6.451104167E-1,-5.574814340E0,-1.446093614E0,3.157254378E0,6.567952259E0
6.550564170E-1,-4.018650692E0,-1.122355503E-1,1.095709741E0,4.166860934E0
6.650024168E-1,-2.827062987E0,1.054390392E0,-9.639807433E-1,3.167535809E0
6.749484167E-1,-1.734437360E0,1.715905194E0,-2.634585219E0,3.590771904E0
6.848944169E-1,-9.468068862E-1,1.682789488E0,-3.472906374E0,3.973575522E0
6.948404168E-1,-5.365361229E-1,1.220154278E0,-3.364679675E0,3.619076787E0
7.047864166E-1,-3.519251990E-1,6.261537659E-1,-2.665401215E0,2.760486102E0
7.147324169E-1,-4.420524269E-1,6.274764061E-2,-1.821901181E0,1.875812231E0
7.246784167E-1,-5.238523427E-1,-3.815974796E-1,-9.233882028E-1,1.128132832E0
7.346244170E-1,-5.003015122E-1,-7.433325523E-1,-6.976667482E-2,8.987281432E-1
7.445714166E-1,-3.484870362E-1,-9.473775744E-1,6.450455350E-1,1.197936236E0
7.545174169E-1,-3.004346180E-1,-1.111737544E0,1.355469373E0,1.778628277E0
7.644634168E-1,-2.174521029E-1,-1.102093731E0,1.851951776E0,2.166015095E0
7.744094166E-1,-2.285384238E-2,-1.036292090E0,2.260691446E0,2.486996061E0
7.843554169E-1,1.762257242E-1,-9.329846531E-1,2.427135948E0,2.606243423E0
7.943014167E-1,4.227332264E-1,-7.179310781E-1,2.457809857E0,2.595179706E0
8.042474170E-1,8.095312196E-1,-3.549698442E-1,2.423037488E0,2.579235363E0
8.141934169E-1,1.219121659E0,-5.729511201E-2,2.340981318E0,2.640025357E0
8.241394167E-1,1.611172791E0,1.318506199E-1,2.258770636E0,2.777644170E0
8.340854170E-1,1.935154147E0,3.239263916E-1,2.070199685E0,2.852275690E0
8.440314168E-1,2.159518243E0,4.734771180E-1,2.033606055E0,3.003873035E0
8.539784169E-1,2.296199833E0,6.376569933E-1,2.121654013E0,3.190698335E0
8.639244167E-1,2.339060508E0,6.837289596E-1,1.924964204E0,3.105507452E0
8.738704170E-1,2.350718102E0,4.905024558E-1,1.482522352E0,2.822116365E0
8.838164168E-1,2.105763620E0,1.614521492E-1,1.109694527E0,2.385734512E0
8.937624167E-1,1.637778792E0,1.276330233E-2,8.400589478E-1,1.840701309E0
9.037084170E-1,1.263724220E0,-8.410634995E-3,6.075894409E-1,1.402224865E0
9.136544168E-1,9.991260177E-1,6.641150594E-2,3.848030694E-1,1.072723958E0
9.236004166E-1,7.525413322E-1,2.647736192E-1,1.142829528E-1,8.059057758E-1
9.335464169E-1,4.201171821E-1,5.578144330E-1,-1.224085361E-1,7.089705481E-1
9.434924168E-1,7.445902884E-2,8.924786514E-1,-5.940374954E-1,1.074682668E0
9.534394168E-1,-3.327112484E-1,1.044110402E0,-1.263229838E0,1.672307666E0
9.633854167E-1,-8.185832942E-1,8.856982201E-1,-2.265085044E0,2.566154750E0
9.733314170E-1,-1.416090381E0,2.801547199E-1,-3.401336162E0,3.694981235E0
9.832774168E-1,-1.751189048E0,-1.151036096E0,-4.176279347E0,4.672564217E0
9.932234166E-1,-1.480371746E0,-2.947794249E0,-4.310840152E0,5.428105955E0
1.003169417E0,-8.308881748E-1,-3.944505367E0,-4.309211410E0,5.900745777E0
1.013115417E0,-3.419744074E-2,-4.190574328E0,-4.174200370E0,5.914899102E0
1.023061417E0,8.278534698E-1,-3.680860845E0,-4.021319946E0,5.514081251E0
1.033007417E0,1.689248908E0,-2.632902390E0,-3.838017045E0,4.951374729E0
1.042953417E0,2.376027775E0,-1.778784397E0,-3.403960100E0,4.516251353E0
1.052899417E0,2.833718580E0,-1.391964185E0,-2.699032061E0,4.153588731E0
1.062846417E0,3.199726213E0,-1.108544379E0,-1.969224995E0,3.917265061E0
1.072792417E0,3.576909045E0,-8.659328771E-1,-1.221786820E0,3.877741752E0
1.082738417E0,3.876236785E0,-5.239812738E-1,-5.693930894E-1,3.952717607E0
1.092684417E0,4.164026214E0,-2.941465223E-1,1.644064549E-1,4.177638804E0
1.102630417E0,4.317335531E0,-2.596502888E-1,8.743055052E-1,4.412619911E0
1.112576417E0,4.432270741E0,-3.215693790E-1,1.622561705E0,4.730870668E0
1.122522417E0,4.452609111E0,-5.488331097E-1,2.425972644E0,5.100224402E0
1.132468417E0,4.418964232E0,-8.074800164E-1,3.243671547E0,5.540818890E0
1.142414417E0,4.205600502E0,-1.130493658E0,4.116687157E0,5.992679254E0
1.152360417E0,3.842998872E0,-1.406593918E0,4.573572215E0,6.137158104E0
1.162306417E0,3.277833320E0,-1.865298631E0,4.554091632E0,5.912975634E0
1.172253417E0,2.529099110E0,-2.413248226E0,4.093693566E0,5.383162297E0
1.182199417E0,1.757198231E0,-2.783005094E0,3.287352587E0,4.651832973E0
1.192145417E0,1.079687201E0,-2.955483338E0,2.264694742E0,3.876783265E0
1.202091417E0,5.896788347E-1,-3.051100516E0,1.074640177E0,3.288128191E0
1.212037417E0,1.228593564E-1,-3.191044852E0,-2.588655925E-1,3.203884059E0
1.221983417E0,-1.058491044E0,-3.190268927E0,-3.021816783E0,4.519911037E0
1.231929417E0,-3.602285376E0,-3.921456227E0,-8.665140318E0,1.017049338E1
1.241875417E0,-5.770261617E0,-6.331038249E0,-1.437392606E1,1.673283344E1
1.251821417E0,-4.409590561E0,-7.749879161E0,-1.170058959E1,1.471084337E1
1.261767417E0,-1.315099611E0,-7.427600514E0,-5.857357063E0,9.550254874E0
1.271713417E0,2.924104840E-1,-6.476532762E0,-2.686947912E0,7.017882130E0
1.281660417E0,1.144694206E0,-5.454420755E0,-1.446452048E0,5.757886255E0
1.291606417E0,2.054701640E0,-4.633903202E0,-1.576806951E0,5.308594717E0
1.301552417E0,2.855122313E0,-4.298329741E0,-3.269487004E0,6.108756605E0
1.311498417E0,3.125734962E0,-4.297529842E0,-5.916629119E0,7.952702806E0
1.321444417E0,2.866156009E0,-4.406319628E0,-8.038100699E0,9.604247278E0
1.331390417E0,2.614264975E0,-4.129055772E0,-7.541511877E0,8.986539062E0
1.341336417E0,2.440234880E0,-3.267401887E0,-5.065479757E0,6.503056707E0
1.351282417E0,2.193716853E0,-2.226217432E0,-2.712966560E0,4.138674334E0
1.361228417E0,1.841051397E0,-1.466910871E0,-9.307141793E-1,2.531309273E0
1.371174417E0,1.313324981E0,-1.137270581E0,3.537688261E-1,1.772952132E0
1.381120417E0,3.957454026E-1,-1.192982267E0,1.609049082E0,2.041778651E0
1.391066417E0,-8.271436179E-1,-1.496251030E0,2.735855486E0,3.226118248E0
1.401013417E0,-2.285738579E0,-2.023744726E0,3.518170255E0,4.658075302E0
1.410959417E0,-3.903346816E0,-2.592993389E0,4.178949478E0,6.278801623E0
1.420905417E0,-5.512127511E0,-2.892385449E0,4.780551955E0,7.848765526E0
1.430851417E0,-6.846045216E0,-2.910359205E0,4.984351394E0,8.954456132E0
1.440797417E0,-7.702780423E0,-2.701027715E0,4.729011673E0,9.433553327E0
1.450743417E0,-8.129313755E0,-2.316977913E0,4.447463561E0,9.551652261E0
1.460689583E0,-7.991673807E0,-1.489816754E0,4.078547523E0,9.095106052E0
1.470635584E0,-6.977144469E0,-5.653889161E-1,3.019165363E0,7.623356810E0
1.480581583E0,-5.308243872E0,1.232446879E-1,1.598974915E0,5.545210820E0
1.490527583E0,-4.056640930E0,9.960965753E-1,1.238658961E0,4.356927821E0
1.500473584E0,-3.176793726E0,1.640840979E0,1.659223455E0,3.941750876E0
1.510420584E0,-2.380557613E0,2.016785370E0,2.309533238E0,3.881806481E0
1.520366583E0,-1.467257611E0,2.290484179E0,2.581617047E0,3.750187895E0
1.530312583E0,-8.677697799E-1,2.506734095E0,2.641880790E0,3.743831503E0
1.540258584E0,-6.729045939E-1,2.656906965E0,2.568898183E0,3.756486801E0
1.550204583E0,-3.942502695E-1,2.713557714E0,2.563386598E0,3.753635516E0
1.560150583E0,-1.388576308E-1,2.756091530E0,2.575006185E0,3.774384561E0
1.570096584E0,1.551953360E-1,2.813947974E0,2.406743199E0,3.706049328E0
1.580042583E0,1.570933422E-1,2.872951058E0,2.288410757E0,3.676322876E0
1.589988584E0,1.166142377E-1,2.941465808E0,2.201365596E0,3.675844184E0
1.599934584E0,1.964050502E-2,3.182456462E0,2.123076056E0,3.825685144E0
1.609880583E0,-2.409237036E-1,3.598534972E0,1.974039885E0,4.111487765E0
1.619826584E0,-5.283883202E-1,4.210518011E0,1.839455692E0,4.625067932E0
1.629773583E0,-7.568460524E-1,4.867726924E0,1.743656080E0,5.225697836E0
1.639719584E0,-9.239188376E-1,5.501224208E0,1.781550715E0,5.855853205E0
1.649665583E0,-1.112180178E0,6.159962752E0,1.968220736E0,6.561705474E0
1.659611584E0,-1.310174502E0,6.861109983E0,2.242907724E0,7.336349397E0
1.669557584E0,-1.500895473E0,7.335855362E0,2.412163568E0,7.866765167E0
1.679503583E0,-1.495266944E0,7.938999749E0,2.253514574E0,8.387005913E0
1.689449584E0,-1.515710856E0,8.406775247E0,2.057934566E0,8.786714069E0
1.699395583E0,-1.700511522E0,8.401233841E0,1.771688801E0,8.752791023E0
1.709341583E0,-1.748068681E0,8.082693320E0,1.293026372E0,8.370041375E0
1.719287584E0,-1.810692653E0,7.406099718E0,1.359377067E0,7.744470732E0
1.729233583E0,-1.910807218E0,6.340374498E0,1.167624646E0,6.724201091E0
1.739179583E0,-1.980465098E0,4.934857053E0,4.001822698E-1,5.332466782E0
1.749126583E0,-2.044768682E0,3.291625147E0,-3.112203920E-1,3.887509898E0
1.759072584E0,-2.011266476E0,9.758967841E-1,-1.763055972E0,2.847092153E0
1.769018583E0,-1.320584884E0,-2.175379400E0,-3.728104008E0,4.513865247E0
1.778964583E0,2.597385818E-1,-5.828140866E0,-4.979009963E0,7.669760771E0
1.788910584E0,2.144616029E0,-9.154302592E0,-4.984668898E0,1.064178359E1
1.798856583E0,3.507133344E0,-1.090043204E1,-4.737645671E0,1.239212208E1
1.808802583E0,4.466745047E0,-1.176588662E1,-3.631882812E0,1.309879659E1
1.818748584E0,5.371670959E0,-1.202545505E1,-2.146512866E0,1.334443462E1
1.828694583E0,6.099731169E0,-1.111349406E1,-1.362198933E0,1.275037476E1
1.838640584E0,6.308593712E0,-9.181452969E0,-1.688494032E0,1.126714007E1
1.848586584E0,5.556440635E0,-6.087470142E0,-3.063388440E0,8.792933185E0
1.858532583E0,4.232075818E0,-2.182941604E0,-4.105694976E0,6.287482088E0
1.868478584E0,2.548605421E0,8.049265373E-1,-3.431259581E0,4.349349220E0
1.878425584E0,5.014420116E-1,2.239661935E0,-1.311245127E0,2.643273247E0
1.888371584E0,-1.348973409E0,3.014827314E0,3.479157998E-1,3.321138117E0
1.898317583E0,-2.928850440E0,3.400353538E0,1.202834240E0,4.646222045E0
1.908263584E0,-4.493258954E0,3.347079556E0,1.415167691E0,5.778842200E0
1.918209583E0,-6.705769343E0,3.116238499E0,-1.538472239E-1,7.396076922E0
1.928155583E0,-9.927311518E0,2.008116873E0,-4.392232516E0,1.103973522E1
1.938101584E0,-1.040630958E1,-1.594813451E0,-5.373726255E0,1.181996797E1
1.948047583E0,-8.594436371E0,-6.626575824E0,-3.093134980E0,1.128465009E1
1.957993583E0,-6.420613500E0,-9.534933527E0,-1.126929780E0,1.155029029E1
1.967939584E0,-4.268629687E0,-9.105466062E0,-3.600089747E-1,1.006281860E1
1.977885583E0,-2.028901386E0,-6.050656657E0,7.554251790E-1,6.426317298E0
1.987831584E0,-2.116677448E-1,-2.199699140E0,1.277028975E0,2.552309257E0
1.997778583E0,1.152268689E0,1.220210411E0,8.996911919E-1,1.904227092E0
2.007724584E0,2.352731298E0,4.059887888E0,7.209470719E-1,4.747399173E0
2.017670583E0,3.040958521E0,5.651351470E0,1.310784366E0,6.550065482E0
2.027616583E0,3.209331727E0,6.507112530E0,2.512707610E0,7.678282565E0
2.037562584E0,3.053262232E0,7.062654151E0,3.306423866E0,8.374719857E0
2.047508583E0,2.740654296E0,7.457338868E0,3.504125243E0,8.683431504E0
2.057454584E0,2.528272313E0,7.692747186E0,3.455001615E0,8.803837590E0
2.067400584E0,2.044566076E0,7.377339018E0,3.479448824E0,8.409039514E0
2.077346583E0,5.765886730E-1,5.844732925E0,3.769875348E0,6.978919515E0
2.087292584E0,-1.195397751E0,3.779295797E0,4.172238629E0,5.754965480E0
2.097238583E0,-3.221507092E0,1.256335094E0,4.457975686E0,5.641811147E0
2.107184583E0,-5.428770189E0,-1.672248713E0,4.190286645E0,7.058786276E0
2.117131583E0,-6.876043772E0,-4.008783224E0,3.860931698E0,8.846305130E0
2.127077584E0,-7.358711543E0,-5.284659712E0,4.222261559E0,9.995286715E0
2.137023584E0,-6.144208599E0,-5.223532335E0,3.611280148E0,8.836171890E0
2.146969583E0,-3.675623494E0,-3.113021945E0,2.531151482E0,5.441308806E0
2.156915584E0,-2.184418611E0,-1.147987357E0,2.455004362E0,3.480891561E0
2.166861583E0,-1.203777396E0,4.242950177E-1,2.122656811E0,2.476848445E0
2.176807583E0,-3.873049468E-1,1.610333131E0,1.663092558E0,2.347137570E0
2.186753584E0,3.834998712E-1,2.713533740E0,1.282797838E0,3.025873064E0
2.196699583E0,8.698929039E-1,3.486397070E0,9.462337860E-1,3.715782094E0
2.206645583E0,1.135782757E0,3.940725726E0,6.345320950E-1,4.149934060E0
2.216591584E0,9.305127427E-1,3.870160943E0,3.179434475E-1,3.993130066E0
2.226537583E0,3.013409364E-1,3.134943742E0,2.333550677E-2,3.149479825E0
2.236483584E0,-2.559396458E-1,1.976078224E0,-1.909025279E-1,2.001707777E0
2.246429584E0,-7.714102972E-1,6.005622572E-1,-2.327050035E-1,1.004938053E0
2.256376584E0,-1.130683107E0,-4.221186841E-1,-2.898751312E-1,1.241231672E0
2.266322583E0,-1.132295477E0,-1.025236174E0,-2.751116426E-1,1.552059495E0
2.276268583E0,-9.621809703E-1,-1.262026189E0,-2.211313172E-1,1.602311262E0
2.286214584E0,-6.656809437E-1,-1.255459181E0,-2.342517382E-1,1.440202330E0
2.296160583E0,-3.219731292E-1,-1.143112534E0,-3.942814060E-1,1.251331606E0
2.306106584E0,1.892042041E-1,-9.033977419E-1,-6.358146818E-1,1.120797047E0
2.316052584E0,8.276982263E-1,-5.450113696E-1,-8.556401695E-1,1.309290589E0
2.325998583E0,1.443089899E0,-3.051544905E-1,-1.078234168E0,1.827078718E0
2.335944584E0,1.772287556E0,-2.477067661E-1,-1.136112393E0,2.119696486E0
2.345890583E0,1.752482452E0,-2.933244038E-1,-9.825351280E-1,2.030420948E0
2.355836583E0,1.497579517E0,-3.382368672E-1,-7.009829235E-1,1.687757580E0
2.365782584E0,1.284787061E0,-4.127894515E-1,-4.681579059E-1,1.428371362E0
2.375728583E0,1.185789022E0,-4.696811056E-1,-3.578380497E-1,1.324667511E0
2.385675584E0,1.099084754E0,-5.395570868E-1,-3.954055332E-1,1.286644738E0
2.395621583E0,9.547789800E-1,-5.092076987E-1,-5.611993861E-1,1.218950422E0
2.405567584E0,6.953456229E-1,-4.396229088E-1,-8.994953102E-1,1.218960890E0
2.415513583E0,4.079766083E-1,-3.414528358E-1,-1.423487109E0,1.519654731E0
2.425459583E0,4.529604077E-2,-2.923455799E-1,-2.162058274E0,2.182203851E0
2.435405584E0,-3.110157394E-1,-2.779093891E-1,-3.005078251E0,3.033885251E0
2.445351583E0,-5.509281671E-1,-4.264163876E-1,-3.720313763E0,3.784981807E0
2.455297667E0,-4.979711044E-1,-6.951345384E-1,-4.073434425E0,4.162217590E0
2.465243667E0,-1.324055207E-1,-1.229023334E0,-3.850897876E0,4.044433709E0
2.475189667E0,4.406742382E-1,-1.632639674E0,-3.199811583E0,3.619185026E0
2.485135667E0,1.142727202E0,-1.748646094E0,-2.510622493E0,3.266008867E0
2.495081667E0,1.817453204E0,-1.634292097E0,-1.994941050E0,3.154970142E0
2.505027667E0,2.394943517E0,-1.511604649E0,-1.636260562E0,3.270787626E0
2.514974667E0,2.909673327E0,-1.423347945E0,-1.309118494E0,3.493695676E0
2.524920667E0,3.346516469E0,-1.232125282E0,-1.030786936E0,3.712118923E0
2.534866667E0,3.767073947E0,-1.064542328E0,-6.947559312E-1,3.975774426E0
2.544812667E0,4.066438524E0,-9.418244737E-1,-3.964628559E-1,4.192867564E0
2.554758667E0,4.318273425E0,-8.709550506E-1,-4.079310000E-2,4.405418498E0
2.564704667E0,4.427152673E0,-8.208414888E-1,3.566763541E-1,4.516711144E0
2.574650667E0,4.442058980E0,-7.754501384E-1,7.938402164E-1,4.578579822E0
2.584596667E0,4.297799984E0,-8.532455885E-1,1.259181226E0,4.559018545E0
2.594542667E0,4.099513884E0,-1.030584623E0,1.635854473E0,4.532564242E0
2.604488667E0,3.858054868E0,-1.350114493E0,1.836084772E0,4.480915509E0
2.614434667E0,3.335983880E0,-1.824323682E0,1.817421629E0,4.214257553E0
2.624380667E0,2.724485575E0,-2.489636251E0,1.518015536E0,3.990674314E0
2.634326667E0,2.111179896E0,-3.256969285E0,1.002717378E0,4.008786801E0
2.644272667E0,1.537317780E0,-4.019084848E0,3.826903242E-1,4.320051025E0
2.654219667E0,9.046630794E-1,-4.752008772E0,-1.637463042E-1,4.840125567E0
2.664165667E0,2.416683465E-1,-5.213409051E0,-7.663735056E-1,5.274975438E0
2.674111667E0,-9.277812159E-1,-5.342430788E0,-2.356659165E0,5.912375760E0
2.684057667E0,-3.637425388E0,-5.633008170E0,-6.667157840E0,9.455825620E0
2.694003667E0,-7.712716012E0,-6.397683644E0,-1.496115375E1,1.800701157E1
2.703949667E0,-8.034142134E0,-7.250152722E0,-1.726408314E1,2.037549315E1
2.713895667E0,-3.750026974E0,-7.150099261E0,-1.127897260E1,1.387089920E1
2.723841667E0,-7.665699720E-1,-6.074358931E0,-6.017181348E0,8.584400812E0
2.733787667E0,-3.549084485E-2,-4.755711814E0,-3.774513651E0,6.071656097E0
2.743733667E0,8.921313268E-1,-3.542294698E0,-2.774846474E0,4.587321984E0
2.753679667E0,1.611728277E0,-2.629547843E0,-1.904922287E0,3.625040526E0
2.763625667E0,1.944616696E0,-1.924622726E0,-1.052871724E0,2.931594378E0
2.773571667E0,1.782536556E0,-1.373858281E0,-9.927695096E-2,2.252727028E0
2.783517667E0,9.002630496E-1,-1.052632719E0,1.062095852E0,1.745438856E0
2.793463667E0,-1.592109114E-1,-1.064669797E0,2.098979096E0,2.358936865E0
2.803410667E0,-1.319130682E0,-1.289161947E0,3.054088444E0,3.567842556E0
2.813356667E0,-2.729969679E0,-1.571182514E0,3.983868822E0,5.078637586E0
2.823302667E0,-3.960227360E0,-1.778338839E0,4.530879940E0,6.274931298E0
2.833248667E0,-4.884889086E0,-1.787657547E0,4.598430483E0,6.942868557E0
2.843194667E0,-5.330762669E0,-1.497338027E0,4.670276392E0,7.243654697E0
2.853140667E0,-5.432265655E0,-9.554046321E-1,4.896541418E0,7.375528863E0
2.863086667E0,-4.970302874E0,-2.506900156E-1,4.853663785E0,6.951604727E0
2.873032667E0,-4.040892916E0,3.761753565E-1,4.343684839E0,5.944570753E0
2.882978667E0,-3.051166005E0,7.286677355E-1,3.290187317E0,4.545976599E0
2.892924667E0,-2.076590399E0,8.583642411E-1,2.227438331E0,3.163937163E0
2.902870667E0,-1.147763994E0,1.091888001E0,1.866633550E0,2.448244759E0
2.912816667E0,-5.872589645E-1,1.416655222E0,2.323844883E0,2.784248579E0
2.922762667E0,-2.342084688E-1,1.563678782E0,2.655374994E0,3.090462959E0
2.932708667E0,-1.108404046E-1,1.480570552E0,2.505126110E0,2.912049378E0
2.942654667E0,-1.662451118E-1,1.458477432E0,2.522395277E0,2.918436532E0
2.952601667E0,-1.521819735E-1,1.453328959E0,2.474111309E0,2.873421512E0
2.962547667E0,-9.280057490E-2,1.496024158E0,2.085374379E0,2.568167932E0
2.972493667E0,-8.653060555E-2,1.658475596E0,1.875112013E0,2.504810154E0
2.982439667E0,-5.534009546E-2,1.890376754E0,1.674519771E0,2.525985602E0
2.992385667E0,-5.695158809E-2,2.223114899E0,1.469339805E0,2.665416065E0
3.002331667E0,-1.219553769E-1,2.643927315E0,1.319465142E0,2.957399707E0
3.012277667E0,-3.259264317E-1,3.091672007E0,1.229467138E0,3.343090379E0
3.022223667E0,-6.800916991E-1,3.631988647E0,1.200107026E0,3.885115587E0
3.032169667E0,-1.004524460E0,4.243415616E0,1.260663203E0,4.539263948E0
3.042115667E0,-1.341269702E0,4.810372170E0,1.405073057E0,5.187765909E0
3.052061667E0,-1.680627188E0,5.314489868E0,1.596950608E0,5.798151563E0
3.062007667E0,-2.109132493E0,5.532906761E0,1.838673334E0,6.200178766E0
3.071953667E0,-2.372802743E0,6.055308702E0,2.026232132E0,6.811943407E0
3.081899667E0,-2.537464721E0,6.751768219E0,1.884716795E0,7.455015674E0
3.091845667E0,-2.663173426E0,7.046384273E0,1.868264923E0,7.761084837E0
3.101792667E0,-2.564529144E0,7.260255541E0,1.869056636E0,7.923477328E0
3.111738667E0,-2.531686503E0,7.185595953E0,1.896388861E0,7.851020090E0
3.121684667E0,-2.554078123E0,6.733210911E0,1.884502641E0,7.443842720E0
3.131630667E0,-2.508661629E0,6.055257246E0,1.434902043E0,6.709580267E0
3.141576667E0,-2.541885801E0,5.147599808E0,5.699515716E-1,5.769212425E0
3.151522667E0,-2.659219246E0,4.052977649E0,-3.405487832E-1,4.859428803E0
3.161468667E0,-2.693692383E0,2.606910932E0,-1.361935809E0,3.988337048E0
3.171414667E0,-2.431096852E0,6.126139534E-1,-3.100189061E0,3.987066588E0
3.181360667E0,-1.608356187E0,-1.811559795E0,-4.962085197E0,5.521851865E0
3.191306667E0,9.983243644E-2,-4.700397153E0,-6.378398942E0,7.923867299E0
3.201252667E0,2.524108804E0,-7.459400597E0,-6.154505546E0,9.994584585E0
3.211198667E0,5.059859414E0,-8.964966826E0,-4.625714761E0,1.128583380E1
3.221144667E0,6.843991674E0,-9.609049909E0,-2.553351606E0,1.207036315E1
3.231090667E0,7.637189866E0,-1.016775721E1,-8.196755540E-1,1.274291269E1
3.241036667E0,7.465351893E0,-1.003156971E1,-2.234829211E-1,1.250655086E1
3.250982667E0,6.359708902E0,-8.948254314E0,-7.733854866E-1,1.100523865E1
3.260929667E0,5.056354008E0,-6.727477716E0,-2.421995076E0,8.757381596E0
3.270875667E0,4.080377409E0,-3.196451188E0,-4.415340128E0,6.808965299E0
3.280821667E0,2.434216341E0,-2.267725646E-2,-4.423770643E0,5.049323733E0
3.290767667E0,7.154492274E-1,1.583098555E0,-2.636130638E0,3.157095718E0
3.300713667E0,-2.215322900E-1,3.080325485E0,-1.087302614E0,3.274096612E0
3.310659667E0,-8.208549374E-1,4.449876122E0,1.171735239E-1,4.526469924E0
3.320605667E0,-1.254888493E0,5.445310793E0,1.222518307E0,5.720201550E0
3.330551667E0,-1.448471092E0,5.749232106E0,2.287999113E0,6.355051396E0
3.340497667E0,-1.925566467E0,5.312829258E0,3.134639686E0,6.462192113E0
3.350443667E0,-3.354249119E0,4.141177050E0,3.769481245E0,6.527581740E0
3.360389667E0,-5.018363478E0,2.688768443E0,3.420764998E0,6.641918466E0
3.370335667E0,-7.455976467E0,1.335287123E0,4.870169306E-1,7.590241252E0
3.380281667E0,-1.113957264E1,-2.015818825E0,-7.017545221E0,1.331914205E1
3.390227667E0,-1.061383779E1,-9.664017245E0,-6.307141263E0,1.567886516E1
3.400173667E0,-6.619484906E0,-1.421356617E1,-2.734738083E0,1.591608734E1
3.410119667E0,-3.672599314E0,-1.352542958E1,-1.003430153E0,1.405105346E1
3.420066667E0,-2.441137691E0,-9.855507710E0,1.044907962E0,1.020695930E1
3.430012667E0,-4.473660842E-1,-4.722482672E0,8.144855654E-1,4.813041215E0
3.439958667E0,1.295119383E0,2.165662497E-1,-9.028954661E-1,1.593566873E0
3.449904667E0,2.522027195E0,4.617178411E0,-2.807835295E0,5.963463481E0
3.459849917E0,3.483148650E0,7.166743945E0,-2.905038239E0,8.481379042E0
3.469795917E0,3.664948525E0,7.546081476E0,-5.816845214E-1,8.409134926E0
3.479741917E0,3.538278830E0,7.249662725E0,2.086851386E0,8.332585158E0
3.489687917E0,3.137568264E0,7.512261765E0,3.173424268E0,8.737793373E0
3.499633917E0,2.926408935E0,7.848174364E0,3.615639832E0,9.123078510E0
3.509579917E0,2.754111955E0,7.816616356E0,3.681360197E0,9.068463862E0
3.519525917E0,2.260334181E0,6.980979073E0,3.606956717E0,8.176387722E0
3.529471917E0,1.208632632E0,5.042342325E0,3.522368556E0,6.268419993E0
3.539417917E0,-7.895240942E-1,2.532960026E0,3.744100821E0,4.588847976E0
3.549363917E0,-3.424871498E0,-3.276077986E-1,4.135770714E0,5.379746374E0
3.559309917E0,-5.718738291E0,-3.178251144E0,4.376322827E0,7.871305449E0
3.569255917E0,-6.895255968E0,-5.174344972E0,4.926950448E0,9.929412947E0
3.579201917E0,-6.357705646E0,-5.830167511E0,5.315269886E0,1.013229334E1
3.589148917E0,-3.527372603E0,-4.245732282E0,4.161818891E0,6.912983189E0
3.599094917E0,-1.210969471E0,-2.334403201E0,3.258591303E0,4.187398075E0
3.609040917E0,-2.452477196E-1,-6.658189380E-1,3.045245115E0,3.126816130E0
3.618986917E0,3.181627911E-1,5.062893534E-1,2.685819107E0,2.751577865E0
3.628932917E0,6.903807521E-1,1.359113942E0,2.146336280E0,2.632598663E0
3.638878917E0,9.676425621E-1,1.976737205E0,1.547141102E0,2.690254207E0
3.648824917E0,9.679445708E-1,2.097039574E0,1.076898664E0,2.548372500E0
3.658770917E0,5.642563105E-1,1.817709897E0,8.269430584E-1,2.075160060E0
3.668716917E0,-6.789114386E-2,1.322573522E0,8.390228212E-1,1.567727407E0
3.678662917E0,-6.736653167E-1,6.819297713E-1,1.034805143E0,1.410558349E0
3.688608917E0,-1.163267301E0,-2.117218316E-2,1.145819795E0,1.632955014E0
3.698554917E0,-1.411908160E0,-6.611733252E-1,1.120190206E0,1.919755431E0
3.708500917E0,-1.461593998E0,-9.745150870E-1,9.671820939E-1,2.005337346E0
3.718446917E0,-1.183390202E0,-7.594392926E-1,8.927030383E-1,1.665556701E0
3.728392917E0,-6.406080830E-1,-2.112908918E-1,8.157758997E-1,1.058542808E0
3.738338917E0,-8.347689718E-2,2.332501101E-1,5.477934017E-1,6.012084640E-1
3.748284917E0,2.999452060E-1,6.027198797E-1,2.193553716E-1,7.080643750E-1
3.758231917E0,5.328921381E-1,9.503239864E-1,2.972607493E-2,1.089941902E0
3.768177917E0,6.047161192E-1,1.176625850E0,-7.891299918E-2,1.325276287E0
3.778123917E0,5.110460633E-1,1.198688564E0,-1.659985055E-1,1.313612522E0
3.788069917E0,3.189808166E-1,1.084741534E0,-2.296306837E-1,1.153751796E0
3.798015917E0,1.240559891E-1,8.440859252E-1,-3.219436008E-1,9.118764278E-1
3.807961917E0,-4.518465132E-2,5.092305028E-1,-3.982610209E-1,6.480503056E-1
3.817907917E0,-1.172980696E-1,2.363830483E-1,-4.120670280E-1,4.893209767E-1
3.827853917E0,-1.825565046E-1,-5.997898400E-2,-3.785535653E-1,4.245316922E-1
3.837799917E0,-2.378922147E-1,-1.825331157E-1,-2.614326663E-1,3.978166452E-1
3.847745917E0,-2.331863755E-1,-1.619982791E-1,-2.121961869E-1,3.544665709E-1
3.857691917E0,-2.406368977E-1,-1.614498103E-1,-2.631947248E-1,3.914634350E-1
3.867637917E0,-3.017467332E-1,-1.299900359E-1,-5.494676788E-1,6.402056158E-1
3.877583917E0,-4.546812433E-1,-1.225073540E-1,-9.144451788E-1,1.028568457E0
3.887529917E0,-6.790535259E-1,-1.623543745E-1,-1.485341880E0,1.641253525E0
3.897475917E0,-8.649452823E-1,-1.065356845E-1,-2.280211498E0,2.441074491E0
3.907421917E0,-9.635188133E-1,-1.379580367E-1,-2.968771720E0,3.124260944E0
3.917367917E0,-8.253496921E-1,-2.786233342E-1,-3.439086664E0,3.547696458E0
3.927313917E0,-4.056155026E-1,-6.812228429E-1,-3.429795438E0,3.520239373E0
3.937259917E0,1.361857456E-1,-1.152820081E0,-3.049361847E0,3.262843602E0
3.947206917E0,8.387672979E-1,-1.553670103E0,-2.567165945E0,3.115728223E0
3.957152917E0,1.552517032E0,-1.623720331E0,-2.237143247E0,3.170423750E0
3.967098917E0,2.215508257E0,-1.465301133E0,-1.817908410E0,3.218753677E0
3.977044917E0,2.708142022E0,-1.331356040E0,-1.351552908E0,3.306544629E0
3.986990917E0,3.035233512E0,-1.248417964E0,-9.748542255E-1,3.423672100E0
3.996936917E0,3.197089119E0,-1.316692393E0,-5.842613894E-1,3.506625025E0
4.006882917E0,3.191206820E0,-1.513138373E0,-1.811306611E-1,3.536410189E0
4.016828917E0,3.121681087E0,-1.655840256E0,2.963304573E-1,3.546055767E0
4.026774917E0,3.088439666E0,-1.635607136E0,7.220206207E-1,3.568610941E0
4.036720917E0,3.126842424E0,-1.581768898E0,1.050935857E0,3.658360639E0
4.046666917E0,3.192597288E0,-1.632030979E0,1.273019539E0,3.804836568E0
4.056612917E0,3.150034820E0,-1.786483426E0,1.367670465E0,3.871016004E0
4.066558917E0,3.032034500E0,-2.023865179E0,1.333825904E0,3.881797910E0
4.076504917E0,2.883171991E0,-2.340344557E0,1.094006740E0,3.871271641E0
4.086450917E0,2.755386940E0,-2.729593703E0,7.311908090E-1,3.946831510E0
4.096396917E0,2.636624143E0,-2.930939065E0,3.509595314E-1,3.957949377E0
4.106342917E0,2.566900190E0,-2.965390275E0,-6.646910101E-2,3.922618285E0
4.116288917E0,2.625239614E0,-3.037229751E0,-6.093170008E-1,4.060531345E0
4.126235917E0,2.750746005E0,-3.332269143E0,-1.196608417E0,4.483580370E0
4.136181917E0,2.780312451E0,-3.692947624E0,-1.863723683E0,4.984121332E0
4.146127917E0,2.685031487E0,-4.127034974E0,-2.883211167E0,5.705674228E0
4.156073917E0,2.307976125E0,-4.721224351E0,-4.105762219E0,6.668882707E0
4.166019917E0,1.437676547E0,-5.405425766E0,-6.189329808E0,8.342262585E0
4.175965917E0,1.552693033E-1,-6.106709236E0,-8.889705559E0,1.078623526E1
4.185911917E0,-6.934458625E-1,-6.766533608E0,-1.014071384E1,1.221068882E1
4.195857917E0,-2.005869788E-1,-7.164113283E0,-8.667710754E0,1.124695354E1
4.205803917E0,6.631719035E-1,-6.593263067E0,-6.162847184E0,9.049397784E0
4.215749917E0,1.008728315E0,-4.976357081E0,-3.877207715E0,6.388615052E0
4.225695917E0,1.087272209E0,-3.221102464E0,-2.202351144E0,4.050680499E0
4.235641917E0,1.214852023E0,-1.909879557E0,-1.174786462E0,2.550221283E0
4.245587917E0,1.375071579E0,-1.127707459E0,-3.569982433E-1,1.813833980E0
4.255533917E0,1.332709086E0,-6.668743604E-1,5.493687147E-1,1.588282376E0
4.265479917E0,9.981126952E-1,-2.893026888E-1,1.272817079E0,1.643164117E0
4.275425917E0,4.733473098E-1,-7.197688580E-2,1.942835049E0,2.000961363E0
4.285371917E0,-3.602352619E-2,-6.810719848E-2,2.558161233E0,2.559321234E0
4.295317917E0,-4.998679411E-1,-5.159758508E-2,2.859515618E0,2.903335985E0
4.305263917E0,-8.178108770E-1,-1.041424191E-1,2.846596488E0,2.963574166E0
4.315209917E0,-1.284686489E0,-2.436704332E-1,2.867113198E0,3.151211314E0
4.325156917E0,-2.077391176E0,-4.459045726E-1,2.828242078E0,3.537419714E0
4.335102917E0,-2.994180796E0,-7.040006715E-1,2.682730608E0,4.081394259E0
4.345048917E0,-3.838318176E0,-8.987644082E-1,2.469970896E0,4.652012479E0
4.354994917E0,-4.516594023E0,-9.884367228E-1,2.215515273E0,5.126903222E0
4.364940917E0,-4.918815801E0,-1.188260640E0,1.655906330E0,5.324353295E0
4.374886917E0,-5.008820822E0,-1.443219123E0,9.138689357E-1,5.292100141E0
4.384832917E0,-4.973334655E0,-1.473238143E0,3.988075894E-1,5.202262557E0
4.394778917E0,-4.741722935E0,-1.138977383E0,3.699942648E-2,4.876738134E0
4.404724917E0,-4.160794458E0,-6.274062395E-1,-4.037618439E-2,4.208025588E0
4.414670917E0,-3.742651296E0,-3.640505701E-1,-5.355926746E-1,3.798266849E0
4.424616917E0,-3.416987989E0,3.084815562E-2,-8.514516628E-1,3.521608789E0
4.434562917E0,-3.120368095E0,4.644110101E-1,-7.308165872E-1,3.238281569E0
4.444508917E0,-2.802736231E0,8.594769663E-1,-2.887015768E-1,2.945739234E0
4.454454917E0,-2.522287688E0,1.258653515E0,5.068799587E-1,2.864100408E0
4.464401584E0,-2.241372830E0,1.753384677E0,1.263782108E0,3.113720477E0
4.474347583E0,-2.007526889E0,2.306185707E0,1.782267584E0,3.539086671E0
4.484293583E0,-1.808963047E0,2.814125730E0,2.112063410E0,3.956319347E0
4.494239584E0,-1.562866896E0,3.096589515E0,2.187706500E0,4.100912007E0
4.504185583E0,-1.426146130E0,3.330644202E0,2.433588935E0,4.364566266E0
4.514131583E0,-1.158784533E0,3.772528814E0,2.642812836E0,4.749654191E0
4.524077584E0,-9.970832929E-1,3.961856394E0,2.556367600E0,4.819283815E0
4.534024584E0,-8.219998223E-1,4.181545057E0,2.578079481E0,4.980712458E0
4.543970583E0,-7.169703805E-1,4.396595709E0,2.552472185E0,5.134122574E0
4.553916583E0,-5.995126820E-1,4.604360729E0,2.358237036E0,5.207766806E0
4.563862584E0,-5.480188850E-1,4.863560198E0,2.024392598E0,5.296480708E0
4.573808583E0,-7.155006829E-1,5.089552744E0,1.719544501E0,5.419623756E0
4.583754583E0,-1.020786443E0,5.128917369E0,1.504357610E0,5.441588937E0
4.593700584E0,-1.464512343E0,5.071435731E0,1.293331597E0,5.434791937E0
4.603646583E0,-1.802220915E0,4.976392164E0,8.841469538E-1,5.366022273E0
4.613592584E0,-2.021751410E0,4.751243371E0,3.656439729E-1,5.176435825E0
4.623538584E0,-2.145130000E0,4.398241700E0,-5.333241742E-2,4.893767170E0
4.633484583E0,-2.098141190E0,3.906900169E0,-3.379304731E-1,4.447500690E0
4.643430584E0,-1.860647171E0,3.250704578E0,-6.410629964E-1,3.800006568E0
4.653376583E0,-1.427110336E0,2.425098778E0,-7.885543334E-1,2.922253571E0
4.663322583E0,-6.634426296E-1,1.390700601E0,-9.756968093E-1,1.823784129E0
4.673268584E0,5.168368533E-1,1.623783481E-1,-1.250173298E0,1.362505169E0
4.683214583E0,1.608860217E0,-1.237272002E0,-1.633826659E0,2.605506238E0
4.693160583E0,2.353927346E0,-2.763177186E0,-2.419623445E0,4.362419022E0
4.703106584E0,3.175338939E0,-3.906285042E0,-3.323722268E0,6.032327073E0
4.713052583E0,4.156561074E0,-4.460443795E0,-3.091282582E0,6.835831099E0
4.722998584E0,4.802430774E0,-4.694169284E0,-1.914050961E0,6.982990598E0
4.732944584E0,5.225756031E0,-4.915168308E0,-8.904175079E-1,7.229125046E0
4.742890583E0,5.642222797E0,-5.164538022E0,-2.738999534E-1,7.653897847E0
4.752836584E0,5.949636651E0,-5.218849300E0,-2.090122684E-1,7.916959671E0
4.762782583E0,5.779260482E0,-4.919557228E0,-5.932432973E-1,7.612741467E0
4.772729584E0,4.679632521E0,-3.778687686E0,-1.340760702E0,6.162392427E0
4.782675583E0,2.852354826E0,-1.429419694E0,-2.055559427E0,3.795325186E0
4.792621584E0,1.101996960E0,6.297036105E-1,-1.677331113E0,2.103417124E0
4.802567584E0,-2.787546042E-1,1.829095010E0,-5.394337106E-1,1.927247108E0
4.812513583E0,-1.161516060E0,2.647192985E0,2.993903418E-1,2.906266477E0
4.822459584E0,-1.686474988E0,3.102038535E0,8.269810653E-1,3.626394717E0
4.832405583E0,-2.423869986E0,2.989223526E0,1.262481687E0,4.050242339E0
4.842351583E0,-3.651299369E0,2.965614223E0,1.436256843E0,4.918301386E0
4.852297584E0,-5.197059066E0,2.653088148E0,6.547273546E-1,5.871709084E0
4.862243583E0,-7.904968954E0,1.982627690E0,-3.230452747E0,8.766708144E0
4.872189583E0,-9.523728508E0,-6.952801341E-1,-7.202476280E0,1.196078943E1
4.882135584E0,-8.118688779E0,-5.784390829E0,-5.112470906E0,1.120310865E1
4.892081583E0,-6.164369799E0,-9.350883059E0,-2.324427266E0,1.143859393E1
4.902027584E0,-4.881757903E0,-9.895910801E0,-8.975546193E-1,1.107096270E1
4.911973584E0,-3.338190911E0,-8.614512202E0,7.621108854E-1,9.270067531E0
4.921919583E0,-1.308965005E0,-5.063194081E0,1.767739592E0,5.520346633E0
4.931865584E0,1.031250036E-1,-1.172170272E0,1.569053543E0,1.961261566E0
4.941811583E0,1.125308931E0,2.199664056E0,1.232391915E0,2.761092535E0
4.951757583E0,1.990146333E0,4.485823050E0,1.288807021E0,5.073885533E0
4.961703584E0,2.377827548E0,5.718678065E0,1.793889509E0,6.447897505E0
4.971649583E0,2.322889448E0,6.340439987E0,2.361689233E0,7.153640378E0
4.981595583E0,2.155427531E0,6.720677989E0,2.766096700E0,7.580545589E0
4.991542583E0,1.864574161E0,6.690885256E0,3.072786670E0,7.595169532E0
5.001488584E0,1.193300940E0,5.953462484E0,3.024284016E0,6.783360266E0
5.011434583E0,1.237466714E-1,4.469545571E0,2.940057213E0,5.351269688E0
5.021380583E0,-1.375777338E0,2.682814808E0,3.104380345E0,4.327520757E0
5.031326584E0,-3.015451212E0,6.451420140E-1,3.201260523E0,4.444909804E0
5.041272583E0,-4.334816952E0,-1.206251353E0,3.115255582E0,5.472704786E0
5.051218584E0,-5.104981792E0,-2.528685127E0,3.050773072E0,6.462376026E0
5.061164584E0,-4.993353767E0,-3.201515461E0,2.775950428E0,6.548983423E0
5.071110583E0,-3.578510013E0,-2.527276533E0,2.155590084E0,4.882563793E0
5.081056584E0,-2.178676060E0,-1.043782958E0,1.860390478E0,3.049125279E0
5.091002584E0,-1.430238304E0,2.945078802E-1,1.922933466E0,2.414537142E0
5.100948583E0,-6.791739786E-1,1.350397498E0,1.794635029E0,2.346394167E0
5.110894584E0,-6.867028534E-2,2.194857060E0,1.567271311E0,2.697860724E0
5.120840583E0,4.183893299E-1,2.785183182E0,1.273929366E0,3.091147201E0
5.130786583E0,7.495317703E-1,3.084108049E0,1.038467912E0,3.339451442E0
5.140732584E0,8.338421881E-1,2.961189051E0,7.931187431E-1,3.176943614E0
5.150678583E0,5.080055112E-1,2.385816014E0,5.939040327E-1,2.510559629E0
5.160624583E0,1.380410671E-2,1.558858922E0,4.892897433E-1,1.633902122E0
5.170570584E0,-4.158814591E-1,5.306067538E-1,4.442603356E-1,8.073835278E-1
5.180516583E0,-7.188543534E-1,-4.651208621E-1,4.480830990E-1,9.663681811E-1
5.190462584E0,-7.447607347E-1,-1.238753101E0,4.165894838E-1,1.504235552E0
5.200408584E0,-6.138272506E-1,-1.640087857E0,5.287309670E-1,1.829269939E0
5.210354583E0,-3.920546401E-1,-1.693299274E0,6.536754405E-1,1.856949340E0
5.220300584E0,7.250605881E-2,-1.421558697E0,7.017401379E-1,1.586986288E0
5.230246583E0,6.454355443E-1,-9.930835050E-1,6.744687241E-1,1.362978338E0
5.240192583E0,1.257608325E0,-6.024760509E-1,5.324882416E-1,1.492682089E0
5.250139583E0,1.724371378E0,-3.537694108E-1,2.800716895E-1,1.782428006E0
5.260085584E0,1.974578413E0,-2.425588775E-1,2.173877835E-2,1.989539468E0
5.270031583E0,2.045190559E0,-2.788355881E-1,-1.558826762E-1,2.069988675E0
5.279977583E0,1.944316733E0,-2.813013589E-1,-2.475605857E-1,1.980097033E0
5.289923584E0,1.786241351E0,-2.824690479E-1,-3.689774340E-1,1.845695337E0
5.299869583E0,1.516519234E0,-3.445863587E-1,-4.932665808E-1,1.631527586E0
5.309815583E0,1.215558366E0,-4.427540928E-1,-5.858205494E-1,1.420140502E0
5.319761584E0,8.244767028E-1,-4.945306027E-1,-5.754930510E-1,1.120497480E0
5.329707583E0,3.383280838E-1,-3.792340350E-1,-4.857545167E-1,7.030233254E-1
5.339653584E0,-8.895720005E-2,-2.597450137E-1,-4.097249258E-1,4.932092562E-1
5.349599584E0,-3.760619205E-1,-1.727214879E-1,-3.982440640E-1,5.743288387E-1
5.359545583E0,-5.904114908E-1,-1.362635136E-2,-5.665609905E-1,8.183903481E-1
5.369491584E0,-6.970208502E-1,1.883125037E-1,-8.731457099E-1,1.132997394E0
5.379437583E0,-6.625474209E-1,4.980108654E-1,-1.308471208E0,1.548896642E0
5.389383583E0,-5.721594071E-1,7.657987243E-1,-1.751963804E0,1.995793387E0
5.399329584E0,-4.269671953E-1,7.779661953E-1,-2.143446001E0,2.319890762E0
5.409275583E0,-2.748220593E-1,6.330961651E-1,-2.423327949E0,2.519693685E0
5.419221583E0,-1.443788642E-1,3.684926999E-1,-2.452896149E0,2.484619014E0
5.429167584E0,9.057103157E-2,-3.912781298E-2,-2.220487453E0,2.222678255E0
5.439113583E0,5.314107460E-1,-6.382972634E-1,-1.908768878E0,2.081638635E0
5.449059584E0,1.154259666E0,-1.073552887E0,-1.754390106E0,2.358541036E0
5.459005584E0,1.746121851E0,-1.282534713E0,-1.616116027E0,2.702899891E0
5.468951583E0,2.215569068E0,-1.427030522E0,-1.387644846E0,2.978375501E0
5.478897584E0,2.542845914E0,-1.531184635E0,-1.080353491E0,3.158758521E0
5.488843584E0,2.765330130E0,-1.596924296E0,-7.665278721E-1,3.284019323E0
5.498789583E0,2.872938779E0,-1.634989085E0,-4.412548667E-1,3.334917149E0
5.508735584E0,3.038226117E0,-1.572019250E0,-1.642228523E-1,3.424767380E0
5.518681583E0,3.232419750E0,-1.452683426E0,9.141975492E-2,3.545022447E0
5.528627583E0,3.466398423E0,-1.308004015E0,2.977641946E-1,3.716914856E0
5.538574583E0,3.668381717E0,-1.160621436E0,5.090863690E-1,3.881138425E0
5.548520584E0,3.737449613E0,-1.288919288E0,6.807910261E-1,4.011647911E0
5.558466583E0,3.581685635E0,-1.778449352E0,8.004183340E-1,4.078237805E0
5.568412583E0,3.216292545E0,-2.463614388E0,7.588475543E-1,4.121866470E0
5.578358584E0,2.741795087E0,-3.027338601E0,5.792681596E-1,4.125260102E0
5.588304583E0,2.243709378E0,-3.385222698E0,2.632141668E-1,4.069796823E0
5.598250583E0,1.904027079E0,-3.536238152E0,-1.437152052E-1,4.018824883E0
5.608196584E0,1.642215074E0,-3.657194239E0,-5.823981741E-1,4.051065007E0
5.618142583E0,1.418167897E0,-3.705227947E0,-1.123000743E0,4.123232347E0
5.628088584E0,9.405778474E-1,-3.569573128E0,-2.206976292E0,4.300846819E0
5.638034584E0,-1.274166763E-1,-3.450600416E0,-4.158337458E0,5.405057692E0
5.647980583E0,-1.949725408E0,-3.658431510E0,-6.966703681E0,8.106818763E0
5.657926584E0,-3.816532035E0,-4.474686443E0,-1.063506552E1,1.215291546E1
5.667872583E0,-4.093472541E0,-5.864518148E0,-1.137660473E1,1.343786537E1
5.677818583E0,-2.331025849E0,-6.523503445E0,-8.602655802E0,1.104515575E1
5.687764584E0,-5.198426145E-1,-5.931624888E0,-5.554747866E0,8.143072762E0
5.697710583E0,3.592546839E-1,-4.683236160E0,-3.886082327E0,6.096179190E0
5.707656583E0,6.992293435E-1,-3.442821280E0,-3.416569621E0,4.900498752E0
5.717602584E0,1.033739780E0,-2.381574444E0,-2.926201943E0,3.911926965E0
5.727548583E0,1.198339486E0,-1.545921957E0,-1.891735208E0,2.721131073E0
5.737494584E0,1.161630666E0,-8.739809847E-1,-3.863689537E-1,1.504164065E0
5.747440584E0,9.235969484E-1,-2.930659568E-1,1.035987888E0,1.418516790E0
5.757386583E0,5.243040401E-1,-8.953665912E-2,2.219472084E0,2.282316339E0
5.767332584E0,-1.337404400E-1,-2.134911990E-1,3.195596325E0,3.205511015E0
5.777278583E0,-9.428705406E-1,-4.842564601E-1,3.860353993E0,4.003228963E0
5.787224583E0,-1.816997706E0,-7.617968899E-1,4.213490151E0,4.651377690E0
5.797170584E0,-2.551547740E0,-9.546789926E-1,4.129375615E0,4.947074976E0
5.807116583E0,-3.211788434E0,-1.154463149E0,3.721999515E0,5.049915890E0
5.817062583E0,-3.982958996E0,-1.288934491E0,3.472025199E0,5.438774997E0
5.827008584E0,-4.519903547E0,-1.177268459E0,3.490744475E0,5.831019301E0
5.836954583E0,-4.384382922E0,-9.134613848E-1,3.306120980E0,5.566656199E0
5.846900584E0,-3.602882085E0,-6.856427532E-1,2.582927992E0,4.485797846E0
5.856847583E0,-2.720369135E0,-5.119506276E-1,1.745204422E0,3.272344748E0
5.866793584E0,-2.139124032E0,-1.142089856E-1,1.322746600E0,2.517648483E0
5.876739583E0,-1.793273505E0,3.518544477E-1,1.390409410E0,2.296273012E0
5.886685583E0,-1.551552241E0,7.449563241E-1,1.782482761E0,2.477805294E0
5.896631584E0,-1.386840270E0,1.044123266E0,2.376579606E0,2.943068118E0
5.906577583E0,-1.258946168E0,1.298852538E0,3.032412815E0,3.530933425E0
5.916523584E0,-1.158951764E0,1.545681052E0,3.681394111E0,4.157518696E0
5.926469584E0,-1.026200673E0,1.733614072E0,4.113393420E0,4.580230452E0
5.936415583E0,-7.377490461E-1,2.003353146E0,4.230315514E0,4.738487821E0
5.946361584E0,-4.433010998E-1,2.324306813E0,4.211828957E0,4.830985530E0
5.956307583E0,-1.241419432E-1,2.578706303E0,3.834615719E0,4.622706473E0
5.966253583E0,2.264103296E-1,2.805065469E0,3.126748284E0,4.206686196E0
5.976199584E0,4.577603871E-1,3.011037149E0,2.336076089E0,3.838377363E0
5.986145583E0,3.995823455E-1,3.133283132E0,1.547179109E0,3.517227947E0
5.996091583E0,9.443077862E-2,3.199025717E0,9.348692107E-1,3.334166035E0
6.006037584E0,-3.789539534E-1,3.246696897E0,3.700047167E-1,3.289612489E0
6.015983583E0,-8.896415824E-1,3.428049459E0,-1.873459589E-1,3.546559424E0
6.025929584E0,-1.587701775E0,3.753082729E0,-5.147069685E-1,4.107474913E0
6.035875584E0,-2.479875202E0,4.247976444E0,-4.955012039E-1,4.943744161E0
6.045821583E0,-3.343101403E0,4.838343496E0,-2.764434922E-1,5.887471085E0
6.055767584E0,-4.016410916E0,5.466284755E0,-3.823611259E-2,6.783309493E0
6.065713583E0,-4.395147061E0,5.974493750E0,5.211159188E-2,7.417183352E0
6.075659583E0,-4.435384676E0,6.222395228E0,-3.238772750E-2,7.641458536E0
6.085605584E0,-4.121544439E0,6.031913407E0,-1.149843264E-1,7.306458055E0
6.095551583E0,-3.537961326E0,5.542772768E0,-5.905570865E-2,6.575940076E0
6.105497583E0,-2.978107384E0,4.796579758E0,1.296444654E-2,5.645924995E0
6.115443584E0,-2.243413216E0,3.732315173E0,-3.283200625E-1,4.367021121E0
6.125389583E0,-1.590102057E0,2.257369643E0,-8.356162333E-1,2.884856452E0
6.135335584E0,-7.523021811E-1,6.039407784E-1,-8.964541733E-1,1.316940819E0
6.145281584E0,3.583068502E-1,-1.295383385E0,-1.224716860E0,1.818332560E0
6.155227583E0,1.547428200E0,-3.002847539E0,-1.448686270E0,3.675638622E0
6.165173584E0,2.451696885E0,-4.203388501E0,-1.786451851E0,5.183695855E0
6.175119583E0,3.042591063E0,-5.038142855E0,-2.393523813E0,6.353676105E0
6.185065583E0,3.516872758E0,-5.583734268E0,-3.079192879E0,7.282026583E0
6.195011584E0,4.036069255E0,-5.889143697E0,-3.595022550E0,7.993500838E0
6.204957583E0,4.727181202E0,-5.963326153E0,-3.714442574E0,8.467855960E0
6.214904584E0,5.482108490E0,-5.771343352E0,-3.399127961E0,8.655402271E0
6.224850583E0,5.983485013E0,-5.150466113E0,-2.770456384E0,8.366888470E0
6.234796584E0,5.678214748E0,-4.230678626E0,-2.044761958E0,7.370333495E0
6.244742583E0,4.447507708E0,-2.896917041E0,-1.301366841E0,5.464980220E0
6.254688583E0,3.337705592E0,-1.406184028E0,-9.218860531E-1,3.737312676E0
6.264634584E0,2.198677631E0,-9.815370083E-2,-4.983178443E-1,2.256576644E0
6.274580583E0,1.051597177E0,8.070128238E-1,2.701244062E-1,1.352809489E0
6.284526583E0,1.309252980E-1,1.375988422E0,1.009771459E0,1.711760488E0
6.294472584E0,-8.064614314E-1,1.652676913E0,1.424604512E0,2.326202707E0
6.304418583E0,-1.835842697E0,1.766318133E0,1.411733621E0,2.912591625E0
6.314364584E0,-2.922453878E0,1.790336741E0,8.698721462E-1,3.535918532E0
6.324310584E0,-4.467164000E0,1.606041859E0,-5.135714757E-1,4.774796364E0
6.334256583E0,-6.472239736E0,4.111487228E-1,-3.143373088E0,7.206922009E0
6.344202584E0,-6.953180825E0,-2.829324397E0,-4.748949509E0,8.882810454E0
6.354148583E0,-5.974192033E0,-6.563979626E0,-4.141168864E0,9.794185956E0
6.364094583E0,-4.603849683E0,-7.705923886E0,-2.921563055E0,9.439927199E0
6.374040584E0,-3.753912449E0,-7.559613102E0,-1.087896692E0,8.510177915E0
6.383986583E0,-2.622282385E0,-5.951570910E0,1.456215144E0,6.664692322E0
6.393932583E0,-1.241872883E0,-3.123410693E0,2.807977967E0,4.379803978E0
6.403878584E0,-4.495687303E-1,3.585454166E-2,3.058611265E0,3.091682464E0
6.413824583E0,2.038491404E-1,2.949238511E0,2.306624249E0,3.749677012E0
6.423770584E0,1.031383352E0,5.323699817E0,1.049010369E0,5.523219543E0
6.433716584E0,1.519846884E0,6.755746080E0,6.201749879E-1,6.952313044E0
6.443662583E0,1.566538363E0,7.221720636E0,1.092600192E0,7.470011149E0
6.453608584E0,1.418062939E0,7.210227349E0,1.706950768E0,7.544001713E0
6.463553542E0,1.014845088E0,7.178019716E0,2.130084529E0,7.555867765E0
6.473499542E0,5.160159042E-1,6.544746965E0,2.273549473E0,6.947590406E0
6.483445542E0,-3.881995708E-1,4.911337212E0,2.224887775E0,5.405743032E0
6.493391542E0,-1.670564130E0,2.819070720E0,2.256608920E0,3.978721912E0
6.503337542E0,-3.070386388E0,5.721395266E-1,2.251471556E0,3.850161085E0
6.513283542E0,-4.404713106E0,-1.498254871E0,2.356365927E0,5.215239744E0
6.523229542E0,-5.455501905E0,-3.048594400E0,2.811016765E0,6.852608562E0
6.533175542E0,-5.572490072E0,-3.817760535E0,3.294927655E0,7.515616366E0
6.543121542E0,-3.928694496E0,-3.068370268E0,2.873910586E0,5.754033246E0
6.553067542E0,-1.886599452E0,-1.422899464E0,2.433169690E0,3.391786420E0
6.563013542E0,-8.655165553E-1,1.561218274E-1,2.527802782E0,2.676430428E0
6.572959542E0,-3.079383498E-1,1.462106214E0,2.357297389E0,2.790955318E0
6.582905542E0,2.495825529E-2,2.368079070E0,2.021995239E0,3.113982361E0
6.592851542E0,2.627118909E-1,2.901148671E0,1.657175760E0,3.351404579E0
6.602797542E0,5.071901169E-1,3.045745636E0,1.198439473E0,3.312108915E0
6.612743542E0,4.478373697E-1,2.558995923E0,7.896886202E-1,2.715258102E0
6.622689542E0,2.173094308E-1,1.659851446E0,5.490553039E-1,1.761758195E0
6.632635542E0,-3.265362963E-1,6.157398748E-1,5.116231835E-1,8.645922901E-1
6.642581542E0,-7.464488259E-1,-5.243034554E-1,4.630674662E-1,1.022991418E0
6.652527542E0,-8.054013312E-1,-1.293593552E0,5.141211140E-1,1.608221410E0
6.662474542E0,-5.341349638E-1,-1.523452277E0,6.677597751E-1,1.747028940E0
6.672420542E0,1.492776614E-1,-1.237884790E0,8.416417891E-1,1.504328247E0
6.682366542E0,8.408521226E-1,-7.905833173E-1,1.247467791E0,1.699479380E0
6.692312542E0,1.397864902E0,-3.860787857E-1,1.519491373E0,2.100461175E0
6.702258542E0,1.789830372E0,-8.518925428E-2,1.525312276E0,2.353152675E0
6.712204542E0,2.055617899E0,1.716689891E-1,1.416226037E0,2.502145354E0
6.722150542E0,2.201885998E0,3.881200486E-1,1.176726568E0,2.526583570E0
6.732096542E0,2.302870336E0,4.718457448E-1,9.526577564E-1,2.536416171E0
6.742042542E0,2.152724948E0,3.675109524E-1,1.068538899E0,2.431268060E0
6.751988542E0,1.655258458E0,1.452729034E-1,1.292694104E0,2.105241750E0
6.761934542E0,1.152647004E0,-1.084190726E-1,1.250226362E0,1.703941245E0
6.771880542E0,8.419639707E-1,-3.534326112E-1,9.796755472E-1,1.339246847E0
6.781826542E0,5.986081177E-1,-5.207027400E-1,8.456586801E-1,1.159569586E0
6.791772542E0,4.427763122E-1,-6.300988823E-1,5.804668388E-1,9.643740017E-1
6.801718542E0,2.024235892E-1,-7.537645698E-1,2.484534556E-1,8.190637678E-1
6.811664542E0,-1.732027137E-1,-8.117940921E-1,-4.560842827E-2,8.313176028E-1
6.821610542E0,-6.418295664E-1,-6.947585624E-1,-5.739372531E-1,1.106362790E0
6.831556542E0,-1.324870309E0,-3.466831702E-1,-1.944469346E0,2.378325376E0
6.841502542E0,-2.296676965E0,-7.013208926E-2,-3.775988027E0,4.420150356E0
6.851448542E0,-3.507219005E0,1.538998854E-1,-6.088470601E0,7.028068339E0
6.861394542E0,-4.403310066E0,1.744750679E-1,-8.654764434E0,9.712081574E0
6.871340542E0,-3.243472742E0,-3.292631453E-1,-8.165059538E0,8.791855715E0
6.881286542E0,-1.120224193E0,-9.711301339E-1,-5.404082075E0,5.603757584E0
6.891232542E0,3.646031320E-2,-9.016687202E-1,-3.323688354E0,3.444015115E0
6.901178542E0,1.028359757E0,-6.350064504E-1,-2.249447543E0,2.553580081E0
6.911124542E0,1.946572589E0,-7.136286968E-1,-1.424139658E0,2.515270269E0
6.921070542E0,2.474139376E0,-7.234280455E-1,-7.572787464E-1,2.686667990E0
6.931016542E0,2.702124653E0,-7.874398541E-1,-3.120811021E-1,2.831772197E0
6.940962542E0,2.915829275E0,-1.054873956E0,8.161835968E-3,3.100787971E0
6.950908542E0,3.209981645E0,-1.491506014E0,2.693785939E-1,3.549808048E0
6.960854542E0,3.380763611E0,-1.814748282E0,6.486243233E-1,3.891476254E0
6.970800542E0,3.428264637E0,-1.989536176E0,1.016728768E0,4.092064272E0
6.980746542E0,3.345818312E0,-2.105863023E0,1.323642686E0,4.169075342E0
6.990692542E0,3.163430791E0,-2.097145994E0,1.555165236E0,4.101689238E0
7.000638542E0,2.949164836E0,-1.880984371E0,1.694803762E0,3.886905611E0
7.010584542E0,2.606414503E0,-1.649196065E0,1.740540683E0,3.541571134E0
7.020530542E0,2.307770303E0,-1.544996343E0,1.558963880E0,3.184836864E0
7.030476542E0,1.990531957E0,-1.565872073E0,1.193258255E0,2.799649635E0
7.040422542E0,1.775428680E0,-1.740897948E0,7.959715265E-1,2.610831924E0
7.050368542E0,1.695921750E0,-2.062298343E0,3.522774938E-1,2.693199671E0
7.060314542E0,1.458023103E0,-2.363733419E0,-4.763758752E-1,2.817800742E0
7.070260542E0,1.018502521E0,-2.682865679E0,-1.200213811E0,3.110567284E0
7.080206542E0,3.945531553E-1,-2.909979721E0,-1.705799451E0,3.396086856E0
7.090152542E0,-1.341058910E-2,-3.199839649E0,-2.601181538E0,4.123748176E0
7.100098542E0,-1.665111601E-1,-3.953039963E0,-4.210725295E0,5.777928558E0
7.110044542E0,-4.724497622E-1,-4.939194517E0,-6.709358364E0,8.344719343E0
7.119990542E0,-1.523128926E0,-6.379081897E0,-1.187742226E1,1.356782101E1
7.129936542E0,-1.786619081E0,-7.297546159E0,-1.479219260E1,1.659081522E1
7.139882542E0,5.983566874E-1,-6.956894976E0,-1.176029668E1,1.367702440E1
7.149828542E0,2.471154957E0,-5.811981500E0,-7.548484097E0,9.842019505E0
7.159774542E0,2.851732682E0,-4.441558458E0,-4.883136091E0,7.190607687E0
7.169720542E0,2.997838814E0,-3.177196891E0,-2.776504160E0,5.175963001E0
7.179666542E0,3.163220876E0,-2.276405253E0,-1.021078804E0,4.028720531E0
7.189612542E0,3.255376503E0,-1.832457159E0,3.237024432E-1,3.749687813E0
7.199558542E0,2.877420085E0,-1.831382441E0,1.452252340E0,3.707093855E0
7.209504542E0,1.916054217E0,-2.134077008E0,2.229041491E0,3.632378615E0
7.219450542E0,6.870034003E-1,-2.311759858E0,3.025032459E0,3.868724427E0
7.229396542E0,-5.095801663E-1,-2.356249568E0,3.782107138E0,4.485077299E0
7.239342542E0,-1.824035414E0,-2.315645333E0,4.571719818E0,5.439663647E0
7.249288542E0,-2.981229798E0,-2.302768010E0,5.132216368E0,6.366326764E0
7.259235542E0,-4.004641056E0,-2.086187142E0,5.302292576E0,6.964454992E0
7.269181542E0,-4.610364358E0,-1.745137179E0,4.917810080E0,6.963175947E0
7.279126542E0,-4.671631191E0,-1.102417082E0,4.198075136E0,6.376777890E0
7.289073542E0,-4.539191172E0,-1.506698835E-1,3.604633033E0,5.798304685E0
7.299019542E0,-4.195694150E0,6.883938682E-1,2.802316693E0,5.092220966E0
7.308965542E0,-3.577585275E0,1.202414995E0,1.748777071E0,4.159704252E0
7.318911542E0,-3.016404016E0,1.088409492E0,6.916098368E-1,3.280495782E0
7.328857542E0,-2.915370269E0,8.254175198E-1,-2.092367649E-2,3.030038892E0
7.338803542E0,-2.968229683E0,8.614439696E-1,-1.715900882E-1,3.095467060E0
7.348749542E0,-2.944944901E0,1.057052044E0,-1.374797344E-2,3.128937280E0
7.358695542E0,-2.836728142E0,1.315015411E0,4.674755359E-1,3.161459388E0
7.368641542E0,-2.737530128E0,1.284408746E0,7.232888818E-1,3.109167708E0
7.378587542E0,-2.515247641E0,1.344954325E0,1.058913213E0,3.042477612E0
7.388533542E0,-2.264047748E0,1.462440675E0,1.762177720E0,3.220235279E0
7.398479542E0,-1.862670307E0,1.601657032E0,2.180950627E0,3.285025352E0
7.408425542E0,-1.336333190E0,1.800283440E0,2.425568894E0,3.303057874E0
7.418371542E0,-6.198852584E-1,1.994880531E0,2.470643910E0,3.235411473E0
7.428317542E0,6.460763991E-2,2.147313350E0,2.504660672E0,3.299765727E0
7.438263542E0,6.777776635E-1,2.477064738E0,2.616730746E0,3.666403152E0
7.448209542E0,1.046696333E0,2.771028242E0,2.490908021E0,3.870244630E0
7.458155542E0,1.194774146E0,2.964007409E0,2.385994939E0,3.988207244E0
7.468102167E0,1.277918044E0,3.165976669E0,2.075323015E0,3.995428440E0
7.478048167E0,1.151835410E0,3.380919147E0,1.643467548E0,3.931707603E0
7.487994167E0,6.290519384E-1,3.639184815E0,1.230757034E0,3.892831275E0
7.497940167E0,-1.737008965E-1,3.903395348E0,8.293282107E-1,3.994302508E0
7.507886167E0,-1.206219486E0,4.208303086E0,5.189334090E-1,4.408409259E0
7.517832167E0,-2.266538954E0,4.582557047E0,4.932267101E-1,5.136175669E0
7.527778167E0,-3.016536455E0,4.994061865E0,5.864453244E-1,5.863792648E0
7.537724167E0,-3.324482699E0,5.331236293E0,6.282037997E-1,6.314182896E0
7.547670167E0,-3.369882820E0,5.381686655E0,6.578655553E-1,6.383686126E0
7.557616167E0,-3.075699753E0,5.151719171E0,7.500317073E-1,6.046708770E0
7.567562167E0,-2.603519839E0,5.125356415E0,7.251577250E-1,5.794259889E0
7.577508167E0,-2.209091230E0,4.461034949E0,7.086427760E-1,5.028229456E0
7.587454167E0,-1.957118627E0,3.608040791E0,8.044727933E-1,4.182756046E0
7.597400167E0,-1.616825002E0,2.660743323E0,5.060882457E-1,3.154330901E0
7.607346167E0,-1.230469058E0,1.597979134E0,-1.926271459E-1,2.026005092E0
7.617292167E0,-8.385383794E-1,2.493784851E-1,-1.261740260E0,1.535358175E0
7.627238167E0,-3.993557659E-1,-1.257953603E0,-2.483049363E0,2.812021770E0
7.637184167E0,3.286518189E-1,-2.690244865E0,-3.455849462E0,4.391847556E0
7.647130167E0,1.415907363E0,-3.951576989E0,-3.808614321E0,5.667918261E0
7.657076167E0,2.713178522E0,-4.987676121E0,-3.715925428E0,6.785746279E0
7.667022167E0,3.964955711E0,-5.695724235E0,-3.484596713E0,7.765601239E0
7.676968167E0,4.971968161E0,-6.102858260E0,-3.197790785E0,8.496541192E0
7.686914167E0,5.604774889E0,-6.143179489E0,-2.610989950E0,8.716044075E0
7.696860167E0,5.870982245E0,-5.821183264E0,-1.753516824E0,8.451593244E0
7.706806167E0,5.560944160E0,-5.032708452E0,-1.123992723E0,7.583904928E0
7.716752167E0,4.476221630E0,-3.789901477E0,-6.507670355E-1,5.901136417E0
7.726698167E0,3.137386708E0,-2.111433080E0,-5.460855031E-1,3.820936323E0
7.736644167E0,1.854012920E0,-3.041820985E-1,-6.564797652E-1,1.990190025E0
7.746590167E0,5.335639831E-1,9.931361300E-1,-4.642630299E-2,1.128346267E0
7.756536167E0,-4.767737782E-1,1.904160395E0,8.659463257E-1,2.145461043E0
7.766482167E0,-1.253838333E0,2.529620681E0,1.551442899E0,3.221500648E0
7.776428167E0,-2.077115772E0,2.816895556E0,2.056815993E0,4.059532305E0
7.786374167E0,-3.050830667E0,3.010783964E0,2.127598878E0,4.785296733E0
7.796320167E0,-4.036184738E0,3.229801952E0,1.469614039E0,5.374213739E0
7.806266167E0,-5.357999584E0,3.126894464E0,-1.659399054E-1,6.205897565E0
7.816212167E0,-8.022551199E0,2.065819536E0,-4.534544975E0,9.444100604E0
7.826158167E0,-8.588105591E0,-2.079237726E0,-6.908300521E0,1.121621163E1
7.836104167E0,-7.084513382E0,-7.438814889E0,-5.390806557E0,1.160116771E1
7.846050167E0,-4.857975230E0,-9.718847755E0,-2.949506314E0,1.125857507E1
7.855996167E0,-3.088632332E0,-9.787493482E0,-3.280609578E-1,1.026851023E1
7.865942167E0,-1.177440367E0,-7.842562791E0,2.631582674E0,8.355679764E0
7.875888167E0,5.812658608E-1,-4.557929744E0,3.802004628E0,5.963877325E0
7.885834167E0,1.188108905E0,-9.595620024E-1,3.142287844E0,3.493756560E0
7.895780167E0,1.626393678E0,2.558190762E0,1.345100505E0,3.316442633E0
7.905726167E0,2.402350770E0,5.405692983E0,-5.830247033E-1,5.944133550E0
7.915672167E0,3.302409167E0,6.927063652E0,-1.262881052E0,7.777209377E0
7.925618167E0,3.489558952E0,7.187087578E0,-3.544646813E-1,7.997305467E0
7.935564167E0,3.068310626E0,7.067319059E0,9.787110490E-1,7.766556773E0
7.945510167E0,2.302300817E0,7.032799437E0,1.831835600E0,7.623416468E0
7.955456167E0,1.328972715E0,6.699471892E0,2.288055831E0,7.203075148E0
7.965402167E0,3.073653227E-1,5.426072869E0,2.334010853E0,5.914756705E0
7.975348167E0,-9.803011993E-1,3.543116232E0,2.508126317E0,4.450321414E0
7.985294167E0,-2.705746418E0,1.313736041E0,2.955741785E0,4.217033977E0
7.995240167E0,-4.547857330E0,-1.201851908E0,3.302375253E0,5.747446096E0
8.005186167E0,-6.013813936E0,-3.441196339E0,3.350736989E0,7.696442599E0
8.015132167E0,-6.341162703E0,-4.669147294E0,3.483876336E0,8.610962502E0
8.025078167E0,-5.122037535E0,-4.450020549E0,3.835771714E0,7.794298945E0
8.035024167E0,-3.195784898E0,-3.210930063E0,3.514645554E0,5.733746275E0
8.044970167E0,-1.967550060E0,-1.271954761E0,2.830673350E0,3.674484150E0
8.054916167E0,-1.243973495E0,4.552086622E-1,2.437459792E0,2.774147657E0
8.064862167E0,-4.336596259E-1,1.825921726E0,2.042178658E0,2.773543671E0
8.074808167E0,8.910250336E-2,2.783682202E0,1.487949738E0,3.157660570E0
8.084754167E0,4.448041266E-1,3.343180048E0,9.384540655E-1,3.500771283E0
8.094700167E0,4.666689125E-1,3.395835979E0,5.152695072E-1,3.466263772E0
8.104646167E0,3.639330411E-1,2.927456464E0,-4.228421308E-2,2.950294317E0
8.114592167E0,2.504435554E-1,2.284146967E0,-4.729643172E-1,2.346006093E0
8.124538167E0,-6.292773485E-3,1.424374132E0,-5.748714919E-1,1.536020344E0
8.134484167E0,-3.184574908E-1,2.789753366E-1,-4.489885403E-1,6.171167808E-1
8.144430167E0,-6.662989944E-1,-7.166154546E-1,-2.041618203E-1,9.995869690E-1
8.154376167E0,-7.289296907E-1,-1.380534632E0,-2.276905775E-2,1.561324052E0
8.164322167E0,-5.802057606E-1,-1.726002751E0,3.212812574E-1,1.849039174E0
8.174268167E0,-2.092683399E-1,-1.682259731E0,7.003736436E-1,1.834206717E0
8.184214167E0,3.434496599E-1,-1.296490263E0,7.482867520E-1,1.535831284E0
8.194160167E0,7.897799098E-1,-8.974739277E-1,5.985763966E-1,1.336976237E0
8.204106167E0,1.179084020E0,-4.909275484E-1,3.651673883E-1,1.328381046E0
8.214052167E0,1.485928648E0,-1.892129749E-1,1.384677677E-1,1.504313405E0
8.223998167E0,1.678419864E0,1.969926953E-2,-1.084471393E-1,1.682035102E0
8.233944167E0,1.756841843E0,1.180728257E-1,-3.220558673E-1,1.790015206E0
8.243890167E0,1.769470660E0,8.813917458E-2,-4.238852741E-1,1.821667823E0
8.253836167E0,1.679685202E0,8.930744827E-2,-3.742469448E-1,1.723188606E0
8.263782167E0,1.491451051E0,4.387341321E-2,-1.467626278E-1,1.499296629E0
8.273728167E0,1.166342352E0,-7.517706692E-2,1.319231254E-1,1.176184418E0
8.283674167E0,8.468832332E-1,-2.259668183E-1,3.440804283E-1,9.416281404E-1
8.293620167E0,7.013150454E-1,-3.151777875E-1,5.699582228E-1,9.570957143E-1
8.303566167E0,5.570665741E-1,-3.625367260E-1,6.977634466E-1,9.636544365E-1
8.313512167E0,2.587936717E-1,-3.456230700E-1,6.927202231E-1,8.162663649E-1
8.323458167E0,-1.816437542E-2,-2.794928151E-1,5.536035606E-1,6.204216958E-1
8.333404167E0,-2.469863892E-1,-1.375370371E-1,3.362134382E-1,4.392700639E-1
8.343350167E0,-4.852721214E-1,1.248778152E-1,1.184432468E-1,5.148905741E-1
8.353296167E0,-7.103390533E-1,4.461004543E-1,-1.760506001E-1,8.570770092E-1
8.363242167E0,-8.562563199E-1,6.638034028E-1,-5.636835757E-1,1.221289899E0
8.373188167E0,-8.353168559E-1,8.162666273E-1,-1.037705362E0,1.562330911E0
8.383134167E0,-7.153758448E-1,9.357328445E-1,-1.481012309E0,1.892288565E0
8.393080167E0,-6.321126634E-1,1.018961527E0,-1.851781622E0,2.206115181E0
8.403026167E0,-4.470593977E-1,1.111072716E0,-2.125583342E0,2.439764175E0
8.412972167E0,-1.446607000E-1,9.711190242E-1,-2.303536919E0,2.504052957E0
8.422918167E0,3.919096291E-1,8.806134814E-1,-2.434901050E0,2.618743284E0
8.432864167E0,1.089540929E0,7.667377871E-1,-2.424355597E0,2.766312768E0
8.442810167E0,1.687866626E0,4.389966720E-1,-2.241126662E0,2.839764170E0
8.452756167E0,2.038389663E0,-1.097422975E-1,-1.927056045E0,2.807244341E0
8.462702083E0,2.174129266E0,-9.253476048E-1,-1.544843731E0,2.823056572E0
8.472648084E0,2.238857943E0,-1.780681819E0,-1.101287108E0,3.065313348E0
8.482594084E0,2.397786434E0,-2.351991041E0,-6.623696655E-1,3.423444933E0
8.492540083E0,2.555117465E0,-2.647251458E0,-2.317883062E-1,3.686501236E0
8.502486084E0,2.627324147E0,-2.745434979E0,1.507991070E-1,3.803023240E0
8.512432083E0,2.617799617E0,-2.608826480E0,4.605705589E-1,3.724375878E0
8.522378083E0,2.610688818E0,-2.363632262E0,4.946808761E-1,3.556284964E0
8.532324084E0,2.574178219E0,-2.195278645E0,8.381457388E-2,3.384178883E0
8.542270083E0,2.593544197E0,-2.174863676E0,-4.523213071E-1,3.414835000E0
8.552216083E0,2.615253155E0,-2.318148526E0,-9.370876443E-1,3.618217089E0
8.562162084E0,2.772092435E0,-2.569639610E0,-1.280307801E0,3.990831024E0
8.572108083E0,3.024027323E0,-2.838531423E0,-1.563452495E0,4.432424347E0
8.582054084E0,3.229362826E0,-3.052650028E0,-1.841089988E0,4.810100706E0
8.592000084E0,3.282834443E0,-3.482653098E0,-2.158984977E0,5.250437193E0
8.601946083E0,3.088478258E0,-4.165220801E0,-2.464783831E0,5.741334479E0
8.611892084E0,2.753119975E0,-4.948513809E0,-2.946089786E0,6.383330130E0
8.621838083E0,2.201188425E0,-5.804733292E0,-3.738369965E0,7.246762661E0
8.631784083E0,1.240425990E0,-6.690778837E0,-5.332288792E0,8.645142095E0
8.641730084E0,-3.890404004E-1,-7.505378423E0,-8.053294104E0,1.101533493E1
8.651676083E0,-2.018956441E0,-7.973286653E0,-1.067406411E1,1.347535267E1
8.661622083E0,-2.033169853E0,-7.869564648E0,-1.014551323E1,1.299981793E1
8.671568084E0,-6.992679352E-1,-6.841020704E0,-7.007875096E0,9.818291770E0
8.681514083E0,-1.350788677E-1,-4.870728300E0,-3.781192049E0,6.167629511E0
8.691460084E0,-3.077898306E-1,-3.022453837E0,-1.353326661E0,3.325876551E0
8.701406084E0,-3.360704738E-1,-1.801373945E0,4.417223516E-1,1.884942994E0
8.711352083E0,-2.867100334E-1,-1.147613136E0,1.558288234E0,1.956394841E0
8.721298084E0,-1.967699164E-1,-9.035585403E-1,1.981320253E0,2.186496371E0
8.731244083E0,-1.449951607E-1,-8.863262111E-1,2.019980727E0,2.210637892E0
8.741190083E0,-3.647434652E-1,-7.958171600E-1,1.928036916E0,2.117472336E0
8.751136084E0,-8.570731759E-1,-7.013863814E-1,1.900308834E0,2.199475153E0
8.761082083E0,-1.498341410E0,-6.722122836E-1,1.948943489E0,2.548583343E0
8.771028083E0,-2.091963022E0,-9.102787453E-1,1.903210223E0,2.971047935E0
8.780974084E0,-2.658467294E0,-1.183704489E0,1.706516905E0,3.373544815E0
8.790920083E0,-3.059650023E0,-1.311397739E0,1.416115524E0,3.617541357E0
8.800866084E0,-3.134261371E0,-1.220969380E0,1.154976534E0,3.556449264E0
8.810812084E0,-3.070827852E0,-1.066223402E0,1.139931648E0,3.444743852E0
8.820758083E0,-3.024847103E0,-8.753030401E-1,1.434861113E0,3.460445321E0
8.830704084E0,-2.908728417E0,-6.785758084E-1,1.622138659E0,3.398896874E0
8.840650083E0,-2.855809653E0,-4.633205044E-1,1.737404237E0,3.374742679E0
8.850596083E0,-2.786396187E0,-2.369490588E-1,1.803018183E0,3.327314703E0
8.860542084E0,-2.688071455E0,7.463503003E-2,1.966506332E0,3.331432978E0
8.870488083E0,-2.584167310E0,4.434598517E-1,2.102067010E0,3.360545051E0
8.880434083E0,-2.401666354E0,7.235198468E-1,1.784119982E0,3.078078354E0
8.890380084E0,-2.147796915E0,9.319707459E-1,1.476810207E0,2.768134651E0
8.900326083E0,-1.952968858E0,1.152718924E0,1.301143477E0,2.614540615E0
8.910272084E0,-1.856329879E0,1.506184280E0,1.282573889E0,2.712848593E0
8.920218084E0,-1.822880589E0,1.914287773E0,1.465383579E0,3.022373298E0
8.930164083E0,-1.722486528E0,2.339210781E0,1.817105294E0,3.426476115E0
8.940110084E0,-1.447912098E0,2.736229708E0,2.169411732E0,3.780178530E0
8.950056084E0,-1.053264803E0,3.086327652E0,2.357776276E0,4.024163775E0
8.960002083E0,-6.462018219E-1,3.405145331E0,2.473728901E0,4.258159954E0
8.969948084E0,-4.657929996E-1,3.650199800E0,2.607261765E0,4.509848735E0
8.979894083E0,-4.823499754E-1,3.917735644E0,2.669449242E0,4.765214930E0
8.989840083E0,-4.271624923E-1,4.165761083E0,2.593236634E0,4.925536462E0
8.999786084E0,-4.055909443E-1,4.415934790E0,2.401374285E0,5.042973581E0
9.009732083E0,-5.221990424E-1,4.614278777E0,2.277112767E0,5.171992171E0
9.019678084E0,-6.707987192E-1,4.746741600E0,2.241068044E0,5.291872326E0
9.029624084E0,-8.482739934E-1,4.865908440E0,2.037071700E0,5.342873274E0
9.039570083E0,-1.221661105E0,4.903749281E0,1.665166711E0,5.320901525E0
9.049516084E0,-1.676256979E0,4.950881347E0,1.334152325E0,5.394536681E0
9.059462084E0,-2.042806649E0,4.964002499E0,9.125129664E-1,5.444911361E0
9.069408083E0,-2.289179373E0,4.747626284E0,4.928770832E-1,5.293696757E0
9.079354084E0,-2.166027656E0,4.844102418E0,-1.231447371E-1,5.307746101E0
9.089300083E0,-1.909045159E0,4.774069147E0,-9.373415597E-1,5.226356172E0
9.099246083E0,-1.763693318E0,4.092382035E0,-1.476934168E0,4.694628780E0
9.109192084E0,-1.293104140E0,3.239140540E0,-2.091194698E0,4.066601163E0
9.119138083E0,-7.065252069E-1,2.030946157E0,-2.745184718E0,3.487113319E0
9.129084083E0,-3.079140839E-1,3.935275537E-1,-3.104572134E0,3.144525903E0
9.139030084E0,3.475848109E-1,-1.536862282E0,-3.307390995E0,3.663549654E0
9.148976083E0,1.251998214E0,-3.530124888E0,-3.574067298E0,5.177184399E0
9.158922084E0,2.515187414E0,-5.076861362E0,-3.131020260E0,6.473328115E0
9.168868084E0,3.798681948E0,-5.716906943E0,-1.953182867E0,7.136380935E0
9.178814083E0,4.710896414E0,-5.860664248E0,-7.658495220E-1,7.558204545E0
9.188760084E0,5.499299304E0,-5.828802770E0,-1.229622674E-1,8.014508987E0
9.198706083E0,6.113508378E0,-5.685516751E0,-5.067204393E-2,8.348811477E0
9.208652083E0,6.231995187E0,-5.284904711E0,-5.295541819E-1,8.188309315E0
9.218598084E0,5.451258581E0,-4.388416039E0,-1.201587468E0,7.100579405E0
9.228544083E0,4.011354537E0,-2.715114242E0,-1.754251235E0,5.151718933E0
9.238490083E0,2.575404672E0,-4.725860023E-1,-1.856763450E0,3.209924807E0
9.248436084E0,1.246566151E0,1.121583086E0,-1.123321390E0,2.018347525E0
9.258382083E0,-1.702767670E-1,2.085336372E0,7.342969961E-3,2.092289627E0
9.268328084E0,-1.143224508E0,2.635708469E0,9.088455927E-1,3.013290846E0
9.278274084E0,-1.927966164E0,2.926278250E0,1.563005183E0,3.837074814E0
9.288220083E0,-3.012604787E0,3.086689010E0,1.963233061E0,4.738957765E0
9.298166084E0,-4.249988178E0,3.103902628E0,1.895893017E0,5.593837803E0
9.308112083E0,-5.714592615E0,3.083480058E0,5.448446874E-1,6.516231561E0
9.318058083E0,-8.448240193E0,2.416033840E0,-4.195557325E0,9.737180451E0
9.328004084E0,-1.008018580E1,-5.609309989E-1,-7.575880641E0,1.262215342E1
9.337950083E0,-7.841257108E0,-5.946166329E0,-4.495324191E0,1.081897161E1
9.347896083E0,-4.853651799E0,-9.628791279E0,-9.264913201E-1,1.082265880E1
9.357842084E0,-2.738874111E0,-1.030332958E1,1.213687842E0,1.073000793E1
9.367788083E0,-1.226326306E0,-8.490203905E0,3.047709131E0,9.103623977E0
9.377734084E0,2.823418710E-1,-4.910564795E0,3.139181803E0,5.835051494E0
9.387680084E0,1.239920790E0,-1.125604801E0,1.822447311E0,2.475015946E0
9.397626083E0,1.914265553E0,2.401149167E0,4.056482470E-1,3.097495833E0
9.407572084E0,2.736115395E0,4.863995816E0,-6.026140451E-2,5.581076436E0
9.417518083E0,2.999967200E0,5.883772445E0,3.951840699E-1,6.616249076E0
9.427464083E0,2.606155472E0,6.041961848E0,1.134760956E0,6.677202388E0
9.437410084E0,1.855546060E0,6.112643575E0,1.714644535E0,6.614186914E0
9.447356083E0,1.137280813E0,5.820587432E0,2.386504816E0,6.392812444E0
9.457302083E0,2.898961812E-1,4.855227331E0,2.858488555E0,5.641651270E0
9.467247667E0,-1.018653964E0,3.345050572E0,3.258988913E0,4.779961084E0
9.477193667E0,-2.560289035E0,1.657860469E0,3.668794531E0,4.771125086E0
9.487139667E0,-4.000368496E0,-6.463804543E-2,3.789293951E0,5.510524006E0
9.497085667E0,-4.838225382E0,-1.655180106E0,3.642160463E0,6.278007556E0
9.507031667E0,-4.791635352E0,-2.563139845E0,3.516799668E0,6.472815085E0
9.516976667E0,-3.897585554E0,-2.326585473E0,3.076398495E0,5.483466132E0
9.526923667E0,-2.634664741E0,-1.268207281E0,2.420256699E0,3.795714754E0
9.536868667E0,-2.012298802E0,3.894128680E-2,2.138215082E0,2.936464988E0
9.546814667E0,-1.454800703E0,1.182341504E0,1.982556354E0,2.728535544E0
9.556760667E0,-6.879085493E-1,1.948553041E0,1.675124373E0,2.660097516E0
9.566706667E0,-1.872740382E-1,2.363636355E0,1.362222907E0,2.734501716E0
9.576652667E0,2.412368220E-1,2.569567105E0,1.038342708E0,2.781910475E0
9.586598667E0,4.859872359E-1,2.441453440E0,7.286249777E-1,2.593795068E0
9.596544667E0,6.548910767E-1,2.060288070E0,5.479624593E-1,2.230231403E0
9.606490667E0,6.539964527E-1,1.575933377E0,6.077993560E-1,1.811269562E0
9.616436667E0,3.360924008E-1,9.804728150E-1,8.616865560E-1,1.347883068E0
9.626382667E0,6.123905897E-2,3.036231047E-1,1.191820936E0,1.231411530E0
9.636328667E0,-1.118578202E-1,-3.153204596E-1,1.545452280E0,1.581253273E0
9.646274667E0,-1.877570182E-1,-7.149443203E-1,1.849896918E0,1.992113623E0
9.656220667E0,-6.289791405E-2,-8.438409269E-1,1.976496885E0,2.150014789E0
9.666166667E0,2.867302063E-1,-8.309665275E-1,1.748177147E0,1.956742936E0
9.676112667E0,7.512391573E-1,-6.281587762E-1,1.247172361E0,1.585680490E0
9.686058667E0,1.222289096E0,-3.493272811E-1,6.829254059E-1,1.443054848E0
9.696004667E0,1.626012440E0,-3.030611873E-3,2.640732689E-1,1.647319134E0
9.705950667E0,2.104602363E0,3.666449797E-1,4.798108220E-2,2.136839215E0
9.715896667E0,2.349784302E0,5.454890871E-1,-9.185741901E-2,2.414017894E0
9.725842667E0,2.189225607E0,4.249592614E-1,-2.317269105E-1,2.242096450E0
9.735788667E0,1.633741874E0,6.406852663E-2,-3.838849103E-1,1.679459708E0
9.745734667E0,1.120008430E0,-4.333716506E-1,-6.115684712E-1,1.347681664E0
9.755680667E0,6.948649818E-1,-8.529432875E-1,-9.424999733E-1,1.448673805E0
9.765626667E0,3.120384175E-1,-1.053052549E0,-1.361941217E0,1.749620394E0
9.775572667E0,-1.727051157E-1,-1.068691512E0,-1.827972491E0,2.124479238E0
9.785518667E0,-7.845846587E-1,-9.344102043E-1,-2.231078515E0,2.542913065E0
9.795464667E0,-1.382824402E0,-7.267650515E-1,-2.510967479E0,2.957253531E0
9.805410667E0,-1.749472890E0,-5.457235605E-1,-2.556772227E0,3.145719921E0
9.815356667E0,-1.741823562E0,-3.538541955E-1,-2.319399245E0,2.922118234E0
9.825302667E0,-1.368805118E0,-2.649630690E-1,-1.853591335E0,2.319403742E0
9.835248667E0,-8.088272148E-1,-1.724928617E-1,-1.460086001E0,1.678036466E0
9.845194667E0,-1.897018021E-1,-8.251941562E-2,-1.239937455E0,1.257076417E0
9.855140667E0,4.147739965E-1,-3.382029533E-2,-1.320733696E0,1.384745022E0
9.865086667E0,9.277028632E-1,-1.071736157E-1,-1.446528939E0,1.721791148E0
9.875032667E0,1.330441536E0,-3.553598535E-1,-1.554953567E0,2.077073879E0
9.884978667E0,1.737873768E0,-6.537689960E-1,-1.650391236E0,2.484232349E0
9.894924667E0,2.221429732E0,-8.539969558E-1,-1.650728328E0,2.896370982E0
9.904870667E0,2.695078758E0,-9.437289119E-1,-1.623318043E0,3.284697130E0
9.914816667E0,3.068502415E0,-1.148299599E0,-1.578835350E0,3.636897043E0
9.924762667E0,3.310360796E0,-1.431779630E0,-1.444124272E0,3.885096707E0
9.934708667E0,3.410704864E0,-1.628838984E0,-1.191714590E0,3.963105823E0
9.944654667E0,3.420470883E0,-1.792116049E0,-8.123948935E-1,3.946046941E0
9.954600667E0,3.495974225E0,-1.909969019E0,-4.595268309E-1,4.010110016E0
9.964546667E0,3.526330045E0,-2.045261895E0,-1.524793044E-1,4.079381049E0
9.974492667E0,3.474965764E0,-2.240671749E0,9.198810428E-2,4.135753711E0
9.984438667E0,3.397078512E0,-2.317256826E0,2.312395450E-1,4.118651884E0
9.994384667E0,3.199230369E0,-2.252599484E0,7.681925744E-2,3.913461459E0
1.000433067E1,2.644952917E0,-2.216375399E0,-1.477205479E-1,3.453971222E0
1.001427667E1,2.004734259E0,-2.251366891E0,-3.522543973E-1,3.035077509E0
1.002422267E1,1.526784021E0,-2.372014246E0,-6.577117735E-1,2.896567936E0
1.003416867E1,1.165188696E0,-2.525200771E0,-1.143442024E0,3.006952493E0
1.004411467E1,8.069052351E-1,-2.675231554E0,-1.897129703E0,3.377434091E0
1.005406067E1,4.797815859E-1,-3.008017647E0,-2.792606222E0,4.132433913E0
1.006400667E1,2.075486737E-1,-3.652085527E0,-3.914767305E0,5.357817485E0
1.007395267E1,7.538288891E-2,-4.510438074E0,-5.213530673E0,6.894246607E0
1.008389867E1,1.094768339E-1,-5.437682515E0,-6.435939052E0,8.426249925E0
1.009384467E1,3.695627403E-1,-6.390223181E0,-7.052259555E0,9.523964183E0
1.010379067E1,8.736471087E-1,-7.012389146E0,-6.770575204E0,9.786600503E0
1.011373667E1,1.229029182E0,-6.838384779E0,-5.879636709E0,9.101876013E0
1.012368267E1,1.307000633E0,-5.880800305E0,-4.643896093E0,7.606433712E0
1.013362867E1,1.269167393E0,-4.287196058E0,-2.987010355E0,5.377087202E0
1.014357467E1,1.175242399E0,-2.745295231E0,-1.196761907E0,3.217153969E0
1.015352067E1,1.097329420E0,-1.588066349E0,3.671178733E-1,1.964907661E0
1.016346567E1,9.136946887E-1,-8.635173923E-1,1.808871392E0,2.202842705E0
1.017341167E1,5.028663933E-1,-6.596781921E-1,3.029910792E0,3.141402447E0
1.018335767E1,-1.367973644E-1,-8.412985575E-1,3.874284984E0,3.966935962E0
1.019330367E1,-8.144153988E-1,-1.126706416E0,4.189616554E0,4.414252673E0
1.020324967E1,-1.571336880E0,-1.392643046E0,4.074153340E0,4.583369905E0
1.021319567E1,-2.478720962E0,-1.572802777E0,3.964254338E0,4.932857046E0
1.022314167E1,-3.282732994E0,-1.637344928E0,3.651824741E0,5.176201143E0
1.023308767E1,-3.852823949E0,-1.487934535E0,3.072138798E0,5.147449695E0
1.024303367E1,-4.380542178E0,-1.139829322E0,2.354520546E0,5.102168917E0
1.025297967E1,-4.666303793E0,-7.876918691E-1,1.580091916E0,4.989142214E0
1.026292567E1,-4.418268414E0,-6.708609921E-1,8.826255083E-1,4.555236331E0
1.027287167E1,-4.137178431E0,-5.433729798E-1,4.771818773E-1,4.199905012E0
1.028281767E1,-3.713670741E0,-1.150778818E-1,4.504121912E-1,3.742654731E0
1.029276367E1,-3.085015244E0,3.033827841E-1,4.016324158E-1,3.125806899E0
1.030270967E1,-2.671199606E0,8.079904783E-1,2.962035728E-1,2.806402057E0
1.031265567E1,-2.427147350E0,1.458285643E0,4.895955892E-1,2.873559660E0
1.032260167E1,-2.259235197E0,1.973426512E0,8.091833834E-1,3.106981432E0
1.033254767E1,-2.203043162E0,2.319226753E0,1.224867791E0,3.425275611E0
1.034249367E1,-2.059632597E0,2.543075709E0,1.492852628E0,3.596933342E0
1.035243967E1,-1.880580913E0,2.773746028E0,1.717273443E0,3.765538431E0
1.036238567E1,-1.720364866E0,2.981091219E0,1.935689167E0,3.948854603E0
1.037233167E1,-1.532578319E0,3.250255512E0,2.213207377E0,4.220336964E0
1.038227767E1,-1.377026595E0,3.473978754E0,2.541571805E0,4.519327148E0
1.039222367E1,-1.127358381E0,3.628983763E0,2.813143398E0,4.728026633E0
1.040216967E1,-6.904895103E-1,3.765793406E0,2.981972394E0,4.852848143E0
1.041211567E1,-3.254457906E-1,3.853997485E0,3.115124019E0,4.966206725E0
1.042206167E1,-7.867311716E-2,3.870187256E0,3.102525609E0,4.960867263E0
1.043200767E1,1.473360935E-1,3.856216503E0,2.711845064E0,4.716589583E0
1.044195367E1,2.542819601E-1,3.839253731E0,2.233369746E0,4.448872773E0
1.045189967E1,9.679860860E-2,3.910744128E0,1.603970776E0,4.228003294E0
1.046184567E1,-1.881411803E-1,4.104184055E0,7.820813926E-1,4.182269141E0
1.047179221E1,-7.510318735E-1,4.348348578E0,1.701913246E-1,4.416010566E0
1.048173821E1,-1.484827032E0,4.547116488E0,-2.280761283E-2,4.783461075E0
1.049168421E1,-2.034164464E0,4.709353334E0,-1.861133659E-1,5.133271089E0
1.050163021E1,-2.361860264E0,4.741489046E0,-2.022294617E-1,5.301037543E0
1.051157621E1,-2.547557015E0,4.508696188E0,-3.711134219E-1,5.191927700E0
1.052152221E1,-2.755017396E0,4.057308097E0,-6.675929832E-1,4.949499999E0
1.053146821E1,-2.776815524E0,3.462947981E0,-1.123129674E0,4.578660660E0
1.054141421E1,-2.759224760E0,2.403356491E0,-1.445920537E0,3.934479622E0
1.055136021E1,-2.422814271E0,9.759634423E-1,-2.394378676E0,3.543385793E0
1.056130621E1,-1.667823248E0,-7.312943047E-1,-3.418241340E0,3.873086573E0
1.057125221E1,-5.631047013E-1,-2.484560283E0,-3.939028280E0,4.691062832E0
1.058119821E1,1.150011663E0,-3.875655572E0,-3.075786291E0,5.079733679E0
1.059114421E1,2.915528144E0,-4.672577856E0,-1.882456115E0,5.820389093E0
1.060109021E1,4.284028329E0,-5.000768037E0,-1.439030178E0,6.740280968E0
1.061103521E1,5.082505680E0,-5.153580925E0,-1.252437340E0,7.345737514E0
1.062098121E1,5.355953643E0,-5.109894038E0,-1.275114012E0,7.511535945E0
1.063092821E1,5.524360471E0,-4.864720286E0,-1.414400536E0,7.495638128E0
1.064087321E1,5.677773868E0,-4.305346985E0,-1.588280357E0,7.300394732E0
1.065081921E1,5.337586370E0,-3.360073823E0,-1.763467616E0,6.549026064E0
1.066076521E1,4.251395603E0,-1.846875224E0,-1.727041801E0,4.946512514E0
1.067071121E1,2.823772759E0,-2.224491334E-1,-1.292870836E0,3.113629909E0
1.068065721E1,1.463204614E0,8.886434627E-1,-4.806516516E-1,1.778111626E0
1.069060321E1,3.489425343E-1,1.635854473E0,2.845991886E-1,1.696696039E0
1.070054921E1,-5.227261689E-1,2.297499669E0,1.140508769E0,2.617729479E0
1.071049521E1,-1.261163140E0,2.709481620E0,2.029790747E0,3.612737686E0
1.072044121E1,-1.833461418E0,2.742959268E0,2.578555444E0,4.187404268E0
1.073038721E1,-2.625547470E0,2.534658642E0,2.893351994E0,4.657196551E0
1.074033321E1,-3.642572400E0,2.370662954E0,2.751719567E0,5.143961227E0
1.075027921E1,-4.974004161E0,2.252639830E0,1.417540491E0,5.641322952E0
1.076022521E1,-7.911405569E0,1.376657344E0,-3.063785466E0,8.594899936E0
1.077017121E1,-9.411833850E0,-1.983593066E0,-6.441375793E0,1.157620750E1
1.078011721E1,-7.789691098E0,-6.662699338E0,-4.687286527E0,1.127126900E1
1.079006321E1,-5.404519447E0,-8.678478402E0,-3.015677499E0,1.065922739E1
1.080000921E1,-2.928955690E0,-8.969881995E0,-1.584504225E0,9.568083302E0
1.080995521E1,-7.138877285E-1,-6.961966267E0,5.416211540E-1,7.019399081E0
1.081990121E1,4.076778156E-1,-3.690953139E0,1.356244129E0,3.953319417E0
1.082984721E1,9.224807149E-1,-3.917441529E-1,7.138649243E-1,1.230462222E0
1.083979321E1,1.589656792E0,2.713716173E0,-1.476129591E-1,3.148500241E0
1.084973921E1,2.255909008E0,4.850997455E0,-2.935968840E-1,5.357938120E0
1.085968521E1,2.627737545E0,5.755895593E0,4.372945476E-1,6.342441580E0
1.086963121E1,2.360479444E0,5.975757918E0,1.361138248E0,6.567666498E0
1.087957721E1,1.829342932E0,5.917860543E0,2.013094608E0,6.513072920E0
1.088952321E1,1.346518163E0,5.667659939E0,2.532848929E0,6.352228274E0
1.089946921E1,9.649274075E-1,4.815586132E0,2.831565635E0,5.669102102E0
1.090941521E1,1.972730693E-1,3.201183924E0,2.882888986E0,4.312486995E0
1.091936121E1,-1.230564660E0,1.351469293E0,3.195795715E0,3.681557942E0
1.092930721E1,-2.999772780E0,-7.632639563E-1,3.423641828E0,4.615466604E0
1.093925321E1,-4.525531784E0,-2.811941210E0,3.569035184E0,6.412913803E0
1.094919921E1,-5.177284952E0,-4.361687831E0,3.513421732E0,7.627105118E0
1.095914521E1,-4.403823452E0,-4.580292420E0,3.040646279E0,7.044023669E0
1.096909121E1,-2.482977442E0,-3.082376103E0,2.253609298E0,4.554665113E0
1.097903721E1,-9.336430496E-1,-1.173172485E0,2.149931148E0,2.621111780E0
1.098898321E1,2.867182195E-2,4.117006999E-1,2.152891009E0,2.192090152E0
1.099892921E1,7.259403017E-1,1.515903522E0,1.880273935E0,2.521979952E0
1.100887421E1,9.384026831E-1,2.383885848E0,1.669532681E0,3.057916072E0
1.101882021E1,1.169898629E0,3.061591591E0,1.466419705E0,3.590597808E0
1.102876621E1,1.384681770E0,3.443325895E0,1.237162074E0,3.912084715E0
1.103871221E1,1.422296616E0,3.395146008E0,1.160498645E0,3.859624487E0
1.104865821E1,1.029272507E0,2.787744847E0,1.346551200E0,3.262533273E0
1.105860421E1,2.355454347E-1,1.810432452E0,1.576101192E0,2.411895993E0
1.106855021E1,-6.239484885E-1,6.796230447E-1,1.688861822E0,1.924435879E0
1.107849621E1,-1.297401259E0,-2.831175041E-1,1.771300107E0,2.213799814E0
1.108844221E1,-1.782521937E0,-9.135397375E-1,1.893357664E0,2.756218887E0
1.109838821E1,-1.860211261E0,-9.938962680E-1,1.993576602E0,2.902165294E0
1.110833421E1,-1.285044630E0,-5.151724434E-1,1.901843728E0,2.352392806E0
1.111828021E1,-5.093921784E-1,2.371683294E-1,1.646561894E0,1.739797482E0
1.112822621E1,-2.970560968E-2,8.856157744E-1,1.223388957E0,1.510588714E0
1.113817221E1,2.169381326E-1,1.341019734E0,6.064907491E-1,1.487691873E0
1.114811821E1,2.600899994E-1,1.483536844E0,-1.139107776E-1,1.510464843E0
1.115806421E1,2.440458244E-1,1.482780799E0,-7.054535584E-1,1.660078910E0
1.116801021E1,2.153088060E-1,1.056756175E0,-1.163216577E0,1.586242195E0
1.117795621E1,2.137747890E-1,2.158289158E-1,-1.394889693E0,1.427585036E0
1.118790221E1,1.850871795E-1,-5.909523582E-1,-1.590738088E0,1.707023614E0
1.119784821E1,1.570930499E-1,-1.151071764E0,-1.730021835E0,2.083895386E0
1.120779421E1,2.262691194E-1,-1.420372297E0,-1.821411330E0,2.320817617E0
1.121774021E1,3.725430661E-1,-1.327756494E0,-1.843551081E0,2.302261113E0
1.122768621E1,4.474388820E-1,-9.390534782E-1,-1.655148531E0,1.954875865E0
1.123763221E1,4.194909453E-1,-4.982827610E-1,-1.336106318E0,1.486417995E0
1.124757821E1,2.654899031E-1,-2.043052232E-1,-9.813482894E-1,1.036952254E0
1.125752421E1,5.576080263E-2,-5.879784644E-2,-6.798215577E-1,6.846340659E-1
1.126747021E1,-8.838066459E-2,1.692008793E-2,-4.857013071E-1,4.939667913E-1
1.127741621E1,-1.144925755E-1,1.548436260E-1,-4.330877683E-1,4.739726927E-1
1.128736221E1,-1.169150770E-2,1.457956445E-1,-4.297741511E-1,4.539811475E-1
1.129730821E1,1.238761872E-1,-6.217344403E-3,-5.725228116E-1,5.858040073E-1
1.130725421E1,3.087335712E-1,-1.927382612E-1,-8.693002886E-1,9.424157506E-1
1.131720021E1,5.645416546E-1,-4.963145882E-1,-1.193629553E0,1.410598086E0
1.132714521E1,9.729562193E-1,-9.608437121E-1,-1.476955511E0,2.012774708E0
1.133709121E1,1.458667467E0,-1.430580951E0,-1.761139839E0,2.697385061E0
1.134703721E1,1.949856386E0,-1.785233876E0,-1.995308547E0,3.312137696E0
1.135698321E1,2.348060542E0,-2.033152896E0,-2.122409474E0,3.761877322E0
1.136692921E1,2.646655042E0,-2.169974819E0,-2.080534931E0,4.005271429E0
1.137687521E1,2.862630138E0,-2.149462786E0,-1.891044506E0,4.048566524E0
1.138682121E1,3.154509110E0,-2.056019018E0,-1.515955854E0,4.059096461E0
1.139676721E1,3.412323958E0,-1.887546701E0,-1.180830583E0,4.074450663E0
1.140671321E1,3.651938762E0,-1.863784786E0,-8.210022873E-1,4.181434587E0
1.141665921E1,3.769342082E0,-1.962009239E0,-4.695258620E-1,4.275263093E0
1.142660521E1,3.771802590E0,-2.062250980E0,-1.083796039E-1,4.300130233E0
1.143655121E1,3.556616868E0,-2.140504267E0,1.374452358E-1,4.153332789E0
1.144649721E1,3.135683414E0,-2.259330214E0,1.844591886E-2,3.864896343E0
1.145644321E1,2.496488019E0,-2.644685115E0,-3.492237854E-1,3.653596726E0
1.146638871E1,1.801002647E0,-3.172736050E0,-8.388763484E-1,3.743471398E0
1.147633471E1,1.269291354E0,-3.542237395E0,-1.582708545E0,4.082096599E0
1.148628071E1,8.209876692E-1,-3.644420412E0,-2.615150828E0,4.560135387E0
1.149622671E1,4.827087021E-1,-3.656624136E0,-3.774982890E0,5.277727123E0
1.150617271E1,2.974917144E-1,-4.066718606E0,-4.949680914E0,6.412958965E0
1.151611871E1,1.706176597E-1,-4.894350466E0,-6.146580230E0,7.859021911E0
1.152606471E1,1.098697668E-1,-5.703818536E0,-7.191619170E0,9.179597134E0
1.153601071E1,1.434807318E-1,-6.179277860E0,-7.771119171E0,9.929469007E0
1.154595671E1,5.892531574E-1,-6.361719759E0,-7.494233045E0,9.847955448E0
1.155590271E1,1.290631353E0,-6.161785330E0,-6.717943831E0,9.206741935E0
1.156584871E1,1.853332888E0,-5.772119862E0,-6.041538509E0,8.558761479E0
1.157579471E1,2.167711362E0,-5.427370951E0,-5.478629397E0,8.010662148E0
1.158574071E1,2.166740724E0,-4.853878963E0,-4.393346996E0,6.896115151E0
1.159568671E1,1.722562249E0,-3.864317821E0,-2.494921550E0,4.911700974E0
1.160563271E1,7.650479418E-1,-2.697966698E0,3.883369803E-2,2.804608834E0
1.161557871E1,-3.373913598E-1,-1.706305236E0,2.557002608E0,3.092502679E0
1.162552471E1,-1.330718109E0,-1.245615394E0,4.690727613E0,5.032424260E0
1.163546971E1,-2.059613301E0,-1.001626872E0,5.731812081E0,6.172433318E0
1.164541571E1,-2.778565888E0,-1.092156388E0,6.255968771E0,6.931838085E0
1.165536171E1,-3.697692640E0,-1.230624302E0,6.208285312E0,7.330086872E0
1.166530771E1,-4.423928226E0,-1.092051723E0,5.591626840E0,7.213182975E0
1.167525371E1,-4.877264902E0,-7.530617344E-1,4.558464764E0,6.718215232E0
1.168519971E1,-5.164269050E0,-8.935481071E-2,3.002758076E0,5.974463589E0
1.169514571E1,-5.178367857E0,2.149582654E-1,1.688742539E0,5.451013858E0
1.170509171E1,-4.876631941E0,1.219775963E-1,9.346820998E-1,4.966895232E0
1.171503771E1,-4.509814176E0,1.189961010E-1,7.283152214E-1,4.569795076E0
1.172498371E1,-4.135916018E0,3.821605664E-1,1.119224904E0,4.301687156E0
1.173492971E1,-3.623343539E0,8.395163262E-1,1.688252542E0,4.084556611E0
1.174487571E1,-3.087508205E0,1.436370864E0,2.196500713E0,4.052219583E0
1.175482171E1,-2.622611583E0,2.050705653E0,2.495445460E0,4.160616930E0
1.176476771E1,-2.218207039E0,2.485156699E0,2.666991073E0,4.267234195E0
1.177471371E1,-1.974526958E0,2.783530759E0,2.972312794E0,4.525642886E0
1.178465971E1,-1.821391304E0,2.936334876E0,3.118113116E0,4.654262368E0
1.179460571E1,-1.714485490E0,3.098718486E0,3.168027288E0,4.751622213E0
1.180455171E1,-1.598149288E0,3.184235770E0,3.046427422E0,4.687660250E0
1.181449771E1,-1.293575133E0,3.216622912E0,2.650489061E0,4.364068268E0
1.182444371E1,-8.874997473E-1,3.260215659E0,2.295002908E0,4.084568556E0
1.183438971E1,-5.311634088E-1,3.257366311E0,2.008387599E0,3.863442843E0
1.184433571E1,-1.972412020E-1,3.284864012E0,2.173590152E0,3.943821728E0
1.185428171E1,2.730173162E-1,3.369291374E0,2.399873890E0,4.145607013E0
1.186422771E1,8.008478120E-1,3.416840347E0,2.246103812E0,4.166669835E0
1.187417371E1,9.834768221E-1,3.470286237E0,2.209730623E0,4.230014498E0
1.188411971E1,7.818522549E-1,3.474846480E0,1.874305097E0,4.024782057E0
1.189406471E1,3.496140870E-1,3.453649739E0,1.230919586E0,3.683081530E0
1.190401071E1,-1.045716047E-1,3.496553099E0,3.256886693E-1,3.513245210E0
1.191395671E1,-8.853435865E-1,3.843879463E0,-6.357057043E-1,3.995417917E0
1.192390271E1,-2.033652248E0,4.277078036E0,-1.067413895E0,4.854741025E0
1.193384871E1,-2.982071504E0,4.541828851E0,-9.677107552E-1,5.518824501E0
1.194379471E1,-3.131923362E0,4.651678153E0,-6.402853898E-1,5.644202243E0
1.195374071E1,-2.696079801E0,4.483114035E0,-5.037002063E-1,5.255556264E0
1.196368671E1,-2.297181872E0,4.229167120E0,-8.041909575E-1,4.879510445E0
1.197363271E1,-2.323572988E0,3.400144207E0,-6.851147497E-1,4.174847815E0
1.198357871E1,-2.431680112E0,2.313849068E0,-1.006586480E-1,3.358139044E0
1.199352471E1,-2.143499796E0,8.925745457E-1,1.686910021E-1,2.328032935E0
1.200347071E1,-1.400369557E0,-7.124200773E-1,-8.709544659E-2,1.573582816E0
1.201341671E1,-3.764244479E-1,-2.210791308E0,-7.386577034E-1,2.361124472E0
1.202336271E1,8.883122179E-1,-3.482957153E0,-1.374736533E0,3.848374938E0
1.203330871E1,2.102994379E0,-4.403524075E0,-2.022474711E0,5.282424972E0
1.204325471E1,3.145195665E0,-4.925657628E0,-2.688126419E0,6.432758544E0
1.205320071E1,3.940463187E0,-5.176268122E0,-3.326804920E0,7.306752546E0
1.206314671E1,4.415080804E0,-5.183942592E0,-3.888779647E0,7.841479863E0
1.207309271E1,4.812996108E0,-4.979509900E0,-4.513572181E0,8.266364631E0
1.208303871E1,5.151359568E0,-4.499153532E0,-4.875181539E0,8.399183469E0
1.209298471E1,5.005963873E0,-3.633869112E0,-4.358912158E0,7.567350541E0
1.210293071E1,4.117494949E0,-2.290421029E0,-3.127382122E0,5.655113800E0
1.211287671E1,2.888301169E0,-8.043722212E-1,-1.706457263E0,3.449825315E0
1.212282271E1,1.656377031E0,3.155449927E-1,-3.351109457E-1,1.719143059E0
1.213276871E1,6.248682556E-1,1.178137940E0,5.692720155E-1,1.450013783E0
1.214271371E1,-1.086851209E-1,1.952396416E0,1.058748322E0,2.223648405E0
1.215265971E1,-5.788030136E-1,2.643038539E0,1.415917304E0,3.053766110E0
1.216260571E1,-7.672692990E-1,3.188907110E0,1.927001374E0,3.804098451E0
1.217255171E1,-7.657390827E-1,3.557170014E0,2.562012502E0,4.450137404E0
1.218249771E1,-9.277695215E-1,3.489376227E0,3.109205468E0,4.764835923E0
1.219244371E1,-1.601409988E0,2.994484266E0,3.461244103E0,4.848882418E0
1.220238971E1,-2.599886087E0,2.609618778E0,3.183694317E0,4.868821966E0
1.221233571E1,-3.864010257E0,2.335479088E0,2.089372705E0,4.974989059E0
1.222228171E1,-5.950870999E0,1.567650211E0,-7.024786413E-1,6.193857366E0
1.223222771E1,-7.860017315E0,-1.618984087E0,-4.865977437E0,9.385026269E0
1.224217371E1,-7.439706005E0,-5.952785377E0,-5.297520663E0,1.090177070E1
1.225211971E1,-5.803851532E0,-8.096045437E0,-4.961316873E0,1.112858075E1
1.226206571E1,-4.579524681E0,-9.216872478E0,-4.405398692E0,1.119510260E1
1.227201171E1,-3.128578463E0,-8.551753451E0,-2.996356544E0,9.586377983E0
1.228195771E1,-1.511249430E0,-5.574263533E0,-1.760310704E0,6.037796167E0
1.229190371E1,-1.967409727E-1,-1.796436557E0,-1.580025258E0,2.400493934E0
1.230184971E1,6.722614002E-1,1.375386744E0,-1.030396342E0,1.845356526E0
1.231179571E1,1.139667939E0,3.178559877E0,6.185687578E-1,3.432887008E0
1.232174171E1,1.084096878E0,4.176446285E0,1.830574940E0,4.687107235E0
1.233168771E1,1.179152724E0,4.958589147E0,2.336262031E0,5.606793000E0
1.234163371E1,1.443656787E0,5.490036730E0,2.879183021E0,6.365087830E0
1.235157971E1,1.629599414E0,5.901787716E0,3.496125083E0,7.050502329E0
1.236152571E1,1.641761038E0,5.976290599E0,4.167599448E0,7.468621947E0
1.237147171E1,1.025517133E0,5.201566685E0,4.789619232E0,7.144818665E0
1.238141671E1,-2.742437696E-1,3.661500129E0,4.988138051E0,6.193812562E0
1.239136271E1,-1.535319201E0,1.744719104E0,4.733345629E0,5.273121527E0
1.240130871E1,-2.775955106E0,-3.932977581E-1,4.300646993E0,5.133826491E0
1.241125471E1,-3.899079225E0,-2.238232291E0,4.093503531E0,6.080236324E0
1.242120071E1,-4.300207575E0,-3.520478151E0,3.658226273E0,6.653433029E0
1.243114671E1,-3.437405882E0,-3.766630728E0,2.912933149E0,5.872686418E0
1.244109271E1,-1.864172164E0,-2.749080718E0,2.371931216E0,4.081499767E0
1.245103871E1,-8.456699359E-1,-1.184892644E0,2.670759019E0,3.041723517E0
1.246098471E1,-8.755533010E-2,3.155467469E-1,2.898240851E0,2.916682313E0
1.247093104E1,8.087991482E-1,1.475774081E0,2.707993503E0,3.188305822E0
1.248087704E1,1.424523236E0,2.404595516E0,2.317739221E0,3.630876085E0
1.249082304E1,1.750439727E0,3.040704752E0,1.756217068E0,3.923547249E0
1.250076904E1,1.648151752E0,3.343628529E0,1.251072015E0,3.932103397E0
1.251071504E1,1.012660275E0,3.036774253E0,9.089993014E-1,3.327725714E0
1.252066104E1,1.950780246E-1,2.175191705E0,7.316942543E-1,2.303234871E0
1.253060704E1,-5.341013423E-1,1.095751841E0,6.649365932E-1,1.388552129E0
1.254055304E1,-1.147457015E0,-4.271274090E-2,6.618263130E-1,1.325328657E0
1.255049904E1,-1.712700335E0,-9.911977780E-1,7.267473637E-1,2.108074288E0
1.256044504E1,-1.976563543E0,-1.496958543E0,7.794303381E-1,2.599076754E0
1.257039104E1,-1.781186433E0,-1.575922267E0,7.924842471E-1,2.506828152E0
1.258033704E1,-1.313594246E0,-1.056563802E0,3.581160848E-1,1.723398979E0
1.259028304E1,-6.282979399E-1,-2.424202985E-1,-1.141230315E-1,6.830446316E-1
1.260022804E1,-3.322943419E-2,5.458375812E-1,-5.693135673E-1,7.894053447E-1
1.261017404E1,2.640430096E-1,9.704185277E-1,-1.201727508E0,1.567028983E0
1.262012004E1,4.873037365E-1,1.140055025E0,-1.537931445E0,1.975455269E0
1.263006604E1,6.965270528E-1,8.155971211E-1,-1.846183644E0,2.135121225E0
1.264001204E1,6.969588697E-1,1.644587874E-1,-1.993609931E0,2.118319833E0
1.264995804E1,5.887701774E-1,-5.225972378E-1,-1.920719271E0,2.075793996E0
1.265990404E1,4.806019503E-1,-1.105134283E0,-1.677646862E0,2.065623154E0
1.266985004E1,4.784864277E-1,-1.393017268E0,-1.354261338E0,2.000867348E0
1.267979604E1,4.197312659E-1,-1.442693458E0,-1.012870483E0,1.812027970E0
1.268974204E1,4.462489736E-1,-1.259518903E0,-7.510609634E-1,1.532846562E0
1.269968804E1,5.289274335E-1,-9.203815645E-1,-5.810740721E-1,1.210170869E0
1.270963404E1,4.825081426E-1,-5.709876251E-1,-5.081955457E-1,9.039378786E-1
1.271958004E1,4.300130099E-1,-2.851523352E-1,-6.382455155E-1,8.207194289E-1
1.272952604E1,3.434759724E-1,-3.627904952E-2,-8.688140926E-1,9.349491112E-1
1.273947204E1,2.944967705E-1,1.553488255E-1,-1.087271624E0,1.137110896E0
1.274941804E1,3.376591623E-1,2.439768273E-1,-1.207369341E0,1.277215380E0
1.275936404E1,4.501005346E-1,1.771174246E-1,-1.374453820E0,1.457080772E0
1.276931004E1,5.483097839E-1,-6.994614780E-2,-1.734105822E0,1.820071176E0
1.277925604E1,6.540356290E-1,-4.263263404E-1,-2.031315116E0,2.176179647E0
1.278920204E1,9.048952138E-1,-6.907783628E-1,-2.218754046E0,2.493768155E0
1.279914804E1,1.336722615E0,-9.692063999E-1,-2.290575396E0,2.823636669E0
1.280909304E1,1.953165910E0,-1.181113588E0,-2.253282731E0,3.207361758E0
1.281903904E1,2.579919600E0,-1.355246594E0,-2.026191201E0,3.549384349E0
1.282898504E1,3.004884709E0,-1.463235896E0,-1.727965661E0,3.762480130E0
1.283893104E1,3.190413353E0,-1.646633230E0,-1.350824052E0,3.835995826E0
1.284887704E1,3.306028594E0,-1.833260567E0,-8.714184424E-1,3.879438035E0
1.285882304E1,3.308521262E0,-1.909355062E0,-3.402167344E-1,3.835061553E0
1.286876904E1,3.233237191E0,-1.900952028E0,1.362179053E-1,3.753131581E0
1.287871504E1,3.263826900E0,-1.761570779E0,5.340577805E-1,3.747120942E0
1.288866104E1,3.375121048E0,-1.527309685E0,8.660565457E-1,3.804493515E0
1.289860704E1,3.394371251E0,-1.314634173E0,1.014353337E0,3.778747397E0
1.290855304E1,3.163706195E0,-1.264054003E0,1.010435702E0,3.553568590E0
1.291849904E1,2.855384853E0,-1.419613913E0,7.645421576E-1,3.279184507E0
1.292844504E1,2.473192711E0,-1.834949242E0,3.208399388E-1,3.096233062E0
1.293839104E1,1.971283507E0,-2.327343857E0,-2.361447743E-1,3.059126093E0
1.294833704E1,1.502171921E0,-2.788829505E0,-7.639752701E-1,3.258488715E0
1.295828304E1,1.100266476E0,-3.191494503E0,-1.214202105E0,3.587549335E0
1.296822904E1,6.210509008E-1,-3.573075026E0,-1.645214404E0,3.982373638E0
1.297817504E1,3.793673515E-2,-3.932521498E0,-2.491184886E0,4.655337439E0
1.298812104E1,-5.625360596E-1,-4.314890810E0,-4.009255386E0,5.916828397E0
1.299806704E1,-1.400926212E0,-4.755739880E0,-6.847986492E0,8.454263720E0
1.300801204E1,-2.590834597E0,-5.507412316E0,-1.099818346E1,1.256996634E1
1.301795804E1,-2.445653495E0,-6.469726018E0,-1.240618012E1,1.420393893E1
1.302790404E1,-4.127935445E-1,-7.221034757E0,-1.024632625E1,1.254196727E1
1.303785004E1,9.598795062E-1,-7.072133657E0,-7.601560442E0,1.042689620E1
1.304779604E1,1.306183192E0,-6.210214309E0,-5.490038484E0,8.391269204E0
1.305774204E1,1.395028710E0,-4.840342659E0,-3.415336151E0,6.086012092E0
1.306768804E1,1.324305468E0,-3.192901928E0,-1.550565378E0,3.788490555E0
1.307763404E1,1.126339211E0,-1.678984120E0,1.691891849E-1,2.028855016E0
1.308758004E1,8.568387026E-1,-6.314063197E-1,1.621825102E0,1.939887411E0
1.309752604E1,2.447597694E-1,-6.104259253E-2,2.767531607E0,2.779004271E0
1.310747204E1,-4.179396790E-1,1.521574152E-1,3.387765067E0,3.416837369E0
1.311741804E1,-1.101928255E0,-9.688134670E-2,3.634604107E0,3.799207666E0
1.312736404E1,-1.863284265E0,-6.277149725E-1,3.619045835E0,4.118658410E0
1.313731004E1,-2.676307442E0,-9.866965914E-1,3.284034877E0,4.349836406E0
1.314725604E1,-3.382922988E0,-1.275712767E0,2.926209837E0,4.651270258E0
1.315720204E1,-4.174605289E0,-1.397575758E0,2.483175663E0,5.054375203E0
1.316714804E1,-4.682888251E0,-1.304990360E0,1.925054836E0,5.228601948E0
1.317709404E1,-4.644098115E0,-1.009426473E0,1.269541615E0,4.919179303E0
1.318704004E1,-4.152776464E0,-5.344308329E-1,6.506688023E-1,4.237279618E0
1.319698504E1,-3.643902349E0,-1.535987538E-1,4.958134818E-1,3.680685794E0
1.320693104E1,-3.321491263E0,1.421516597E-2,6.469640064E-1,3.383942776E0
1.321687704E1,-3.207000149E0,3.127587944E-1,1.003164690E0,3.374760350E0
1.322682304E1,-3.313832580E0,8.369254249E-1,1.605888662E0,3.776348624E0
1.323676904E1,-3.315751344E0,1.181352155E0,2.225446769E0,4.164422314E0
1.324671504E1,-3.251827828E0,1.431714141E0,2.737321383E0,4.485211027E0
1.325666104E1,-3.015680715E0,1.662850483E0,3.168438932E0,4.679573396E0
1.326660704E1,-2.447819012E0,1.838873309E0,3.482912714E0,4.637235592E0
1.327655304E1,-1.937631319E0,1.856029624E0,3.428278670E0,4.353430341E0
1.328649904E1,-1.309217897E0,1.986993806E0,3.248365984E0,4.026670766E0
1.329644504E1,-6.891478667E-1,2.210420009E0,3.029457632E0,3.812937837E0
1.330639104E1,-6.914683342E-2,2.513779405E0,2.735782396E0,3.715961988E0
1.331633704E1,5.974877912E-1,2.872824758E0,2.222553713E0,3.681013279E0
1.332628304E1,1.106440844E0,3.130654809E0,1.710565517E0,3.735136579E0
1.333622904E1,1.374379268E0,3.277821625E0,1.309723681E0,3.787929395E0
1.334617504E1,1.387622627E0,3.315914481E0,8.834429491E-1,3.701520883E0
1.335612104E1,1.247111696E0,3.328055055E0,4.733929181E-1,3.585434268E0
1.336606704E1,8.951259783E-1,3.504626935E0,5.849561848E-2,3.617607249E0
1.337601304E1,1.159713364E-1,3.836413153E0,-2.366976285E-1,3.845457190E0
1.338595804E1,-9.933703110E-1,4.332760486E0,-3.217430413E-1,4.456805648E0
1.339590404E1,-1.999058074E0,4.909963117E0,-2.769463893E-1,5.308546910E0
1.340585004E1,-2.703562191E0,5.480780003E0,-4.616458619E-1,6.128728650E0
1.341579604E1,-3.313267739E0,5.767728018E0,-4.052541081E-1,6.663982330E0
1.342574204E1,-3.656178870E0,6.073035121E0,-6.587586444E-2,7.088987173E0
1.343568804E1,-3.405919210E0,6.435514544E0,5.706188120E-2,7.281441421E0
1.344563404E1,-3.063387563E0,6.415215935E0,5.251618266E-2,7.109296506E0
1.345558004E1,-3.020914850E0,6.031622216E0,-6.186214558E-1,6.774148330E0
1.346552596E1,-2.808287577E0,5.114638469E0,-1.776123329E0,6.099231088E0
1.347547196E1,-1.954257585E0,3.711763964E0,-3.115407025E0,5.225138789E0
1.348541796E1,-1.276173235E0,1.567909243E0,-3.728426775E0,4.241240825E0
1.349536396E1,1.156713742E-1,-1.133773361E0,-3.706537138E0,3.877787959E0
1.350530996E1,2.171555906E0,-4.371379007E0,-3.099480379E0,5.781988247E0
1.351525596E1,4.843384673E0,-6.713708693E0,-1.437292385E0,8.402265700E0
1.352520196E1,6.061403840E0,-7.916280978E0,4.647016168E-2,9.970470425E0
1.353514796E1,6.173933505E0,-9.140168118E0,1.096202077E0,1.108430364E1
1.354509396E1,6.013260205E0,-9.705401498E0,9.617512000E-1,1.145770841E1
1.355503996E1,5.838928978E0,-9.150213050E0,-1.679180002E-1,1.085576745E1
1.356498496E1,5.772733819E0,-7.139387746E0,-1.840198288E0,9.363847654E0
1.357493096E1,5.765893747E0,-3.593308146E0,-3.602349111E0,7.689883825E0
1.358487696E1,5.191780200E0,2.902680641E-1,-4.518874437E0,6.889053880E0
1.359482296E1,3.557969621E0,2.562949226E0,-3.785261711E0,5.792759513E0
1.360476896E1,1.229717107E0,3.474533654E0,-2.027657683E0,4.206659477E0
1.361471496E1,-9.781280816E-1,3.528467787E0,-1.299239624E-1,3.663836746E0
1.362466096E1,-2.815187292E0,3.018873003E0,1.746361002E0,4.482036417E0
1.363460696E1,-4.536799661E0,2.354536334E0,2.372870278E0,5.635326598E0
1.364455296E1,-6.310870618E0,1.159728566E0,1.375896621E0,6.562404271E0
1.365449896E1,-8.104417480E0,-1.154146230E0,-4.165556431E-1,8.196777099E0
1.366444496E1,-9.492831236E0,-5.421726633E0,-3.032904347E-1,1.093622191E1
1.367439096E1,-1.031701090E1,-1.057786455E1,9.988962221E-1,1.480978480E1
1.368433696E1,-9.589789765E0,-1.167083779E1,1.010904064E0,1.513916938E1
1.369428296E1,-6.897730510E0,-8.439315587E0,2.536440289E-1,1.090252581E1
1.370422896E1,-3.053288837E0,-2.835754580E0,-4.084338605E-1,4.186991161E0
1.371417496E1,-6.864283267E-1,1.881139323E0,-1.222659810E0,2.346223776E0
1.372411996E1,9.107792670E-1,4.908571479E0,-1.119414353E0,5.116315211E0
1.373406596E1,1.747402976E0,6.441404445E0,-2.632194293E-1,6.679400635E0
1.374401196E1,1.961388849E0,6.764162562E0,7.515531528E-1,7.082780071E0
1.375395796E1,1.526038501E0,6.605551575E0,1.531955298E0,6.950467046E0
1.376390396E1,8.601815557E-1,6.379644399E0,1.725219809E0,6.664544872E0
1.377384996E1,2.976349711E-1,5.710856829E0,2.253845526E0,6.146730184E0
1.378379596E1,-3.846707761E-1,4.667077380E0,2.689939055E0,5.400495810E0
1.379374196E1,-1.348518203E0,3.375115786E0,3.222812190E0,4.857615292E0
1.380368796E1,-2.419247762E0,2.021401162E0,3.853636712E0,4.978889263E0
1.381363396E1,-3.348101357E0,7.018062115E-1,4.316246195E0,5.507476361E0
1.382357996E1,-3.979767878E0,-6.818315381E-1,4.377978759E0,5.955681709E0
1.383352596E1,-3.673633686E0,-1.476199173E0,4.433045497E0,5.943621862E0
1.384347196E1,-2.594598742E0,-1.664045069E0,3.980611339E0,5.034506456E0
1.385341796E1,-1.543393621E0,-1.644537588E0,3.244387246E0,3.951280344E0
1.386336396E1,-9.739078537E-1,-1.095570577E0,2.689054956E0,3.062643949E0
1.387330996E1,-3.624884865E-1,-2.709915483E-1,2.259919614E0,2.304793045E0
1.388325596E1,2.622727650E-1,2.839887393E-1,1.849919869E0,1.889878337E0
1.389320096E1,6.821075267E-1,5.212260658E-1,1.572154906E0,1.791261661E0
1.390314696E1,1.010459383E0,7.116102380E-1,1.221902010E0,1.737947588E0
1.391309296E1,1.435441741E0,8.872933406E-1,8.819413841E-1,1.904101644E0
1.392303896E1,1.911292244E0,1.007265927E0,6.245498747E-1,2.248929798E0
1.393298496E1,2.325765694E0,9.346955484E-1,4.845160034E-1,2.552958595E0
1.394293096E1,2.405331681E0,7.874930638E-1,4.518447590E-1,2.570978317E0
1.395287696E1,1.912087466E0,4.680573338E-1,7.025167213E-1,2.090140160E0
1.396282296E1,1.324321547E0,2.753746212E-2,9.406871903E-1,1.624647119E0
1.397276896E1,9.625189394E-1,-2.893319249E-1,8.734892339E-1,1.331592698E0
1.398271496E1,6.256947595E-1,-4.943540168E-1,5.328462374E-1,9.590646165E-1
1.399266096E1,3.526993704E-1,-5.352313167E-1,1.810824215E-1,6.660782624E-1
1.400260696E1,1.427445674E-1,-4.499210250E-1,-1.981498593E-1,5.119260758E-1
1.401255296E1,-8.564241350E-2,-3.883580303E-1,-6.835978357E-1,7.908619246E-1
1.402249896E1,-1.866828847E-1,-3.219523716E-1,-1.129651659E0,1.189376601E0
1.403244496E1,-1.298602277E-1,-2.610781789E-1,-1.455507631E0,1.484428496E0
1.404239096E1,1.473819941E-1,-2.932817191E-1,-1.482627017E0,1.518525104E0
1.405233596E1,4.681830490E-1,-4.593929297E-1,-1.190264335E0,1.359031426E0
1.406228196E1,7.175896007E-1,-4.998135620E-1,-8.694909078E-1,1.233192147E0
1.407222796E1,7.784830892E-1,-5.308295327E-1,-4.777433927E-1,1.056434883E0
1.408217396E1,7.174925369E-1,-4.989394033E-1,-5.400839210E-2,8.755872173E-1
1.409211996E1,8.160830247E-1,-4.265631527E-1,1.805321985E-1,9.383706630E-1
1.410206596E1,9.393130946E-1,-3.267611217E-1,3.078836784E-1,1.041092830E0
1.411201196E1,9.406205320E-1,-1.449887288E-1,4.664487648E-1,1.059888280E0
1.412195796E1,9.138613343E-1,5.788977385E-2,5.244788718E-1,1.055259139E0
1.413190396E1,8.164543229E-1,8.773630142E-2,4.932678965E-1,9.579188576E-1
1.414184996E1,6.984259361E-1,8.307957888E-2,2.824515063E-1,7.579444954E-1
1.415179596E1,6.045939124E-1,-3.660473943E-2,-1.998183623E-2,6.060305104E-1
1.416174196E1,4.717837644E-1,-2.328349578E-1,-5.390241131E-1,7.532191132E-1
1.417168796E1,3.342274314E-1,-3.768910557E-1,-1.117991433E0,1.226238023E0
1.418163396E1,3.028729069E-1,-4.353263748E-1,-1.672742218E0,1.754795594E0
1.419157996E1,3.867249030E-1,-4.886968356E-1,-2.185988004E0,2.273086954E0
1.420152596E1,5.903594506E-1,-7.266633099E-1,-2.573124551E0,2.738162486E0
1.421147096E1,1.074738702E0,-1.153383168E0,-2.988794925E0,3.379090279E0
1.422141696E1,1.597799624E0,-1.654339276E0,-3.339115356E0,4.054564519E0
1.423136296E1,1.877897626E0,-2.097330766E0,-3.462717309E0,4.462701760E0
1.424130896E1,1.978099022E0,-2.284077385E0,-3.345299664E0,4.507872567E0
1.425125496E1,2.115589281E0,-2.161581141E0,-2.996565875E0,4.257647012E0
1.426120096E1,2.437266249E0,-1.784493619E0,-2.458419136E0,3.894676995E0
1.427114696E1,2.812564523E0,-1.308240243E0,-1.813284139E0,3.593050389E0
1.428109296E1,3.064141561E0,-8.235581052E-1,-1.170386286E0,3.381865686E0
1.429103896E1,3.217323409E0,-3.540196717E-1,-5.036177605E-1,3.275687820E0
1.430098496E1,3.274449536E0,-5.539067388E-2,1.500483245E-1,3.278353610E0
1.431093096E1,3.207545695E0,-1.203064620E-1,8.628063709E-1,3.323741546E0
1.432087696E1,2.887984834E0,-5.518976355E-1,1.398712749E0,3.255985988E0
1.433082296E1,2.429977110E0,-1.334869047E0,1.741096169E0,3.273847889E0
1.434076896E1,1.988509405E0,-2.151263729E0,1.882967747E0,3.482480843E0
1.435071496E1,1.690247027E0,-2.994270843E0,1.724837109E0,3.846772146E0
1.436065996E1,1.544474772E0,-3.686466570E0,1.136356368E0,4.155327170E0
1.437060596E1,1.438088776E0,-4.094509252E0,4.127938369E-1,4.359300872E0
1.438055196E1,1.433494619E0,-4.294999752E0,-1.802585489E-1,4.531492341E0
1.439049796E1,1.500535285E0,-4.325086015E0,-6.808831197E-1,4.628344953E0
1.440044396E1,1.501590123E0,-4.335263679E0,-1.087404064E0,4.715053728E0
1.441038996E1,9.762084407E-1,-4.399088961E0,-2.323003469E0,5.069646115E0
1.442033596E1,-7.045514792E-1,-5.157535397E0,-6.310646085E0,8.180514541E0
1.443028196E1,-3.547020417E0,-6.748113125E0,-1.368761731E1,1.566745839E1
1.444022796E1,-3.513731634E0,-7.761406361E0,-1.541591627E1,1.761352358E1
1.445017396E1,-6.828197175E-1,-7.346551089E0,-1.024657885E1,1.262657649E1
1.446011996E1,5.583541310E-1,-5.933754444E0,-5.176259351E0,7.893976311E0
1.447006642E1,3.515650105E-1,-4.249207283E0,-2.512594174E0,4.948988783E0
1.448001242E1,3.519491726E-1,-2.746324925E0,-7.715142314E-1,2.874265650E0
1.448995842E1,4.356649286E-1,-1.610177595E0,7.119967389E-1,1.813674495E0
1.449990442E1,4.034134412E-1,-8.267512697E-1,2.147753645E0,2.336472937E0
1.450984942E1,7.796501935E-2,-2.784081566E-1,3.427613257E0,3.439785209E0
1.451979542E1,-8.141791713E-1,6.700090528E-2,4.429283398E0,4.503990261E0
1.452974142E1,-1.995393916E0,9.693397164E-2,4.789986438E0,5.189890476E0
1.453968742E1,-2.831586685E0,8.243053794E-2,4.776460074E0,5.553309714E0
1.454963342E1,-3.199993431E0,1.440221840E-1,4.618795166E0,5.620851282E0
1.455957942E1,-3.557750643E0,2.630048364E-1,4.142750536E0,5.467096412E0
1.456952542E1,-3.795566551E0,4.137191588E-1,3.607123947E0,5.252507226E0
1.457947142E1,-3.851016282E0,5.255442345E-1,3.071934146E0,4.954119755E0
1.458941742E1,-3.717386355E0,4.111025298E-1,2.485130972E0,4.490416745E0
1.459936342E1,-3.377956655E0,2.408626002E-1,1.834101981E0,3.851303160E0
1.460930942E1,-3.012674077E0,3.502640051E-1,1.509044738E0,3.387640180E0
1.461925542E1,-2.701372116E0,6.631122619E-1,1.432349149E0,3.128698334E0
1.462920142E1,-2.417635684E0,9.432722443E-1,1.482975658E0,2.988969995E0
1.463914742E1,-2.185243945E0,1.152718924E0,1.820017208E0,3.068634005E0
1.464909342E1,-1.944887422E0,1.327126164E0,2.362555790E0,3.335494086E0
1.465903842E1,-1.656711199E0,1.315397819E0,2.768133870E0,3.483895599E0
1.466898442E1,-1.271867345E0,1.309364077E0,3.233221403E0,3.712923575E0
1.467893042E1,-6.887584421E-1,1.463000838E0,3.464512696E0,3.823298035E0
1.468887642E1,1.712941825E-1,1.637778207E0,3.325408605E0,3.710795271E0
1.469882242E1,1.088404815E0,1.937844450E0,3.301239724E0,3.979704747E0
1.470876842E1,1.742088149E0,2.269969223E0,3.096232835E0,4.215956494E0
1.471871442E1,1.824733864E0,2.456925758E0,2.518840170E0,3.963671739E0
1.472866042E1,1.744960886E0,2.646139317E0,1.957675867E0,3.725511586E0
1.473860642E1,1.598366512E0,2.818426942E0,1.307387134E0,3.493932891E0
1.474855242E1,1.164025393E0,2.996528453E0,5.618005164E-1,3.263396651E0
1.475849842E1,4.440855038E-1,3.156374956E0,-1.895234986E-1,3.193091599E0
1.476844442E1,-4.482800040E-1,3.305442703E0,-6.048219538E-1,3.390090857E0
1.477839042E1,-1.458080114E0,3.484443516E0,-5.440799081E-1,3.816198000E0
1.478833642E1,-2.386538437E0,3.742183519E0,-4.386733210E-1,4.460037835E0
1.479828142E1,-3.023171875E0,4.118012720E0,-3.720875680E-1,5.122113442E0
1.480822742E1,-3.452887847E0,4.509206650E0,-3.611813414E-1,5.690855038E0
1.481817342E1,-3.734980334E0,4.821953750E0,-1.665953600E-1,6.101562921E0
1.482811942E1,-3.881904784E0,4.711730227E0,3.007059288E-1,6.112283578E0
1.483806542E1,-3.499761759E0,5.069138945E0,6.041506934E-1,6.189466865E0
1.484801142E1,-2.737515510E0,5.146075439E0,9.110558403E-1,5.899670019E0
1.485795742E1,-2.234037498E0,4.875397301E0,1.111968509E0,5.476942245E0
1.486790342E1,-1.843944891E0,4.344488246E0,1.197288741E0,4.869107846E0
1.487784942E1,-1.320355966E0,3.483719046E0,8.810362351E-1,3.828297678E0
1.488779542E1,-7.643907148E-1,2.001911808E0,2.560045499E-1,2.158120103E0
1.489774142E1,8.855783522E-2,1.031717813E-1,-6.739839900E-1,6.875618702E-1
1.490768742E1,1.114624607E0,-1.939482256E0,-1.501573750E0,2.694198055E0
1.491763342E1,2.118569315E0,-3.730494350E0,-2.064527301E0,4.761007983E0
1.492757942E1,2.890558486E0,-5.154508293E0,-2.721842633E0,6.506359307E0
1.493752442E1,3.388199808E0,-6.230255055E0,-3.660147668E0,7.980767942E0
1.494747042E1,3.849064482E0,-6.957639327E0,-4.564555809E0,9.168381107E0
1.495741642E1,4.705899091E0,-7.349562989E0,-4.910633208E0,1.001378454E1
1.496736242E1,5.976678854E0,-7.277744563E0,-4.503712606E0,1.043885450E1
1.497730842E1,6.539517800E0,-6.815121047E0,-3.543701538E0,1.008806168E1
1.498725442E1,5.426377509E0,-5.898304530E0,-2.443031604E0,8.378781093E0
1.499720042E1,3.595283628E0,-4.316000027E0,-1.552637485E0,5.827915902E0
1.500714642E1,2.434164301E0,-2.130285673E0,-1.035550590E0,3.396415451E0
1.501709242E1,1.556499278E0,-9.031784713E-2,-4.281243593E-1,1.616829547E0
1.502703842E1,7.447706750E-1,1.460440342E0,4.582065296E-1,1.702211084E0
1.503698442E1,6.681993395E-2,2.616154211E0,1.193268195E0,2.876215698E0
1.504693042E1,-4.010920966E-1,3.416516996E0,1.863515815E0,3.912308071E0
1.505687642E1,-8.916933703E-1,3.761317948E0,2.434067237E0,4.568075425E0
1.506682242E1,-1.766548806E0,3.603054870E0,2.816825974E0,4.902775504E0
1.507676742E1,-2.860128699E0,3.299052866E0,2.912881109E0,5.248710541E0
1.508671342E1,-3.848690552E0,3.104855139E0,2.389448304E0,5.491994865E0
1.509665942E1,-5.460518231E0,2.588124998E0,4.764073770E-2,6.043005874E0
1.510660542E1,-8.252127503E0,-5.330210692E-1,-4.192608574E0,9.271444679E0
1.511655142E1,-8.527220873E0,-5.880840651E0,-4.272905463E0,1.120515523E1
1.512649742E1,-7.543487066E0,-8.276423854E0,-1.958593295E0,1.136835417E1
1.513644342E1,-6.539954002E0,-8.296014365E0,-1.686629355E-1,1.056519285E1
1.514638942E1,-4.428436429E0,-6.164995451E0,1.438280565E0,7.725727739E0
1.515633542E1,-2.039885088E0,-2.846965447E0,2.050873468E0,4.058623586E0
1.516628142E1,-2.267658404E-1,5.529378551E-1,1.112842083E0,1.263162903E0
1.517622742E1,8.854935676E-1,3.622676956E0,-2.088724834E-1,3.735172673E0
1.518617342E1,1.592467256E0,5.303332211E0,-4.178917319E-1,5.553009814E0
1.519611942E1,1.782654962E0,5.694055440E0,3.204654247E-1,5.975184027E0
1.520606442E1,1.640831623E0,5.924370248E0,8.564077628E-1,6.206764496E0
1.521601042E1,1.528532338E0,6.134143787E0,1.268022509E0,6.447636171E0
1.522595642E1,1.271650706E0,5.915149773E0,1.696410577E0,6.283621663E0
1.523590242E1,6.257742816E-1,5.085425195E0,2.097552375E0,5.536503303E0
1.524584842E1,-4.326965895E-1,3.448501850E0,2.485818604E0,4.273018311E0
1.525579442E1,-1.743981477E0,1.533265659E0,2.852861195E0,3.678476855E0
1.526574042E1,-3.008750888E0,-4.292996496E-1,3.147650911E0,4.375452702E0
1.527568642E1,-3.829801122E0,-2.307000225E0,3.213492313E0,5.506011216E0
1.528563242E1,-3.773646509E0,-3.526199067E0,3.152164376E0,6.050671706E0
1.529557842E1,-2.656784758E0,-3.161315854E0,3.095449893E0,5.160836484E0
1.530552442E1,-1.283708249E0,-2.334699655E0,3.133266760E0,4.112917448E0
1.531547042E1,-4.141147229E-1,-1.051837497E0,3.170612926E0,3.366101522E0
1.532541642E1,7.296974301E-2,1.490940589E-1,2.991887518E0,2.996488702E0
1.533536242E1,3.859255886E-1,1.108202317E0,2.818295379E0,3.052841264E0
1.534530742E1,6.555535662E-1,1.866048828E0,2.494066102E0,3.183120235E0
1.535525342E1,9.997569323E-1,2.377380821E0,2.136114762E0,3.348796764E0
1.536519942E1,1.343310380E0,2.524899639E0,1.874143129E0,3.419358629E0
1.537514542E1,1.435583829E0,2.169885356E0,1.607003142E0,3.058065154E0
1.538509142E1,1.220898044E0,1.630559235E0,1.357332880E0,2.447788389E0
1.539503742E1,7.188935298E-1,9.917877620E-1,1.245578556E0,1.746973615E0
1.540498342E1,2.018976322E-1,3.164612514E-1,1.192384023E0,1.250076012E0
1.541492942E1,-8.469224095E-2,-2.931554192E-1,1.213785490E0,1.251554271E0
1.542487542E1,-3.219570494E-1,-6.070953512E-1,1.219774720E0,1.400025527E0
1.543482142E1,-2.530014199E-1,-7.557023370E-1,1.126572369E0,1.379949652E0
1.544476742E1,-1.066947287E-1,-7.324947381E-1,9.324782111E-1,1.190566219E0
1.545471342E1,8.059743583E-2,-5.846151459E-1,6.715405847E-1,8.940008794E-1
1.546465942E1,3.097980568E-1,-3.099071074E-1,3.050914867E-1,5.339457523E-1
1.547460467E1,3.985468036E-1,3.329287648E-2,-5.552822962E-2,4.037714138E-1
1.548455067E1,4.041864431E-1,3.229347038E-1,-3.160794282E-1,6.062670275E-1
1.549449667E1,4.581287616E-1,5.851063120E-1,-4.816638047E-1,8.855683934E-1
1.550444267E1,2.288284457E-1,7.255353820E-1,-6.587639800E-1,1.006346873E0
1.551438867E1,-2.142367190E-1,5.825674510E-1,-1.097660811E0,1.261008113E0
1.552433467E1,-7.444341677E-1,3.358909643E-1,-1.457155523E0,1.670421261E0
1.553428067E1,-1.264608319E0,1.077185762E-1,-1.818194046E0,2.217355876E0
1.554422667E1,-1.644075074E0,-9.370046139E-2,-2.090210611E0,2.660966558E0
1.555417267E1,-1.698020900E0,-1.398110193E-1,-2.069361194E0,2.680499553E0
1.556411867E1,-1.444497324E0,-2.783742428E-2,-1.835378720E0,2.335800182E0
1.557406467E1,-1.176601292E0,2.973724312E-1,-1.531884255E0,1.954351640E0
1.558401067E1,-8.506605345E-1,4.623966444E-1,-1.419582631E0,1.718327340E0
1.559395667E1,-4.853381950E-1,4.635918152E-1,-1.525827124E0,1.666918998E0
1.560390167E1,-1.380276185E-1,1.642231447E-1,-1.719140166E0,1.732473312E0
1.561384767E1,3.719004571E-1,-4.709622306E-1,-1.801113160E0,1.898453051E0
1.562379367E1,1.069864463E0,-1.217340013E0,-1.849865782E0,2.459375955E0
1.563373967E1,1.737875522E0,-1.652444193E0,-1.821337802E0,3.011321061E0
1.564368567E1,2.377090214E0,-1.809186410E0,-1.731313777E0,3.452703397E0
1.565363167E1,2.934690054E0,-1.760601311E0,-1.573724883E0,3.766793424E0
1.566357767E1,3.477861890E0,-1.836477120E0,-1.272821319E0,4.133793130E0
1.567352367E1,3.886824923E0,-1.945793740E0,-8.511139861E-1,4.429211700E0
1.568346967E1,4.160450057E0,-2.135370997E0,-3.831271112E-1,4.692114700E0
1.569341567E1,4.351216637E0,-2.340786021E0,6.938291475E-2,4.941374243E0
1.570336167E1,4.542521161E0,-2.463198650E0,4.653487574E-1,5.188294090E0
1.571330767E1,4.793197728E0,-2.408131912E0,8.470785302E-1,5.430597187E0
1.572325367E1,5.064929534E0,-2.173008354E0,1.123922557E0,5.624826967E0
1.573319867E1,5.305850607E0,-1.881286088E0,1.275228325E0,5.772130914E0
1.574314467E1,5.455543420E0,-1.645847365E0,1.258953185E0,5.835814483E0
1.575309067E1,5.425448386E0,-1.375497256E0,9.875049689E-1,5.683541937E0
1.576303667E1,5.173056831E0,-1.253471712E0,4.603556737E-1,5.342624416E0
1.577298267E1,4.576741406E0,-1.509492050E0,-1.716245502E-2,4.819276159E0
1.578292867E1,3.680038726E0,-2.328905649E0,-2.952475530E-1,4.365049560E0
1.579287467E1,2.723045406E0,-3.316857637E0,-4.214889389E-1,4.312096218E0
1.580282067E1,1.710708189E0,-4.156670417E0,-5.381327051E-1,4.527031950E0
1.581276667E1,5.648457098E-1,-4.866549295E0,-1.030246069E0,5.006371907E0
1.582271267E1,-1.070373171E0,-5.536409828E0,-2.332580916E0,6.102332852E0
1.583265867E1,-4.103226866E0,-6.194201124E0,-5.943893516E0,9.514960242E0
1.584260467E1,-8.433829730E0,-7.232138620E0,-1.221237884E1,1.650986099E1
1.585254967E1,-8.976368896E0,-7.990934134E0,-1.260564970E1,1.741644715E1
1.586249567E1,-5.732546491E0,-7.082519481E0,-7.990528922E0,1.211910574E1
1.587244167E1,-2.426193962E0,-5.010662110E0,-3.456447047E0,6.552875561E0
1.588238767E1,-1.061457337E0,-3.224704349E0,-8.913346437E-1,3.509969695E0
1.589233367E1,-1.790791655E-1,-1.942400601E0,-3.961262025E-1,1.990453569E0
1.590227967E1,7.523635769E-1,-1.101179811E0,-5.405195385E-1,1.439030681E0
1.591222567E1,1.411873954E0,-4.739595133E-1,-5.572158243E-1,1.590130547E0
1.592217167E1,1.698377581E0,-1.795679927E-3,-2.928398158E-1,1.723439813E0
1.593211767E1,1.728822278E0,3.102152556E-1,2.434780598E-1,1.773229128E0
1.594206367E1,1.505367424E0,4.469570714E-1,9.698080053E-1,1.845651449E0
1.595200967E1,8.819179952E-1,3.610784304E-1,1.808052635E0,2.043822721E0
1.596195567E1,-9.673633575E-2,8.737435877E-2,2.415759020E0,2.419273412E0
1.597190067E1,-1.230387490E0,-1.987527072E-1,2.765381001E0,3.033263605E0
1.598184667E1,-2.385724797E0,-4.713960940E-1,2.761612471E0,3.679728322E0
1.599179267E1,-3.443974351E0,-7.822001642E-1,2.511128862E0,4.333424118E0
1.600173867E1,-4.431162986E0,-1.099892839E0,2.196213614E0,5.066391606E0
1.601168467E1,-5.133209810E0,-1.277713684E0,2.035517510E0,5.667956135E0
1.602163067E1,-5.181080965E0,-9.255464101E-1,1.953096328E0,5.613806319E0
1.603157667E1,-4.445498897E0,-1.453535950E-1,1.879467019E0,4.828662795E0
1.604152267E1,-3.401621214E0,6.858906752E-1,1.693490478E0,3.861267007E0
1.605146867E1,-2.642418441E0,1.463865057E0,1.641050309E0,3.437778678E0
1.606141467E1,-2.020453036E0,2.000840598E0,1.686611813E0,3.306093310E0
1.607136067E1,-1.589807650E0,2.260151163E0,1.651804508E0,3.219352385E0
1.608130667E1,-1.248477898E0,2.265972067E0,1.635880201E0,3.060952548E0
1.609125267E1,-9.958156165E-1,2.245461203E0,1.654847399E0,2.961800917E0
1.610119767E1,-6.879255062E-1,2.176431314E0,1.738136308E0,2.869008992E0
1.611114367E1,-4.190860257E-1,2.061937569E0,1.666545339E0,2.684137292E0
1.612108967E1,-1.456827933E-1,1.879945906E0,1.490200331E0,2.403355386E0
1.613103567E1,-4.720486432E-2,1.728073250E0,1.376401820E0,2.209739222E0
1.614098167E1,-1.234399849E-1,1.482950953E0,1.013113142E0,1.800216431E0
1.615092767E1,-2.820711449E-1,1.347889627E0,8.057100642E-1,1.595474627E0
1.616087367E1,-2.868491971E-1,1.310318928E0,5.616718411E-1,1.454198546E0
1.617081967E1,-9.582300067E-2,1.391054943E0,1.580747974E-1,1.403283130E0
1.618076567E1,1.022064060E-1,1.688737861E0,-1.740891516E-1,1.700761225E0
1.619071167E1,1.499989155E-1,2.008042613E0,-4.723439276E-1,2.068294853E0
1.620065767E1,-1.652434838E-1,2.436786777E0,-9.571880329E-1,2.623250681E0
1.621060367E1,-8.232180896E-1,3.048657550E0,-1.465428017E0,3.481304375E0
1.622054867E1,-1.671223696E0,3.741384789E0,-1.556220074E0,4.383237354E0
1.623049467E1,-2.538625686E0,4.365098512E0,-1.339006537E0,5.224140494E0
1.624044067E1,-3.172377616E0,4.688034385E0,-7.593369663E-1,5.711237936E0
1.625038667E1,-3.419341786E0,5.154741597E0,-4.134568015E-2,6.185868464E0
1.626033267E1,-3.300195411E0,5.383260725E0,6.558400798E-1,6.348299930E0
1.627027867E1,-3.022743275E0,5.370931286E0,1.315696027E0,6.301978723E0
1.628022467E1,-2.544633408E0,5.273517258E0,1.921985632E0,6.162724416E0
1.629017067E1,-2.067385128E0,5.047668554E0,2.437317120E0,5.974408242E0
1.630011667E1,-1.544877645E0,4.494579840E0,2.624288857E0,5.429068694E0
1.631006267E1,-8.865717942E-1,3.644863631E0,2.577743851E0,4.551461721E0
1.632000867E1,-1.071353164E-1,2.490285292E0,2.169508796E0,3.304507108E0
1.632995467E1,4.368589300E-1,7.990190953E-1,6.378388417E-1,1.111807370E0
1.633989967E1,5.621089205E-1,-1.389669737E0,-1.688294642E0,2.257761550E0
1.634984567E1,6.880482978E-1,-3.613380468E0,-3.524200489E0,5.094106198E0
1.635979167E1,1.143340283E0,-5.366407295E0,-4.468881328E0,7.076471902E0
1.636973767E1,2.019531515E0,-6.384623303E0,-4.897823128E0,8.296420532E0
1.637968367E1,3.044281201E0,-6.874861465E0,-5.145624619E0,9.110917676E0
1.638962967E1,3.918603371E0,-6.873005558E0,-5.073694510E0,9.398725114E0
1.639957567E1,4.696857249E0,-6.220194921E0,-4.463760336E0,8.982006970E0
1.640952167E1,5.249909710E0,-4.904612330E0,-3.583763151E0,8.028706769E0
1.641946767E1,5.155626866E0,-3.133977197E0,-2.717025697E0,6.616987992E0
1.642941367E1,4.589488629E0,-1.337327217E0,-1.966337932E0,5.168978122E0
1.643935967E1,3.809265993E0,1.670789248E-1,-1.182909268E0,3.992204542E0
