"Time (s)","Linear Acceleration x (m/s^2)","Linear Acceleration y (m/s^2)","Linear Acceleration z (m/s^2)","Absolute acceleration (m/s^2)"
2.332749777E-3,2.642953169E-1,4.496099532E-2,2.870427400E-1,3.927684308E-1
1.227675006E-2,2.587620968E-1,4.714253300E-1,9.804084957E-2,5.466366917E-1
2.221974963E-2,2.332284755E-1,6.586461586E-1,1.115759113E-1,7.075729418E-1
3.216374991E-2,1.429047811E-1,6.441351235E-1,3.266032469E-1,7.362075215E-1
4.210774973E-2,7.672365546E-2,5.138381088E-1,5.809360778E-1,7.793605378E-1
5.205175001E-2,-6.331598997E-2,4.204972512E-1,8.483789510E-1,9.489856149E-1
6.199574983E-2,-1.936147588E-1,2.455409575E-1,1.024020538E0,1.070698417E0
7.193874987E-2,-3.436016876E-1,7.562087059E-2,1.119622441E0,1.173599185E0
8.188274968E-2,-4.549081153E-1,-1.844890094E-1,1.035653501E0,1.146104603E0
9.182674997E-2,-4.674287581E-1,-4.792167449E-1,8.365517148E-1,1.071427601E0
1.017707498E-1,-4.140214598E-1,-8.331130403E-1,6.270916593E-1,1.121933624E0
1.117147501E-1,-3.606480753E-1,-1.241687819E0,3.514445579E-1,1.339913785E0
1.216577496E-1,-3.572941124E-1,-1.570670882E0,1.565264547E-1,1.618383958E0
1.316017499E-1,-3.740721130E-1,-1.896530948E0,5.920371629E-2,1.933976387E0
1.415457497E-1,-4.141302180E-1,-2.084635291E0,5.766524076E-2,2.126154607E0
1.514897500E-1,-4.549969929E-1,-2.128093552E0,8.745848559E-2,2.177947065E0
1.614337498E-1,-4.796833527E-1,-2.018925451E0,1.953695083E-1,2.084304522E0
1.713777496E-1,-5.123821521E-1,-1.840433346E0,2.327630371E-1,1.924554235E0
1.813207497E-1,-7.177860671E-1,-1.655352014E0,2.043484195E-1,1.815809848E0
1.912647500E-1,-8.050335413E-1,-1.453544721E0,1.393140060E-1,1.667417060E0
2.012087498E-1,-8.668912357E-1,-1.244931854E0,2.402847491E-2,1.517212280E0
2.111527501E-1,-8.578491014E-1,-1.051207168E0,-8.167515077E-2,1.359269076E0
2.210967499E-1,-8.020023447E-1,-8.796826047E-1,-1.896498350E-1,1.205411260E0
2.310397499E-1,-7.664261305E-1,-8.110263526E-1,-2.875882852E-1,1.152336661E0
2.409837497E-1,-7.250676048E-1,-7.363597476E-1,-3.458511114E-1,1.089753046E0
2.509277500E-1,-6.493683815E-1,-6.859824765E-1,-3.676178833E-1,1.013604539E0
2.608717498E-1,-5.332684064E-1,-6.869063365E-1,-3.269412891E-1,9.290350451E-1
2.708157497E-1,-4.095804995E-1,-7.017886698E-1,-2.900370260E-1,8.627774911E-1
2.807587497E-1,-2.426167649E-1,-7.665728956E-1,-2.787600859E-1,8.510018123E-1
2.907027500E-1,-7.624301434E-2,-7.909610474E-1,-2.569248285E-1,8.351303750E-1
3.006467498E-1,2.016646206E-2,-7.070002931E-1,-2.527557638E-1,7.510935872E-1
3.105907496E-1,1.227096677E-1,-5.346898645E-1,-2.721609183E-1,6.123907896E-1
3.205347499E-1,1.656182903E-1,-3.163712043E-1,-2.787216405E-1,4.529965892E-1
3.304787497E-1,8.150901675E-2,-5.710098445E-2,-2.979396111E-1,3.141214002E-1
3.404217497E-1,-1.212127805E-1,2.048425823E-1,-3.275105886E-1,4.048656658E-1
3.503657500E-1,-2.879502279E-1,4.142220193E-1,-4.805749069E-1,6.967405946E-1
3.603097498E-1,-3.946011025E-1,5.155145055E-1,-6.933091108E-1,9.498119596E-1
3.702537497E-1,-4.847102040E-1,5.886333525E-1,-8.354086572E-1,1.131079498E0
3.801977499E-1,-5.069337165E-1,5.832468975E-1,-9.571704912E-1,1.230176445E0
3.901407500E-1,-4.487387180E-1,6.044845694E-1,-9.991548883E-1,1.251030984E0
4.000847498E-1,-3.572163445E-1,6.260491008E-1,-1.057092829E0,1.279447631E0
4.100287496E-1,-2.073960614E-1,5.863792509E-1,-1.092216030E0,1.256896817E0
4.199727499E-1,-3.805835724E-2,4.891996962E-1,-1.147818373E0,1.248299563E0
4.299167497E-1,1.390087813E-1,3.412066680E-1,-1.182914384E0,1.238964032E0
4.398597497E-1,2.538182759E-1,1.966640818E-1,-1.225065939E0,1.266446617E0
4.498037500E-1,3.434315336E-1,1.989456654E-2,-1.238428581E0,1.285319556E0
4.597477498E-1,3.770477611E-1,-1.027607220E-1,-1.284221781E0,1.342367447E0
4.696917497E-1,3.353652996E-1,-1.763631338E-1,-1.355362515E0,1.407331299E0
4.796357499E-1,3.214892721E-1,-2.186057585E-1,-1.470473141E0,1.520998057E0
4.895797498E-1,3.153192902E-1,-1.833856398E-1,-1.570576304E0,1.612379135E0
4.995227498E-1,2.814194727E-1,-7.240256310E-2,-1.672317710E0,1.697376085E0
5.094667496E-1,2.974168700E-1,5.641744494E-2,-1.745329553E0,1.771387866E0
5.194107499E-1,3.684014833E-1,2.700203258E-1,-1.759428944E0,1.817751589E0
5.293547497E-1,5.146029246E-1,5.200554532E-1,-1.659363204E0,1.813493889E0
5.392987500E-1,9.593012166E-1,7.507240176E-1,-1.486378591E0,1.921761351E0
5.492417500E-1,1.606575710E0,9.550391811E-1,-1.201423307E0,2.221846825E0
5.591857499E-1,2.152109236E0,1.082100347E0,-1.041517746E0,2.624361740E0
5.691297497E-1,2.487971549E0,1.066726263E0,-1.075002996E0,2.912651505E0
5.790737499E-1,2.539087908E0,8.497711730E-1,-1.132647772E0,2.907227103E0
5.890177498E-1,2.608542305E0,6.102136713E-1,-1.044937198E0,2.875542980E0
5.989617500E-1,2.683377310E0,5.036721396E-1,-8.300328733E-1,2.853621205E0
6.089047496E-1,2.654996679E0,4.474885833E-1,-5.323119481E-1,2.744559967E0
6.188487499E-1,2.562300185E0,5.017355418E-1,-1.559975740E-1,2.615617716E0
6.287927497E-1,2.352707909E0,6.794786185E-1,1.892854804E-1,2.456166666E0
6.387367500E-1,2.197787100E0,7.686509961E-1,4.450643277E-1,2.370479856E0
6.486808746E-1,2.183693556E0,7.757103395E-1,6.507722249E-1,2.407020683E0
6.586238747E-1,2.156175975E0,6.723257196E-1,7.975128525E-1,2.395233487E0
6.685678749E-1,2.116556411E0,5.245350051E-1,1.032421818E0,2.412642290E0
6.785118748E-1,1.828980405E0,3.231381869E-1,1.262778287E0,2.245928897E0
6.884558750E-1,1.213505993E0,6.851884246E-2,1.506825719E0,1.935927524E0
6.983998748E-1,3.244906479E-1,-2.385073417E-1,1.584925225E0,1.635288323E0
7.083428749E-1,-6.192446959E-1,-5.269896662E-1,1.536276391E0,1.738196551E0
7.182868747E-1,-1.242814577E0,-7.058454680E-1,1.419673409E0,2.014516936E0
7.282308750E-1,-1.597535330E0,-8.677712417E-1,1.374505568E0,2.279125186E0
7.381748748E-1,-1.704507802E0,-1.082269331E0,1.534151512E0,2.535798615E0
7.481188746E-1,-1.725960066E0,-1.271257188E0,1.817257468E0,2.810241572E0
7.580628749E-1,-1.649670274E0,-1.364447773E0,2.177904228E0,3.053914957E0
7.680058749E-1,-1.437285953E0,-1.302101836E0,2.537108041E0,3.193458519E0
7.779498748E-1,-1.157625323E0,-1.150467746E0,2.747171602E0,3.195406740E0
7.878938750E-1,-8.786686975E-1,-8.631197816E-1,2.771767915E0,3.033105968E0
7.978378749E-1,-5.394886744E-1,-4.744489253E-1,2.587885846E0,2.685759291E0
8.077818747E-1,-2.491557062E-1,-4.685432374E-2,2.266901774E0,2.281034315E0
8.177248747E-1,1.354039729E-2,2.425536150E-1,1.893948233E0,1.909464718E0
8.276688750E-1,1.760760355E-1,2.136356252E-1,1.511576582E0,1.536719465E0
8.376128748E-1,2.701127118E-1,-3.487688720E-2,1.212465262E0,1.242678271E0
8.475568746E-1,4.711838400E-1,-4.493532604E-1,1.050823005E0,1.236188316E0
8.575008749E-1,7.196530831E-1,-8.607925898E-1,9.495685992E-1,1.469879236E0
8.674438749E-1,7.837818360E-1,-1.079429339E0,8.945485657E-1,1.606144078E0
8.773878748E-1,6.999865580E-1,-1.112414652E0,8.574713713E-1,1.569300701E0
8.873318750E-1,6.288621962E-1,-1.043789974E0,7.445394176E-1,1.428042057E0
8.972758749E-1,5.352570444E-1,-8.854771954E-1,5.906026217E-1,1.191377952E0
9.072198747E-1,2.939038628E-1,-6.702704233E-1,4.387609562E-1,8.533188722E-1
9.171638750E-1,-5.123388827E-2,-3.928890377E-1,2.487681089E-1,4.678378771E-1
9.271068750E-1,-3.584161931E-1,-1.451524508E-1,1.350613991E-1,4.096010046E-1
9.370508748E-1,-6.410086173E-1,2.339412510E-2,-1.296912432E-3,6.414366800E-1
9.469948746E-1,-8.666503304E-1,1.599195939E-1,-3.411843024E-2,8.819416869E-1
9.569388749E-1,-9.866743720E-1,2.083854103E-1,1.292269742E-1,1.016685992E0
9.668828747E-1,-1.075075502E0,1.394087309E-1,3.611321517E-1,1.142645422E0
9.768258748E-1,-1.206009863E0,2.227029026E-2,5.924234446E-1,1.343845710E0
9.867698750E-1,-1.332595650E0,-6.236757159E-2,7.859125614E-1,1.548340865E0
9.967138749E-1,-1.508185197E0,-1.758509177E-1,8.224190676E-1,1.726823459E0
1.006657875E0,-1.614399285E0,-3.416493022E-1,8.110631901E-1,1.838704107E0
1.016601875E0,-1.616572695E0,-4.988552034E-1,7.768517160E-1,1.861628959E0
1.026544875E0,-1.499129030E0,-6.703809357E-1,6.745745587E-1,1.775344834E0
1.036488875E0,-1.306315339E0,-7.691579497E-1,5.422747996E-1,1.610007974E0
1.046432875E0,-1.108750201E0,-7.752706289E-1,3.875696795E-1,1.407331451E0
1.056376875E0,-9.385254747E-1,-7.367678833E-1,2.129941126E-1,1.212032785E0
1.066320875E0,-7.350903171E-1,-6.183173275E-1,3.820468381E-2,9.613187243E-1
1.076264875E0,-5.835053444E-1,-4.968993098E-1,-1.282129209E-1,7.770623939E-1
1.086207875E0,-5.120780969E-1,-3.437420207E-1,-2.089023773E-1,6.511702983E-1
1.096151875E0,-4.985739523E-1,-2.333571142E-1,-2.372379843E-1,5.994275518E-1
1.106095875E0,-5.065325975E-1,-1.088470888E-1,-2.436213166E-1,5.725157701E-1
1.116039875E0,-5.803174424E-1,1.687740326E-2,-2.441417187E-1,6.298081927E-1
1.125983875E0,-6.453221083E-1,7.220317304E-2,-2.457315767E-1,6.942895141E-1
1.135927875E0,-6.859497321E-1,7.957241893E-2,-2.632562667E-1,7.390281908E-1
1.145870875E0,-7.173551273E-1,8.904900134E-2,-2.853781839E-1,7.771543033E-1
1.155814875E0,-7.539627904E-1,1.312390012E-1,-3.210461263E-1,8.299121519E-1
1.165758875E0,-8.025929135E-1,2.424308234E-1,-3.769218998E-1,9.192378405E-1
1.175702875E0,-7.983226919E-1,3.997472370E-1,-4.545508504E-1,1.001864986E0
1.185646875E0,-7.682399368E-1,5.637920415E-1,-5.660765487E-1,1.108375715E0
1.195589875E0,-7.489347696E-1,7.336460549E-1,-6.227154569E-1,1.219390980E0
1.205533875E0,-7.037825704E-1,8.702405208E-1,-6.208830857E-1,1.279892291E0
1.215477875E0,-6.994819432E-1,9.677217919E-1,-5.403989397E-1,1.310645440E0
1.225421875E0,-7.269509929E-1,1.031976845E0,-3.683457886E-1,1.314957252E0
1.235365875E0,-7.410462910E-1,1.061391848E0,-2.084802814E-1,1.311169816E0
1.245308875E0,-7.022558624E-1,1.071922683E0,-8.359311059E-2,1.284199884E0
1.255252875E0,-6.425394183E-1,1.112279581E0,-2.018458843E-2,1.284690697E0
1.265196875E0,-5.527185845E-1,1.157667423E0,-7.484436035E-3,1.282866989E0
1.275140875E0,-4.872765470E-1,1.236663891E0,-6.162044361E-2,1.330628833E0
1.285084875E0,-4.377915609E-1,1.320196044E0,-1.831704623E-1,1.402900732E0
1.295028875E0,-3.503563911E-1,1.362283718E0,-3.035381739E-1,1.438993382E0
1.304971875E0,-2.079755205E-1,1.313961743E0,-5.881831169E-1,1.454547579E0
1.314915875E0,-4.226192057E-2,1.295353564E0,-8.662899958E-1,1.558905155E0
1.324859875E0,9.610015869E-2,1.263832979E0,-1.119308519E0,1.690964399E0
1.334803875E0,1.367652047E-1,1.257492258E0,-1.306774346E0,1.818694777E0
1.344747875E0,1.448185748E-1,1.264362152E0,-1.376141034E0,1.874392759E0
1.354690875E0,1.914512891E-1,1.374251799E0,-1.252211784E0,1.869025402E0
1.364634875E0,3.937164187E-1,1.614881680E0,-9.538141894E-1,1.916407307E0
1.374578875E0,3.816623837E-1,1.866645244E0,-5.917570813E-1,1.995045635E0
1.384522875E0,2.894254804E-2,1.945739946E0,-4.580148871E-1,1.999129622E0
1.394466875E0,-5.423321754E-1,1.949860479E0,-4.599712193E-1,2.075488761E0
1.404410875E0,-8.800463015E-1,1.957569448E0,-2.595627268E-1,2.161927946E0
1.414353875E0,-6.447549284E-1,2.115362409E0,2.497682020E-1,2.225500212E0
1.424297875E0,-1.156228423E-1,2.391866713E0,9.172386861E-1,2.564317028E0
1.434241875E0,4.606804866E-1,2.657817376E0,1.540944954E0,3.106562581E0
1.444185875E0,9.269251835E-1,2.646871389E0,1.995686131E0,3.442075185E0
1.454129875E0,1.141985775E0,2.354093115E0,2.244490566E0,3.447263234E0
1.464072875E0,9.754167277E-1,1.775543286E0,2.188273242E0,2.982034797E0
1.474016875E0,7.234631288E-1,9.716458583E-1,1.857042362E0,2.217228204E0
1.483960875E0,6.163146561E-1,2.680147308E-1,1.459673772E0,1.606960850E0
1.493904875E0,7.335127383E-1,-2.845781386E-1,1.205132123E0,1.439225169E0
1.503848875E0,7.617138594E-1,-7.707185715E-1,1.116893546E0,1.556170400E0
1.513792875E0,5.514228415E-1,-1.194978506E0,1.088255638E0,1.707729812E0
1.523735875E0,2.182052243E-1,-1.571538025E0,9.052333291E-1,1.826688989E0
1.533679875E0,-2.110991031E-1,-1.832161875E0,6.867450996E-1,1.967993597E0
1.543623875E0,-5.581757909E-1,-2.043642801E0,5.866183289E-1,2.198216817E0
1.553567875E0,-8.176512480E-1,-2.119556617E0,5.720874864E-1,2.342724463E0
1.563511875E0,-9.471775997E-1,-2.121912460E0,6.332908773E-1,2.408467403E0
1.573454875E0,-9.274087483E-1,-2.029808289E0,7.639737352E-1,2.358784548E0
1.583398875E0,-7.476220697E-1,-1.906955949E0,8.936281409E-1,2.234723921E0
1.593342875E0,-4.273151046E-1,-1.716403962E0,9.587668542E-1,2.011933060E0
1.603286875E0,-1.556242293E-1,-1.432704660E0,9.601414615E-1,1.731685066E0
1.613230875E0,8.617626429E-2,-1.151456510E0,8.587898453E-1,1.439026908E0
1.623174875E0,3.563731760E-1,-9.016804147E-1,6.426990473E-1,1.163224603E0
1.633117875E0,7.578459263E-1,-8.075677246E-1,4.077679358E-1,1.180157094E0
1.643061875E0,1.041754559E0,-7.927842093E-1,2.932301905E-1,1.341545119E0
1.653005750E0,1.154806965E0,-8.123630261E-1,2.021166104E-1,1.426311304E0
1.662949750E0,1.205284224E0,-8.093061018E-1,8.344619930E-2,1.454183515E0
1.672893750E0,1.192918532E0,-7.237847257E-1,7.658098340E-2,1.397420338E0
1.682836750E0,1.235896152E0,-4.880361003E-1,1.672772185E-1,1.339253598E0
1.692780750E0,1.215222736E0,-2.165463692E-1,3.149637794E-1,1.273915543E0
1.702724750E0,1.060135281E0,-2.003373027E-1,3.766296852E-1,1.142747465E0
1.712668750E0,9.469823027E-1,-2.075153446E-1,4.632959461E-1,1.074467884E0
1.722612750E0,7.388915920E-1,-2.093952245E-1,5.972340220E-1,9.728800655E-1
1.732555750E0,4.591771674E-1,-2.350960761E-1,7.166500262E-1,8.830068494E-1
1.742499750E0,1.526029730E-1,-2.893132138E-1,8.034951389E-1,8.675218967E-1
1.752443750E0,-1.320505947E-1,-3.392776716E-1,8.432573748E-1,9.184931671E-1
1.762387750E0,-4.408058006E-1,-3.615222341E-1,8.407747201E-1,1.015829813E0
1.772331750E0,-6.589724332E-1,-3.874306619E-1,6.466698915E-1,1.001263768E0
1.782275750E0,-8.065941632E-1,-4.194084996E-1,4.215748930E-1,1.002109287E0
1.792218750E0,-8.591875291E-1,-5.282468176E-1,1.875587976E-1,1.025878264E0
1.802162750E0,-8.031647712E-1,-5.679932660E-1,4.082986437E-2,9.845593317E-1
1.812106750E0,-8.076168412E-1,-7.451200461E-1,-7.096414804E-2,1.101128855E0
1.822050750E0,-6.752849954E-1,-9.465151101E-1,-8.911500178E-2,1.166122705E0
1.831994750E0,-5.436606628E-1,-1.136733806E0,-1.153263885E-1,1.265318473E0
1.841937750E0,-3.556142074E-1,-1.241839846E0,-9.372501969E-2,1.295149431E0
1.851881750E0,-2.231180549E-1,-1.273928196E0,-6.465851068E-2,1.294934531E0
1.861825750E0,-1.590846115E-1,-1.273267461E0,-7.935314834E-2,1.285618475E0
1.871769750E0,-1.046429408E-1,-1.198407898E0,-8.406490780E-2,1.205901548E0
1.881713750E0,-5.014922976E-2,-1.070488361E0,-1.071975162E-1,1.077010485E0
1.891657750E0,-6.817736506E-2,-9.047344154E-1,-1.787009237E-1,9.247305206E-1
1.901600750E0,-8.797954559E-2,-7.112734383E-1,-2.214257976E-1,7.501197827E-1
1.911544750E0,-8.308133304E-2,-5.112647492E-1,-2.748963920E-1,5.863976279E-1
1.921488750E0,-5.922644734E-2,-3.326609623E-1,-3.110538925E-1,4.592663846E-1
1.931432750E0,-9.935296476E-2,-2.093817759E-1,-3.158654201E-1,3.917686859E-1
1.941376750E0,-3.883662164E-2,-1.009779060E-1,-2.928536298E-1,3.121987655E-1
1.951319750E0,-4.652278662E-2,-4.025281727E-2,-2.550133737E-1,2.623289533E-1
1.961263750E0,-3.485115945E-2,2.462788761E-2,-2.416759479E-1,2.454147509E-1
1.971207750E0,-9.490791142E-2,9.771165133E-2,-2.679919998E-1,3.006240017E-1
1.981151750E0,-1.869378233E-1,1.397244805E-1,-3.341006199E-1,4.075437455E-1
1.991095750E0,-2.927911377E-1,2.213212055E-1,-4.295855784E-1,5.650252167E-1
2.001039750E0,-3.816986364E-1,2.110172421E-1,-5.288076387E-1,6.854630874E-1
2.010982750E0,-3.960816175E-1,1.349379498E-1,-5.729799177E-1,7.095032657E-1
2.020926750E0,-3.531765032E-1,2.660307705E-2,-6.128028915E-1,7.077914594E-1
2.030870750E0,-2.804587752E-1,-6.909303904E-2,-6.408805633E-1,7.029643440E-1
2.040814750E0,-1.677384907E-1,-1.568609154E-1,-6.695565514E-1,7.078471046E-1
2.050758750E0,9.185975790E-4,-2.443826240E-1,-6.785010371E-1,7.211708315E-1
2.060701750E0,1.738944393E-1,-3.320826727E-1,-7.203803305E-1,8.120751186E-1
2.070645750E0,3.505487645E-1,-3.947940606E-1,-7.564197904E-1,9.224519965E-1
2.080589750E0,4.731496739E-1,-3.881563014E-1,-7.984378821E-1,1.006001481E0
2.090533750E0,4.945744568E-1,-3.340444136E-1,-8.492439003E-1,1.037981101E0
2.100477750E0,4.283442146E-1,-2.389289260E-1,-9.221819953E-1,1.044502480E0
2.110421750E0,2.998814714E-1,-1.501623452E-1,-1.021798012E0,1.075429590E0
2.120364750E0,9.230648518E-2,-4.457332492E-2,-1.169910908E0,1.174392950E0
2.130308750E0,-1.669403458E-1,3.547856569E-2,-1.244308541E0,1.255958420E0
2.140252750E0,-3.603662395E-1,8.102252841E-2,-1.284368985E0,1.336425144E0
2.150196750E0,-4.328190887E-1,1.032717687E-1,-1.247995795E0,1.324949405E0
2.160140750E0,-4.573499125E-1,1.085336781E-1,-1.232412965E0,1.319011076E0
2.170083750E0,-4.299106836E-1,7.730837703E-2,-1.244777488E0,1.319193229E0
2.180027750E0,-3.286532807E-1,6.936844289E-2,-1.278941014E0,1.322314289E0
2.189971750E0,-1.516007602E-1,1.008849353E-1,-1.363638518E0,1.375743642E0
2.199915750E0,1.519042307E-1,1.219331574E-1,-1.478566711E0,1.491342385E0
2.209859750E0,5.470754367E-1,1.200135165E-1,-1.586497687E0,1.682459417E0
2.219803750E0,9.696133661E-1,2.430862963E-2,-1.628081916E0,1.895096756E0
2.229746750E0,1.507229762E0,-9.681702733E-2,-1.583359925E0,2.188182749E0
2.239690750E0,2.160933269E0,-1.075852597E-1,-1.399294254E0,2.576670641E0
2.249634750E0,2.771966136E0,-6.413401544E-2,-1.141928473E0,2.998651374E0
2.259578750E0,3.197800140E0,2.104354441E-2,-9.852739638E-1,3.346211791E0
2.269522750E0,3.223164777E0,-3.403547287E-2,-1.052902275E0,3.390951606E0
2.279465750E0,3.190171278E0,-2.155365551E-1,-1.040558657E0,3.362500722E0
2.289409750E0,3.120132160E0,-4.396170616E-1,-7.779358629E-1,3.245561902E0
2.299353750E0,2.793980902E0,-5.535465503E-1,-4.613856608E-1,2.885415013E0
2.309297750E0,2.409006656E0,-3.671782458E-1,-3.631699795E-1,2.463742147E0
2.319241750E0,2.135084483E0,4.785010457E-2,-2.761395831E-1,2.153399278E0
2.329185750E0,1.877097727E0,5.208395648E-1,-6.545080841E-2,1.949116091E0
2.339128750E0,1.579751024E0,9.179274881E-1,9.998607203E-2,1.829809112E0
2.349072750E0,1.264579083E0,1.114777511E0,2.897909313E-1,1.710516864E0
2.359016750E0,7.706448966E-1,9.967789453E-1,4.825091659E-1,1.349176385E0
2.368960750E0,1.496735179E-1,7.424847060E-1,6.576223111E-1,1.003071685E0
2.378904750E0,-5.834544736E-1,4.819561654E-1,8.634888140E-1,1.148178470E0
2.388847750E0,-1.189852837E0,2.942020708E-1,1.060294910E0,1.620657252E0
2.398791750E0,-1.632587634E0,1.449565691E-1,1.234213908E0,2.051740422E0
2.408735750E0,-1.870101534E0,-4.021890342E-2,1.326973552E0,2.293415818E0
2.418679750E0,-1.952075404E0,-2.090467304E-1,1.357893044E0,2.387084505E0
2.428623750E0,-1.871740508E0,-3.732353765E-1,1.381919253E0,2.356356933E0
2.438567750E0,-1.580428716E0,-4.482750338E-1,1.415727854E0,2.168638003E0
2.448510750E0,-1.112952595E0,-4.859808040E-1,1.504225463E0,1.933270561E0
2.458454750E0,-5.657952976E-1,-4.322969323E-1,1.686282030E0,1.830451322E0
2.468398750E0,-1.186487764E-1,-2.415730369E-1,1.920846595E0,1.939609936E0
2.478342750E0,1.352566230E-1,2.960679173E-2,2.068105212E0,2.072734929E0
2.488286750E0,2.123030448E-1,3.410242349E-1,2.198682309E0,2.235078076E0
2.498229750E0,1.528087950E-1,6.022047400E-1,2.309314553E0,2.391429443E0
2.508173750E0,8.560674548E-2,7.029329699E-1,2.321129436E0,2.426743731E0
2.518117750E0,3.857525110E-2,5.634575808E-1,2.329055337E0,2.396554039E0
2.528061750E0,-7.639387250E-3,2.922058314E-1,2.293129460E0,2.311684521E0
2.538005750E0,-1.075881833E-1,8.829003274E-2,2.132702327E0,2.137238771E0
2.547948750E0,-1.760064536E-1,-7.636580586E-2,1.849959630E0,1.859881889E0
2.557892750E0,-1.522778678E-1,-2.639550090E-1,1.532992594E0,1.562986593E0
2.567836750E0,-9.437698424E-2,-4.359467643E-1,1.233198831E0,1.311387034E0
2.577780750E0,-1.623988134E-1,-7.182824957E-1,9.660851562E-1,1.214752505E0
2.587724750E0,-1.651949519E-1,-9.859230047E-1,9.159137801E-1,1.355813998E0
2.597668750E0,-1.529292476E-1,-1.141686398E0,8.398794383E-1,1.425563978E0
2.607611750E0,-1.637664771E-1,-1.294805095E0,6.007786041E-1,1.436758374E0
2.617555750E0,-2.370554781E-1,-1.358955483E0,3.833340295E-1,1.431747283E0
2.627499750E0,-3.753772116E-1,-1.342462242E0,1.825407902E-1,1.405857056E0
2.637443750E0,-5.401213431E-1,-1.304620816E0,7.128216349E-2,1.413806099E0
2.647387750E0,-8.261747342E-1,-1.209712320E0,7.635169946E-2,1.466900873E0
2.657330625E0,-1.080896990E0,-1.045248270E0,1.914221261E-1,1.515758780E0
2.667274625E0,-1.195563228E0,-8.785903448E-1,2.533359537E-1,1.505148342E0
2.677218625E0,-1.261413985E0,-7.057846570E-1,4.430686730E-1,1.511822435E0
2.687162625E0,-1.409972439E0,-5.084136468E-1,6.554307747E-1,1.635877812E0
2.697106625E0,-1.535529116E0,-2.690298074E-1,8.867448717E-1,1.793472378E0
2.707050625E0,-1.643414338E0,-3.697019041E-2,1.026602596E0,1.938063562E0
2.716993625E0,-1.668004219E0,1.535285872E-1,1.065136332E0,1.985025064E0
2.726937625E0,-1.585825696E0,2.584592110E-1,1.041031185E0,1.914520888E0
2.736881625E0,-1.326251421E0,3.192778552E-1,9.696437716E-1,1.673645788E0
2.746825625E0,-9.860949129E-1,2.870491719E-1,7.649641804E-1,1.280605561E0
2.756769625E0,-6.593606883E-1,1.998408741E-1,4.281940873E-1,8.111985384E-1
2.766712625E0,-3.973539716E-1,1.228312898E-1,1.145050009E-1,4.313804582E-1
2.776656625E0,-2.242968535E-1,6.234301329E-2,-1.986427796E-1,3.060305274E-1
2.786600625E0,-1.210291779E-1,2.824848354E-2,-3.896216136E-1,4.089633731E-1
2.796544625E0,-5.459194422E-2,-7.636463642E-3,-5.202700460E-1,5.231821066E-1
2.806488625E0,3.425942123E-2,-3.410447001E-2,-5.403276037E-1,5.424857068E-1
2.816432625E0,2.058102965E-2,-3.666438103E-2,-5.376269209E-1,5.392685432E-1
2.826375625E0,-6.160392523E-2,-1.664059103E-2,-4.872145665E-1,4.913756065E-1
2.836319625E0,-1.514142340E-1,1.340708077E-2,-4.461228199E-1,4.713083816E-1
2.846263625E0,-3.158800381E-1,4.791150033E-2,-4.774282278E-1,5.744679478E-1
2.856207625E0,-4.646115696E-1,1.015743220E-1,-5.552176845E-1,7.310594577E-1
2.866151625E0,-5.701082039E-1,1.121495962E-1,-5.852355355E-1,8.246826833E-1
2.876094625E0,-6.049207717E-1,1.070245117E-1,-6.030840151E-1,8.608680012E-1
2.886038625E0,-5.878311145E-1,1.190493107E-1,-6.236564201E-1,8.652545798E-1
2.895982625E0,-5.444272327E-1,1.993128705E-1,-6.110141551E-1,8.422974118E-1
2.905926625E0,-4.457788575E-1,3.356699395E-1,-5.907921445E-1,8.126674942E-1
2.915870625E0,-4.015996349E-1,5.257021093E-1,-5.238245684E-1,8.438229393E-1
2.925814625E0,-3.606118226E-1,7.289133185E-1,-4.529649393E-1,9.308774080E-1
2.935757625E0,-4.010786480E-1,9.412403369E-1,-3.566029716E-1,1.083495793E0
2.945701625E0,-5.225890517E-1,1.114878083E0,-2.490399313E-1,1.256213893E0
2.955645625E0,-6.832038796E-1,1.248314468E0,-1.420733070E-1,1.430119358E0
2.965589625E0,-8.656943107E-1,1.310722970E0,-6.975918308E-2,1.572351007E0
2.975533625E0,-1.003818408E0,1.365866892E0,-4.121848494E-2,1.695565607E0
2.985476625E0,-1.009080318E0,1.454273284E0,-6.337226942E-2,1.771205780E0
2.995420625E0,-9.632989579E-1,1.562971854E0,-1.044662087E-1,1.838950539E0
3.005364625E0,-8.403513086E-1,1.631256223E0,-1.922389090E-1,1.845031974E0
3.015308625E0,-6.503776109E-1,1.617392474E0,-3.876078326E-1,1.785830139E0
3.025252625E0,-4.653214216E-1,1.585739742E0,-5.357675064E-1,1.737279878E0
3.035196625E0,-3.506692171E-1,1.477906560E0,-7.781474590E-1,1.706660531E0
3.045139625E0,-2.079556400E-1,1.439823645E0,-9.604260747E-1,1.743202777E0
3.055083625E0,-1.980218053E-2,1.587908474E0,-9.010062307E-1,1.825830681E0
3.065027625E0,7.126411021E-2,1.806169832E0,-6.516805167E-1,1.921461821E0
3.074971625E0,-2.169843256E-2,2.050487552E0,-3.554243191E-1,2.081176703E0
3.084915625E0,-3.985099661E-1,2.250464666E0,-9.286686771E-2,2.287362162E0
3.094858625E0,-7.072517234E-1,2.367820038E0,1.669659273E-1,2.476823440E0
3.104802625E0,-8.231464612E-1,2.476526794E0,5.190538251E-1,2.660859247E0
3.114746625E0,-7.116412282E-1,2.590484349E0,9.261369058E-1,2.841614324E0
3.124690625E0,-3.758730555E-1,2.688652083E0,1.198901403E0,2.967742434E0
3.134634625E0,-1.997876644E-2,2.698798757E0,1.337223136E0,3.011989309E0
3.144578625E0,3.315236789E-1,2.539056333E0,1.435036529E0,2.935310010E0
3.154521625E0,6.573510003E-1,2.112815362E0,1.383216750E0,2.609480345E0
3.164465625E0,8.551242989E-1,1.626993018E0,1.284085395E0,2.242146103E0
3.174409625E0,8.430731875E-1,1.055337056E0,1.070924710E0,1.723771573E0
3.184353625E0,7.637750030E-1,5.548189044E-1,7.504597235E-1,1.205971006E0
3.194297625E0,7.794911492E-1,2.324934804E-1,5.668665075E-1,9.914622068E-1
3.204240625E0,7.708647519E-1,-7.969637990E-2,4.789863646E-1,9.110498978E-1
3.214184625E0,7.356990123E-1,-5.030692917E-1,4.679959381E-1,1.006653837E0
3.224128625E0,5.704069966E-1,-1.010516394E0,5.067701407E-1,1.266224111E0
3.234072625E0,1.262519109E-1,-1.373157785E0,6.090654244E-1,1.507468918E0
3.244016625E0,-3.294409007E-1,-1.618143257E0,6.941944523E-1,1.791319303E0
3.253960625E0,-7.040170437E-1,-1.806949266E0,7.453608783E-1,2.077563112E0
3.263903625E0,-9.338167119E-1,-2.035864250E0,7.697372626E-1,2.368386022E0
3.273847625E0,-8.708878076E-1,-2.221049078E0,8.473382927E-1,2.531696420E0
3.283791625E0,-6.531298953E-1,-2.340518219E0,1.007337116E0,2.630462366E0
3.293735625E0,-2.521594208E-1,-2.311470421E0,1.105741224E0,2.574712321E0
3.303679625E0,2.836039925E-1,-2.294438066E0,1.048300517E0,2.538466316E0
3.313622625E0,6.742634869E-1,-2.154721187E0,8.047768486E-1,2.396898083E0
3.323566625E0,8.968073452E-1,-1.924958357E0,4.390358484E-1,2.168520363E0
3.333510625E0,9.805020511E-1,-1.657769253E0,1.433386445E-2,1.926081158E0
3.343454625E0,9.743443483E-1,-1.309002135E0,-4.047734305E-1,1.681271848E0
3.353398625E0,8.263168216E-1,-9.763557905E-1,-6.477755269E-1,1.433765411E0
3.363342625E0,7.447440702E-1,-6.588706917E-1,-6.033390268E-1,1.163087400E0
3.373285625E0,6.841306633E-1,-3.100275600E-1,-4.241774887E-1,8.625997880E-1
3.383229625E0,6.060188788E-1,5.387624502E-3,-1.302098912E-1,6.198729900E-1
3.393173625E0,5.916470075E-1,2.372162765E-1,2.736127820E-1,6.936726157E-1
3.403117625E0,5.848513734E-1,3.302004540E-1,7.382166772E-1,9.980217088E-1
3.413061625E0,5.010169190E-1,2.820234901E-1,1.137893821E0,1.274895113E0
3.423005625E0,4.730537796E-1,1.848117757E-1,1.317671217E0,1.412158881E0
3.432948625E0,4.177391195E-1,-2.219603062E-3,1.287707160E0,1.353772739E0
3.442892625E0,3.674331844E-1,-2.163218361E-1,1.111401841E0,1.190384952E0
3.452836625E0,3.063549238E-1,-4.306772536E-1,8.959155717E-1,1.040192745E0
3.462780625E0,2.063166654E-1,-6.920507169E-1,6.700897443E-1,9.851502559E-1
3.472724625E0,1.066567218E-1,-9.566477501E-1,4.464268021E-1,1.061059595E0
3.482667625E0,7.089515090E-2,-1.191674244E0,3.013239795E-1,1.231222875E0
3.492611625E0,1.070894158E-1,-1.379844661E0,1.917489123E-1,1.397214041E0
3.502555625E0,7.648391962E-2,-1.501219994E0,6.301778197E-2,1.504487454E0
3.512499625E0,-8.971032143E-2,-1.566066785E0,-4.330623329E-2,1.569231833E0
3.522443625E0,-2.745969415E-1,-1.602845187E0,-1.443081859E-1,1.632587218E0
3.532386625E0,-4.228653735E-1,-1.599932104E0,-2.354192810E-1,1.671532261E0
3.542330625E0,-5.171669286E-1,-1.535789902E0,-2.686884762E-1,1.642652049E0
3.552274625E0,-6.041752517E-1,-1.436041081E0,-3.239809169E-1,1.591290469E0
3.562218625E0,-5.626348776E-1,-1.230050690E0,-3.603193156E-1,1.399790240E0
3.572162625E0,-5.236666936E-1,-9.475266784E-1,-3.751501934E-1,1.145762314E0
3.582106625E0,-4.534644377E-1,-6.549226516E-1,-3.367458272E-1,8.648418515E-1
3.592049625E0,-4.213082600E-1,-4.055897748E-1,-2.757160985E-1,6.465470458E-1
3.601993625E0,-4.411741751E-1,-2.527277702E-1,-1.819443742E-1,5.400090128E-1
3.611937625E0,-3.895532012E-1,-2.236834806E-1,-5.749113992E-2,4.528699893E-1
3.621881625E0,-3.304261565E-1,-2.871193385E-1,-5.684663057E-2,4.414187342E-1
3.631825625E0,-1.716187030E-1,-3.471649808E-1,-1.288088983E-1,4.081277194E-1
3.641769625E0,-5.468257606E-2,-3.722828650E-1,-1.658754216E-1,4.112169394E-1
3.651713000E0,1.082319617E-3,-3.297432017E-1,-2.194788209E-1,3.961094588E-1
3.661657000E0,-2.434956014E-2,-1.840358502E-1,-3.365025830E-1,3.843124817E-1
3.671601000E0,-1.059310824E-1,2.728310823E-3,-5.382105462E-1,5.485430064E-1
3.681545000E0,-2.192384273E-1,1.798498285E-1,-7.200220424E-1,7.738495915E-1
3.691489000E0,-2.932220775E-1,2.970215982E-1,-8.703561495E-1,9.652568796E-1
3.701432000E0,-3.546798223E-1,3.774874717E-1,-9.786538924E-1,1.107275038E0
3.711376000E0,-3.933503830E-1,4.158843827E-1,-1.058867605E0,1.203696369E0
3.721320000E0,-3.700387037E-1,4.424827820E-1,-1.068918968E0,1.214622335E0
3.731264000E0,-3.223289323E-1,4.306573731E-1,-1.047967225E0,1.177963080E0
3.741208000E0,-1.611445856E-1,3.545734030E-1,-9.820521480E-1,1.056464054E0
3.751152000E0,4.057382941E-3,2.545918626E-1,-9.480100970E-1,9.816092007E-1
3.761095000E0,1.730348986E-1,1.586156648E-1,-9.416062264E-1,9.704237687E-1
3.771039000E0,2.689268965E-1,6.561920822E-2,-9.568524027E-1,9.960893919E-1
3.780983000E0,2.801184672E-1,2.355550826E-2,-1.011515244E0,1.049849659E0
3.790927000E0,2.717592877E-1,1.304572284E-2,-1.074023734E0,1.107948682E0
3.800871000E0,2.116855788E-1,1.589214742E-2,-1.165291461E0,1.184469305E0
3.810814000E0,1.270295906E-1,8.118508101E-2,-1.288613479E0,1.297402109E0
3.820758000E0,9.389400423E-2,1.392572880E-1,-1.370959963E0,1.381209577E0
3.830702000E0,9.788122058E-2,1.834821188E-1,-1.463810093E0,1.478508170E0
3.840646000E0,1.419908613E-1,2.052261597E-1,-1.495120909E0,1.515805302E0
3.850590000E0,1.819770455E-1,1.980931413E-1,-1.523960693E0,1.547518249E0
3.860534000E0,2.091794622E-1,1.903911889E-1,-1.507637898E0,1.533941617E0
3.870477000E0,1.793756193E-1,2.020546299E-1,-1.497338612E0,1.521520491E0
3.880421000E0,1.645418179E-1,2.004747123E-1,-1.528452816E0,1.550300658E0
3.890365000E0,1.809841883E-1,1.629952294E-1,-1.560816570E0,1.579706013E0
3.900309000E0,2.218521327E-1,4.650524497E-2,-1.592520173E0,1.608571294E0
3.910253000E0,3.484700793E-1,-1.052364331E-1,-1.575088015E0,1.616603959E0
3.920197000E0,6.422096354E-1,-2.861796910E-1,-1.355037995E0,1.526584422E0
3.930140000E0,1.180689665E0,-3.422118044E-1,-1.008584474E0,1.590087936E0
3.940084000E0,1.633013311E0,-2.223924154E-1,-6.443111247E-1,1.769555788E0
3.950028000E0,1.788987789E0,-2.506701350E-2,-5.600233649E-1,1.874761807E0
3.959972000E0,1.786618497E0,2.188437402E-2,-6.679822616E-1,1.907533717E0
3.969916000E0,1.930330778E0,-1.982071620E-1,-7.298621754E-1,2.073200856E0
3.979859000E0,2.262202367E0,-5.771166766E-1,-5.629506272E-1,2.401569615E0
3.989803000E0,2.372313039E0,-8.960670877E-1,-2.440570803E-1,2.547620309E0
3.999747000E0,2.178647409E0,-9.497147065E-1,1.183008671E-1,2.379591909E0
4.009691000E0,2.195656959E0,-7.638697278E-1,5.687868793E-1,2.393308371E0
4.019635000E0,2.495577022E0,-3.988923740E-1,9.771182674E-1,2.709571905E0
4.029579000E0,2.671940156E0,5.619466603E-2,1.224833220E0,2.939836467E0
4.039522000E0,2.660764958E0,5.153759265E-1,1.239369982E0,2.980154435E0
4.049466000E0,2.546596903E0,8.799498224E-1,1.015114644E0,2.879223023E0
4.059410000E0,2.169901729E0,1.126357922E0,7.027468823E-1,2.543817773E0
4.069354000E0,1.339242180E0,1.444948145E0,5.960838747E-1,2.058339317E0
4.079298000E0,4.314660430E-1,1.696893557E0,5.645445782E-1,1.839652487E0
4.089241000E0,-1.330346811E-1,1.549276505E0,3.881194639E-1,1.602682949E0
4.099185000E0,-3.907314152E-1,1.229967660E0,4.910431771E-1,1.380802261E0
4.109129000E0,-4.486410695E-1,8.180120212E-1,7.209831785E-1,1.179084060E0
4.119073000E0,-5.689311594E-1,2.728059393E-1,8.133785413E-1,1.029412646E0
4.129017000E0,-8.251152188E-1,-2.861060160E-1,7.793158789E-1,1.170472134E0
4.138961000E0,-1.161716035E0,-7.756337410E-1,7.258258425E-1,1.574171210E0
4.148904000E0,-1.462023184E0,-1.149847357E0,7.481013952E-1,2.004823292E0
4.158848000E0,-1.643261141E0,-1.406962878E0,8.036851734E-1,2.307761161E0
4.168792000E0,-1.700046961E0,-1.541787976E0,9.272793786E-1,2.475301371E0
4.178736000E0,-1.586725582E0,-1.542972037E0,1.152757370E0,2.495457941E0
4.188680000E0,-1.232289004E0,-1.421224236E0,1.501990657E0,2.407154015E0
4.198623000E0,-8.432690692E-1,-1.217492625E0,1.834849840E0,2.357978997E0
4.208567000E0,-4.074848574E-1,-9.851956111E-1,2.075348012E0,2.333178877E0
4.218511000E0,-1.983018869E-1,-6.345743412E-1,2.215663939E0,2.313260669E0
4.228455000E0,-2.020715868E-1,-1.563603938E-1,2.131612991E0,2.146871082E0
4.238399000E0,-1.984135687E-1,2.564559549E-1,1.836270128E0,1.864678414E0
4.248343000E0,-7.055250406E-2,5.487319529E-1,1.515021762E0,1.612877971E0
4.258286000E0,1.800872254E-1,6.642928147E-1,1.176290805E0,1.362855975E0
4.268230000E0,4.906188154E-1,6.648477155E-1,8.556055248E-1,1.189449503E0
4.278174000E0,7.390991682E-1,6.079543072E-1,6.647206847E-1,1.165216550E0
4.288118000E0,8.781488800E-1,4.993007612E-1,6.012531057E-1,1.175564546E0
4.298062000E0,8.156193405E-1,3.520824891E-1,6.139984278E-1,1.079903263E0
4.308005000E0,6.826975107E-1,1.908595508E-1,6.036908099E-1,9.310992714E-1
4.317949000E0,4.704798353E-1,-1.315214217E-2,6.041787601E-1,7.658695896E-1
4.327893000E0,1.820045274E-1,-1.235662848E-1,6.328407879E-1,6.699863712E-1
4.337837000E0,-1.069286174E-1,-1.715140378E-1,5.375665484E-1,5.743070506E-1
4.347781000E0,-3.432268810E-1,-2.944605178E-1,2.922824299E-1,5.384614259E-1
4.357725000E0,-6.392836887E-1,-5.046562260E-1,1.689396550E-1,8.318065569E-1
4.367668000E0,-1.039047298E0,-5.682271546E-1,2.530509751E-1,1.211006269E0
4.377612000E0,-1.325771365E0,-5.578734899E-1,3.530196516E-1,1.481052132E0
4.387556000E0,-1.514464522E0,-4.809048361E-1,4.025555085E-1,1.639183695E0
4.397500000E0,-1.654331090E0,-3.247420782E-1,4.042091011E-1,1.733682142E0
4.407444000E0,-1.695839889E0,-2.475085455E-1,3.358808778E-1,1.746410425E0
4.417387000E0,-1.646749005E0,-2.163855708E-1,4.083753884E-1,1.710372901E0
4.427331000E0,-1.583868048E0,-2.627077979E-1,6.022819233E-1,1.714758553E0
4.437275000E0,-1.444584448E0,-3.191006845E-1,8.022811107E-1,1.682945173E0
4.447219000E0,-1.199008407E0,-3.561550748E-1,9.249704593E-1,1.555647116E0
4.457163000E0,-9.053249842E-1,-4.027614766E-1,9.411317249E-1,1.366586645E0
4.467107000E0,-6.394737232E-1,-4.800599134E-1,7.836800945E-1,1.119615404E0
4.477050000E0,-4.098418701E-1,-5.566139996E-1,5.367159247E-1,8.751305542E-1
4.486994000E0,-2.922724897E-1,-5.942344004E-1,2.738637006E-1,7.166163948E-1
4.496938000E0,-2.293617117E-1,-5.626822400E-1,4.919554889E-2,6.096214400E-1
4.506882000E0,-2.272438502E-1,-4.530416840E-1,-1.727232420E-1,5.354622800E-1
4.516826000E0,-2.803494322E-1,-2.926092893E-1,-3.650849426E-1,5.454383701E-1
4.526770000E0,-3.555276686E-1,-1.783546954E-1,-5.335360627E-1,6.654855751E-1
4.536713000E0,-4.747184819E-1,-7.362053812E-2,-6.521059017E-1,8.099504477E-1
4.546657000E0,-5.953991657E-1,5.048485994E-3,-6.788424414E-1,9.029688334E-1
4.556601000E0,-6.794061130E-1,6.089641213E-2,-6.701797915E-1,9.562646037E-1
4.566545000E0,-7.436225742E-1,9.604168653E-2,-6.269973730E-1,9.774068979E-1
4.576489000E0,-7.545808411E-1,1.229570049E-1,-5.251520325E-1,9.275210661E-1
4.586432000E0,-7.451451892E-1,1.878546667E-1,-4.232309707E-1,8.772999392E-1
4.596376000E0,-7.332905442E-1,2.351416844E-1,-3.063812363E-1,8.287798838E-1
4.606320000E0,-7.232479513E-1,2.815334934E-1,-1.773413730E-1,7.961147339E-1
4.616264000E0,-6.696026713E-1,3.253852719E-1,-6.564508215E-2,7.473637597E-1
4.626208000E0,-6.256099749E-1,3.825458980E-1,-4.671048224E-3,7.333150915E-1
4.636152000E0,-5.395699507E-1,4.541421300E-1,3.435706973E-2,7.060886730E-1
4.646095000E0,-4.411262280E-1,5.417328358E-1,1.369125545E-2,6.987519337E-1
4.656038375E0,-4.029778236E-1,6.275430644E-1,-4.926586166E-2,7.474145764E-1
4.665982375E0,-3.894625694E-1,6.766415495E-1,-1.430511077E-1,7.937181482E-1
4.675926375E0,-3.733260083E-1,7.022570318E-1,-2.564501077E-1,8.356458011E-1
4.685870375E0,-3.662175483E-1,7.169054765E-1,-3.146247871E-1,8.643248877E-1
4.695814375E0,-3.668613267E-1,7.806114757E-1,-3.443853606E-1,9.287318158E-1
4.705757375E0,-3.090756333E-1,9.077293593E-1,-2.892180504E-1,1.001572472E0
4.715701375E0,-2.565781617E-1,1.035251870E0,-2.581908238E-1,1.097379282E0
4.725645375E0,-2.256674409E-1,1.160472917E0,-2.650753355E-1,1.211564327E0
4.735589375E0,-1.636220509E-1,1.263692061E0,-3.174979627E-1,1.313200197E0
4.745533375E0,-9.722106993E-2,1.357171497E0,-3.802077426E-1,1.412771863E0
4.755476375E0,-8.595874786E-2,1.463785535E0,-4.354117441E-1,1.529588305E0
4.765420375E0,-7.744871020E-2,1.498658329E0,-5.825458163E-1,1.609762317E0
4.775364375E0,-1.139405984E-1,1.484444332E0,-8.314385439E-1,1.705241182E0
4.785308375E0,-2.670429236E-1,1.438159527E0,-1.099370244E0,1.829816844E0
4.795252375E0,-4.731157601E-1,1.438113919E0,-1.335824629E0,2.019018971E0
4.805196375E0,-6.025707757E-1,1.532968621E0,-1.420130222E0,2.174822793E0
4.815139375E0,-5.976614535E-1,1.739954792E0,-1.207497395E0,2.200611699E0
4.825083375E0,-5.237912393E-1,2.073929039E0,-8.615837181E-1,2.306049745E0
4.835027375E0,-5.723313153E-1,2.322982419E0,-5.166414101E-1,2.447596536E0
4.844971375E0,-7.640632707E-1,2.346457236E0,-2.501935869E-1,2.480373172E0
4.854915375E0,-9.054407591E-1,2.194161242E0,3.977816954E-2,2.373973215E0
4.864858375E0,-8.410360175E-1,1.947798166E0,4.941680753E-1,2.178407988E0
4.874802375E0,-5.830211949E-1,1.692830912E0,9.822503686E-1,2.042157192E0
4.884746375E0,-3.029682165E-1,1.617971933E0,1.395978883E0,2.158328047E0
4.894690375E0,-1.020450228E-1,1.526634917E0,1.605362267E0,2.217704977E0
4.904634375E0,1.296105516E-1,1.342584448E0,1.644520631E0,2.126917959E0
4.914578375E0,3.374223500E-1,1.094038022E0,1.660384127E0,2.016841215E0
4.924521375E0,4.164281738E-1,7.538955474E-1,1.520460257E0,1.747446798E0
4.934465375E0,4.469190645E-1,3.792316961E-1,1.274694766E0,1.402996820E0
4.944409375E0,4.390452039E-1,1.074449265E-1,1.021045475E0,1.116619436E0
4.954353375E0,4.198265755E-1,-5.798683763E-2,7.819697839E-1,8.894344101E-1
4.964297375E0,2.964573419E-1,-1.734851342E-1,5.224263529E-1,6.252306308E-1
4.974240375E0,1.170507324E-1,-2.984588438E-1,3.374964635E-1,4.654915878E-1
4.984184375E0,-2.222526670E-3,-4.299288100E-1,2.379888399E-1,4.914085970E-1
4.994128375E0,-5.051000297E-2,-5.092012668E-1,2.279076554E-1,5.601598788E-1
5.004072375E0,-2.105406940E-2,-5.143778068E-1,2.695822231E-1,5.811216542E-1
5.014016375E0,7.092906475E-2,-5.247548604E-1,3.556855434E-1,6.378956039E-1
5.023960375E0,2.308854961E-1,-5.493014717E-1,4.915034992E-1,7.724091589E-1
5.033903375E0,3.816413337E-1,-5.704666382E-1,6.783799267E-1,9.650293352E-1
5.043847375E0,4.392621356E-1,-5.872756290E-1,9.262643020E-1,1.181443797E0
5.053791375E0,4.198183894E-1,-6.151762033E-1,1.066445596E0,1.300767255E0
5.063735375E0,3.670209557E-1,-6.911788970E-1,1.092392762E0,1.343783686E0
5.073679375E0,3.354366356E-1,-9.126287413E-1,9.814307351E-1,1.381526418E0
5.083623375E0,3.452839315E-1,-1.161121958E0,7.578734082E-1,1.428914727E0
5.093566375E0,3.772629386E-1,-1.404293039E0,5.584272212E-1,1.557628719E0
5.103510375E0,3.936965382E-1,-1.623527373E0,4.456876409E-1,1.729009997E0
5.113454375E0,3.334819114E-1,-1.771927952E0,4.264543945E-1,1.852782287E0
5.123398375E0,1.830985415E-1,-1.826885932E0,5.082921709E-1,1.905097954E0
5.133342375E0,-5.013870478E-2,-1.679047855E0,6.576649958E-1,1.803950896E0
5.143285375E0,-2.065125471E-1,-1.521588185E0,7.856166192E-1,1.724839560E0
5.153229375E0,-2.791121614E-1,-1.401804464E0,9.332447080E-1,1.707016414E0
5.163173375E0,-2.860124606E-1,-1.297745075E0,1.018358679E0,1.674216177E0
5.173117375E0,-2.616091061E-1,-1.222023633E0,1.084978931E0,1.654980472E0
5.183061375E0,-1.984229243E-1,-1.079120021E0,1.106941585E0,1.558586330E0
5.193005375E0,-1.622222275E-1,-9.381547612E-1,1.067039600E0,1.430043326E0
5.202948375E0,-1.329095507E-1,-7.827866399E-1,9.469980901E-1,1.235809555E0
5.212892375E0,-1.196129823E-1,-6.969132614E-1,7.833842254E-1,1.055313320E0
5.222836375E0,-4.279226303E-2,-6.519551897E-1,6.780162299E-1,9.415852352E-1
5.232780375E0,-3.443483770E-2,-6.586923516E-1,5.762642987E-1,8.758663791E-1
5.242724375E0,-3.367119133E-2,-7.496358508E-1,4.627691120E-1,8.816138094E-1
5.252668375E0,-7.666869164E-3,-8.704404956E-1,3.350331777E-1,9.327232534E-1
5.262611375E0,1.479175991E-1,-9.125071192E-1,1.939650071E-1,9.445481897E-1
5.272555375E0,4.484153670E-1,-8.984591836E-1,9.428518295E-2,1.008560827E0
5.282499375E0,7.685931087E-1,-8.519141775E-1,2.496351779E-2,1.147656878E0
5.292443375E0,9.841863817E-1,-8.054276437E-1,-4.653608903E-2,1.272596610E0
5.302387375E0,1.140502921E0,-7.806062132E-1,-1.168286113E-1,1.386990230E0
5.312330375E0,1.202393945E0,-7.621594173E-1,-1.529655004E-1,1.431794895E0
5.322274375E0,1.158083160E0,-7.494534177E-1,-2.153412580E-1,1.396140712E0
5.332218375E0,1.013372174E0,-7.534733784E-1,-3.162291900E-1,1.301785772E0
5.342162375E0,7.231462097E-1,-7.714506429E-1,-3.941046739E-1,1.128448062E0
5.352106375E0,3.316061246E-1,-7.376052046E-1,-3.828826976E-1,8.947755137E-1
5.362050375E0,-1.379194450E-1,-6.260432535E-1,-3.866642381E-1,7.486395405E-1
5.371993375E0,-5.429268372E-1,-4.535965848E-1,-3.970480160E-1,8.112746387E-1
5.381937375E0,-8.238539743E-1,-2.466490048E-1,-3.973399383E-1,9.473384449E-1
5.391881375E0,-9.473243648E-1,-3.937281132E-2,-3.075372308E-1,9.967711968E-1
5.401825375E0,-1.047107100E0,7.439821780E-2,-2.376864658E-1,1.076319297E0
5.411769375E0,-9.778824985E-1,5.100935519E-2,-2.722763278E-1,1.016361419E0
5.421712375E0,-8.175056523E-1,1.467241824E-2,-3.714221549E-1,8.980452041E-1
5.431656375E0,-6.719971061E-1,-3.052831292E-2,-4.347784907E-1,8.009646836E-1
5.441600375E0,-5.651854330E-1,-2.732403874E-2,-5.120250334E-1,7.631191333E-1
5.451544375E0,-4.804323810E-1,9.383026958E-3,-5.862624528E-1,7.580283487E-1
5.461488375E0,-4.260772491E-1,8.956121743E-2,-6.427692139E-1,7.763474069E-1
5.471432375E0,-3.395162380E-1,1.715444434E-1,-7.141175240E-1,8.091122357E-1
5.481375375E0,-3.094913703E-1,2.183876574E-1,-7.528781319E-1,8.427950870E-1
5.491319375E0,-2.988891989E-1,2.287606180E-1,-8.083426268E-1,8.916748151E-1
5.501263375E0,-3.369849783E-1,2.283250004E-1,-8.811275978E-1,9.706065243E-1
5.511207375E0,-3.444559658E-1,1.795375872E-1,-9.119826239E-1,9.912597863E-1
5.521151375E0,-3.384783572E-1,8.467703819E-2,-8.742577042E-1,9.413099024E-1
5.531095375E0,-3.399389917E-1,-3.427579343E-2,-8.918220091E-1,9.550287137E-1
5.541038375E0,-2.779614294E-1,-1.154181898E-1,-9.651104254E-1,1.010951061E0
5.550982375E0,-2.093075162E-1,-1.260086668E-1,-1.034903961E0,1.063350379E0
5.560926375E0,-1.276692760E-1,-1.239779288E-1,-1.060892496E0,1.075715045E0
5.570870375E0,-1.460459054E-2,-1.171208990E-1,-1.056208437E0,1.062782603E0
5.580814375E0,8.874786973E-2,-1.445420015E-1,-1.035010965E0,1.048816606E0
5.590757375E0,1.160871112E-1,-2.086163753E-1,-1.057189454E0,1.083811123E0
5.600701375E0,1.991479790E-1,-3.262991917E-1,-1.117235681E0,1.180824562E0
5.610645375E0,2.771200150E-1,-4.472698975E-1,-1.195170879E0,1.305863429E0
5.620589375E0,3.090955138E-1,-5.398938864E-1,-1.263864554E0,1.408679898E0
5.630533375E0,3.259407574E-1,-5.716553771E-1,-1.330302518E0,1.484160381E0
5.640477375E0,3.398068446E-1,-4.498707390E-1,-1.341356533E0,1.455022241E0
5.650420375E0,3.513264441E-1,-2.664014840E-1,-1.379896116E0,1.448624628E0
5.660364375E0,3.698586094E-1,-1.475954175E-2,-1.422160376E0,1.469541891E0
5.670308375E0,3.563258135E-1,2.100565445E-1,-1.448333244E0,1.506240692E0
5.680252375E0,2.585650456E-1,3.762876230E-1,-1.506364959E0,1.574034195E0
5.690196375E0,1.752141559E-1,3.694364405E-1,-1.526077677E0,1.579903909E0
5.700140375E0,1.601254159E-1,1.912267560E-1,-1.502877241E0,1.523432907E0
5.710083375E0,3.119086093E-1,-6.957426488E-2,-1.416850373E0,1.452443644E0
5.720027375E0,6.866011119E-1,-2.632591903E-1,-1.148821024E0,1.364007417E0
5.729971375E0,1.150943125E0,-3.047416770E-1,-8.239739884E-1,1.447919438E0
5.739915375E0,1.500056983E0,-2.565249521E-1,-6.423319884E-1,1.651837276E0
5.749859375E0,1.623782312E0,-1.911273533E-1,-6.384229785E-1,1.755215816E0
5.759802375E0,1.728783687E0,-1.427498299E-1,-6.266958028E-1,1.844401849E0
5.769746375E0,1.957223877E0,-1.783903635E-1,-5.585899200E-1,2.043176724E0
5.779690375E0,2.225369001E0,-1.805760527E-1,-4.140888490E-1,2.270758568E0
5.789634375E0,2.498935078E0,-9.582241595E-2,-2.364116997E-1,2.511921367E0
5.799578375E0,2.912826145E0,5.316346943E-2,1.837721407E-2,2.913369223E0
5.809522375E0,3.258419979E0,3.097650200E-1,3.264789936E-1,3.289353076E0
5.819465375E0,3.350346980E0,6.268642026E-1,5.932472442E-1,3.459729167E0
5.829409375E0,3.250440284E0,8.998835653E-1,7.196225314E-1,3.448624227E0
5.839353375E0,2.818718133E0,1.113735538E0,7.091070449E-1,3.112621333E0
5.849297375E0,2.253268991E0,1.189704317E0,6.725730568E-1,2.635331483E0
5.859241375E0,1.524563248E0,1.186845029E0,7.195855477E-1,2.061721994E0
5.869185375E0,6.880950755E-1,1.235109116E0,7.451701860E-1,1.598201479E0
5.879128375E0,-8.032729447E-2,1.263333626E0,7.517630678E-1,1.472281235E0
5.889072375E0,-4.093524581E-1,1.153000175E0,8.477075444E-1,1.488484773E0
5.899016375E0,-5.427175069E-1,8.358442748E-1,9.941336650E-1,1.407650414E0
5.908960375E0,-7.086533010E-1,3.967634028E-1,1.006188869E0,1.293068730E0
5.918904375E0,-9.433576137E-1,-1.762175381E-2,9.193178098E-1,1.317337978E0
5.928847375E0,-1.272029021E0,-4.061388284E-1,8.179611504E-1,1.565907731E0
5.938791375E0,-1.677868472E0,-8.124255913E-1,7.795873359E-1,2.020651965E0
5.948735375E0,-2.031572394E0,-1.165714946E0,8.479287153E-1,2.491016024E0
5.958679375E0,-2.151082465E0,-1.447309835E0,1.038541368E0,2.792924937E0
5.968623375E0,-2.073598087E0,-1.600793983E0,1.265588897E0,2.909306732E0
5.978567375E0,-1.942965442E0,-1.553364294E0,1.540016270E0,2.925697429E0
5.988510375E0,-1.682305924E0,-1.321269593E0,1.805387328E0,2.799165941E0
5.998454375E0,-1.344159104E0,-1.025139111E0,1.903671568E0,2.545906387E0
6.008398375E0,-9.115440828E-1,-7.254897738E-1,1.901930267E0,2.230378167E0
6.018342375E0,-4.394036382E-1,-4.069650400E-1,1.786079968E0,1.883819990E0
6.028286375E0,-6.958712876E-2,-1.096101505E-1,1.646916236E0,1.652025981E0
6.038229375E0,2.563998216E-1,1.922301382E-1,1.490917785E0,1.524968569E0
6.048173375E0,6.431510371E-1,4.485492682E-1,1.292965561E0,1.512150669E0
6.058117375E0,1.092993709E0,6.267513514E-1,1.074198419E0,1.655703702E0
6.068061375E0,1.350873461E0,7.790192789E-1,8.816763590E-1,1.791391456E0
6.078005375E0,1.360776891E0,7.792303634E-1,7.327637100E-1,1.730854228E0
6.087949375E0,1.151364124E0,6.697552836E-1,6.305812776E-1,1.473717827E0
6.097892375E0,8.729559678E-1,5.146877092E-1,5.019435565E-1,1.130885889E0
6.107836375E0,4.722322458E-1,3.845251805E-1,4.225255041E-1,7.412089516E-1
6.117780375E0,7.930754006E-2,3.571707362E-1,3.668986027E-1,5.181459306E-1
6.127724375E0,-2.000724238E-1,3.169921786E-1,3.293571393E-1,4.989881174E-1
6.137668375E0,-4.810708970E-1,1.743791735E-1,2.409706275E-1,5.656006961E-1
6.147612375E0,-6.785302001E-1,-1.967085207E-1,9.705544755E-2,7.131039437E-1
6.157555375E0,-8.668046969E-1,-4.731362253E-1,1.036040367E-1,9.929461550E-1
6.167499375E0,-1.030017443E0,-5.602480441E-1,2.500045757E-1,1.198881183E0
6.177443375E0,-1.120286758E0,-6.113304895E-1,3.840943868E-1,1.332777508E0
6.187387375E0,-1.233789400E0,-6.493677968E-1,4.686110651E-1,1.470887878E0
6.197331375E0,-1.303913303E0,-6.846118891E-1,6.244579272E-1,1.599634659E0
6.207275375E0,-1.385220591E0,-6.573527545E-1,7.910013932E-1,1.725291840E0
6.217218375E0,-1.501600063E0,-6.129718029E-1,8.919716978E-1,1.850986410E0
6.227162375E0,-1.598773770E0,-5.434460700E-1,9.377869713E-1,1.931542286E0
6.237106375E0,-1.614378235E0,-5.117588389E-1,9.180056946E-1,1.926356314E0
6.247050375E0,-1.565841667E0,-4.842178684E-1,8.590945584E-1,1.850505480E0
6.256994375E0,-1.409032207E0,-4.291943997E-1,7.273046033E-1,1.642726873E0
6.266937375E0,-1.169334372E0,-4.178361833E-1,5.207132649E-1,1.346503715E0
6.276881375E0,-9.359135234E-1,-3.925060451E-1,2.993096137E-1,1.058102719E0
6.286825375E0,-6.899176526E-1,-3.685289526E-1,7.548287630E-2,7.858101685E-1
6.296769375E0,-4.891774768E-1,-3.347653753E-1,-1.041285320E-1,6.018348706E-1
6.306713375E0,-3.328480732E-1,-2.955673957E-1,-2.589351743E-1,5.149712126E-1
6.316657375E0,-2.268725520E-1,-2.145091993E-1,-3.888971436E-1,4.987247134E-1
6.326600375E0,-1.281850004E-1,-1.037576723E-1,-5.286210394E-1,5.537483654E-1
6.336544375E0,-5.678932786E-2,-3.405009091E-2,-6.139009255E-1,6.174615638E-1
6.346488375E0,-3.422609210E-2,1.836025715E-4,-6.666071427E-1,6.674852371E-1
6.356432375E0,-9.409924150E-2,6.013802826E-2,-6.753849828E-1,6.845554212E-1
6.366376375E0,-2.255785632E-1,1.764286226E-1,-6.358290075E-1,6.973458782E-1
6.376319375E0,-3.840281671E-1,3.283778769E-1,-5.551450329E-1,7.506634870E-1
6.386263375E0,-5.355160761E-1,4.734461278E-1,-4.193786788E-1,8.287383060E-1
6.396207375E0,-6.559441602E-1,6.051067132E-1,-3.110683644E-1,9.450822202E-1
6.406151375E0,-7.601959223E-1,7.007361710E-1,-2.390218967E-1,1.061159973E0
6.416095375E0,-8.093943948E-1,7.304119599E-1,-2.239828581E-1,1.113009092E0
6.426039375E0,-8.236838204E-1,7.472273827E-1,-2.183226071E-1,1.133343972E0
6.435982375E0,-7.913738608E-1,7.236595953E-1,-2.131158078E-1,1.093331672E0
6.445926375E0,-7.237665993E-1,6.583444422E-1,-1.970185693E-1,9.980339731E-1
6.455870375E0,-6.634385365E-1,5.902425063E-1,-1.893562317E-1,9.079607318E-1
6.465814375E0,-5.830860990E-1,4.749073470E-1,-2.164243086E-1,7.825380939E-1
6.475758375E0,-4.867888892E-1,3.859986788E-1,-2.189887512E-1,6.587218501E-1
6.485702375E0,-4.168626219E-1,3.124424601E-1,-2.949166006E-1,5.986405747E-1
6.495645375E0,-3.585576957E-1,2.914182115E-1,-4.082853413E-1,6.165915301E-1
6.505589375E0,-2.790571976E-1,2.811803216E-1,-4.908760929E-1,6.307888960E-1
6.515533375E0,-2.263767081E-1,3.250695223E-1,-5.727374044E-1,6.963797403E-1
6.525477375E0,-2.200389111E-1,3.932965887E-1,-6.223185772E-1,7.683617251E-1
6.535421375E0,-2.899546534E-1,5.306728274E-1,-6.348933068E-1,8.767992140E-1
6.545365375E0,-3.314885956E-1,6.328114057E-1,-6.289494659E-1,9.517943028E-1
6.555308375E0,-3.617526144E-1,7.445265538E-1,-6.709821756E-1,1.065552356E0
6.565252375E0,-4.349831432E-1,8.940667552E-1,-7.494407000E-1,1.245081146E0
6.575196375E0,-5.148485076E-1,1.069959188E0,-8.717463250E-1,1.473032011E0
6.585140375E0,-5.712799859E-1,1.276536639E0,-1.030098280E0,1.736953966E0
6.595084375E0,-6.464126140E-1,1.445719977E0,-1.124443836E0,1.942248558E0
6.605027375E0,-6.984119028E-1,1.557463776E0,-1.140752159E0,2.052994907E0
6.614971375E0,-6.451396751E-1,1.666615505E0,-1.060707285E0,2.078199314E0
6.624915375E0,-3.815150338E-1,1.872101866E0,-7.605913402E-1,2.056409080E0
6.634859375E0,-7.251482964E-2,2.119050248E0,-3.582862388E-1,2.150349131E0
6.644803375E0,-6.140804350E-2,2.410028164E0,-1.182469265E-1,2.413708565E0
6.654748250E0,-3.505592895E-1,2.707988241E0,-1.020070159E-1,2.732489260E0
6.664691250E0,-7.026014328E-1,2.853414341E0,-1.033882745E-1,2.940461071E0
6.674635250E0,-8.575356907E-1,2.899470520E0,1.114735119E-1,3.025677296E0
6.684579250E0,-7.637019128E-1,2.936430185E0,4.842359948E-1,3.072514824E0
6.694523250E0,-5.850186038E-1,2.910645719E0,7.893928242E-1,3.072010139E0
6.704467250E0,-2.065751123E-1,2.919106640E0,9.547438967E-1,3.078212592E0
6.714411250E0,1.316360271E-1,2.795871307E0,1.056687763E0,2.991791008E0
6.724354250E0,3.645733112E-1,2.369035090E0,1.136869608E0,2.652868911E0
6.734298250E0,5.070617706E-1,1.730873482E0,1.156135306E0,2.142354661E0
6.744242250E0,7.195887637E-1,1.058999167E0,1.126269629E0,1.705218608E0
6.754186250E0,9.302662826E-1,3.378556287E-1,1.058805040E0,1.449348093E0
6.764130250E0,1.044546604E0,-1.797679675E-1,9.126262562E-1,1.398671089E0
6.774073250E0,1.057826216E0,-6.102481699E-1,7.192547415E-1,1.417295493E0
6.784017250E0,9.782181287E-1,-8.762894654E-1,5.589423609E-1,1.427308830E0
6.793961250E0,7.220387471E-1,-1.020965953E0,4.619317907E-1,1.333076295E0
6.803905250E0,3.422720307E-1,-1.146116248E0,4.352725804E-1,1.272868735E0
6.813849250E0,-3.944356263E-2,-1.228574268E0,4.589773388E-1,1.312101644E0
6.823793250E0,-3.948718286E-1,-1.247664843E0,5.133118594E-1,1.405731264E0
6.833736250E0,-6.272378397E-1,-1.274463801E0,5.153443515E-1,1.511047679E0
6.843680250E0,-7.413550240E-1,-1.263217852E0,4.887978463E-1,1.544101663E0
6.853624250E0,-7.276982671E-1,-1.145915689E0,5.229925096E-1,1.454712583E0
6.863568250E0,-6.780764562E-1,-9.767247498E-1,6.499998808E-1,1.355093636E0
6.873512250E0,-6.148399884E-1,-8.734418714E-1,7.963147581E-1,1.332308563E0
6.883456250E0,-4.947270691E-1,-8.601353627E-1,9.009664696E-1,1.340271724E0
6.893399250E0,-2.474512428E-1,-9.691771638E-1,9.730187845E-1,1.395457648E0
6.903343250E0,5.342308581E-2,-1.179666402E0,9.219820936E-1,1.498171495E0
6.913287250E0,2.976840878E-1,-1.410204574E0,8.780196565E-1,1.687664443E0
6.923231250E0,4.976196867E-1,-1.550518454E0,8.330108602E-1,1.829109051E0
6.933175250E0,6.502185667E-1,-1.638372284E0,7.230753122E-1,1.905225927E0
6.943118250E0,7.985653514E-1,-1.701340950E0,6.020195295E-1,1.973498204E0
6.953062250E0,9.185309207E-1,-1.770339848E0,5.576279068E-1,2.070930012E0
6.963006250E0,1.022558734E0,-1.776789327E0,5.067068446E-1,2.111719324E0
6.972950250E0,1.090719727E0,-1.572654843E0,4.063674545E-1,1.956539620E0
6.982894250E0,9.172123736E-1,-1.294449000E0,3.755619836E-1,1.630313944E0
6.992838250E0,8.080220532E-1,-8.944275284E-1,4.684286320E-1,1.293184297E0
7.002781250E0,8.069982058E-1,-5.039668393E-1,5.019169517E-1,1.075708746E0
7.012725250E0,8.276254284E-1,-1.223132265E-1,4.647367001E-1,9.570290359E-1
7.022669250E0,7.792403036E-1,1.575766146E-1,4.589913721E-1,9.179972331E-1
7.032613250E0,6.773771292E-1,3.562293345E-1,5.670373924E-1,9.525074899E-1
7.042557250E0,4.603477800E-1,4.209603506E-1,6.834300938E-1,9.253131299E-1
7.052501250E0,2.491486895E-1,3.725202620E-1,8.793534064E-1,9.869695175E-1
7.062444250E0,3.289175749E-2,2.062728113E-1,9.811809859E-1,1.003168215E0
7.072388250E0,-1.137371153E-1,3.320107520E-2,9.814166287E-1,9.885428883E-1
7.082332250E0,-2.953376001E-1,-3.695381820E-2,8.908789263E-1,9.392843787E-1
7.092276250E0,-4.950024730E-1,-2.281203479E-1,8.027957388E-1,9.703336228E-1
7.102220250E0,-5.925088871E-1,-5.647591710E-1,6.782395204E-1,1.063028010E0
7.112164250E0,-6.178945738E-1,-9.248242790E-1,5.588486592E-1,1.244751170E0
7.122107250E0,-5.512591195E-1,-1.246297764E0,4.385387620E-1,1.431593859E0
7.132051250E0,-3.797421581E-1,-1.542507184E0,3.137563294E-1,1.619251541E0
7.141995250E0,-1.812677783E-1,-1.796337739E0,1.795883849E-1,1.814370212E0
7.151939250E0,-1.512323856E-2,-1.973546380E0,2.724217772E-2,1.973792330E0
7.161883250E0,7.023090720E-2,-2.077079519E0,-8.972442783E-2,2.080202438E0
7.171826250E0,1.057433867E-1,-2.071821118E0,-1.873662780E-1,2.082961961E0
7.181770250E0,1.138066971E-1,-1.890280275E0,-2.000952280E-1,1.904245147E0
7.191714250E0,7.058758736E-3,-1.616127137E0,-1.102762214E-1,1.619900489E0
7.201658250E0,-1.263033664E-1,-1.278662102E0,-7.732182562E-2,1.287209376E0
7.211602250E0,-2.528394520E-1,-8.606762302E-1,-9.755034126E-2,9.023344340E-1
7.221546250E0,-3.511656457E-1,-4.695477891E-1,-1.423347507E-1,6.033669018E-1
7.231489250E0,-4.364730138E-1,-1.135973668E-1,-1.683482091E-1,4.814085302E-1
7.241433250E0,-4.585731500E-1,1.522153026E-1,-2.278549574E-1,5.342066210E-1
7.251377250E0,-5.122348022E-1,3.112437809E-1,-3.252694970E-1,6.819511929E-1
7.261321250E0,-4.851920146E-1,3.724740690E-1,-3.954189818E-1,7.283573259E-1
7.271265250E0,-3.962009007E-1,4.207194453E-1,-4.612891817E-1,7.394374311E-1
7.281209250E0,-3.814670867E-1,3.983380580E-1,-5.439429371E-1,7.746381513E-1
7.291152250E0,-3.517158687E-1,3.801906395E-1,-6.153065962E-1,8.042705900E-1
7.301096250E0,-3.544605517E-1,3.276849818E-1,-6.233950496E-1,7.884422096E-1
7.311040250E0,-3.638576120E-1,2.234490073E-1,-6.362554157E-1,7.662524223E-1
7.320984250E0,-3.607808071E-1,7.467011333E-2,-6.500601802E-1,7.472058983E-1
7.330928250E0,-3.614298481E-1,-1.095826685E-2,-6.468727899E-1,7.410776106E-1
7.340872250E0,-3.410294974E-1,-7.845092297E-2,-6.391644055E-1,7.286884126E-1
7.350815250E0,-3.103099805E-1,-7.401113212E-2,-6.380173279E-1,7.133274440E-1
7.360759250E0,-2.828076017E-1,-6.015673935E-2,-6.689758497E-1,7.287850578E-1
7.370703250E0,-2.364631552E-1,-2.554531574E-2,-7.438244493E-1,7.809239389E-1
7.380647250E0,-2.195758116E-1,7.507824898E-3,-7.920533073E-1,8.219600636E-1
7.390591250E0,-2.067493594E-1,-1.839124739E-2,-8.456383610E-1,8.707397850E-1
7.400534250E0,-2.550321579E-1,-2.624932051E-2,-8.785197397E-1,9.151652099E-1
7.410478250E0,-3.428877425E-1,-4.738115788E-2,-9.049022305E-1,9.688472660E-1
7.420422250E0,-4.412039959E-1,-2.306083381E-2,-9.409495841E-1,1.039508965E0
7.430366250E0,-4.525505179E-1,-2.156687021E-2,-9.661028440E-1,1.067062232E0
7.440310250E0,-4.231700134E-1,4.612868428E-3,-9.769703329E-1,1.064690176E0
7.450254250E0,-3.006141275E-1,6.492338955E-2,-9.714892991E-1,1.019007045E0
7.460197250E0,-2.033468646E-1,1.424808580E-1,-9.684043081E-1,9.997287863E-1
7.470141250E0,-1.206613880E-1,1.967722553E-1,-1.006662640E0,1.032786600E0
7.480085250E0,-9.523243189E-2,2.601168966E-1,-1.034261352E0,1.070713108E0
7.490029250E0,-4.665084064E-2,2.747396135E-1,-1.131749786E0,1.165553831E0
7.499973250E0,-4.094044983E-2,2.885448897E-1,-1.196773747E0,1.231747408E0
7.509917250E0,-6.909011543E-2,2.968719095E-1,-1.272108104E0,1.308115210E0
7.519860250E0,-2.472436666E-2,3.284135449E-1,-1.385641006E0,1.424242868E0
7.529804250E0,-8.812338710E-3,3.793457168E-1,-1.463272295E0,1.511670149E0
7.539748250E0,7.021511972E-2,4.923045677E-1,-1.509034944E0,1.588861357E0
7.549692250E0,3.141439998E-1,5.748210597E-1,-1.473718200E0,1.612746426E0
7.559636250E0,7.751700568E-1,6.954432714E-1,-1.235914278E0,1.616172659E0
7.569580250E0,1.307077231E0,7.995511919E-1,-9.259351037E-1,1.790276184E0
7.579523250E0,1.777669918E0,8.241936976E-1,-7.306629516E-1,2.091237418E0
7.589467250E0,2.112451081E0,6.356432122E-1,-7.719339153E-1,2.337172187E0
7.599411250E0,2.550039158E0,2.792478168E-1,-7.804607637E-1,2.681379879E0
7.609355250E0,3.147888892E0,-1.502132159E-1,-5.742353149E-1,3.203359906E0
7.619299250E0,3.493941733E0,-4.679526687E-1,-3.346379060E-1,3.540987300E0
7.629242250E0,3.503004917E0,-5.330251622E-1,-1.873586766E-1,3.548275996E0
7.639186250E0,3.192737621E0,-4.314952791E-1,-4.971302748E-3,3.221767590E0
7.649130250E0,2.841923978E0,-1.836329770E-1,1.103599097E-1,2.849988118E0
7.659073791E0,2.542622550E0,1.316699409E-1,1.171922350E-1,2.548725255E0
7.669017791E0,2.172508417E0,3.616573048E-1,1.141031510E-1,2.205359009E0
7.678961792E0,1.667976737E0,5.018326056E-1,1.334393084E-1,1.746936864E0
7.688904792E0,1.126466095E0,6.127513629E-1,7.947944820E-2,1.284798459E0
7.698848791E0,5.635417807E-1,6.732443172E-1,6.373421207E-2,8.802836469E-1
7.708792792E0,8.460921049E-4,6.358788550E-1,1.515317631E-1,6.536853290E-1
7.718736792E0,-2.762984812E-1,5.920492959E-1,2.657337320E-1,7.053209453E-1
7.728680791E0,-6.013247341E-1,4.240780860E-1,4.249462514E-1,8.497134667E-1
7.738624792E0,-8.269325334E-1,6.661031127E-2,5.610571526E-1,1.001518585E0
7.748567792E0,-9.382927555E-1,-3.114045793E-1,6.753067763E-1,1.197249076E0
7.758511791E0,-9.824749017E-1,-6.611750793E-1,8.475094700E-1,1.456256063E0
7.768455791E0,-1.025158406E0,-1.011161342E0,1.008275156E0,1.757844079E0
7.778399792E0,-1.023258061E0,-1.384302578E0,1.145467207E0,2.067715118E0
7.788343791E0,-8.680975163E-1,-1.615443013E0,1.254181126E0,2.221760501E0
7.798287792E0,-5.714676815E-1,-1.717612581E0,1.368360875E0,2.269180419E0
7.808230792E0,-2.810060745E-1,-1.677604178E0,1.539478472E0,2.294191395E0
7.818174792E0,-6.859310210E-2,-1.490055320E0,1.646273773E0,2.221528124E0
7.828118791E0,7.892045438E-2,-1.121646236E0,1.718461451E0,2.053637863E0
7.838062792E0,1.284381849E-1,-6.720625949E-1,1.772668063E0,1.900135933E0
7.848006791E0,8.242235184E-2,-2.051501459E-1,1.800279785E0,1.813804656E0
7.857950792E0,-4.772263527E-2,2.125515515E-1,1.820394938E0,1.833383032E0
7.867893791E0,-1.679899210E-1,5.508907449E-1,1.761846037E0,1.853591833E0
7.877837792E0,-2.729521197E-1,7.687983459E-1,1.648112430E0,1.838974806E0
7.887781791E0,-3.222032171E-1,8.176951021E-1,1.532859716E0,1.766946265E0
7.897725792E0,-3.399612111E-1,7.712822431E-1,1.406576815E0,1.639789090E0
7.907669791E0,-3.413493401E-1,6.630935508E-1,1.267123645E0,1.470311111E0
7.917612792E0,-2.788256478E-1,5.064788032E-1,1.120908756E0,1.261229939E0
7.927556791E0,-3.047586340E-1,3.600060511E-1,9.683491250E-1,1.077117547E0
7.937500792E0,-2.269006187E-1,2.035170186E-1,8.196515074E-1,8.744893716E-1
7.947444791E0,-2.010009617E-1,6.926026940E-2,6.220606419E-1,6.573871110E-1
7.957388792E0,-1.706901652E-1,-5.397740185E-2,4.424342501E-1,4.772805863E-1
7.967332792E0,-1.796469301E-1,-2.598520178E-1,2.714723356E-1,4.165252929E-1
7.977275792E0,-2.904522514E-1,-4.777011466E-1,1.431825238E-1,5.771153533E-1
7.987219791E0,-3.954992348E-1,-7.475302684E-1,1.215132543E-1,8.543925432E-1
7.997163792E0,-3.719606835E-1,-1.130384899E0,9.061371624E-2,1.193455327E0
8.007107791E0,-3.571988028E-1,-1.403004897E0,8.219065592E-2,1.450092766E0
8.017051791E0,-4.304041886E-1,-1.392660588E0,1.658878469E-1,1.467061709E0
8.026995792E0,-4.873753649E-1,-1.278542819E0,2.719054681E-1,1.395040885E0
8.036938792E0,-6.186933035E-1,-1.091601487E0,3.312048595E-1,1.297717947E0
8.046882791E0,-7.700946736E-1,-8.755094469E-1,4.122041452E-1,1.236719392E0
8.056826792E0,-8.691891915E-1,-6.601430458E-1,4.613745511E-1,1.184966315E0
8.066770792E0,-9.363725299E-1,-4.805148268E-1,4.958729772E-1,1.163433721E0
8.076714791E0,-1.019810543E0,-3.301671249E-1,5.208758175E-1,1.191778290E0
8.086658792E0,-1.024247995E0,-2.041526109E-1,5.103607696E-1,1.162424346E0
8.096601792E0,-9.633597690E-1,-1.184488016E-1,4.821980940E-1,1.083792953E0
8.106545791E0,-8.032694364E-1,-8.026472926E-2,4.416197330E-1,9.201696597E-1
8.116489791E0,-6.246410912E-1,-8.032612503E-2,3.659876065E-1,7.284062790E-1
8.126433792E0,-4.358888769E-1,-1.098972487E-1,2.573685591E-1,5.179914029E-1
8.136377791E0,-2.576686674E-1,-1.429901505E-1,1.117916004E-1,3.151772315E-1
8.146321792E0,-1.427626938E-1,-1.241293716E-1,-1.611390308E-2,1.898655985E-1
8.156264792E0,-9.328881741E-2,-1.160607988E-1,-1.210116363E-1,1.918768578E-1
8.166208792E0,-7.227100074E-2,-4.647951722E-2,-2.247489895E-1,2.406149441E-1
8.176152791E0,-1.107930422E-1,5.878381312E-2,-3.100252211E-1,3.344342575E-1
8.186096792E0,-1.501997674E-1,1.645090735E-1,-3.785083956E-1,4.391945023E-1
8.196040791E0,-2.189402193E-1,2.509256583E-1,-4.384053724E-1,5.505431646E-1
8.205983792E0,-2.924917603E-1,3.205431926E-1,-4.530188799E-1,6.273160875E-1
8.215927791E0,-3.711479205E-1,3.622309166E-1,-4.914825954E-1,7.145048337E-1
8.225871792E0,-4.417039329E-1,3.883013123E-1,-5.055444181E-1,7.755355776E-1
8.235815791E0,-4.942844349E-1,3.358640671E-1,-5.539267655E-1,8.148353427E-1
8.245759792E0,-5.419836813E-1,3.110701185E-1,-5.863858290E-1,8.569476471E-1
8.255703792E0,-5.663618928E-1,3.051258391E-1,-6.221326357E-1,8.949394324E-1
8.265646792E0,-6.150253451E-1,2.491130215E-1,-6.474855781E-1,9.271197584E-1
8.275590791E0,-6.355747998E-1,2.052934027E-1,-6.317670929E-1,9.193641101E-1
8.285534792E0,-6.380481720E-1,1.811888409E-1,-6.093400973E-1,9.006831963E-1
8.295478791E0,-6.426663029E-1,1.844702983E-1,-5.765465730E-1,8.828676111E-1
8.305422791E0,-6.701762831E-1,2.145442826E-1,-5.398291285E-1,8.868940115E-1
8.315366792E0,-6.922618014E-1,2.702407658E-1,-4.884600234E-1,8.892972886E-1
8.325309792E0,-7.445955509E-1,3.144995105E-1,-4.843085003E-1,9.422776661E-1
8.335253791E0,-7.698134226E-1,3.438729984E-1,-4.996102251E-1,9.800365920E-1
8.345197792E0,-7.978350341E-1,3.342297703E-1,-5.162904310E-1,1.007375844E0
8.355141792E0,-8.345064318E-1,3.434508294E-1,-5.569603010E-1,1.060454730E0
8.365085791E0,-8.312471938E-1,3.389753705E-1,-6.083343762E-1,1.084410860E0
8.375029792E0,-8.411336660E-1,3.732926792E-1,-7.046678388E-1,1.159055664E0
8.384972792E0,-8.400291270E-1,4.038888198E-1,-7.800187142E-1,1.215402940E0
8.394916791E0,-8.361734730E-1,4.805002087E-1,-8.512791699E-1,1.286368047E0
8.404860791E0,-8.336375356E-1,5.720547420E-1,-9.226931150E-1,1.368780754E0
8.414804792E0,-8.448121494E-1,6.437848753E-1,-1.014405377E0,1.468735784E0
8.424748791E0,-8.658796674E-1,7.011776358E-1,-1.115868456E0,1.576883029E0
8.434692792E0,-8.733325285E-1,8.202146673E-1,-1.171967812E0,1.675998317E0
8.444635792E0,-8.475597560E-1,9.316029561E-1,-1.243018060E0,1.769557997E0
8.454579792E0,-7.626774806E-1,1.057413987E0,-1.380787378E0,1.899045830E0
8.464523791E0,-6.885821486E-1,1.239771101E0,-1.393989075E0,1.988563125E0
8.474467792E0,-5.290975875E-1,1.422770825E0,-1.288641107E0,1.991184818E0
8.484411791E0,-1.897269452E-1,1.725037376E0,-9.800556162E-1,1.993052752E0
8.494355792E0,1.561726981E-1,2.098932903E0,-5.233890970E-1,2.168835030E0
8.504298791E0,2.347803265E-1,2.382008307E0,-1.482060130E-1,2.398134775E0
8.514242792E0,-1.668502986E-2,2.481313909E0,4.254141748E-2,2.481734651E0
8.524186791E0,-2.756541181E-1,2.509108064E0,1.837534297E-1,2.530883994E0
8.534130792E0,-3.165308332E-1,2.513042656E0,4.014170556E-1,2.564509858E0
8.544074791E0,-1.698814952E-1,2.504173014E0,5.755949387E-1,2.575082861E0
8.554018791E0,-4.271917284E-2,2.513468333E0,6.492705868E-1,2.596324379E0
8.563961791E0,1.117046231E-1,2.527465398E0,7.193325095E-1,2.630208836E0
8.573905792E0,2.461473137E-1,2.501942886E0,8.287141800E-1,2.647087814E0
8.583849791E0,3.489752787E-1,2.388239685E0,9.729280065E-1,2.602318474E0
8.593793792E0,5.397096992E-1,2.028801983E0,1.030391080E0,2.338595695E0
8.603737792E0,7.298208064E-1,1.423804028E0,1.031845867E0,1.903828304E0
8.613680792E0,9.991494066E-1,7.442143124E-1,9.763948207E-1,1.582877546E0
8.623624791E0,1.242538004E0,2.681726056E-1,8.257151431E-1,1.515791125E0
8.633568792E0,1.402145357E0,-1.494530779E-1,6.056564976E-1,1.534655537E0
8.643512791E0,1.554503916E0,-4.857398987E-1,3.422993664E-1,1.664209882E0
8.653456791E0,1.516587646E0,-6.474083948E-1,1.881135522E-1,1.659687448E0
8.663400625E0,1.292818211E0,-7.111559093E-1,7.269887075E-2,1.477297120E0
8.673343625E0,9.964783984E-1,-8.314571089E-1,4.330228642E-2,1.298524243E0
8.683287625E0,6.601711124E-1,-9.364146298E-1,1.210109054E-1,1.152103249E0
8.693231625E0,3.754988337E-1,-1.009415948E0,2.581868769E-1,1.107510900E0
8.703175625E0,1.792352861E-1,-9.389610922E-1,4.361157489E-1,1.050699846E0
8.713119625E0,8.935481071E-2,-7.759179157E-1,6.568387842E-1,1.020524415E0
8.723063625E0,8.174875259E-2,-6.408887494E-1,9.250938356E-1,1.128370441E0
8.733006625E0,1.114134318E-1,-6.273641396E-1,1.124157761E0,1.292180091E0
8.742950625E0,2.262457305E-1,-7.502632570E-1,1.262611495E0,1.486024856E0
8.752894625E0,1.932861453E-1,-9.714950001E-1,1.270848322E0,1.611278227E0
8.762838625E0,2.030334538E-1,-1.292204254E0,1.201000992E0,1.775786530E0
8.772782625E0,2.756324834E-1,-1.548571331E0,1.064726369E0,1.899391659E0
8.782726625E0,2.983992022E-1,-1.593582612E0,8.099971696E-1,1.812358420E0
8.792669625E0,2.600221717E-1,-1.504249436E0,4.643219863E-1,1.595610480E0
8.802613625E0,2.606834918E-1,-1.293918073E0,1.930939181E-1,1.333965938E0
8.812557625E0,2.090560859E-1,-9.942511940E-1,1.426106662E-1,1.025952088E0
8.822501625E0,1.342602575E-1,-6.354028916E-1,2.862422562E-1,7.097163382E-1
8.832445625E0,3.687195718E-2,-3.540693730E-1,5.115215881E-1,6.232006075E-1
8.842389625E0,-1.316500604E-2,-1.833330148E-1,8.054902089E-1,8.261953693E-1
8.852332625E0,-1.481362849E-1,-1.908385009E-1,1.102860813E0,1.129010923E0
8.862276625E0,-3.522976667E-1,-3.392876118E-1,1.374071120E0,1.458527056E0
8.872220625E0,-4.961847800E-1,-3.613286912E-1,1.569537692E0,1.685291169E0
8.882164625E0,-7.331835401E-1,-3.051667696E-1,1.526041424E0,1.720316043E0
8.892108625E0,-9.595655107E-1,-4.101500183E-1,1.254171039E0,1.631543442E0
8.902052625E0,-1.186174353E0,-6.040238088E-1,9.226491878E-1,1.619609793E0
8.911995625E0,-1.265585389E0,-8.039173079E-1,6.564564494E-1,1.636742034E0
8.921939625E0,-1.097127106E0,-1.014918762E0,4.226063418E-1,1.553172270E0
8.931883625E0,-8.672426534E-1,-1.208621230E0,1.789504536E-1,1.498298489E0
8.941827625E0,-5.481144869E-1,-1.370103199E0,-5.227644682E-2,1.476599165E0
8.951771625E0,-2.392207021E-1,-1.455854371E0,-1.750755769E-1,1.485728761E0
8.961714625E0,7.208856761E-2,-1.535445501E0,-2.763972992E-1,1.561789075E0
8.971658625E0,2.893921512E-1,-1.579078594E0,-2.998698501E-1,1.633143885E0
8.981602625E0,3.351647401E-1,-1.575334622E0,-2.555092907E-1,1.630735899E0
8.991546625E0,2.631153488E-1,-1.441432214E0,-1.904578471E-1,1.477575956E0
9.001490625E0,9.190828979E-2,-1.240844650E0,-1.667123044E-1,1.255362725E0
9.011434625E0,-1.294292879E-1,-1.065379064E0,-1.923740528E-1,1.090317507E0
9.021377625E0,-3.678723103E-1,-8.448624355E-1,-2.658104036E-1,9.590504378E-1
9.031321625E0,-5.639697969E-1,-5.145771968E-1,-3.683664000E-1,8.476705893E-1
9.041265625E0,-7.260019898E-1,-1.670912039E-1,-4.481428868E-1,8.693850739E-1
9.051209625E0,-7.266358280E-1,1.461534941E-1,-5.861927978E-1,9.449774953E-1
9.061153625E0,-6.764544386E-1,3.742826128E-1,-6.330570618E-1,9.992193579E-1
9.071097625E0,-6.348485756E-1,4.712428969E-1,-5.964943492E-1,9.904080424E-1
9.081040625E0,-6.025807160E-1,4.905012864E-1,-4.804563546E-1,9.135279634E-1
9.090984625E0,-5.996781582E-1,4.566038078E-1,-3.783838499E-1,8.433713705E-1
9.100928625E0,-5.948325706E-1,3.812220883E-1,-3.133142799E-1,7.728660334E-1
9.110872625E0,-5.667062938E-1,2.588164759E-1,-3.215780036E-1,7.011094095E-1
9.120816625E0,-5.186059284E-1,1.240749925E-1,-3.772623539E-1,6.532025692E-1
9.130760625E0,-4.089291197E-1,-1.346262932E-2,-4.834005739E-1,6.333090732E-1
9.140703625E0,-3.317920661E-1,-1.337006789E-1,-6.185292891E-1,7.145210481E-1
9.150647625E0,-2.236162376E-1,-2.365783453E-1,-7.157290167E-1,7.862833843E-1
9.160591625E0,-1.303052008E-1,-3.200298071E-1,-8.122507596E-1,8.826946353E-1
9.170535625E0,-1.056901771E-1,-3.492395729E-1,-8.684521499E-1,9.419914169E-1
9.180479625E0,-1.623058426E-1,-3.745749736E-1,-8.899592324E-1,9.791205404E-1
9.190423625E0,-2.259896225E-1,-3.677237910E-1,-8.672948398E-1,9.687581922E-1
9.200366625E0,-2.758874220E-1,-3.346887767E-1,-8.457909733E-1,9.505223918E-1
9.210310625E0,-2.757827568E-1,-3.201970375E-1,-8.805819064E-1,9.767326992E-1
9.220254625E0,-2.721200609E-1,-3.204116303E-1,-8.998918976E-1,9.932363101E-1
9.230198625E0,-2.227701455E-1,-3.173295629E-1,-9.227545108E-1,1.000899833E0
9.240142625E0,-1.491747504E-1,-3.114186126E-1,-9.537652190E-1,1.014348437E0
9.250086625E0,-2.743513584E-2,-3.241468316E-1,-1.008769830E0,1.059924727E0
9.260029625E0,1.233721572E-1,-2.819205791E-1,-1.081040977E0,1.123988210E0
9.269973625E0,2.817562723E-1,-1.985188186E-1,-1.209943724E0,1.258077952E0
9.279917625E0,4.255504149E-1,-6.431644857E-2,-1.352121403E0,1.418965134E0
9.289861625E0,5.532009798E-1,6.705879271E-2,-1.496086285E0,1.596496908E0
9.299805625E0,6.373693103E-1,2.619956070E-1,-1.622447539E0,1.762730085E0
9.309749625E0,6.169414777E-1,5.444003356E-1,-1.724244639E0,1.910499434E0
9.319692625E0,5.331549704E-1,8.919869006E-1,-1.821563358E0,2.097138031E0
9.329636625E0,4.439843470E-1,1.180239429E0,-1.925379356E0,2.301558793E0
9.339580625E0,4.247622102E-1,1.314724805E0,-1.894569354E0,2.344849096E0
9.349524625E0,7.265118670E-1,1.319721251E0,-1.666186904E0,2.246255211E0
9.359468625E0,1.226532421E0,1.399372607E0,-1.329172105E0,2.286771514E0
9.369412625E0,1.789583035E0,1.544781750E0,-1.058622606E0,2.590297265E0
9.379355625E0,2.125664619E0,1.528856274E0,-9.191109645E-1,2.774998476E0
9.389299625E0,2.281382988E0,1.217314870E0,-8.897731447E-1,2.734640759E0
9.399243625E0,2.546029138E0,6.948439318E-1,-7.292938261E-1,2.738054409E0
9.409187625E0,2.798416016E0,3.222423935E-1,-4.284126270E-1,2.849299868E0
9.419131625E0,3.018393531E0,1.482292557E-1,-8.690292701E-2,3.023280261E0
9.429075625E0,2.992541236E0,8.003025591E-2,1.782446216E-1,2.998912976E0
9.439018625E0,2.791488234E0,-6.692723036E-3,2.268303059E-1,2.800696939E0
9.448962625E0,2.593272886E0,-1.115344691E-1,2.561711955E-1,2.608280637E0
9.458906625E0,2.419945042E0,-1.741657501E-1,2.515761611E-1,2.439212635E0
9.468850625E0,2.139723664E0,-2.074065864E-1,2.612278676E-1,2.165565711E0
9.478794625E0,1.720271895E0,-1.737406576E-1,1.936030644E-1,1.739828542E0
9.488738625E0,1.202985098E0,-4.370735228E-2,-2.252347469E-2,1.203989529E0
9.498681625E0,6.329955930E-1,9.583703399E-2,-1.825114810E-1,6.657166052E-1
9.508625625E0,2.137157321E-2,1.906005192E-1,-1.492969573E-1,2.430532524E-1
9.518569625E0,-4.756499434E-1,2.498953789E-1,6.835862875E-2,5.416303824E-1
9.528513625E0,-8.688664252E-1,1.834961522E-1,4.234733377E-1,9.838340157E-1
9.538457625E0,-1.126143329E0,-1.637220383E-4,7.552368987E-1,1.355943066E0
9.548401625E0,-1.308580551E0,-1.952461320E-1,9.382244892E-1,1.621964643E0
9.558344625E0,-1.513122586E0,-3.423872209E-1,1.036733555E0,1.865900703E0
9.568288625E0,-1.684638963E0,-4.582948226E-1,1.133941761E0,2.081794057E0
9.578232625E0,-1.746454557E0,-5.734691834E-1,1.238791108E0,2.216658258E0
9.588176625E0,-1.587519050E0,-6.181015652E-1,1.302058566E0,2.144206797E0
9.598120625E0,-1.194376827E0,-6.671877712E-1,1.339921042E0,1.914957944E0
9.608064625E0,-7.277678490E-1,-6.520943534E-1,1.418781270E0,1.722734274E0
9.618007625E0,-3.691037339E-1,-5.612824166E-1,1.507717420E0,1.650602113E0
9.627951625E0,-1.011848974E-1,-3.336462182E-1,1.566127596E0,1.604466836E0
9.637895625E0,3.373551071E-2,-1.570503652E-2,1.500601505E0,1.501062826E0
9.647839625E0,-1.455196559E-2,3.009269536E-1,1.389940463E0,1.422217734E0
9.657784375E0,-1.286498541E-1,5.152063572E-1,1.261738360E0,1.368930993E0
9.667728375E0,-2.348832375E-1,5.789550412E-1,1.270582858E0,1.415888369E0
9.677671375E0,-3.523935610E-1,5.807431197E-1,1.344530840E0,1.506388719E0
9.687615375E0,-5.755624866E-1,6.272156203E-1,1.367556152E0,1.610863570E0
9.697559375E0,-6.947913069E-1,7.078130561E-1,1.384642740E0,1.703223356E0
9.707503375E0,-7.344722664E-1,7.745970297E-1,1.434053612E0,1.787724764E0
9.717447375E0,-5.712472415E-1,7.806752104E-1,1.455185450E0,1.747381437E0
9.727391375E0,-3.463153803E-1,7.056174266E-1,1.436385482E0,1.637386194E0
9.737334375E0,-2.036357170E-1,5.803414160E-1,1.401954299E0,1.530927667E0
9.747278375E0,-8.724864364E-2,3.795316583E-1,1.273066755E0,1.331298452E0
9.757222375E0,-6.897492528E-2,1.066152066E-1,1.159613376E0,1.166545123E0
9.767166375E0,-8.922500253E-2,-2.130760467E-1,1.057226876E0,1.082169659E0
9.777110375E0,-8.845200062E-2,-5.434981102E-1,9.506086727E-1,1.098576716E0
9.787054375E0,-3.310167253E-2,-8.675309211E-1,8.052047917E-1,1.184086304E0
9.796997375E0,-1.347449917E-1,-1.078918877E0,6.982978821E-1,1.292223699E0
9.806941375E0,-2.647858983E-1,-1.157210755E0,6.071269262E-1,1.333360945E0
9.816885375E0,-4.242049706E-1,-1.210440298E0,5.234626257E-1,1.385326205E0
9.826829375E0,-5.497780198E-1,-1.241090818E0,4.390404531E-1,1.426646000E0
9.836773375E0,-5.629658300E-1,-1.250442855E0,3.435513284E-1,1.413706254E0
9.846717375E0,-6.565540248E-1,-1.181893022E0,3.682049438E-1,1.401252719E0
9.856660375E0,-7.217820543E-1,-1.027230075E0,4.158666949E-1,1.322541519E0
9.866604375E0,-8.819010383E-1,-8.398770994E-1,5.043572871E-1,1.318149937E0
9.876548375E0,-1.075228699E0,-6.222957730E-1,5.900762992E-1,1.375339530E0
9.886492375E0,-1.237206513E0,-4.304264081E-1,6.129495835E-1,1.446255178E0
9.896436375E0,-1.308347247E0,-2.631416613E-1,6.231646693E-1,1.472871433E0
9.906380375E0,-1.337588003E0,-1.380995393E-1,6.355239290E-1,1.487314295E0
9.916323375E0,-1.290274673E0,-1.508920777E-1,5.657904737E-1,1.416931900E0
9.926267375E0,-1.127146127E0,-1.810683882E-1,4.517604129E-1,1.227734345E0
9.936211375E0,-9.402229214E-1,-2.584469318E-1,2.525389051E-1,1.007268513E0
9.946155375E0,-7.257528985E-1,-3.195023882E-1,1.125705957E-2,7.930484015E-1
9.956099375E0,-5.415328610E-1,-3.714952451E-1,-1.573415565E-1,6.752946928E-1
9.966043375E0,-4.341364664E-1,-4.033982384E-1,-3.336731154E-1,6.801046670E-1
9.975986375E0,-2.853002697E-1,-3.609351736E-1,-5.278332733E-1,7.001988345E-1
9.985930375E0,-1.920114523E-1,-3.073495352E-1,-6.803880067E-1,7.708825944E-1
9.995874375E0,-1.519211876E-1,-2.203938371E-1,-7.804891227E-1,8.251162108E-1
1.000581837E1,-2.090402985E-1,-1.165870482E-1,-8.189307649E-1,8.531928176E-1
1.001576237E1,-2.664997172E-1,-2.516583145E-2,-8.120718348E-1,8.550532634E-1
1.002570638E1,-3.210507309E-1,1.488116384E-2,-8.191564675E-1,8.799501912E-1
1.003564938E1,-3.704035699E-1,8.453787446E-2,-8.245182180E-1,9.078412574E-1
1.004559337E1,-3.977469045E-1,1.022210240E-1,-8.754644233E-1,9.670003590E-1
1.005553737E1,-3.979948264E-1,1.481520724E-1,-9.480324626E-1,1.038804346E0
1.006548137E1,-3.484519529E-1,2.447001278E-1,-9.781637496E-1,1.066818277E0
1.007542537E1,-2.867135417E-1,3.995104247E-1,-9.912283297E-1,1.106502072E0
1.008536938E1,-2.256346965E-1,6.150002021E-1,-9.391002560E-1,1.145008976E0
1.009531237E1,-1.943088233E-1,8.365085185E-1,-8.050142455E-1,1.177094030E0
1.010525637E1,-8.955010772E-2,9.711950380E-1,-6.824782401E-1,1.190384632E0
1.011520037E1,7.822346628E-2,9.210867387E-1,-5.421000409E-1,1.071630601E0
1.012514438E1,2.192682481E-1,7.845524991E-1,-3.469328463E-1,8.854171832E-1
1.013508837E1,2.991599250E-1,6.880751950E-1,-2.053776026E-1,7.778972260E-1
1.014503237E1,2.104529858E-1,7.046386027E-1,-1.120735824E-1,7.438860851E-1
1.015497537E1,-7.558695674E-2,8.494507456E-1,-5.487860397E-2,8.545710142E-1
1.016491937E1,-5.022161829E-1,1.129680310E0,1.744619116E-2,1.236407322E0
1.017486337E1,-9.311983287E-1,1.447071269E0,7.005315185E-2,1.722223280E0
1.018480737E1,-1.323562871E0,1.737603627E0,8.953826711E-2,2.186115765E0
1.019475137E1,-1.568730776E0,1.925053666E0,-5.060297370E-2,2.483809278E0
1.020469537E1,-1.689958760E0,2.043721154E0,-3.532145101E-1,2.675353669E0
1.021463837E1,-1.719075555E0,2.149142944E0,-6.917139173E-1,2.837693482E0
1.022458238E1,-1.643850541E0,2.168800113E0,-1.084698118E0,2.929591872E0
1.023452637E1,-1.389355742E0,2.086573058E0,-1.295146573E0,2.821613218E0
1.024447037E1,-9.418203807E-1,2.031596952E0,-1.339419351E0,2.609301823E0
1.025441437E1,-4.008599621E-1,1.958189253E0,-1.073948743E0,2.269043799E0
1.026435837E1,4.515336871E-2,1.995800298E0,-6.170381029E-1,2.089496034E0
1.027430137E1,1.346374029E-1,2.052552788E0,-1.582035823E-1,2.063038670E0
1.028424537E1,-1.066865426E-1,2.184709218E0,1.591077080E-1,2.193091801E0
1.029418937E1,-3.736499441E-1,2.182936926E0,3.827901654E-1,2.247522239E0
1.030413337E1,-4.349082989E-1,2.199117926E0,5.482055573E-1,2.307768233E0
1.031407737E1,-4.173520339E-1,2.230651960E0,7.313206172E-1,2.384286211E0
1.032402137E1,-2.785859120E-1,2.229511169E0,8.523936492E-1,2.403103222E0
1.033396437E1,-3.061952949E-2,2.138426167E0,8.629203916E-1,2.306173373E0
1.034390837E1,1.907601482E-1,1.928360851E0,8.364054613E-1,2.110577907E0
1.035385237E1,4.042104167E-1,1.694606711E0,9.048816191E-1,1.963132372E0
1.036379637E1,5.578945398E-1,1.425386869E0,9.724812792E-1,1.813475636E0
1.037374038E1,6.226173699E-1,1.074952126E0,9.938933444E-1,1.590911199E0
1.038368437E1,6.312624782E-1,6.475189072E-1,9.824080972E-1,1.335252306E0
1.039362737E1,6.485491866E-1,1.982773286E-1,9.661271100E-1,1.180394654E0
1.040357137E1,6.715287441E-1,-4.036356354E-1,9.987769389E-1,1.269420322E0
1.041351537E1,6.375991058E-1,-1.047840341E0,9.831982023E-1,1.571998952E0
1.042345937E1,4.308368826E-1,-1.598719976E0,9.544281471E-1,1.911140777E0
1.043340337E1,1.866893166E-1,-2.042783845E0,8.560421656E-1,2.222752107E0
1.044334737E1,-6.405040026E-2,-2.380969841E0,7.070337684E-1,2.484555612E0
1.045329037E1,-1.877891779E-1,-2.651358542E0,4.822268915E-1,2.701390321E0
1.046323437E1,-1.849181950E-1,-2.860484794E0,2.889389920E-1,2.880981385E0
1.047317838E1,-1.241703022E-1,-2.933583176E0,1.871261036E-1,2.942166667E0
1.048312237E1,-5.263722003E-2,-2.897583624E0,1.266332956E-1,2.900827041E0
1.049306637E1,7.517063498E-2,-2.747175695E0,8.667386234E-2,2.749570382E0
1.050301037E1,2.114563680E-1,-2.500478743E0,1.168051493E-1,2.512120854E0
1.051295338E1,1.526532590E-2,-1.999342541E0,1.045457308E-1,2.002132223E0
1.052289737E1,1.760052842E-1,-1.263685044E0,2.961853002E-1,1.309810476E0
1.053284137E1,3.178797859E-1,-5.611134320E-1,3.688727689E-1,7.429420984E-1
1.054278537E1,5.205413568E-1,3.241865927E-1,2.790876031E-1,6.737582216E-1
1.055272937E1,9.175059038E-1,1.123940098E0,1.592034562E-1,1.459590411E0
1.056267338E1,1.277003832E0,1.718088545E0,9.430915654E-2,2.142769528E0
1.057261638E1,1.536528406E0,2.154431750E0,2.079854608E-1,2.654383857E0
1.058256037E1,1.644673244E0,2.281871815E0,4.871331440E-1,2.854678224E0
1.059250437E1,1.648913060E0,2.044462581E0,6.916115179E-1,2.716075848E0
1.060244837E1,1.439035440E0,1.602855712E0,7.466308936E-1,2.279786639E0
1.061239237E1,1.071305217E0,1.114383994E0,7.809085143E-1,1.731867391E0
1.062233638E1,7.532313037E-1,7.209418094E-1,8.560487437E-1,1.349049273E0
1.063227937E1,3.530303228E-1,3.506358880E-1,9.848616620E-1,1.103416706E0
1.064222337E1,-3.889450908E-2,4.236483157E-2,1.113756588E0,1.115240466E0
1.065216737E1,-3.434537530E-1,-3.676080161E-1,1.091345379E0,1.201719964E0
1.066211087E1,-4.705868393E-1,-8.035220361E-1,1.005227587E0,1.370248933E0
1.067205487E1,-5.593066424E-1,-1.222782016E0,8.941106093E-1,1.614761147E0
1.068199887E1,-6.403455430E-1,-1.620393265E0,7.593480029E-1,1.900612043E0
1.069194188E1,-7.109506720E-1,-2.019766865E0,6.266851316E-1,2.231063267E0
1.070188587E1,-8.111175692E-1,-2.218054134E0,5.177580091E-1,2.417798422E0
1.071182987E1,-9.012658471E-1,-2.352975712E0,3.664374036E-1,2.546183654E0
1.072177387E1,-9.102360606E-1,-2.368634555E0,2.380927742E-1,2.548656021E0
1.073171787E1,-9.715558112E-1,-2.309118671E0,1.003569317E-1,2.507193898E0
1.074166188E1,-1.013685585E0,-2.275186694E0,8.436947465E-2,2.492218121E0
1.075160487E1,-1.074513000E0,-2.255830656E0,2.422184233E-1,2.510382421E0
1.076154887E1,-1.103619854E0,-2.191494327E0,4.652979597E-1,2.497423944E0
1.077149287E1,-9.747963381E-1,-1.991593811E0,4.556312697E-1,2.263685858E0
1.078143687E1,-8.530146235E-1,-1.673415232E0,4.089851799E-1,1.922295858E0
1.079138087E1,-7.459684771E-1,-1.256937357E0,3.654141408E-1,1.506614743E0
1.080132487E1,-6.194920331E-1,-9.207411683E-1,2.351358372E-1,1.134382449E0
1.081126787E1,-4.052629155E-1,-6.714983386E-1,1.061923067E-1,7.914700597E-1
1.082121187E1,-1.835698271E-1,-4.982611263E-1,-2.055120885E-2,5.313985167E-1
1.083115587E1,8.495127261E-2,-3.567918366E-1,-1.480811749E-1,3.955315003E-1
1.084109988E1,2.798512495E-1,-1.673917508E-1,-2.895424247E-1,4.360866150E-1
1.085104387E1,4.168421566E-1,6.159456968E-3,-4.723591304E-1,6.300146590E-1
1.086098787E1,4.977366310E-1,8.578099251E-2,-6.526929621E-1,8.252928180E-1
1.087093087E1,5.276498169E-1,1.161683875E-1,-7.956722222E-1,9.617711311E-1
1.088087488E1,5.540289456E-1,1.377329189E-1,-8.077022836E-1,9.890912033E-1
1.089081887E1,5.285935575E-1,2.077632666E-1,-8.070748043E-1,9.868872599E-1
1.090076287E1,4.905334461E-1,2.991920847E-1,-7.755378467E-1,9.651932018E-1
1.091070687E1,4.813989258E-1,3.687838912E-1,-7.114552867E-1,9.348342683E-1
1.092065087E1,4.422909933E-1,4.018159819E-1,-6.586724710E-1,8.893406716E-1
1.093059387E1,3.452424163E-1,4.178695124E-1,-6.735501996E-1,8.645675953E-1
1.094053788E1,2.366947049E-1,4.111738658E-1,-6.785694496E-1,8.279763457E-1
1.095048187E1,1.794399387E-1,3.750825119E-1,-6.833535683E-1,7.999110461E-1
1.096042587E1,1.423604053E-1,3.263535708E-1,-6.909971948E-1,7.773353597E-1
1.097036987E1,6.796920419E-2,2.339178622E-1,-6.818707144E-1,7.240753070E-1
1.098031387E1,4.378979802E-3,1.698633689E-1,-6.956327212E-1,7.160849268E-1
1.099025788E1,-1.433971167E-2,6.499706447E-2,-7.486617047E-1,7.516146577E-1
1.100020087E1,-8.834967434E-2,2.515004396E-2,-8.369828007E-1,8.420085501E-1
1.101014487E1,-1.667666835E-1,3.003831625E-2,-9.182770054E-1,9.337805341E-1
1.102008887E1,-2.215153331E-1,5.304477096E-2,-9.760428183E-1,1.002268614E0
1.103003288E1,-2.720861471E-1,1.039997470E-1,-1.028498921E0,1.068951285E0
1.103997687E1,-3.559404820E-1,1.445145196E-1,-1.050540439E0,1.118576455E0
1.104992087E1,-4.051658517E-1,1.541285115E-1,-1.102411674E0,1.184578602E0
1.105986387E1,-4.230378664E-1,1.127647233E-1,-1.099281220E0,1.183256574E0
1.106980787E1,-4.575498873E-1,4.528668523E-3,-1.060702022E0,1.155188811E0
1.107975187E1,-4.008938760E-1,-8.747142255E-2,-1.066578474E0,1.142784665E0
1.108969588E1,-3.009526813E-1,-1.967956442E-1,-1.122636754E0,1.178819038E0
1.109963987E1,-2.079509622E-1,-2.728193879E-1,-1.224287236E0,1.271437477E0
1.110958387E1,-1.051469707E-1,-2.852874058E-1,-1.421880440E0,1.454025026E0
1.111952687E1,1.030747175E-2,-2.165528011E-1,-1.634328350E0,1.648645054E0
1.112947088E1,1.288036358E-1,-9.087391734E-2,-1.802204250E0,1.809085019E0
1.113941487E1,3.439630455E-1,1.965892375E-2,-1.879424919E0,1.910742022E0
1.114935887E1,7.274801660E-1,8.162362218E-2,-1.748468923E0,1.895529842E0
1.115930287E1,1.179997939E0,1.832365358E-1,-1.427128901E0,1.860824459E0
1.116924687E1,1.708725398E0,2.716598850E-1,-1.129227297E0,2.066082251E0
1.117918987E1,2.146426327E0,2.207353145E-1,-8.851700704E-1,2.332251297E0
1.118913387E1,2.268915555E0,-1.004083872E-1,-7.030515222E-1,2.377465264E0
1.119907787E1,2.322693567E0,-6.124350286E-1,-5.385009335E-1,2.461699682E0
1.120902187E1,2.516588992E0,-9.452398324E-1,-2.602611767E-1,2.700821056E0
1.121896587E1,2.584745892E0,-1.108074263E0,1.386022536E-1,2.815661642E0
1.122890987E1,2.594457532E0,-9.573926854E-1,2.793735319E-1,2.779543166E0
1.123885287E1,2.582383032E0,-5.938052148E-1,6.847206473E-2,2.650659386E0
1.124879687E1,2.564261926E0,-1.544027460E-1,-2.247517669E-1,2.578719215E0
1.125874087E1,2.467936065E0,3.181358939E-1,-4.158516383E-1,2.522865722E0
1.126868487E1,2.214646377E0,7.869171131E-1,-5.594883446E-1,2.415972749E0
1.127862888E1,1.801375700E0,1.124180419E0,-6.413733374E-1,2.218128892E0
1.128857287E1,1.345325038E0,1.317009312E0,-7.673577382E-1,2.033039814E0
1.129851587E1,7.749712515E-1,1.330468433E0,-8.557704163E-1,1.761553206E0
1.130845987E1,1.545740694E-1,1.266991060E0,-8.525657035E-1,1.534935753E0
1.131840387E1,-3.472006488E-1,1.079930445E0,-7.533710521E-1,1.361751078E0
1.132834787E1,-5.805209255E-1,6.866209924E-1,-4.396749490E-1,1.000883107E0
1.133829187E1,-6.809392530E-1,2.029551011E-1,8.705320045E-2,7.158542443E-1
1.134823587E1,-7.408591801E-1,-2.441113132E-1,5.972042012E-1,9.824029295E-1
1.135817887E1,-7.964778954E-1,-6.954631519E-1,9.783700101E-1,1.440574160E0
1.136812287E1,-8.833014464E-1,-1.091474018E0,1.265133399E0,1.889999867E0
1.137806688E1,-1.015378938E0,-1.330705245E0,1.568074134E0,2.293605748E0
1.138801087E1,-1.013144132E0,-1.458597885E0,1.822590129E0,2.544760028E0
1.139795487E1,-8.141470116E-1,-1.580014148E0,2.040895194E0,2.706387493E0
1.140789887E1,-5.751034802E-1,-1.608085461E0,2.249082384E0,2.824013887E0
1.141784187E1,-3.880598223E-1,-1.477867969E0,2.336429846E0,2.791699945E0
1.142778587E1,-1.040512025E-1,-1.168821571E0,2.272148480E0,2.557269879E0
1.143772987E1,2.667061239E-1,-7.478664833E-1,2.138821585E0,2.281445639E0
1.144767387E1,6.421529174E-1,-2.917409778E-1,1.885777919E0,2.013363237E0
1.145761787E1,8.441613543E-1,1.352917063E-1,1.581505188E0,1.797796123E0
1.146756188E1,8.218378544E-1,5.552363956E-1,1.239047655E0,1.587118144E0
1.147750587E1,6.734764516E-1,8.827225721E-1,9.621037871E-1,1.469153963E0
1.148744887E1,4.827332604E-1,1.055084456E0,6.928979784E-1,1.351422295E0
1.149739287E1,3.050486559E-1,1.043857802E0,4.920741143E-1,1.193662736E0
1.150733687E1,2.292611396E-1,9.694110525E-1,4.519289589E-1,1.093873047E0
1.151728087E1,2.692981946E-1,8.432450956E-1,4.346175461E-1,9.861420893E-1
1.152722488E1,3.083418077E-1,6.514733791E-1,4.891581079E-1,8.710728377E-1
1.153716887E1,2.245389283E-1,3.463165498E-1,4.999742874E-1,6.483264386E-1
1.154711187E1,9.033714294E-2,-6.595717728E-2,5.364020754E-1,5.479400836E-1
1.155705587E1,-2.441680312E-2,-3.974299854E-1,4.606290311E-1,6.088726286E-1
1.156699988E1,-1.603446865E-1,-6.506834203E-1,3.352577108E-1,7.493310781E-1
1.157694387E1,-2.346721530E-1,-7.593018830E-1,2.440013856E-1,8.313525396E-1
1.158688787E1,-3.782441014E-1,-8.291018504E-1,1.739170973E-1,9.277530034E-1
1.159683187E1,-6.230933332E-1,-8.836265516E-1,2.136776521E-1,1.102133986E0
1.160677487E1,-9.535317689E-1,-8.960197252E-1,2.833296850E-1,1.338786724E0
1.161671887E1,-1.253487500E0,-9.557946414E-1,3.244561493E-1,1.609362017E0
1.162666288E1,-1.462086334E0,-1.000660912E0,3.664636429E-1,1.809230308E0
1.163660687E1,-1.604546726E0,-1.006661325E0,4.090185821E-1,1.937842465E0
1.164655087E1,-1.632869470E0,-1.027002618E0,4.148785885E-1,1.973099421E0
1.165649450E1,-1.554968185E0,-1.047884195E0,4.315256115E-1,1.924110624E0
1.166643750E1,-1.446030464E0,-1.025101689E0,3.627377971E-1,1.809258490E0
1.167638150E1,-1.314886188E0,-9.879794705E-1,3.363832267E-1,1.678744411E0
1.168632550E1,-1.177700568E0,-9.536563146E-1,2.268865854E-1,1.532291264E0
1.169626950E1,-1.056318219E0,-8.779787260E-1,9.819346189E-2,1.377060920E0
1.170621350E1,-8.145399445E-1,-7.396178162E-1,-4.300744057E-2,1.101071966E0
1.171615750E1,-6.337007672E-1,-5.708660030E-1,-1.972132815E-1,8.754186051E-1
1.172610050E1,-4.550566345E-1,-3.950396436E-1,-2.304734136E-1,6.451750577E-1
1.173604450E1,-3.314728081E-1,-2.480517519E-1,-2.778216809E-1,4.985867833E-1
1.174598850E1,-2.866737807E-1,-8.559271216E-2,-3.955878201E-1,4.959815443E-1
1.175593250E1,-2.879239154E-1,8.161134303E-2,-4.773539682E-1,5.634069606E-1
1.176587650E1,-2.964187503E-1,2.645619500E-1,-5.583892143E-1,6.853142458E-1
1.177582050E1,-3.072863853E-1,4.008710718E-1,-6.311145437E-1,8.083490002E-1
1.178576350E1,-2.774796188E-1,4.934623164E-1,-6.421495552E-1,8.560701185E-1
1.179570750E1,-2.547696179E-1,5.279696596E-1,-6.177250046E-1,8.516124124E-1
1.180565150E1,-2.688941520E-1,5.686189181E-1,-5.907880515E-1,8.629380399E-1
1.181559550E1,-3.201835889E-1,6.707066256E-1,-5.911624195E-1,9.496514699E-1
1.182553950E1,-3.777622908E-1,7.147308969E-1,-6.143209018E-1,1.015349582E0
1.183548350E1,-5.000345868E-1,7.025458843E-1,-6.257234108E-1,1.065427189E0
1.184542750E1,-5.891221797E-1,6.420809966E-1,-5.211531217E-1,1.015348967E0
1.185537050E1,-6.450443655E-1,5.627296025E-1,-4.495399328E-1,9.668676177E-1
1.186531450E1,-7.087345773E-1,5.257904023E-1,-3.994877668E-1,9.686850489E-1
1.187525850E1,-7.416660959E-1,5.303412902E-1,-4.097233178E-1,9.996017602E-1
1.188520250E1,-7.533979493E-1,5.168558568E-1,-4.473893268E-1,1.017303129E0
1.189514650E1,-7.327321351E-1,5.343150580E-1,-4.793810517E-1,1.025765644E0
1.190509050E1,-6.714322650E-1,5.781358463E-1,-4.758037251E-1,1.005709465E0
1.191503350E1,-5.798689610E-1,6.586075670E-1,-4.128591795E-1,9.697755623E-1
1.192497750E1,-4.357386035E-1,7.326970518E-1,-2.931747150E-1,9.014790701E-1
1.193492150E1,-3.249221724E-1,8.389134783E-1,-2.186735862E-1,9.258338833E-1
1.194486550E1,-3.075612044E-1,1.012495676E0,-2.159090227E-1,1.079980599E0
1.195480950E1,-4.095033163E-1,1.194272162E0,-3.091447766E-1,1.299826703E0
1.196475350E1,-5.522864753E-1,1.355801495E0,-5.081044753E-1,1.549641314E0
1.197469650E1,-6.499063253E-1,1.512418581E0,-7.825176680E-1,1.822668949E0
1.198464050E1,-6.739448136E-1,1.668985382E0,-1.037370463E0,2.077462706E0
1.199458450E1,-6.318659109E-1,1.807466159E0,-1.263111286E0,2.293826185E0
1.200452850E1,-4.330933231E-1,1.808776520E0,-1.427633370E0,2.344649092E0
1.201447250E1,-9.422671080E-2,1.902502710E0,-1.215871777E0,2.259809596E0
1.202441650E1,1.979048610E-1,2.007274874E0,-8.864494412E-1,2.203204794E0
1.203435950E1,2.538153523E-1,2.095639751E0,-5.381022996E-1,2.178458695E0
1.204430350E1,7.453679681E-2,2.170320974E0,-3.124506462E-1,2.193963142E0
1.205424750E1,-2.321601892E-1,2.117664458E0,3.149719656E-2,2.130585174E0
1.206419150E1,-2.962830949E-1,1.934361849E0,5.862937354E-1,2.042860685E0
1.207413550E1,-2.730825126E-2,1.905874214E0,8.692659362E-1,2.094928526E0
1.208407950E1,3.062748170E-1,2.051968651E0,1.161060124E0,2.377486114E0
1.209402350E1,5.321328771E-1,2.006739854E0,1.510618808E0,2.567516197E0
1.210396650E1,7.502807987E-1,1.999695128E0,1.681225358E0,2.718128140E0
1.211391050E1,6.704908633E-1,1.843219544E0,1.667887567E0,2.574658273E0
1.212385450E1,4.235904282E-1,1.408259205E0,1.556657299E0,2.141449226E0
1.213379850E1,1.368254310E-1,8.595138037E-1,1.362795934E0,1.617002763E0
1.214374250E1,5.174902797E-2,4.105452901E-1,1.157127725E0,1.228889730E0
1.215368650E1,-1.476305008E-2,7.696046770E-2,9.801124804E-1,9.832402226E-1
1.216362950E1,-1.468697780E-1,-1.867314166E-1,7.334665453E-1,7.709815347E-1
1.217357350E1,-3.098556519E-1,-4.125023532E-1,4.911070579E-1,7.122884659E-1
1.218351750E1,-5.265441084E-1,-5.620741296E-1,3.456335950E-1,8.441792506E-1
1.219346150E1,-6.981435156E-1,-7.316661876E-1,2.694246407E-1,1.046579866E0
1.220340550E1,-7.931824046E-1,-8.986234903E-1,2.437979025E-1,1.223151635E0
1.221334950E1,-8.257981735E-1,-1.071287675E0,2.582412560E-1,1.377057898E0
1.222329250E1,-7.570717549E-1,-1.193452967E0,3.369346923E-1,1.452932419E0
1.223323650E1,-5.981993973E-1,-1.258367586E0,4.636052638E-1,1.468421377E0
1.224318050E1,-4.293914509E-1,-1.258643575E0,6.409975076E-1,1.476292136E0
1.225312450E1,-2.664348131E-1,-1.254420131E0,8.549154072E-1,1.541245512E0
1.226306850E1,-1.662141216E-1,-1.266389381E0,9.688051347E-1,1.603107167E0
1.227301250E1,-1.026741832E-1,-1.298525094E0,9.987108654E-1,1.641381369E0
1.228295550E1,3.874131203E-2,-1.332544779E0,9.264386952E-1,1.623411573E0
1.229289950E1,3.050983572E-1,-1.377558984E0,7.534925281E-1,1.599532667E0
1.230284350E1,6.068450904E-1,-1.450576090E0,5.368825704E-1,1.661527866E0
1.231278750E1,8.637647295E-1,-1.509054678E0,3.227512474E-1,1.768475020E0
1.232273150E1,1.030255424E0,-1.533731682E0,1.671724802E-1,1.855183482E0
1.233267550E1,1.098703516E0,-1.439350020E0,4.226806015E-2,1.811260469E0
1.234261950E1,1.090592258E0,-1.237494196E0,-3.347238600E-2,1.649819311E0
1.235256250E1,1.051498359E0,-9.770136023E-1,-1.304996207E-2,1.435400529E0
1.236250650E1,1.046555123E0,-6.711287946E-1,8.085281298E-2,1.245884690E0
1.237245050E1,1.007006895E0,-3.673893303E-1,2.590607433E-1,1.102792036E0
1.238239450E1,9.487727201E-1,-4.387458265E-2,4.003041843E-1,1.030697867E0
1.239233850E1,7.086474538E-1,1.019362646E-1,5.660818112E-1,9.126997495E-1
1.240228250E1,5.616466981E-1,1.503634894E-1,7.451036739E-1,9.451114629E-1
1.241222550E1,4.355152398E-1,3.501622635E-1,7.408199307E-1,9.279554432E-1
1.242216950E1,-1.269372046E-2,4.622095335E-1,6.667607783E-1,8.113992352E-1
1.243211350E1,-3.861571383E-1,2.933647496E-1,8.020671026E-1,9.372789600E-1
1.244205750E1,-4.518815964E-1,-5.088071644E-2,8.876174225E-1,9.973216699E-1
1.245200150E1,-4.563295734E-1,-3.905197459E-1,8.290351921E-1,1.023739079E0
1.246194550E1,-5.143146569E-1,-6.620971853E-1,6.482198422E-1,1.059755261E0
1.247188850E1,-5.167254639E-1,-9.069721448E-1,5.091435255E-1,1.161391754E0
1.248183250E1,-3.745626944E-1,-1.123843619E0,3.835030872E-1,1.245149112E0
1.249177650E1,-2.086514586E-1,-1.248377618E0,2.003280933E-1,1.281449747E0
1.250172050E1,-4.810095012E-2,-1.384063427E0,8.369075909E-2,1.387425463E0
1.251166450E1,1.337778622E-1,-1.485923093E0,-1.019111216E-2,1.491967766E0
1.252160850E1,2.770059943E-1,-1.505216566E0,-1.170454699E-1,1.534962173E0
1.253155150E1,3.624846858E-1,-1.482880202E0,-1.964028575E-1,1.539124077E0
1.254149550E1,3.676840299E-1,-1.426090874E0,-2.571980397E-1,1.495017578E0
1.255143950E1,3.019110399E-1,-1.265079605E0,-2.829912043E-1,1.331037454E0
1.256138350E1,1.660328579E-1,-1.013997241E0,-2.996526991E-1,1.070303254E0
1.257132750E1,2.315321982E-2,-6.865245134E-1,-3.123630110E-1,7.546009738E-1
1.258127150E1,-2.099957335E-1,-3.846327692E-1,-3.024793893E-1,5.324794421E-1
1.259121550E1,-4.055599540E-1,-1.549272412E-1,-3.445080060E-1,5.542265715E-1
1.260115850E1,-5.103619391E-1,2.933548093E-3,-3.233078293E-1,6.041571542E-1
1.261110250E1,-5.757039893E-1,6.533210993E-2,-2.790811712E-1,6.431093748E-1
1.262104650E1,-6.342229235E-1,4.366817594E-2,-2.544240475E-1,6.847461006E-1
1.263099050E1,-6.577784318E-1,-1.859589994E-2,-3.214074842E-1,7.323394320E-1
1.264093450E1,-6.266016626E-1,-1.080401731E-1,-4.053699195E-1,7.540736663E-1
1.265087850E1,-5.606976950E-1,-1.722507870E-1,-4.839687771E-1,7.604459323E-1
1.266082154E1,-4.356239980E-1,-2.206207091E-1,-5.340324913E-1,7.236245343E-1
1.267076554E1,-4.138723558E-1,-2.695759374E-1,-5.614921854E-1,7.478201570E-1
1.268070954E1,-3.772372109E-1,-2.751541811E-1,-6.037485512E-1,7.632365621E-1
1.269065354E1,-3.417001730E-1,-2.560302776E-1,-6.327846546E-1,7.633655287E-1
1.270059754E1,-2.913345963E-1,-2.005787927E-1,-6.907668145E-1,7.760583039E-1
1.271054154E1,-2.380793256E-1,-9.853961706E-2,-7.128597879E-1,7.579979543E-1
1.272048454E1,-2.130935884E-1,-2.816837668E-2,-7.474647796E-1,7.777569875E-1
1.273042854E1,-1.468686086E-1,2.813972533E-2,-7.886614837E-1,8.027136277E-1
1.274037254E1,-8.603827000E-2,5.121459246E-2,-7.969849952E-1,8.032500239E-1
1.275031654E1,-6.890241981E-2,2.860107064E-2,-8.299163675E-1,8.332627087E-1
1.276026054E1,-9.351451993E-2,6.507366300E-3,-8.364829369E-1,8.417190832E-1
1.277020454E1,-1.411143637E-1,-1.737032354E-2,-8.517237045E-1,8.635092707E-1
1.278014854E1,-1.654025280E-1,-6.222606897E-3,-8.935586321E-1,9.087594545E-1
1.279009154E1,-2.006624079E-1,5.340905249E-2,-9.503456211E-1,9.727665333E-1
1.280003554E1,-2.011032879E-1,1.277160537E-1,-1.020770656E0,1.048201629E0
1.280997954E1,-1.858215898E-1,2.108213603E-1,-1.073915560E0,1.110076547E0
1.281992354E1,-1.052896428E-1,2.882425886E-1,-1.149268482E0,1.189532573E0
1.282986754E1,3.368405521E-2,3.635863012E-1,-1.221462885E0,1.274873010E0
1.283981154E1,1.347865069E-1,3.888714159E-1,-1.311918141E0,1.374960941E0
1.284975454E1,1.953595680E-1,3.619128281E-1,-1.354839482E0,1.415887099E0
1.285969854E1,2.153336567E-1,3.722857887E-1,-1.424982388E0,1.488469045E0
1.286964254E1,2.409970862E-1,4.152914751E-1,-1.475233944E0,1.551406393E0
1.287958654E1,2.240337288E-1,5.041709071E-1,-1.497494587E0,1.595891429E0
1.288953054E1,1.539741451E-1,5.625869304E-1,-1.544163261E0,1.650652074E0
1.289947454E1,9.349113107E-2,5.617496091E-1,-1.549671192E0,1.650994857E0
1.290941754E1,-1.101440012E-2,5.396231604E-1,-1.551227575E0,1.642443747E0
1.291936154E1,-9.667026222E-2,5.038335228E-1,-1.578927736E0,1.660182566E0
1.292930554E1,-1.068654674E-1,4.688817912E-1,-1.580370390E0,1.651920377E0
1.293924954E1,6.530345857E-2,3.821745998E-1,-1.487053506E0,1.536766116E0
1.294919354E1,5.136235160E-1,3.386034876E-1,-1.240466482E0,1.384636606E0
1.295913754E1,1.098195977E0,3.287199390E-1,-1.002147274E0,1.522626140E0
1.296908154E1,1.672037628E0,3.278603983E-1,-9.606571859E-1,1.956032847E0
1.297902454E1,1.917548180E0,2.734234053E-1,-1.019958624E0,2.189079025E0
1.298896854E1,2.103635234E0,1.204725230E-1,-1.026409857E0,2.343781564E0
1.299891254E1,2.386825828E0,-6.696172893E-2,-8.108276935E-1,2.521678599E0
1.300885654E1,2.580394979E0,-2.548035318E-1,-4.619715518E-1,2.633776908E0
1.301880054E1,2.708211604E0,-3.519713920E-1,-2.814279512E-2,2.731132727E0
1.302874454E1,2.628100072E0,-3.552575272E-1,4.262339544E-1,2.686036724E0
1.303868754E1,2.421341942E0,-3.582688433E-1,6.629595034E-1,2.535896028E0
1.304863154E1,2.252981892E0,-3.205168802E-1,7.299861364E-1,2.389882473E0
1.305857554E1,1.990471146E0,-2.057184952E-1,7.263709491E-1,2.128828372E0
1.306851954E1,1.667473876E0,-7.552263737E-3,7.434185064E-1,1.825704588E0
1.307846354E1,1.291255835E0,2.121054089E-1,7.056700516E-1,1.486707960E0
1.308840754E1,8.108491820E-1,4.560471529E-1,7.047270419E-1,1.167088516E0
1.309835054E1,2.514852369E-1,6.622474587E-1,6.612785751E-1,9.690747519E-1
1.310829454E1,-1.598915273E-1,7.659378880E-1,5.385801633E-1,9.498919628E-1
1.311823854E1,-5.759852403E-1,7.204962516E-1,4.844780695E-1,1.041917869E0
1.312818254E1,-8.531590497E-1,4.754938227E-1,4.595239073E-1,1.079415101E0
1.313812654E1,-9.845600188E-1,2.507870793E-2,6.045810485E-1,1.155640782E0
1.314807054E1,-1.126829208E0,-4.258205563E-1,9.021857603E-1,1.504993806E0
1.315801454E1,-1.320452152E0,-8.573824936E-1,1.156641383E0,1.953591031E0
1.316795754E1,-1.356952811E0,-1.205951976E0,1.292296055E0,2.228378378E0
1.317790154E1,-1.250097869E0,-1.404839169E0,1.408625826E0,2.349583897E0
1.318784554E1,-9.920362687E-1,-1.440163368E0,1.565575619E0,2.347175644E0
1.319778954E1,-6.694044507E-1,-1.264980202E0,1.734544656E0,2.248760191E0
1.320773354E1,-3.489974982E-1,-9.044151574E-1,1.834797946E0,2.075150484E0
1.321767754E1,-5.866745353E-2,-5.042948681E-1,1.837357711E0,1.906210518E0
1.322762054E1,1.477246410E-1,-1.162525874E-1,1.699933379E0,1.710295508E0
1.323756454E1,3.393548548E-1,1.857865065E-1,1.566480622E0,1.613548847E0
1.324750854E1,6.126408505E-1,3.459206933E-1,1.477344643E0,1.636318163E0
1.325745254E1,8.217951697E-1,3.869009042E-1,1.300073290E0,1.585947720E0
1.326739654E1,7.394178414E-1,2.505222005E-1,1.111839724E0,1.358560889E0
1.327734054E1,5.221844244E-1,4.863772452E-2,9.051881593E-1,1.046139477E0
1.328728454E1,2.382056254E-1,-1.592904335E-1,7.567051345E-1,8.091464780E-1
1.329722754E1,1.741359293E-1,-2.376606649E-1,7.173983967E-1,7.755426314E-1
1.330717154E1,1.759397954E-1,-2.047273922E-1,7.365581144E-1,7.844654056E-1
1.331711554E1,2.677972144E-1,-1.485157692E-1,7.719010247E-1,8.304236712E-1
1.332705954E1,3.381965214E-1,-7.101794243E-2,7.695700322E-1,8.435985240E-1
1.333700354E1,3.421188337E-1,-7.796677351E-2,7.034848009E-1,7.861392874E-1
1.334694754E1,2.512267900E-1,-1.705387223E-1,5.406154329E-1,6.200511286E-1
1.335689054E1,9.391622365E-2,-3.152005917E-1,3.387822662E-1,4.721706196E-1
1.336683454E1,-1.348058027E-1,-4.273303074E-1,2.193897240E-1,4.989144686E-1
1.337677854E1,-2.973408562E-1,-6.806006992E-1,8.244047821E-2,7.472786153E-1
1.338672254E1,-4.823450053E-1,-1.018672090E0,3.951431394E-2,1.127790279E0
1.339666654E1,-6.810930347E-1,-1.131551419E0,8.568451345E-2,1.323494681E0
1.340661054E1,-7.997073126E-1,-1.125670874E0,1.867787790E-1,1.393396216E0
1.341655354E1,-9.288606119E-1,-9.740946722E-1,3.451623094E-1,1.389524914E0
1.342649754E1,-1.076064266E0,-7.019266641E-1,4.650676525E-1,1.366346686E0
1.343644154E1,-1.197538417E0,-4.109744757E-1,4.964693932E-1,1.359955932E0
1.344638554E1,-1.285289921E0,-1.793855596E-1,4.962969004E-1,1.389409937E0
1.345632954E1,-1.301726444E0,-2.508513987E-2,5.359667502E-1,1.407970652E0
1.346627354E1,-1.256589448E0,7.292939723E-2,6.073238312E-1,1.397561438E0
1.347621754E1,-1.172255057E0,8.461037993E-2,6.311646836E-1,1.334057604E0
1.348616054E1,-1.036890260E0,8.085529804E-3,5.825668663E-1,1.189365772E0
1.349610454E1,-8.839189124E-1,-1.170852309E-1,4.378354150E-1,9.933385353E-1
1.350604854E1,-6.803077537E-1,-2.297558141E-1,2.501661050E-1,7.603876997E-1
1.351599254E1,-4.900229841E-1,-3.383456254E-1,6.390085772E-2,5.989020010E-1
1.352593654E1,-2.885893285E-1,-4.091846430E-1,-1.004784076E-1,5.106973497E-1
1.353588054E1,-1.545056570E-1,-4.498268849E-1,-2.280968128E-1,5.274887491E-1
1.354582354E1,-6.483158827E-2,-4.078701890E-1,-2.939342684E-1,5.069108205E-1
1.355576754E1,-8.789066792E-2,-3.037669462E-1,-3.713905799E-1,4.877807807E-1
1.356571154E1,-1.560393816E-1,-2.236039585E-1,-4.557955764E-1,5.311276931E-1
1.357565554E1,-2.466601145E-1,-1.146206295E-1,-4.582856132E-1,5.329210111E-1
1.358559954E1,-3.140445971E-1,-4.609477043E-2,-4.850125051E-1,5.796428788E-1
1.359554354E1,-3.517725867E-1,3.222166657E-2,-5.595140724E-1,6.616934228E-1
1.360548754E1,-3.683447653E-1,1.012153029E-1,-6.168074302E-1,7.255162367E-1
1.361543054E1,-3.633132362E-1,2.177520651E-1,-6.857110195E-1,8.059851560E-1
1.362537454E1,-3.594037879E-1,3.580630213E-1,-7.410400052E-1,8.980648636E-1
1.363531854E1,-4.004559195E-1,5.062273729E-1,-7.304927976E-1,9.748080960E-1
1.364526254E1,-4.695834571E-1,6.445970535E-1,-6.680185144E-1,1.040318567E0
1.365520654E1,-5.511749196E-1,7.555555719E-1,-5.485869420E-1,1.084253498E0
1.366515062E1,-6.250392866E-1,8.090640271E-1,-4.319390827E-1,1.109878408E0
1.367509362E1,-6.462529850E-1,8.138768703E-1,-2.907172765E-1,1.079145502E0
1.368503763E1,-6.236710382E-1,7.903418273E-1,-2.181438285E-1,1.030141979E0
1.369498162E1,-5.637739152E-1,7.252675796E-1,-2.202986737E-1,9.446616299E-1
1.370492562E1,-4.403590733E-1,6.454641956E-1,-2.506287660E-1,8.205820614E-1
1.371486962E1,-3.144328523E-1,5.344781953E-1,-3.784762359E-1,7.264841505E-1
1.372481362E1,-2.123515767E-1,4.348486573E-1,-5.611455917E-1,7.409931997E-1
1.373475763E1,-1.637577063E-1,3.316102177E-1,-7.288263412E-1,8.172941689E-1
1.374470062E1,-1.682442749E-1,2.905072153E-1,-8.634092188E-1,9.263779235E-1
1.375464462E1,-2.421688682E-1,2.943517596E-1,-8.972857936E-1,9.748900012E-1
1.376458862E1,-3.273306406E-1,3.222880018E-1,-9.054191244E-1,1.015282569E0
1.377453262E1,-4.028129321E-1,3.671390694E-1,-8.263779250E-1,9.899241534E-1
1.378447662E1,-4.642309159E-1,4.190290153E-1,-7.465258630E-1,9.738565208E-1
1.379442062E1,-5.365995651E-1,4.959006053E-1,-7.035440040E-1,1.014312905E0
1.380436362E1,-6.065445435E-1,6.021714109E-1,-6.759971863E-1,1.089715049E0
1.381430762E1,-6.402946723E-1,7.067740059E-1,-6.731683034E-1,1.167331284E0
1.382425162E1,-6.158486331E-1,8.195130014E-1,-7.468882442E-1,1.268350562E0
1.383419563E1,-6.534567547E-1,9.278624922E-1,-8.963921928E-1,1.446185845E0
1.384413962E1,-6.518949634E-1,9.973198128E-1,-1.046635668E0,1.585894093E0
1.385408362E1,-7.145157194E-1,1.105403255E0,-1.163182663E0,1.756542905E0
1.386402662E1,-7.702700901E-1,1.174091082E0,-1.273102716E0,1.895414574E0
1.387397062E1,-6.928652340E-1,1.317135612E0,-1.213452930E0,1.920254271E0
1.388391462E1,-4.386019850E-1,1.554064205E0,-9.716037583E-1,1.884542682E0
1.389385862E1,-1.806801331E-1,1.880544076E0,-6.445644553E-1,1.996134933E0
1.390380262E1,-9.323268414E-2,2.222304475E0,-3.527274370E-1,2.252053765E0
1.391374662E1,-3.023606908E-1,2.434388250E0,-1.300906080E-1,2.456540597E0
1.392369063E1,-5.290858930E-1,2.402281773E0,6.708203539E-2,2.460770123E0
1.393363363E1,-5.535155600E-1,2.309052013E0,4.277096455E-1,2.412682369E0
1.394357762E1,-4.527937621E-1,2.273001004E0,8.897579420E-1,2.482584329E0
1.395352162E1,-3.527180815E-1,2.297866874E0,1.226109082E0,2.628297109E0
1.396346562E1,-2.087537849E-1,2.367697247E0,1.368606312E0,2.742745273E0
1.397340962E1,-1.042038149E-1,2.390410756E0,1.352205311E0,2.748341540E0
1.398335363E1,-8.905601799E-2,2.348936455E0,1.253865084E0,2.664134211E0
1.399329662E1,-1.069186771E-1,2.007112321E0,1.008588274E0,2.248817863E0
1.400324062E1,1.020841992E-1,1.535988123E0,7.159994504E-1,1.697744359E0
1.401318462E1,3.457476157E-1,1.038063211E0,4.713890773E-1,1.191353981E0
1.402312863E1,5.822364986E-1,5.569888061E-1,3.171857214E-1,8.659345543E-1
1.403307262E1,7.758366394E-1,1.565170991E-1,1.672455704E-1,8.089444815E-1
1.404301662E1,8.628397000E-1,-7.926076233E-2,-3.787943244E-2,8.673001025E-1
1.405296062E1,8.705001372E-1,-2.433763182E-1,-1.954946387E-1,9.247814201E-1
1.406290362E1,7.817750716E-1,-3.480555117E-1,-1.913089094E-1,8.768774148E-1
1.407284762E1,6.409214938E-1,-4.828250617E-1,-1.109900934E-1,8.100735783E-1
1.408279163E1,4.136016297E-1,-6.280295527E-1,6.838377178E-2,7.550918934E-1
1.409273562E1,1.203748745E-1,-7.335308647E-1,2.647546157E-1,7.890834217E-1
1.410267962E1,-1.341286951E-1,-8.392777598E-1,4.193786788E-1,9.477637581E-1
1.411262362E1,-3.175745612E-1,-9.007618171E-1,5.913034835E-1,1.123327763E0
1.412256663E1,-3.964640254E-1,-8.789493638E-1,7.532367124E-1,1.223560890E0
1.413251062E1,-3.853320962E-1,-9.032515615E-1,9.270637625E-1,1.350478222E0
1.414245462E1,-2.578645492E-1,-9.504707515E-1,1.026837727E0,1.422773521E0
1.415239862E1,-7.838075638E-2,-1.096793230E0,1.045616498E0,1.517370355E0
1.416234262E1,1.519650418E-1,-1.316281334E0,9.285622577E-1,1.617998081E0
1.417228663E1,3.361388862E-1,-1.538749763E0,7.375805001E-1,1.739185205E0
1.418223062E1,5.138673449E-1,-1.743365473E0,5.075744252E-1,1.887065081E0
1.419217362E1,6.940621591E-1,-1.789114088E0,2.861446077E-1,1.940239737E0
1.420211762E1,7.839666080E-1,-1.602558673E0,1.156738593E-1,1.787785889E0
1.421206162E1,7.575126350E-1,-1.258543587E0,-4.339452624E-2,1.469571515E0
1.422200562E1,6.730384952E-1,-8.483140469E-1,-1.289844610E-1,1.090529472E0
1.423194963E1,5.074278063E-1,-3.726038772E-1,-1.358201484E-1,6.440215374E-1
1.424189362E1,4.215807402E-1,3.119898856E-2,-4.947811559E-2,4.256192915E-1
1.425183662E1,4.410396892E-1,3.593143255E-1,1.504668389E-1,5.884412133E-1
1.426178062E1,4.510109460E-1,4.883857638E-1,3.883070134E-1,7.698791232E-1
1.427172463E1,5.098158091E-1,4.854773587E-1,6.799632065E-1,9.787493996E-1
1.428166862E1,4.966584045E-1,3.385666502E-1,9.330160819E-1,1.109872045E0
1.429161262E1,3.688002634E-1,1.847538882E-1,1.141968234E0,1.214182474E0
1.430155662E1,5.570291519E-2,8.743575454E-2,1.217837611E0,1.222242313E0
1.431150062E1,-2.963737267E-1,4.944814861E-2,1.180120000E0,1.217770799E0
1.432144362E1,-6.357227343E-1,-4.001717448E-2,1.083140420E0,1.256557973E0
1.433138762E1,-7.684726560E-1,-2.189466512E-1,1.041613641E0,1.312801141E0
1.434133162E1,-7.292495334E-1,-5.814056093E-1,8.751106668E-1,1.278927693E0
1.435127562E1,-5.398710823E-1,-1.071269549E0,6.342860734E-1,1.356981229E0
1.436121962E1,-3.379521078E-1,-1.548067886E0,3.964562778E-1,1.633371784E0
1.437116362E1,-1.790019822E-1,-1.919398824E0,1.179430175E-1,1.931332211E0
1.438110662E1,-7.307733178E-2,-2.152899195E0,-1.024689460E-1,2.156574860E0
1.439105062E1,1.586525023E-2,-2.209948139E0,-3.183178885E-1,2.232811851E0
1.440099462E1,4.149593532E-2,-2.129507409E0,-5.188458104E-1,2.192196317E0
1.441093862E1,-5.178352654E-2,-1.939492781E0,-6.957568283E-1,2.061162619E0
1.442088263E1,-2.514811438E-1,-1.600947180E0,-7.867352647E-1,1.801451364E0
1.443082662E1,-4.414121568E-1,-1.157910082E0,-8.072701013E-1,1.478947419E0
1.444077062E1,-6.056750625E-1,-7.976368135E-1,-7.072723348E-1,1.226091727E0
1.445071362E1,-7.615168083E-1,-5.033330011E-1,-5.235756232E-1,1.052322856E0
1.446065762E1,-8.184376985E-1,-3.236720377E-1,-3.551576860E-1,9.490736727E-1
1.447060162E1,-8.325698340E-1,-1.677583712E-1,-1.740885669E-1,8.669614921E-1
1.448054562E1,-9.122837555E-1,-8.895252228E-2,-1.048804839E-1,9.225909807E-1
1.449048962E1,-9.124544942E-1,-1.187142652E-1,-8.865080595E-2,9.244053474E-1
1.450043362E1,-7.491891235E-1,-1.739827323E-1,-1.572854233E-1,7.850433353E-1
1.451037662E1,-5.821540529E-1,-2.261018890E-1,-3.228793015E-1,7.030479705E-1
1.452032063E1,-4.667528200E-1,-2.738601923E-1,-5.239573002E-1,7.532521838E-1
1.453026462E1,-3.887410229E-1,-2.218509632E-1,-7.338232255E-1,8.595545120E-1
1.454020862E1,-2.877800739E-1,-1.417230588E-1,-9.323527153E-1,9.859941085E-1
1.455015262E1,-2.864673740E-1,-1.715982378E-2,-1.096548378E0,1.133479758E0
1.456009662E1,-3.036587727E-1,1.292380840E-1,-1.206154874E0,1.250488190E0
1.457004063E1,-2.850090784E-1,2.581411225E-1,-1.268633104E0,1.325630781E0
1.457998362E1,-3.115308791E-1,3.380678827E-1,-1.275869618E0,1.356165427E0
1.458992762E1,-3.411920500E-1,4.156756371E-1,-1.212381135E0,1.326297956E0
1.459987162E1,-3.821032637E-1,4.642279923E-1,-1.085045151E0,1.240497284E0
1.460981563E1,-4.022621244E-1,4.588123012E-1,-9.741521211E-1,1.149476359E0
1.461975962E1,-4.363513917E-1,4.259831089E-1,-9.014992972E-1,1.088377292E0
1.462970362E1,-4.583895475E-1,3.622601527E-1,-9.043619478E-1,1.076672619E0
1.463964662E1,-4.738998717E-1,3.237427890E-1,-9.427859022E-1,1.103737169E0
1.464959062E1,-4.426307166E-1,2.870977038E-1,-9.919859827E-1,1.123558291E0
1.465953504E1,-3.954723376E-1,2.242968535E-1,-1.038381885E0,1.133553875E0
1.466947904E1,-3.350881416E-1,1.530532086E-1,-1.110773338E0,1.170267814E0
1.467942304E1,-3.103982735E-1,1.291661632E-1,-1.220111593E0,1.265584168E0
1.468936704E1,-2.372338182E-1,1.645271999E-1,-1.288256360E0,1.320209655E0
1.469931104E1,-1.507932597E-1,1.775138658E-1,-1.370468797E0,1.390120319E0
1.470925404E1,-1.097346961E-1,1.648780328E-1,-1.431320624E0,1.444958545E0
1.471919804E1,-5.969714820E-2,1.451425105E-1,-1.509620835E0,1.517756622E0
1.472914204E1,-3.584167778E-2,1.257028574E-1,-1.610239137E0,1.615535797E0
1.473908604E1,-3.768647432E-2,1.186470222E-1,-1.675622556E0,1.680240559E0
1.474903004E1,-7.066886365E-2,1.052171373E-1,-1.744812074E0,1.749409589E0
1.475897404E1,-5.059010983E-3,1.179348314E-1,-1.732339379E0,1.736356513E0
1.476891804E1,2.253511065E-1,2.356819671E-1,-1.549868974E0,1.583800160E0
1.477886104E1,7.271831274E-1,3.777593672E-1,-1.264013073E0,1.506395197E0
1.478880504E1,1.278700694E0,5.204969180E-1,-9.552938274E-1,1.678862354E0
1.479874904E1,1.706710448E0,6.388129878E-1,-7.198925266E-1,1.959384555E0
1.480869304E1,2.066353971E0,6.275313699E-1,-6.317217770E-1,2.250041502E0
1.481863704E1,2.426830723E0,5.237140560E-1,-5.368334538E-1,2.540073607E0
1.482858104E1,2.783207408E0,4.825063884E-1,-4.422067934E-1,2.859126219E0
1.483852404E1,3.106136264E0,5.144099665E-1,-3.701610567E-1,3.170129227E0
1.484846804E1,3.284781566E0,4.881015891E-1,-1.941161576E-1,3.326516824E0
1.485841204E1,3.320337315E0,3.848900467E-1,3.356404111E-2,3.342739412E0
1.486835604E1,3.130565931E0,1.911396325E-1,2.520161641E-1,3.146504339E0
1.487830004E1,2.764479361E0,1.194703102E-2,4.669761837E-1,2.803668244E0
1.488824404E1,2.352459987E0,-4.092700124E-2,6.492602080E-1,2.440754357E0
1.489818804E1,1.933543823E0,-1.744049013E-2,6.625952218E-1,2.043998120E0
1.490813104E1,1.552884822E0,6.010703802E-2,6.929112808E-1,1.701525836E0
1.491807504E1,1.092450503E0,2.910135841E-1,6.975820367E-1,1.328441834E0
1.492801904E1,4.570423490E-1,5.808945626E-1,7.357304411E-1,1.042892844E0
1.493796304E1,-8.553950250E-2,7.926421219E-1,6.416544423E-1,1.023386028E0
1.494790704E1,-6.139500421E-1,8.398911327E-1,5.321802396E-1,1.168575020E0
1.495785104E1,-1.085677673E0,6.138757825E-1,4.612438658E-1,1.329768924E0
1.496779404E1,-1.466107464E0,2.005688524E-1,4.869707376E-1,1.557831653E0
1.497773804E1,-1.788289631E0,-2.338944733E-1,6.001219618E-1,1.900745327E0
1.498768204E1,-2.035705206E0,-5.787901497E-1,7.465688400E-1,2.244205596E0
1.499762604E1,-2.016298882E0,-8.994637352E-1,9.060032612E-1,2.386490750E0
1.500757004E1,-1.701591210E0,-1.116937473E0,1.167061560E0,2.346272501E0
1.501751404E1,-1.073744091E0,-1.245306661E0,1.461995117E0,2.200260160E0
1.502745804E1,-3.744948667E-1,-1.308819702E0,1.734609268E0,2.205022614E0
1.503740104E1,2.473284513E-1,-1.194178022E0,1.919553190E0,2.274184901E0
1.504734504E1,7.232818651E-1,-8.688418669E-1,2.033889938E0,2.326957482E0
1.505728904E1,1.192206926E0,-3.972668481E-1,2.003757627E0,2.365210970E0
1.506723304E1,1.468849808E0,5.499481738E-2,1.831319291E0,2.348249249E0
1.507717704E1,1.567795807E0,3.773629260E-1,1.558567877E0,2.242659202E0
1.508712104E1,1.571514051E0,4.923840898E-1,1.314710187E0,2.107263956E0
1.509706504E1,1.316550305E0,4.417647439E-1,1.102810600E0,1.773316671E0
1.510700804E1,9.158680987E-1,2.709091026E-1,8.914279068E-1,1.306464630E0
1.511695204E1,4.213556224E-1,1.918746275E-1,6.665552486E-1,8.115739847E-1
1.512689604E1,-8.066000104E-2,1.597839385E-1,4.451111054E-1,4.797508092E-1
1.513684004E1,-4.307848424E-1,1.607504833E-1,3.624164195E-1,5.854587598E-1
1.514678404E1,-6.906736976E-1,1.305846977E-1,3.288054545E-1,7.760125945E-1
1.515672804E1,-7.352791822E-1,9.090432286E-2,3.803005672E-1,8.327830408E-1
1.516667104E1,-6.833845586E-1,-1.225903845E-1,4.165192442E-1,8.096487745E-1
1.517661504E1,-6.131548208E-1,-4.462302625E-1,4.435497527E-1,8.785309696E-1
1.518655904E1,-5.303798819E-1,-8.723542893E-1,4.962935382E-1,1.135170516E0
1.519650304E1,-5.101064157E-1,-1.265071419E0,5.011736244E-1,1.453199660E0
1.520644704E1,-5.291379333E-1,-1.515808212E0,4.710709888E-1,1.673191371E0
1.521639104E1,-5.401827389E-1,-1.594260889E0,4.347122709E-1,1.738516590E0
1.522633504E1,-5.509702671E-1,-1.473331114E0,3.656654249E-1,1.614925388E0
1.523627804E1,-5.923252845E-1,-1.242476608E0,3.443768822E-1,1.418870255E0
1.524622204E1,-6.588929111E-1,-1.009562713E0,3.636487202E-1,1.259204960E0
1.525616604E1,-7.361773145E-1,-7.497194660E-1,4.295516646E-1,1.135143581E0
1.526611004E1,-8.692055637E-1,-4.937353814E-1,5.272371496E-1,1.130164568E0
1.527605404E1,-9.925619334E-1,-2.608817124E-1,5.987284242E-1,1.188155792E0
1.528599804E1,-1.118757711E0,-9.839519083E-2,6.518457006E-1,1.298538889E0
1.529594104E1,-1.188845361E0,-6.281079054E-3,6.735051030E-1,1.366382768E0
1.530588504E1,-1.155714453E0,1.831172526E-2,6.318616717E-1,1.317292825E0
1.531582904E1,-1.037208349E0,-2.365666509E-2,5.487440859E-1,1.173661309E0
1.532577304E1,-8.701358557E-1,-1.557452667E-1,4.243865266E-1,9.805594931E-1
1.533571704E1,-7.227474296E-1,-3.130371219E-1,2.573640275E-1,8.286086708E-1
1.534566104E1,-5.471239686E-1,-4.264766139E-1,6.782814011E-2,6.970133398E-1
1.535560504E1,-3.611655539E-1,-4.876899451E-1,-6.169587269E-2,6.099905086E-1
1.536554804E1,-1.621485525E-1,-5.422567463E-1,-1.654341030E-1,5.896634417E-1
1.537549204E1,-9.404603183E-2,-5.238707614E-1,-2.700187178E-1,5.968210274E-1
1.538543604E1,-9.385424316E-2,-4.527972704E-1,-4.059132721E-1,6.153044543E-1
1.539538004E1,-1.449431205E-1,-3.887878007E-1,-5.290147032E-1,6.723250838E-1
1.540532404E1,-2.015541083E-1,-2.671622068E-1,-5.368183972E-1,6.325928350E-1
1.541526804E1,-2.887208909E-1,-1.617942113E-1,-5.420314823E-1,6.350868031E-1
1.542521204E1,-3.721817082E-1,-2.693987668E-2,-5.528336285E-1,6.669857582E-1
1.543515504E1,-4.466500926E-1,8.679080665E-2,-5.345140095E-1,7.019502658E-1
1.544509904E1,-4.833062875E-1,1.566761434E-1,-5.676143664E-1,7.617863548E-1
1.545504304E1,-5.499142599E-1,2.267930299E-1,-5.608456296E-1,8.175503605E-1
1.546498704E1,-6.142944431E-1,2.904019654E-1,-5.406078315E-1,8.683016710E-1
1.547493104E1,-6.880605769E-1,3.639301175E-1,-5.433093913E-1,9.492405294E-1
1.548487504E1,-7.019488835E-1,4.179823637E-1,-5.388315935E-1,9.786628519E-1
1.549481804E1,-7.378841168E-1,5.101280504E-1,-5.237022154E-1,1.038733656E0
1.550476204E1,-7.288881755E-1,6.137974298E-1,-4.850616217E-1,1.069256767E0
1.551470604E1,-7.223813939E-1,6.501688653E-1,-4.531615520E-1,1.072338484E0
1.552465004E1,-6.622813725E-1,6.538836014E-1,-4.310801268E-1,1.025675610E0
1.553459404E1,-5.782989836E-1,6.087799340E-1,-4.179923040E-1,9.379553767E-1
1.554453804E1,-5.232047635E-1,5.121336454E-1,-4.511553723E-1,8.599798052E-1
1.555448204E1,-4.810229498E-1,4.396767032E-1,-5.547471298E-1,8.558288729E-1
1.556442504E1,-4.046296620E-1,3.928644794E-1,-6.836073375E-1,8.862204322E-1
1.557436904E1,-3.740177339E-1,4.206907940E-1,-7.613226807E-1,9.468274571E-1
1.558431304E1,-3.296619254E-1,4.453186816E-1,-8.171216364E-1,9.872555302E-1
1.559425704E1,-3.306641382E-1,4.666873312E-1,-8.026988943E-1,9.856273902E-1
1.560420104E1,-3.825125688E-1,5.264499682E-1,-7.893751363E-1,1.023024213E0
1.561414504E1,-4.714457953E-1,6.241236126E-1,-7.865469843E-1,1.109255417E0
1.562408904E1,-5.309119785E-1,7.384337550E-1,-8.241662157E-1,1.227355650E0
1.563403204E1,-5.216254306E-1,8.815572220E-1,-9.067791867E-1,1.368022192E0
1.564397604E1,-4.658424085E-1,1.095264768E0,-1.014609445E0,1.563984139E0
1.565392004E1,-4.426611221E-1,1.244038399E0,-1.191134546E0,1.778308723E0
1.566386400E1,-3.315435594E-1,1.441600029E0,-1.426941498E0,2.055308690E0
1.567380800E1,-1.827500474E-1,1.600454260E0,-1.588239427E0,2.262157354E0
1.568375200E1,4.003120780E-2,1.761635683E0,-1.551678395E0,2.347907285E0
1.569369500E1,4.629994923E-1,2.023133107E0,-1.315003863E0,2.456963830E0
1.570363900E1,7.925509053E-1,2.446127120E0,-9.012715481E-1,2.724695437E0
1.571358300E1,7.813774610E-1,2.788068198E0,-5.587172431E-1,2.948904877E0
1.572352700E1,3.666274381E-1,2.867383924E0,-4.613663650E-1,2.927313644E0
1.573347100E1,-7.153951406E-2,2.737317874E0,-3.781873834E-1,2.764245420E0
1.574341500E1,-2.695496249E-1,2.642628649E0,-1.586244357E-1,2.661072131E0
1.575335900E1,-2.548415387E-1,2.610783543E0,1.272365820E-1,2.626275703E0
1.576330200E1,-1.183599240E-1,2.585297284E0,3.804103486E-1,2.615814052E0
1.577324600E1,-9.798705518E-2,2.610150290E0,5.145818746E-1,2.662194678E0
1.578319000E1,-1.511125177E-1,2.534517140E0,5.503756052E-1,2.597984879E0
1.579313400E1,-2.256534076E-1,2.245981021E0,7.136550093E-1,2.367414978E0
1.580307800E1,-2.673358691E-1,1.745349433E0,8.626350474E-1,1.965159621E0
1.581302200E1,-2.007682425E-1,1.160795099E0,9.977184467E-1,1.543760100E0
1.582296600E1,-2.714219034E-2,5.923077428E-1,1.014323370E0,1.174911511E0
1.583290900E1,2.138320917E-1,1.184686822E-1,1.014460341E0,1.043498335E0
1.584285300E1,3.209858268E-1,-2.658781582E-1,9.569254929E-1,1.043757393E0
1.585279700E1,3.277446234E-1,-6.018492293E-1,8.325131160E-1,1.078293616E0
1.586274100E1,2.662862939E-1,-8.408740497E-1,6.343204258E-1,1.086434517E0
1.587268500E1,2.528780437E-1,-1.013370420E0,3.856852680E-1,1.113382252E0
1.588262900E1,2.232683283E-1,-1.121080225E0,2.580690555E-1,1.171865715E0
1.589257200E1,1.885615951E-1,-1.144415293E0,2.505173765E-1,1.186592093E0
1.590251600E1,1.137026167E-1,-1.152573913E0,2.930215180E-1,1.194661676E0
1.591246000E1,2.142946064E-2,-1.082233663E0,3.545668249E-1,1.139037557E0
1.592240400E1,-2.844378054E-2,-9.027878773E-1,4.396926369E-1,1.004571857E0
1.593234800E1,1.809128523E-3,-7.243320251E-1,5.806944416E-1,9.283674865E-1
1.594229200E1,5.871423125E-2,-5.893899822E-1,7.673593462E-1,9.693648839E-1
1.595223600E1,2.056109065E-1,-5.032873929E-1,9.638630681E-1,1.106619202E0
1.596217900E1,4.652682120E-1,-5.347652936E-1,1.106852634E0,1.314371021E0
1.597212300E1,8.177775478E-1,-7.104355323E-1,1.158596545E0,1.586135151E0
1.598206700E1,1.088045796E0,-9.489224088E-1,1.097232356E0,1.813343937E0
1.599201100E1,1.208111937E0,-1.195965516E0,1.011381636E0,1.978069963E0
1.600195500E1,1.226959267E0,-1.375567423E0,8.383955611E-1,2.024974542E0
1.601189900E1,1.138874472E0,-1.464343359E0,6.651045544E-1,1.970710685E0
1.602184300E1,1.012820197E0,-1.422383155E0,5.068739288E-1,1.818213345E0
1.603178600E1,7.331689221E-1,-1.321215799E0,3.903395055E-1,1.560612952E0
1.604173000E1,4.061171937E-1,-1.301422389E0,3.833966678E-1,1.416200697E0
