"Time (s)","Linear Acceleration x (m/s^2)","Linear Acceleration y (m/s^2)","Linear Acceleration z (m/s^2)","Absolute acceleration (m/s^2)"
6.015333347E-3,1.077992678E-2,-8.007001698E-2,-9.280357160E-2,1.230443714E-1
1.596033294E-2,-5.515093803E-3,-1.153854454E-1,-1.044944215E-1,1.557668173E-1
2.590633323E-2,7.600210905E-3,-1.670262998E-1,-1.333832482E-1,2.138846393E-1
3.585233307E-2,2.587217510E-2,-2.082392299E-1,-1.370774460E-1,2.506455117E-1
4.579733312E-2,3.670706570E-2,-2.323432070E-1,-1.234429816E-1,2.656481587E-1
5.574333295E-2,7.962270498E-2,-2.283454657E-1,-7.469817996E-2,2.531032298E-1
6.568933325E-2,6.808556378E-2,-2.298289043E-1,-2.973024108E-2,2.415385196E-1
7.563433331E-2,1.971681118E-2,-2.104407066E-1,3.625419885E-3,2.113934420E-1
8.558033314E-2,-8.441625237E-3,-1.690897822E-1,6.069760680E-2,1.798522031E-1
9.552633297E-2,-2.151073694E-2,-9.679890096E-2,1.049001452E-1,1.443495046E-1
1.054713330E-1,-5.492757440E-2,-1.781705081E-2,1.666842377E-1,1.764032903E-1
1.154173333E-1,-9.392557919E-2,6.919010282E-2,1.616082698E-1,1.993151214E-1
1.253633332E-1,-1.540256006E-1,1.663106006E-1,1.131353637E-1,2.533430718E-1
1.353083332E-1,-1.794329220E-1,2.493001324E-1,-5.742989033E-3,3.072128113E-1
1.452543330E-1,-2.007501161E-1,2.871702093E-1,-1.039155471E-1,3.654665226E-1
1.552003333E-1,-2.130169898E-1,2.699261856E-1,-1.689645056E-1,3.831258120E-1
1.651453329E-1,-1.639354616E-1,2.274262834E-1,-2.374525040E-1,3.673979336E-1
1.750913332E-1,-1.019386035E-1,1.575286674E-1,-2.021856806E-1,2.758365629E-1
1.850373331E-1,-6.808907211E-2,6.928775132E-2,-1.410354993E-1,1.712539819E-1
1.949823331E-1,-5.267990470E-2,2.587626815E-2,-1.137564111E-1,1.280049791E-1
2.049283329E-1,-5.140053391E-2,1.196223378E-2,-4.602445766E-2,7.002400036E-2
2.148743332E-1,-8.911975265E-2,1.213881969E-2,4.904644489E-3,9.007628319E-2
2.248193333E-1,-1.047172004E-1,1.487882495E-2,1.587665230E-3,1.057808686E-1
2.347653331E-1,-1.119075215E-1,1.870875120E-2,-5.805802748E-2,1.274521294E-1
2.447113330E-1,-1.431667364E-1,1.154181898E-2,-1.427317035E-1,2.024901656E-1
2.546563330E-1,-1.580058002E-1,-2.603180408E-2,-2.318391770E-1,2.817674426E-1
2.646023333E-1,-9.665915251E-2,-6.449420393E-2,-3.189245372E-1,3.394338735E-1
2.745483331E-1,-4.997030497E-2,-1.060369170E-1,-3.127763361E-1,3.340208011E-1
2.844933332E-1,-4.698413193E-2,-1.590390033E-1,-2.207985375E-1,2.761392898E-1
2.944393330E-1,-4.501011193E-2,-1.500179189E-1,-7.604479373E-2,1.741094392E-1
3.043843331E-1,-6.497952282E-2,-6.376037836E-2,6.716228843E-2,1.131304434E-1
3.143303329E-1,-9.627674460E-2,5.918200850E-2,1.535560691E-1,1.906598753E-1
3.242763332E-1,-1.700797158E-1,2.026773584E-1,2.024873239E-1,3.331761361E-1
3.342223330E-1,-4.007354164E-1,2.949265409E-1,1.951332077E-1,5.344600146E-1
3.441673331E-1,-6.390965778E-1,3.947081065E-1,1.708053553E-1,7.703333009E-1
3.541133329E-1,-8.384100330E-1,4.758072335E-1,9.394831024E-2,9.685815360E-1
3.640583330E-1,-1.060224159E0,5.470538020E-1,6.124373674E-3,1.193055169E0
3.740043333E-1,-1.221400319E0,6.202726364E-1,-1.149783330E-1,1.374691566E0
3.839503331E-1,-1.329114802E0,7.007607293E-1,-2.791115767E-1,1.528239193E0
3.938953332E-1,-1.344497073E0,7.579728109E-1,-4.399567848E-1,1.604916550E0
4.038413330E-1,-1.262747735E0,8.087862843E-1,-5.640645949E-1,1.602134815E0
4.137873333E-1,-1.011108717E0,8.035021555E-1,-5.442021149E-1,1.401467978E0
4.237323334E-1,-7.630850315E-1,7.022517693E-1,-4.196775446E-1,1.118742845E0
4.336783332E-1,-5.539792442E-1,5.719980240E-1,-4.110674465E-1,8.961312337E-1
4.436243330E-1,-3.308185047E-1,4.694828850E-1,-4.755248860E-1,7.456399799E-1
4.535693331E-1,-1.416002673E-1,3.501856524E-1,-5.108491583E-1,6.353325817E-1
4.635153329E-1,-8.387889326E-2,2.017774719E-1,-4.265714850E-1,4.792838915E-1
4.734613332E-1,-1.483385986E-1,2.719540000E-3,-2.847244652E-1,3.210603632E-1
4.834063333E-1,-2.695203888E-1,-1.602628255E-1,-2.209908378E-1,3.836174704E-1
4.933523331E-1,-4.296955061E-1,-2.413707232E-1,-1.756065041E-1,5.231975710E-1
5.032983329E-1,-5.944256043E-1,-2.639304507E-1,-1.711374772E-1,6.725244367E-1
5.132433330E-1,-7.033375973E-1,-1.699522465E-1,-2.172766864E-1,7.554976507E-1
5.231893333E-1,-6.715059400E-1,-2.967344999E-2,-3.884562635E-1,7.763369177E-1
5.331353331E-1,-5.539693040E-1,1.124092126E-1,-6.169068329E-1,8.367149224E-1
5.430803332E-1,-3.715309131E-1,2.575499690E-1,-7.952692759E-1,9.147788952E-1
5.530263330E-1,-2.302154052E-1,3.177201569E-1,-8.555540693E-1,9.412321692E-1
5.629723333E-1,-1.105269939E-1,3.168997926E-1,-8.093737833E-1,8.762006711E-1
5.729173333E-1,1.582139611E-2,2.728825378E-1,-6.395076370E-1,6.954748118E-1
5.828633332E-1,1.339123482E-1,2.130684453E-1,-5.479655291E-1,6.029899671E-1
5.928093330E-1,2.465127647E-1,1.130717021E-1,-5.247725482E-1,5.907114188E-1
6.027543331E-1,4.391931385E-1,6.594489813E-3,-5.668745475E-1,7.171337760E-1
6.127003334E-1,5.786457235E-1,-6.573147476E-2,-5.953735842E-1,8.328392431E-1
6.226463332E-1,6.781729352E-1,-1.159076017E-1,-6.083877321E-1,9.184164277E-1
6.325913332E-1,7.255932695E-1,-9.722165465E-2,-5.750778987E-1,9.309415837E-1
6.425373331E-1,6.505951273E-1,2.806955874E-2,-4.502760972E-1,7.917136374E-1
6.524833329E-1,5.179200500E-1,1.352987230E-1,-2.807932359E-1,6.044764379E-1
6.624283330E-1,3.926615810E-1,2.463671690E-1,-2.753459698E-1,5.391616662E-1
6.723743333E-1,1.478246284E-1,3.908413428E-1,-3.506667320E-1,5.455054839E-1
6.823203331E-1,-1.428293520E-1,5.004462308E-1,-5.109751658E-1,7.293437281E-1
6.922653331E-1,-3.319019938E-1,6.189944351E-1,-7.365129447E-1,1.017725091E0
7.022113330E-1,-4.199762642E-1,6.941346645E-1,-9.154424214E-1,1.223208004E0
7.121573333E-1,-4.620580906E-1,7.006350142E-1,-1.051663981E0,1.345505196E0
7.221023333E-1,-4.442398703E-1,6.548817211E-1,-1.197323824E0,1.435201544E0
7.320483332E-1,-3.863255382E-1,5.701538122E-1,-1.308613295E0,1.478780425E0
7.419943330E-1,-3.602264911E-1,4.709862041E-1,-1.356877967E0,1.480779844E0
7.519393330E-1,-2.822351593E-1,4.085396951E-1,-1.402960897E0,1.488240789E0
7.618853333E-1,-1.458658111E-1,3.967552167E-1,-1.371198822E0,1.434879000E0
7.718313332E-1,-1.666924238E-2,4.069241095E-1,-1.258676319E0,1.322925233E0
7.817763332E-1,6.577474415E-2,4.196833187E-1,-1.169918655E0,1.244656605E0
7.917223331E-1,3.587442219E-2,4.191681790E-1,-1.098190130E0,1.176014667E0
8.016683334E-1,-6.495262563E-2,4.981471056E-1,-1.036855031E0,1.152144842E0
8.116133329E-1,-2.832455581E-1,6.343170637E-1,-9.227467632E-1,1.155009858E0
8.215596667E-1,-3.629477853E-1,8.275377202E-1,-9.058974266E-1,1.279531133E0
8.315056665E-1,-4.701716870E-1,1.093136382E0,-9.285941251E-1,1.509402403E0
8.414506665E-1,-6.572820032E-1,1.371936886E0,-7.760740364E-1,1.707782586E0
8.513966664E-1,-9.493972027E-1,1.683567168E0,-6.720402293E-1,2.046311689E0
8.613426667E-1,-1.205577169E0,1.958851742E0,-6.814421135E-1,2.398933057E0
8.712876663E-1,-1.362887151E0,2.135210198E0,-7.430887234E-1,2.639841818E0
8.812336666E-1,-1.421210203E0,2.226743681E0,-8.794773674E-1,2.784188626E0
8.911796664E-1,-1.429973425E0,2.241714892E0,-1.054107386E0,2.860288803E0
9.011246664E-1,-1.450207130E0,2.178506491E0,-1.234706828E0,2.893698707E0
9.110706663E-1,-1.367202396E0,2.097687446E0,-1.405319810E0,2.871316559E0
9.210166666E-1,-1.348062120E0,2.094935746E0,-1.432937964E0,2.873906482E0
9.309616666E-1,-1.338485550E0,2.121689097E0,-1.367522823E0,2.857136130E0
9.409076665E-1,-1.299792185E0,2.146817506E0,-1.226696873E0,2.793397635E0
9.508536663E-1,-1.247638530E0,2.188795252E0,-1.128065017E0,2.760427003E0
9.607986663E-1,-1.354515107E0,2.285371959E0,-1.047401800E0,2.855641206E0
9.707446666E-1,-1.637740785E0,2.454668148E0,-1.034252581E0,3.126862484E0
9.806906665E-1,-1.723219476E0,2.632738084E0,-1.077499173E0,3.325928389E0
9.906356665E-1,-1.599346797E0,2.790540985E0,-1.047081518E0,3.382515170E0
1.000581666E0,-1.247949017E0,2.859801840E0,-1.102273241E0,3.309206794E0
1.010527667E0,-7.358527941E-1,2.724825883E0,-1.142279890E0,3.044824917E0
1.020472666E0,-4.427102387E-1,2.369940239E0,-1.063703252E0,2.635161038E0
1.030418667E0,-4.750652218E-1,1.865516147E0,-8.131180479E-1,2.089736447E0
1.040364666E0,-9.145407808E-1,1.236113083E0,-4.247335589E-1,1.595230075E0
1.050309666E0,-1.771582382E0,5.438009959E-1,6.878722966E-2,1.854442057E0
1.060255666E0,-2.818066753E0,-1.638009757E-1,7.197805524E-1,2.913145212E0
1.070201667E0,-3.458163790E0,-7.906751186E-1,1.458381538E0,3.835484409E0
1.080146667E0,-3.518004779E0,-1.307325738E0,1.991128519E0,4.248535158E0
1.090092666E0,-3.287109343E0,-1.594479575E0,2.210114200E0,4.269901372E0
1.100038666E0,-3.052833046E0,-1.617755002E0,2.390916248E0,4.201595097E0
1.109983666E0,-2.743269171E0,-1.610731326E0,2.545746133E0,4.074408487E0
1.119929667E0,-2.357265229E0,-1.809984555E0,2.572954397E0,3.931009766E0
1.129875666E0,-1.352131782E0,-2.221942533E0,2.682990224E0,3.736806861E0
1.139820667E0,6.555003566E-1,-2.915098373E0,3.029717249E0,4.255192810E0
1.149766666E0,3.054024124E0,-3.827167536E0,3.285490834E0,5.896501057E0
1.159712667E0,4.364802058E0,-4.695894797E0,3.311671157E0,7.215960838E0
1.169657666E0,4.605778679E0,-5.268943566E0,2.827608824E0,7.547869581E0
1.179603667E0,4.211693301E0,-5.244136754E0,1.724611698E0,6.943602542E0
1.189549666E0,3.520409739E0,-4.622680641E0,5.958868235E-1,5.841022354E0
1.199494666E0,3.203695888E0,-3.554538183E0,2.631315748E-1,4.792457330E0
1.209440666E0,3.252818931E0,-2.690415604E0,2.718984514E-1,4.230023155E0
1.219386667E0,3.290833434E0,-2.144132465E0,3.972760575E-1,3.947748344E0
1.229331667E0,3.284641233E0,-1.698598605E0,6.131669538E-1,3.748343496E0
1.239277666E0,3.065402221E0,-1.095674073E0,9.598776059E-1,3.393900038E0
1.249223666E0,2.813193099E0,-4.571505225E-1,1.300796737E0,3.132908260E0
1.259168666E0,2.609870208E0,2.028288013E-1,1.572676185E0,3.053829139E0
1.269114667E0,2.529172785E0,8.286393356E-1,1.764497311E0,3.193244257E0
1.279060666E0,2.508022821E0,1.394549239E0,1.921002131E0,3.453287598E0
1.289005667E0,2.323525041E0,1.795465919E0,2.030028144E0,3.569801219E0
1.298951666E0,2.029125334E0,1.968372179E0,1.929482786E0,3.422680598E0
1.308897667E0,1.921055925E0,1.835867840E0,1.499645339E0,3.051196935E0
1.318842667E0,1.910571867E0,1.402709028E0,8.990003434E-1,2.534971222E0
1.328788667E0,1.857179772E0,6.674362779E-1,2.663387726E-1,1.991362406E0
1.338734666E0,1.526174156E0,-1.540144908E-1,-1.755937864E-1,1.543943391E0
1.348679666E0,1.126333948E0,-9.002688968E-1,-5.004737127E-1,1.526298197E0
1.358625666E0,6.254754889E-1,-1.530092375E0,-7.189876699E-1,1.802594112E0
1.368570666E0,4.748757720E-2,-1.938197622E0,-8.083749327E-1,2.100555909E0
1.378516667E0,-3.772301942E-1,-2.131113054E0,-9.418766601E-1,2.360312927E0
1.388462666E0,-5.987993217E-1,-2.135383276E0,-1.144267359E0,2.495550070E0
1.398407666E0,-7.195899332E-1,-2.004583985E0,-1.359391393E0,2.526679953E0
1.408353666E0,-4.545923656E-1,-1.814419668E0,-1.583861324E0,2.450997684E0
1.418299667E0,9.146857917E-2,-1.644891345E0,-1.618498914E0,2.309452916E0
1.428245666E0,6.162175924E-1,-1.462769288E0,-1.340195276E0,2.077388142E0
1.438190666E0,1.131438568E0,-1.266985213E0,-8.273118715E-1,1.889404587E0
1.448136666E0,1.380138776E0,-1.031869256E0,-1.590987910E-1,1.730563384E0
1.458081666E0,1.454372687E0,-8.252643228E-1,3.535539410E-1,1.709169829E0
1.468027667E0,1.413215305E0,-6.066544712E-1,6.662766288E-1,1.676046447E0
1.477973667E0,1.116973726E0,-3.196754658E-1,9.483061123E-1,1.499702367E0
1.487918667E0,8.025718635E-1,2.420747280E-3,9.439654317E-1,1.239031151E0
1.497864666E0,4.614692760E-1,1.450419384E-1,7.316059613E-1,8.770623348E-1
1.507810666E0,9.842501163E-2,4.643741727E-2,4.752698743E-1,4.875708872E-1
1.517755666E0,3.937748909E-2,-1.122735572E-1,3.131707308E-1,3.350102161E-1
1.527701667E0,3.526970315E-1,-2.088052404E-1,2.476687592E-1,4.788889629E-1
1.537647666E0,7.773984307E-1,-2.871982759E-1,2.589057921E-1,8.682530616E-1
1.547592666E0,1.248289325E0,-3.381438965E-1,3.842383745E-1,1.349150348E0
1.557538666E0,1.598680800E0,-3.639178383E-1,5.577960142E-1,1.731863992E0
1.567484667E0,1.767009859E0,-4.130391276E-1,5.906392398E-1,1.908344800E0
1.577429667E0,1.769123043E0,-5.399231225E-1,4.782443529E-1,1.910505425E0
1.587375666E0,1.644358079E0,-7.282724637E-1,3.572754014E-1,1.833559376E0
1.597321666E0,1.524300123E0,-9.477044338E-1,3.646349993E-1,1.831554870E0
1.607266666E0,1.563637851E0,-1.165322013E0,4.630578183E-1,2.004335617E0
1.617212667E0,1.680213790E0,-1.367538611E0,5.903454173E-1,2.245392603E0
1.627158666E0,1.720698742E0,-1.539642633E0,6.610373774E-1,2.401723134E0
1.637103667E0,1.552570242E0,-1.655792894E0,7.004058033E-1,2.375435276E0
1.647049666E0,1.321516346E0,-1.615727187E0,8.719859147E-1,2.262153671E0
1.656995667E0,1.057438545E0,-1.480383441E0,1.006752541E0,2.079245557E0
1.666940666E0,7.869726616E-1,-1.243781122E0,1.041515408E0,1.803072875E0
1.676886667E0,5.337051934E-1,-8.845305312E-1,9.235539714E-1,1.385708278E0
1.686832666E0,3.366616273E-1,-4.796283889E-1,6.931336212E-1,9.076445668E-1
1.696777666E0,1.286264652E-1,-9.403082907E-2,4.645984134E-1,4.911601064E-1
1.706723666E0,4.947679996E-2,1.235966903E-1,3.012519126E-1,3.293581795E-1
1.716669667E0,9.014710844E-2,1.558522707E-1,2.136072662E-1,2.793644495E-1
1.726614667E0,2.199979806E-1,1.699727118E-2,1.590559602E-1,2.720051786E-1
1.736560666E0,3.401728803E-1,-1.962360656E-1,1.834411883E-1,4.334476341E-1
1.746506666E0,5.060554647E-1,-3.676448536E-1,2.436786193E-1,6.712928878E-1
1.756451666E0,6.925418830E-1,-5.228124154E-1,3.154034901E-1,9.232694314E-1
1.766397667E0,9.923531878E-1,-6.443549788E-1,3.354328349E-1,1.229826563E0
1.776343666E0,1.295214400E0,-7.303704447E-1,3.435952556E-1,1.526132048E0
1.786288667E0,1.570204275E0,-8.435234231E-1,3.996045649E-1,1.826679238E0
1.796234666E0,1.788572052E0,-9.731328052E-1,4.310156612E-1,2.081286126E0
1.806180667E0,2.018577542E0,-1.106118954E0,5.059279954E-1,2.356717541E0
1.816125666E0,2.215789508E0,-1.278608308E0,5.974240565E-1,2.627066396E0
1.826071042E0,2.365199316E0,-1.448854669E0,7.205652487E-1,2.865756782E0
1.836017041E0,2.460500745E0,-1.598515908E0,8.754895663E-1,3.061992653E0
1.845962042E0,2.607037232E0,-1.727013735E0,1.097314217E0,3.314108939E0
1.855908041E0,2.799569086E0,-1.774935175E0,1.330579238E0,3.571893483E0
1.865854042E0,2.991217427E0,-1.784043968E0,1.541050642E0,3.808547184E0
1.875799041E0,3.191210913E0,-1.724785361E0,1.596086682E0,3.963105390E0
1.885745042E0,3.343671799E0,-1.570753328E0,1.516525958E0,3.993401820E0
1.895691041E0,3.352467765E0,-1.250429406E0,1.371075884E0,3.831770204E0
1.905636041E0,3.119044577E0,-8.827459610E-1,1.236609804E0,3.469421179E0
1.915582041E0,2.922835994E0,-6.033958179E-1,1.045997006E0,3.162462094E0
1.925528042E0,2.746269962E0,-4.113989836E-1,8.181017759E-1,2.894915947E0
1.935473042E0,2.500853550E0,-2.911287743E-1,6.058721137E-1,2.589614925E0
1.945419041E0,2.291933704E0,-1.757649636E-1,4.721416140E-1,2.346651046E0
1.955365041E0,2.210125895E0,-5.835638165E-2,4.634596682E-1,2.258950376E0
1.965310041E0,2.143072949E0,1.434497416E-2,6.180869472E-1,2.230470560E0
1.975256042E0,2.106009788E0,3.776658118E-2,8.614746675E-1,2.275706955E0
1.985202041E0,2.205928178E0,-8.038342774E-2,1.107649755E0,2.469710227E0
1.995147042E0,2.272778226E0,-2.672347122E-1,1.242203836E0,2.603844393E0
2.005093041E0,2.181076342E0,-3.931498235E-1,1.230412925E0,2.534872139E0
2.015039042E0,2.041691585E0,-4.599682957E-1,1.249193012E0,2.437326105E0
2.024984041E0,1.849597687E0,-5.178884751E-1,1.352705102E0,2.349261835E0
2.034930042E0,1.532224855E0,-5.854565603E-1,1.325708507E0,2.109022389E0
2.044876041E0,1.028243982E0,-6.389176530E-1,1.294724988E0,1.772516361E0
2.054821041E0,5.597340739E-1,-7.508713675E-1,1.287477365E0,1.592076634E0
2.064767041E0,1.104767078E-1,-8.366716558E-1,1.497244764E0,1.718710693E0
2.074713042E0,-1.400484163E-1,-9.353545296E-1,1.772630203E0,2.009158901E0
2.084658042E0,-1.779529917E-1,-1.044194602E0,1.967531934E0,2.234545042E0
2.094604041E0,-1.172822821E-1,-1.175013188E0,2.038829373E0,2.356106182E0
2.104550041E0,-1.975405794E-1,-1.301263345E0,1.920576307E0,2.328287337E0
2.114495041E0,-2.749781799E-1,-1.429315614E0,1.633157737E0,2.187638068E0
2.124441042E0,-3.123740476E-1,-1.522619634E0,1.393137721E0,2.087290302E0
2.134387041E0,-4.530019230E-1,-1.447130910E0,1.393741007E0,2.059590398E0
2.144332041E0,-5.750988024E-1,-1.224635584E0,1.460585207E0,1.990924432E0
2.154278041E0,-9.776386696E-1,-9.163651121E-1,1.526996859E0,2.031556496E0
2.164224042E0,-1.745956374E0,-6.058294290E-1,1.504215230E0,2.382867268E0
2.174169042E0,-2.524596754E0,-3.404593939E-1,1.238067077E0,2.832368524E0
2.184115042E0,-2.984995404E0,-1.602213103E-1,8.891613798E-1,3.118729933E0
2.194061041E0,-3.509090114E0,3.960377634E-2,7.492168978E-1,3.588399065E0
2.204006041E0,-4.607476126E0,3.160811824E-1,8.226950562E-1,4.691009563E0
2.213952041E0,-6.269847137E0,7.485506076E-1,7.089858614E-1,6.354051628E0
2.223898042E0,-7.882463021E0,1.228509364E0,2.477488661E-1,7.981468414E0
2.233843042E0,-8.698098734E0,1.559835407E0,-7.651181084E-1,8.869916223E0
2.243789041E0,-7.740363402E0,1.588940508E0,-2.334108793E0,8.239297384E0
2.253735041E0,-5.154507709E0,1.795054275E0,-3.497092212E0,6.482347068E0
2.263680041E0,-3.046599330E0,2.188567795E0,-3.892399074E0,5.405771640E0
2.273626042E0,-1.688992800E0,2.626773339E0,-3.653005879E0,4.805942863E0
2.283572041E0,-6.757217824E-1,2.864711162E0,-3.118055813E0,4.287824859E0
2.293517041E0,1.782067609E-1,2.802702609E0,-2.631620681E0,3.848678601E0
2.303463041E0,6.647453892E-1,2.556319068E0,-2.170062089E0,3.418453317E0
2.313409042E0,7.528781319E-1,2.230987591E0,-1.732579114E0,2.923347653E0
2.323354042E0,4.875215453E-1,1.929015740E0,-1.312250994E0,2.383439039E0
2.333300042E0,3.656573850E-1,1.775380733E0,-9.565202808E-1,2.049539733E0
2.343246041E0,3.906904846E-1,1.805113825E0,-6.802517666E-1,1.968201575E0
2.353191041E0,3.771869248E-1,1.856267021E0,-5.444086678E-1,1.970882551E0
2.363137042E0,4.322255963E-1,1.875410805E0,-5.448518868E-1,2.000212047E0
2.373083042E0,4.316782969E-1,1.796975085E0,-6.550759949E-1,1.960762650E0
2.383028042E0,2.501117259E-1,1.627117563E0,-8.980769219E-1,1.875262541E0
2.392974041E0,1.270202351E-1,1.346288660E0,-1.214699410E0,1.817724388E0
2.402920041E0,1.159210503E-2,1.104950681E0,-1.419388795E0,1.798809311E0
2.412865041E0,-2.562483788E-2,8.522948313E-1,-1.564250640E0,1.781556391E0
2.422811042E0,-4.638420761E-2,5.358096063E-1,-1.734923409E0,1.816370740E0
2.432757041E0,-2.411169541E-1,2.144653451E-1,-1.936654542E0,1.963355186E0
2.442702041E0,-4.923086607E-1,-1.170524865E-1,-2.031128005E0,2.093215248E0
2.452648041E0,-6.758334643E-1,-2.981027484E-1,-1.906159558E0,2.044275026E0
2.462593041E0,-6.883693099E-1,-2.679866642E-1,-1.513681580E0,1.684310270E0
2.472539042E0,-6.157369512E-1,-3.030857456E-1,-1.268552266E0,1.442296022E0
2.482485041E0,-7.550591433E-1,-3.998887396E-1,-1.246388542E0,1.511128621E0
2.492431041E0,-1.181308300E0,-3.825020438E-1,-1.150064435E0,1.692467228E0
2.502376041E0,-1.343591924E0,-1.998835588E-1,-1.011413357E0,1.693561240E0
2.512322042E0,-1.075895281E0,1.806994289E-1,-8.514395298E-1,1.383890246E0
2.522267041E0,-7.244495541E-1,6.317612457E-1,-5.988924386E-1,1.132528843E0
2.532213042E0,-2.122434032E-1,9.570424372E-1,-5.063001707E-1,1.103321056E0
2.542159041E0,2.567986017E-1,1.115653424E0,-5.346654524E-1,1.263524923E0
2.552104041E0,6.672591072E-1,1.173624474E0,-5.765063734E-1,1.467987984E0
2.562050041E0,1.048356650E0,1.118186438E0,-5.430507982E-1,1.626129375E0
2.571996042E0,1.339483085E0,1.126066146E0,-3.854333992E-1,1.791870198E0
2.581941042E0,1.453894969E0,1.188406236E0,-6.898150340E-2,1.879063174E0
2.591887041E0,1.423752573E0,1.270526871E0,2.570055932E-1,1.925451062E0
2.601833041E0,1.068067614E0,1.294065422E0,6.099131244E-1,1.785320073E0
2.611778041E0,4.451298165E-1,1.273014861E0,9.853476387E-1,1.670214765E0
2.621724042E0,-2.642596489E-1,1.194338821E0,9.818051031E-1,1.568508732E0
2.631670041E0,-6.281435734E-1,1.118658893E0,5.264821279E-1,1.386775216E0
2.641615042E0,-6.826641816E-1,9.733316106E-1,2.468115574E-1,1.214216107E0
2.651561041E0,-7.897863418E-1,1.031655248E0,2.806686902E-1,1.329229073E0
2.661507042E0,-1.441044543E0,1.073711931E0,5.496014339E-1,1.879236128E0
2.671452041E0,-2.502257466E0,9.611489367E-1,7.536014324E-1,2.784423607E0
2.681398042E0,-3.484871532E0,8.230002809E-1,7.893039465E-1,3.666696030E0
2.691344041E0,-3.980720682E0,6.748265737E-1,6.167974900E-1,4.084356399E0
2.701289041E0,-3.981821712E0,4.589263219E-1,1.277037746E-1,4.010215178E0
2.711235041E0,-3.512796664E0,8.966880620E-2,-7.238445134E-1,3.587719579E0
2.721181042E0,-2.896285542E0,-2.386541069E-1,-1.504802144E0,3.272591514E0
2.731126042E0,-2.339935836E0,-4.946218193E-1,-1.894838179E0,3.051288611E0
2.741072041E0,-1.917816567E0,-5.746444738E-1,-2.017848979E0,2.842525489E0
2.751018041E0,-1.706382419E0,-5.547563392E-1,-1.972662866E0,2.666626021E0
2.760963041E0,-1.464712903E0,-4.602834606E-1,-1.836177450E0,2.393489582E0
2.770909042E0,-1.244668145E0,-3.381778103E-1,-1.713845220E0,2.144954186E0
2.780855041E0,-9.658986300E-1,-1.964793098E-1,-1.566295996E0,1.850634331E0
2.790800042E0,-5.398535407E-1,-2.425951302E-2,-1.405770046E0,1.506061018E0
2.800746041E0,-9.722750187E-2,1.999432003E-1,-1.128428421E0,1.150122242E0
2.810692042E0,2.828555489E-1,4.329360330E-1,-7.690681949E-1,9.267722259E-1
2.820637291E0,5.360692227E-1,6.601816374E-1,-3.873435384E-1,9.344758010E-1
2.830583292E0,7.085620844E-1,8.721929061E-1,-1.447846609E-1,1.133023959E0
2.840529291E0,7.940881383E-1,1.074215961E0,-2.495138481E-2,1.336090743E0
2.850474291E0,8.127922118E-1,1.189460489E0,-2.293424159E-2,1.440823866E0
2.860420291E0,6.939346898E-1,1.242802298E0,-1.050019598E-1,1.427280042E0
2.870366292E0,4.903831726E-1,1.224529749E0,-2.111056812E-1,1.335857167E0
2.880311292E0,2.583668250E-1,1.217380359E0,-4.063652618E-1,1.309160448E0
2.890257291E0,-9.929741621E-3,1.180413092E0,-6.251340115E-1,1.335764275E0
2.900203291E0,-2.462677664E-1,1.055126556E0,-8.570790231E-1,1.381493509E0
2.910148291E0,-6.579784065E-1,8.564247197E-1,-1.036755482E0,1.497084103E0
2.920094292E0,-1.077362348E0,6.197785467E-1,-1.189786325E0,1.720589019E0
2.930040292E0,-1.298869495E0,3.913664228E-1,-1.318735702E0,1.891902084E0
2.939985292E0,-1.519093178E0,2.067546219E-1,-1.393994923E0,2.072103617E0
2.949931291E0,-1.617129934E0,1.104591662E-1,-1.475487713E0,2.191888328E0
2.959877291E0,-1.624866385E0,1.304379326E-1,-1.627449832E0,2.303431740E0
2.969822291E0,-1.624340136E0,3.223189920E-1,-1.856001412E0,2.487390530E0
2.979768292E0,-1.651512732E0,6.513084877E-1,-2.065767934E0,2.723801426E0
2.989714291E0,-1.587790360E0,1.150452543E0,-2.217041396E0,2.959711445E0
2.999659291E0,-1.459833986E0,1.711533231E0,-2.226871589E0,3.165346481E0
3.009605291E0,-1.175203807E0,2.215750916E0,-1.977125607E0,3.193694064E0
3.019551292E0,-5.893420351E-1,2.518336725E0,-1.556686097E0,3.018710900E0
3.029496292E0,-8.111608386E-2,2.607326084E0,-1.052045074E0,2.812743850E0
3.039442291E0,3.016701347E-1,2.633504069E0,-6.724906111E-1,2.734701478E0
3.049388291E0,6.426353127E-1,2.687465683E0,-4.493794267E-1,2.799534571E0
3.059333291E0,7.471841133E-1,2.743641053E0,-3.238131018E-1,2.861940819E0
3.069279292E0,8.084939235E-1,2.768670060E0,-3.319739145E-1,2.903343418E0
3.079225291E0,5.800519788E-1,2.763444988E0,-4.274859895E-1,2.855841867E0
3.089170292E0,1.107415867E-1,2.760544184E0,-5.952529854E-1,2.826162417E0
3.099116291E0,-5.624582916E-1,2.747290885E0,-7.957990336E-1,2.915006456E0
3.109062292E0,-1.041460444E0,2.832745603E0,-1.136722112E0,3.225092970E0
3.119007291E0,-1.364608571E0,2.907354906E0,-1.530585296E0,3.557746540E0
3.128953292E0,-1.488575975E0,2.828972395E0,-1.706763219E0,3.623807932E0
3.138899291E0,-1.324050529E0,2.787428513E0,-1.779020040E0,3.561990991E0
3.148844291E0,-1.181926351E0,2.758960174E0,-1.751441794E0,3.475105681E0
3.158790291E0,-1.124892610E0,2.785343980E0,-1.589878840E0,3.398711402E0
3.168736292E0,-1.115171029E0,2.855777201E0,-1.412818425E0,3.375666712E0
3.178681292E0,-1.338179156E0,2.972981130E0,-1.134023183E0,3.451861648E0
3.188627291E0,-1.510925202E0,3.037513926E0,-9.333290541E-1,3.518591898E0
3.198573291E0,-1.604293542E0,2.983868646E0,-7.921148492E-1,3.479177460E0
3.208518291E0,-1.602148198E0,2.768128608E0,-7.489188360E-1,3.284858332E0
3.218464292E0,-1.598664427E0,2.423564469E0,-6.601915777E-1,2.977456230E0
3.228410291E0,-1.514074513E0,1.909044574E0,-4.207165217E-1,2.472625166E0
3.238355292E0,-1.361396695E0,1.240164619E0,-2.603015225E-1,1.859883364E0
3.248301291E0,-1.433054323E0,4.303158957E-1,-3.779640198E-2,1.496744812E0
3.258247292E0,-1.942222846E0,-2.924835742E-1,4.707996780E-1,2.019759530E0
3.268192291E0,-2.859888378E0,-7.674669349E-1,1.515396130E0,3.326318154E0
3.278138292E0,-3.513943303E0,-1.039572963E0,2.651372868E0,4.523083856E0
3.288084291E0,-3.482776474E0,-1.077623134E0,3.375829146E0,4.968624157E0
3.298029291E0,-2.834973977E0,-9.143337893E-1,3.629105970E0,4.695049933E0
3.307975291E0,-2.228108422E0,-5.730446756E-1,3.370795863E0,4.081067518E0
3.317921292E0,-2.058966014E0,-4.250364447E-1,2.662165073E0,3.392214602E0
3.327866292E0,-2.093158777E0,-5.097772175E-1,1.711404008E0,2.751379682E0
3.337812291E0,-1.552176139E0,-8.283744568E-1,9.245485827E-1,1.987522350E0
3.347758291E0,-1.112748528E-1,-1.421428889E0,4.086735964E-1,1.483191251E0
3.357703291E0,1.479055538E0,-2.370352467E0,4.403935719E-1,2.828448798E0
3.367649292E0,2.048889508E0,-3.555467890E0,1.123813652E0,4.254674753E0
3.377595291E0,1.943560104E0,-4.854160799E0,2.085017699E0,5.629174162E0
3.387540292E0,2.114877675E0,-6.156080786E0,2.618325866E0,7.016100667E0
3.397486291E0,2.361734841E0,-7.035355255E0,3.129696450E0,8.054130300E0
3.407432292E0,2.035468978E0,-7.002883328E0,4.205178334E0,8.418255976E0
3.417377291E0,1.955208342E0,-5.937390243E0,4.585346169E0,7.752473286E0
3.427323292E0,2.819732040E0,-4.332009704E0,3.444873653E0,6.211630328E0
3.437269291E0,3.607768310E0,-2.684184226E0,2.280927490E0,5.042168914E0
3.447214291E0,3.516901410E0,-1.316388338E0,1.348183742E0,3.989871324E0
3.457160291E0,3.059387190E0,-3.525947052E-1,4.899773759E-1,3.118373107E0
3.467106292E0,2.800242101E0,1.734857190E-1,9.963655472E-3,2.805628698E0
3.477051292E0,2.697740411E0,4.299890363E-1,2.275677860E-2,2.731887949E0
3.486997291E0,2.905745167E0,5.391232234E-1,2.271213511E-1,2.964050090E0
3.496942292E0,3.205047179E0,5.608046991E-1,4.698041895E-1,3.287483127E0
3.506888291E0,3.469622578E0,4.736028332E-1,5.050816110E-1,3.538034470E0
3.516834292E0,3.406798339E0,3.254004747E-1,4.983719310E-1,3.458400638E0
3.526779292E0,3.598525032E0,8.924079001E-2,3.334591073E-1,3.615043748E0
3.536725292E0,3.725124267E0,-1.468674392E-1,1.407749328E-1,3.730675332E0
3.546671291E0,3.194659016E0,-3.696311527E-1,3.463510484E-2,3.216158113E0
3.556616291E0,2.279214256E0,-6.173887897E-1,-6.365249723E-2,2.362210444E0
3.566562291E0,1.512185277E0,-8.986942416E-1,-1.555204412E-1,1.765939484E0
3.576508292E0,8.513446587E-1,-9.739099002E-1,-5.117950916E-2,1.294568486E0
3.586453292E0,4.908889568E-1,-8.864051485E-1,-9.427465796E-2,1.017631449E0
3.596399291E0,7.656402647E-2,-8.918389660E-1,-1.913252816E-1,9.153382734E-1
3.606345291E0,-2.375302720E-1,-7.188069910E-1,-1.343181449E-1,7.688598601E-1
3.616290291E0,-5.880457073E-1,-5.749917984E-1,-1.724224028E-1,8.403230374E-1
3.626236292E0,-7.223574203E-1,-4.593268561E-1,-3.445427969E-1,9.227627769E-1
3.636182291E0,-2.045812118E-1,-4.102073210E-1,-8.611571637E-1,9.755589060E-1
3.646127291E0,8.819150716E-1,-3.919493902E-1,-1.434881286E0,1.729243425E0
3.656073291E0,1.960381958E0,-5.352494431E-1,-1.460117576E0,2.502305482E0
3.666019292E0,2.828715702E0,-8.394379735E-1,-1.146077657E0,3.165404023E0
3.675964292E0,3.263787723E0,-1.245040612E0,-5.500730118E-1,3.536243310E0
3.685910292E0,3.323510014E0,-1.647783378E0,6.433515966E-2,3.710127746E0
3.695856291E0,3.209637244E0,-1.993135137E0,5.833954167E-1,3.822918927E0
3.705801291E0,2.899610853E0,-2.251334147E0,9.871120360E-1,3.801399573E0
3.715747292E0,2.328570018E0,-2.398874016E0,1.154300596E0,3.536841068E0
3.725693292E0,1.505926418E0,-2.413793771E0,1.220137321E0,3.095633994E0
3.735638292E0,6.127203727E-1,-2.267245005E0,1.078860112E0,2.584524194E0
3.745584291E0,-4.087800157E-1,-2.051634191E0,7.716699135E-1,2.229748508E0
3.755530291E0,-1.507974113E0,-1.811240537E0,3.782724604E-1,2.386978899E0
3.765475291E0,-2.372534063E0,-1.408800657E0,8.206786439E-2,2.760502184E0
3.775421292E0,-2.670264344E0,-8.219793570E-1,1.265144509E-1,2.796778082E0
3.785367291E0,-2.050643088E0,-1.782231331E-1,3.858846581E-1,2.094231966E0
3.795312291E0,-6.394883412E-1,5.171909022E-1,6.406694788E-1,1.042539759E0
3.805258291E0,7.784649628E-1,1.259728233E0,7.440371418E-1,1.657261050E0
3.815204292E0,1.969768494E0,1.799123352E0,6.994168930E-1,2.757900786E0
3.825149541E0,2.651669029E0,1.986952876E0,7.181310529E-1,3.390433981E0
3.835095542E0,2.589418402E0,1.793975464E0,9.050928497E-1,3.277594955E0
3.845041541E0,2.521795353E0,1.285264778E0,9.044315296E-1,2.971422848E0
3.854986541E0,2.507348637E0,6.294901872E-1,8.251226740E-1,2.713647455E0
3.864932541E0,2.468850569E0,-1.710544467E-2,7.450323379E-1,2.578873575E0
3.874878542E0,2.355671863E0,-6.493508399E-1,5.908655271E-1,2.513954755E0
3.884823542E0,2.132896455E0,-1.318457083E0,4.003249419E-1,2.539259031E0
3.894769541E0,1.811082662E0,-1.917623609E0,2.453047299E-1,2.649051741E0
3.904715541E0,1.377018117E0,-2.399676254E0,1.681290847E-1,2.771803097E0
3.914660541E0,9.750448447E-1,-2.657939583E0,3.070595133E-1,2.847743110E0
3.924606542E0,5.251472086E-1,-2.570336598E0,6.186892104E-1,2.695400927E0
3.934552541E0,1.070905852E-1,-2.190243607E0,8.220425069E-1,2.341877310E0
3.944497542E0,-5.439840138E-2,-1.725532635E0,7.034890401E-1,1.864220719E0
3.954443541E0,-1.685202634E-1,-1.276168265E0,4.905661905E-1,1.377555700E0
3.964389542E0,-3.380754840E-1,-9.308568513E-1,2.569968224E-1,1.023150467E0
3.974334541E0,-3.754386073E-1,-6.251726031E-1,-5.911798149E-2,7.316350643E-1
3.984280542E0,-2.374156666E-1,-3.140597999E-1,-3.586342943E-1,5.325582726E-1
3.994226541E0,-4.374711335E-2,-1.364155412E-3,-5.285777700E-1,5.303867738E-1
4.004171541E0,1.735459453E-1,1.371329945E-1,-6.096688570E-1,6.485520554E-1
4.014117541E0,4.514372081E-1,7.814335942E-2,-5.301309367E-1,7.006716402E-1
4.024063542E0,6.960730165E-1,3.163519084E-2,-1.763414991E-1,7.187591766E-1
4.034008542E0,8.500489157E-1,-6.204188168E-2,2.250632773E-1,8.815247206E-1
4.043954541E0,1.034828532E0,-1.615100366E-1,5.460328782E-1,1.181146683E0
4.053900541E0,1.288501212E0,-2.629276532E-1,7.875472967E-1,1.532839544E0
4.063845541E0,1.680781555E0,-3.536735165E-1,9.456868520E-1,1.960723135E0
4.073791542E0,2.095366101E0,-4.381330383E-1,9.404535940E-1,2.338155816E0
4.083737541E0,2.417481025E0,-5.349453878E-1,8.957197630E-1,2.633001134E0
4.093682542E0,2.640435943E0,-6.557664049E-1,8.393710229E-1,2.847187254E0
4.103628541E0,2.807403771E0,-7.975824344E-1,8.206730890E-1,3.031692265E0
4.113574542E0,2.955220213E0,-8.845328701E-1,7.767932439E-1,3.181058416E0
4.123519541E0,3.009338533E0,-9.287284648E-1,7.269293582E-1,3.232194496E0
4.133465542E0,3.066833035E0,-9.271181417E-1,7.781994992E-1,3.297060414E0
4.143411541E0,3.074529725E0,-8.172214776E-1,9.174028467E-1,3.310923127E0
4.153356541E0,3.073819288E0,-6.826495636E-1,1.067109548E0,3.324620013E0
4.163302541E0,2.999069653E0,-5.256617635E-1,1.181897554E0,3.266132407E0
4.173248542E0,3.076534150E0,-4.073375076E-1,1.159059499E0,3.312763974E0
4.183193542E0,3.158723198E0,-3.555814630E-1,9.827105445E-1,3.327114431E0
4.193139541E0,3.115702894E0,-4.008459288E-1,8.093322681E-1,3.243963733E0
4.203085541E0,2.917513858E0,-5.405528677E-1,6.577983123E-1,3.039207649E0
4.213030541E0,2.757481413E0,-7.407884288E-1,4.920291638E-1,2.897337387E0
4.222976542E0,2.838465350E0,-9.824749017E-1,3.949618757E-1,3.029544084E0
4.232922541E0,2.958797539E0,-1.161438877E0,4.157041423E-1,3.205656419E0
4.242867541E0,3.122494435E0,-1.312135073E0,6.435974720E-1,3.447591572E0
4.252813541E0,3.299969124E0,-1.411189830E0,1.152905889E0,3.769674382E0
4.262759542E0,3.320905665E0,-1.397247729E0,1.827833035E0,4.040011046E0
4.272704542E0,3.073274328E0,-1.333259894E0,2.333781057E0,4.082784719E0
4.282650542E0,2.624077772E0,-1.251567274E0,2.597737820E0,3.898775010E0
4.292595542E0,2.076533974E0,-1.139165663E0,2.642087197E0,3.548283600E0
4.302541541E0,1.644741656E0,-1.034463665E0,2.586077595E0,3.234669615E0
4.312487541E0,1.164232092E0,-8.148492622E-1,2.612966309E0,2.974392142E0
4.322432541E0,6.409700257E-1,-5.169026345E-1,2.654886752E0,2.779650081E0
4.332378542E0,1.669491166E-1,-1.789499420E-1,2.615368345E0,2.626793990E0
4.342324541E0,-2.690169436E-1,1.670847720E-1,2.503926846E0,2.523873430E0
4.352269541E0,-7.177059603E-1,5.340191889E-1,2.213131948E0,2.387096847E0
4.362215541E0,-1.196974161E0,8.099697608E-1,1.913631569E0,2.398079218E0
4.372161542E0,-1.704830568E0,1.017364068E0,1.666407637E0,2.591985981E0
4.382106542E0,-2.156506342E0,1.023319457E0,1.413913317E0,2.774320310E0
4.392052541E0,-2.305041407E0,6.349497324E-1,1.022509618E0,2.600365930E0
4.401998541E0,-2.077904561E0,-2.028095055E-1,3.234476508E-1,2.112684890E0
4.411943541E0,-2.012329207E0,-1.151674612E0,-2.575314040E-1,2.332840687E0
4.421889542E0,-2.488131178E0,-1.919264923E0,-2.143250120E-1,3.149652332E0
4.431835542E0,-3.521594970E0,-2.185424917E0,6.276746267E-1,4.191859806E0
4.441780542E0,-5.072899289E0,-1.871421250E0,1.592927139E0,5.636837905E0
4.451726541E0,-6.012020595E0,-1.265523409E0,1.494586912E0,6.322952726E0
4.461672542E0,-6.126948788E0,-3.649808621E-1,3.439729857E-1,6.147440923E0
4.471617541E0,-5.279455106E0,4.792500740E-1,-1.048831444E0,5.403922117E0
4.481563542E0,-4.543446191E0,1.133561692E0,-1.936671645E0,5.067401944E0
4.491509541E0,-3.915590885E0,1.558585857E0,-2.557365427E0,4.929620653E0
4.501454541E0,-3.449482428E0,1.759826555E0,-2.842014902E0,4.803432859E0
4.511400541E0,-3.118063415E0,1.874360645E0,-2.688034033E0,4.523391896E0
4.521346542E0,-2.877297294E0,1.879061222E0,-2.420196472E0,4.203220403E0
4.531291542E0,-2.830311992E0,1.815247634E0,-2.176120096E0,4.005157752E0
4.541237541E0,-2.747556349E0,1.804866487E0,-1.982918882E0,3.839085336E0
4.551183541E0,-2.524542959E0,1.900791230E0,-1.874230399E0,3.674107244E0
4.561128541E0,-2.089602501E0,1.996049389E0,-1.856441999E0,3.434680287E0
4.571074542E0,-1.376693596E0,1.963273991E0,-1.882578907E0,3.048578909E0
4.581020541E0,-5.620285213E-1,1.734770651E0,-1.999524828E0,2.706179005E0
4.590965542E0,1.566241032E-1,1.279863705E0,-2.140939300E0,2.499240545E0
4.600911541E0,7.078510630E-1,8.196217597E-1,-2.192566121E0,2.445440482E0
4.610857542E0,1.031503220E0,6.032531458E-1,-2.093718210E0,2.410719642E0
4.620802541E0,1.012921354E0,6.331610692E-1,-1.889317823E0,2.235268316E0
4.630748542E0,6.741851342E-1,8.311477911E-1,-1.720055548E0,2.025814240E0
4.640694541E0,1.075244486E-2,1.110985007E0,-1.717688595E0,2.045692404E0
4.650639541E0,-5.991957629E-1,1.398584987E0,-1.777769905E0,2.339987471E0
4.660585541E0,-7.474565935E-1,1.613854909E0,-1.918018881E0,2.615724652E0
4.670531542E0,-5.716933841E-1,1.617785992E0,-2.158524363E0,2.757406801E0
4.680476542E0,-1.337924802E-1,1.529007132E0,-1.961393673E0,2.490547807E0
4.690422541E0,5.324649990E-1,1.315997159E0,-1.368001856E0,1.971496025E0
4.700368541E0,1.121416440E0,9.363959187E-1,-1.015135109E0,1.779019797E0
4.710313541E0,1.279919838E0,5.884479958E-1,-6.278183220E-1,1.542278082E0
4.720259542E0,1.185751600E0,4.569581491E-1,-3.818211356E-1,1.326877909E0
4.730205541E0,9.575856435E-1,3.639599383E-1,-1.873249090E-1,1.041406608E0
4.740150542E0,6.535327685E-1,2.473354679E-1,8.822659045E-2,7.043179995E-1
4.750096541E0,2.583469445E-1,2.501532412E-1,3.858220929E-1,5.274262746E-1
4.760042542E0,-1.081033230E-1,3.992549014E-1,4.006629109E-1,5.758659331E-1
4.769987541E0,-5.225703406E-1,6.262876672E-1,-1.413637474E-2,8.157915420E-1
4.779933542E0,-8.363032812E-1,7.628031957E-1,-6.230763763E-1,1.292089805E0
4.789879541E0,-1.143447579E0,7.412667310E-1,-1.162626446E0,1.791270216E0
4.799824541E0,-1.604221036E0,5.837357247E-1,-1.563610954E0,2.314984178E0
4.809770541E0,-1.788860319E0,3.644183600E-1,-1.908587907E0,2.641122826E0
4.819716542E0,-1.802322364E0,8.468873262E-2,-2.104531027E0,2.772109112E0
4.829661542E0,-1.687459660E0,-1.314313745E-1,-2.069803244E0,2.673738913E0
4.839607541E0,-1.304321439E0,-1.149118209E-1,-1.651488905E0,2.107575561E0
4.849553541E0,-6.911794817E-1,1.457804418E-1,-9.536525139E-1,1.186774676E0
4.859498541E0,-1.652271116E-1,6.179045141E-1,-1.449688482E-1,6.558368348E-1
4.869444542E0,1.081208646E-1,1.238474774E0,5.028019278E-1,1.341014416E0
4.879390541E0,-1.371581376E-2,1.918203068E0,9.052277742E-1,2.121114909E0
4.889335542E0,-5.458843589E-2,2.497558059E0,1.086907635E0,2.724361276E0
4.899281541E0,-3.032295871E-1,2.843567630E0,1.133354408E0,3.076087980E0
4.909227542E0,-5.337174726E-1,2.929708226E0,1.115420705E0,3.179969808E0
4.919172541E0,-8.071174890E-1,2.742426587E0,1.272808893E0,3.129278623E0
4.929118542E0,-1.121201847E0,2.321573825E0,1.635012474E0,3.052878051E0
4.939064541E0,-1.685840566E0,1.862503662E0,2.044240094E0,3.238810872E0
4.949009541E0,-2.346069565E0,1.508037263E0,2.187800933E0,3.544670889E0
4.958955541E0,-2.883317002E0,1.273297282E0,1.858437946E0,3.659042840E0
4.968901542E0,-3.302485766E0,1.064277449E0,1.160636639E0,3.658712359E0
4.978846542E0,-3.531858003E0,7.440523446E-1,3.950437367E-2,3.609597684E0
4.988792541E0,-3.533949552E0,4.372582948E-1,-1.316580711E0,3.796495623E0
4.998738541E0,-3.299042925E0,3.289678609E-1,-2.495270921E0,4.149491661E0
5.008683541E0,-2.920975994E0,1.882019913E-1,-3.200781051E0,4.337340209E0
5.018629542E0,-2.312746868E0,-8.834675074E-2,-3.484903107E0,4.183437927E0
5.028574542E0,-1.687733894E0,-3.714344341E-1,-3.261442405E0,3.690991167E0
5.038520542E0,-1.169237893E0,-6.751084095E-1,-2.642314653E0,2.967274059E0
5.048466541E0,-7.132211459E-1,-9.196652806E-1,-1.892676464E0,2.221866969E0
5.058411541E0,-4.189185029E-1,-9.339073437E-1,-1.186565678E0,1.567039804E0
5.068357541E0,-1.444285655E-1,-7.460813284E-1,-7.233087623E-1,1.049129413E0
5.078303542E0,1.236434680E-1,-4.955462641E-1,-4.986125439E-1,7.137704645E-1
5.088248542E0,4.248545963E-1,-2.483949834E-1,-4.348587437E-1,6.567371032E-1
5.098194541E0,7.051198286E-1,4.465284705E-2,-5.153320724E-1,8.745027125E-1
5.108140541E0,8.647330284E-1,3.558966279E-1,-6.795435226E-1,1.155943346E0
5.118085541E0,9.293663961E-1,6.070830721E-1,-8.457718237E-1,1.395565023E0
5.128031542E0,9.946862268E-1,7.985571653E-1,-1.016334958E0,1.630960141E0
5.137977541E0,9.387617022E-1,8.909572059E-1,-1.090718704E0,1.692555927E0
5.147922541E0,7.755600661E-1,8.661170644E-1,-1.146656093E0,1.632933673E0
5.157868541E0,6.379610485E-1,8.111374497E-1,-1.252390124E0,1.622781342E0
5.167814542E0,5.178416973E-1,7.451715016E-1,-1.348753261E0,1.625600181E0
5.177759542E0,3.658953667E-1,6.593975258E-1,-1.463465692E0,1.646334215E0
5.187705541E0,2.021300590E-1,6.417167151E-1,-1.557560256E0,1.696658732E0
5.197651541E0,-1.690430045E-3,6.602722692E-1,-1.635140674E0,1.763419222E0
5.207596541E0,-2.338167053E-1,7.581295162E-1,-1.683894758E0,1.861432828E0
5.217542542E0,-3.684570318E-1,8.527725488E-1,-1.735005855E0,1.968051555E0
5.227488542E0,-4.368220925E-1,9.702916431E-1,-1.833733606E0,2.120108099E0
5.237433542E0,-6.291884708E-1,1.123104531E0,-1.780886617E0,2.197452858E0
5.247379541E0,-9.087649012E-1,1.332962270E0,-1.678701846E0,2.328235802E0
5.257325541E0,-1.329586088E0,1.648848156E0,-1.461909748E0,2.573651009E0
5.267270541E0,-1.704087387E0,1.948557719E0,-1.235929481E0,2.868503562E0
5.277216542E0,-2.026542034E0,2.266294248E0,-1.085500503E0,3.228199742E0
5.287162541E0,-2.156846066E0,2.470598887E0,-9.947939618E-1,3.427164839E0
5.297107541E0,-2.070516019E0,2.623866688E0,-1.035975755E0,3.499279747E0
5.307053541E0,-1.932922264E0,2.697777833E0,-1.129500800E0,3.505704747E0
5.316999542E0,-1.900298309E0,2.711173804E0,-1.141567699E0,3.502109917E0
5.326944542E0,-1.910411069E0,2.705706657E0,-1.062707910E0,3.478486318E0
5.336890541E0,-1.992973169E0,2.635537730E0,-9.466386326E-1,3.437168294E0
5.346836541E0,-2.248800548E0,2.580676814E0,-8.626081502E-1,3.530026848E0
5.356781541E0,-2.482040133E0,2.517009991E0,-8.333185700E-1,3.631842833E0
5.366727542E0,-2.648068314E0,2.447597110E0,-8.996591784E-1,3.716501586E0
5.376673541E0,-2.626206159E0,2.382204189E0,-1.031510091E0,3.692677708E0
5.386618542E0,-2.178751490E0,2.242928190E0,-1.273395661E0,3.376273305E0
5.396564541E0,-1.471097478E0,2.030524573E0,-1.541412146E0,2.943316027E0
5.406510542E0,-9.682316691E-1,1.806877345E0,-1.620053104E0,2.612824212E0
5.416455541E0,-6.766935897E-1,1.610069422E0,-1.507556037E0,2.307154733E0
5.426401542E0,-5.404218900E-1,1.498265980E0,-1.264379109E0,2.033595657E0
5.436347541E0,-7.233245498E-1,1.278455111E0,-8.359425080E-1,1.690102290E0
5.446292541E0,-1.269049864E0,9.849324864E-1,2.690157741E-3,1.606420492E0
5.456238541E0,-1.887917415E0,6.390164709E-1,9.691280472E-1,2.216254360E0
5.466184542E0,-2.417930676E0,2.256738728E-1,1.848915756E0,3.052180683E0
5.476129542E0,-2.613641662E0,-5.751613677E-2,2.372565200E0,3.530367753E0
5.486075541E0,-2.573767160E0,-1.362266761E-1,2.566990237E0,3.637619273E0
5.496021541E0,-2.328378230E0,-2.030562580E-2,2.635622515E0,3.516854211E0
5.505966541E0,-2.038376799E0,9.331279099E-2,2.564546685E0,3.277283471E0
5.515912542E0,-1.835504143E0,1.609621525E-2,2.261718656E0,2.912851837E0
5.525858541E0,-1.941865581E0,-3.894403499E-1,1.759130005E0,2.648970384E0
5.535803542E0,-2.352983313E0,-1.174143122E0,1.541460532E0,3.048154051E0
5.545749541E0,-1.972414944E0,-2.442569674E0,1.962216815E0,3.702277967E0
5.555695542E0,1.597085094E-1,-3.909002827E0,2.490816804E0,4.637885107E0
5.565640541E0,2.751752896E0,-5.001408307E0,2.478736457E0,6.223372355E0
5.575586542E0,4.053241943E0,-5.445583273E0,2.414744529E0,7.205146673E0
5.585532541E0,4.223321659E0,-5.624361892E0,2.566932934E0,7.487258324E0
5.595477541E0,4.112912194E0,-5.418203101E0,2.447473003E0,7.229321936E0
5.605423541E0,3.742865304E0,-4.698428396E0,2.194034357E0,6.395158860E0
5.615369542E0,3.174777898E0,-3.764051521E0,1.743913942E0,5.223842876E0
5.625314542E0,2.935794008E0,-2.737624853E0,1.064826210E0,4.152990628E0
5.635260541E0,2.904509650E0,-1.766938523E0,5.884585208E-1,3.450294405E0
5.645206541E0,2.821005564E0,-9.288284522E-1,5.616005051E-1,3.022613077E0
5.655151541E0,2.555812699E0,-2.603326589E-1,7.720602152E-1,2.682541448E0
5.665097542E0,2.208782204E0,1.869565344E-1,1.005020596E0,2.433873039E0
5.675042541E0,1.885052279E0,4.126163739E-1,1.028082599E0,2.186464772E0
5.684988542E0,1.708127228E0,5.619109923E-1,9.613955431E-1,2.039049774E0
5.694934541E0,1.643602619E0,7.447744757E-1,9.781022076E-1,2.052511271E0
5.704879541E0,1.710891792E0,8.663404280E-1,9.451215725E-1,2.137978308E0
5.714825541E0,1.892757155E0,8.450466228E-1,7.723268482E-1,2.212040281E0
5.724771542E0,2.111208547E0,5.729862034E-1,4.875668612E-1,2.241257719E0
5.734716542E0,2.246292093E0,1.152755177E-1,1.663427603E-1,2.255390548E0
5.744662541E0,2.302941087E0,-3.426158470E-1,-1.110000336E-1,2.330932062E0
5.754608541E0,2.221663620E0,-6.251761115E-1,-2.164557374E-1,2.318078407E0
5.764553541E0,2.067132236E0,-7.272199649E-1,-1.990503305E-1,2.200342153E0
5.774499542E0,1.742121186E0,-6.648576558E-1,-1.433751896E-1,1.870181374E0
5.784445541E0,1.347594343E0,-5.926170605E-1,-3.077301890E-2,1.472464761E0
5.794390542E0,9.766534138E-1,-5.421491575E-1,7.198068649E-2,1.119356431E0
5.804336541E0,7.244641721E-1,-4.834109527E-1,4.173274755E-2,8.719381332E-1
5.814282542E0,6.708282477E-1,-4.772918415E-1,-1.969257447E-1,8.465209913E-1
5.824227666E0,7.300845158E-1,-4.814708465E-1,-5.043071473E-1,1.009536168E0
5.834173666E0,7.842092675E-1,-4.869754153E-1,-6.835172904E-1,1.148618786E0
5.844119667E0,8.721051979E-1,-5.283181536E-1,-7.057495737E-1,1.240068550E0
5.854064667E0,8.838370514E-1,-6.032385278E-1,-6.027225110E-1,1.228144568E0
5.864010666E0,9.035316432E-1,-7.172685885E-1,-4.958723925E-1,1.255680329E0
5.873956666E0,1.065480221E0,-8.670777619E-1,-4.276928347E-1,1.438747062E0
5.883901666E0,1.308820871E0,-9.299932176E-1,-3.397397478E-1,1.641134532E0
5.893847667E0,1.474416942E0,-9.493083251E-1,-1.705527556E-1,1.761868286E0
5.903793667E0,1.547731671E0,-9.602297544E-1,3.828932226E-2,1.821806954E0
5.913738667E0,1.403782577E0,-8.564358294E-1,3.066127861E-1,1.672752000E0
5.923684666E0,9.475301868E-1,-7.464520419E-1,6.355859095E-1,1.363441804E0
5.933630666E0,1.652902615E-1,-5.902091771E-1,8.737340860E-1,1.067276439E0
5.943575666E0,-7.627762985E-1,-4.036596090E-1,9.916502063E-1,1.314586967E0
5.953521667E0,-1.572893409E0,-1.899584949E-1,9.296575874E-1,1.836937978E0
5.963467666E0,-1.789391246E0,3.182171702E-2,7.613307206E-1,1.944879976E0
5.973412666E0,-1.371226450E0,1.993198872E-1,6.222463641E-1,1.518940727E0
5.983358666E0,-2.103529984E-1,3.346864378E-1,6.318584557E-1,7.453244284E-1
5.993304667E0,1.144184328E0,3.024577546E-1,6.378970215E-1,1.344451963E0
6.003249667E0,2.040295855E0,2.039052737E-1,7.092614114E-1,2.169662712E0
6.013195666E0,2.439933164E0,1.094668937E-1,6.646173352E-1,2.531199923E0
6.023141666E0,2.370789839E0,8.363915741E-2,5.569449520E-1,2.436765817E0
6.033086666E0,2.344003744E0,5.616542995E-2,3.430992655E-1,2.369646643E0
6.043032667E0,2.469889619E0,-1.738926852E-1,1.052650845E-1,2.478240129E0
6.052978666E0,2.526980079E0,-4.744091642E-1,2.388499886E-2,2.571237614E0
6.062923667E0,2.595247491E0,-9.541404641E-1,1.578401779E-1,2.769586086E0
6.072869666E0,2.522615132E0,-1.556214811E0,6.084646229E-1,3.025825646E0
6.082815667E0,2.236088117E0,-2.147168924E0,1.255309200E0,3.344581534E0
6.092760666E0,1.758492805E0,-2.681451237E0,1.898413167E0,3.726452768E0
6.102706667E0,1.217606646E0,-3.067751048E0,2.365874670E0,4.060914353E0
6.112652666E0,7.908838642E-1,-3.181787540E0,2.635000956E0,4.206245271E0
6.122597666E0,8.024987733E-1,-2.906541558E0,2.721726859E0,4.061992762E0
6.132543666E0,8.121589583E-1,-2.253874177E0,2.537467060E0,3.489740687E0
6.142489667E0,2.671528512E-1,-1.352624702E0,2.056881482E0,2.476232150E0
6.152434667E0,-6.270437121E-2,-2.845079720E-1,1.247312840E0,1.280884829E0
6.162380666E0,-1.759818953E-1,7.359966356E-1,4.419955628E-1,8.763679322E-1
6.172326666E0,-1.748428577E-1,1.452197523E0,-4.571616322E-2,1.463399343E0
6.182271666E0,1.062158418E-1,1.739271253E0,-4.931937830E-1,1.810962839E0
6.192217667E0,4.711493415E-1,1.580755575E0,-7.854665650E-1,1.826944886E0
6.202163666E0,7.789280623E-1,1.251828645E0,-9.085229726E-1,1.731825013E0
6.212108667E0,1.024868385E0,9.571248829E-1,-8.950292069E-1,1.663586646E0
6.222054666E0,1.133855222E0,6.478948832E-1,-6.109966135E-1,1.441774013E0
6.232000667E0,1.254417207E0,1.968547010E-1,-1.466458297E-1,1.278209413E0
6.241945666E0,1.564772796E0,-3.107947147E-1,6.360718131E-2,1.596606755E0
6.251891667E0,1.795182914E0,-8.277376950E-1,2.964585114E-1,1.998929472E0
6.261837666E0,2.057129989E0,-1.243412747E0,5.452385339E-1,2.464780743E0
6.271782666E0,2.303852668E0,-1.575970799E0,6.642094919E-1,2.869249959E0
6.281728666E0,2.364833865E0,-1.832842491E0,7.834728107E-1,3.092827258E0
6.291673666E0,2.415532733E0,-1.994375331E0,8.180734169E-1,3.237526133E0
6.301619667E0,2.658487467E0,-1.992242852E0,8.652521150E-1,3.432964960E0
6.311565666E0,2.942329441E0,-1.906584651E0,9.855698329E-1,3.641938422E0
6.321510667E0,3.249930992E0,-1.752414624E0,1.133214221E0,3.862276911E0
6.331456666E0,3.412401726E0,-1.603174385E0,1.212663410E0,3.960455301E0
6.341402667E0,3.362621455E0,-1.403853328E0,1.225834263E0,3.844567187E0
6.351347666E0,3.263856136E0,-1.168615165E0,1.212064655E0,3.672535773E0
6.361293667E0,3.182142466E0,-8.976891053E-1,1.102526425E0,3.485317909E0
6.371239666E0,3.047030854E0,-6.274401534E-1,9.328457817E-1,3.247811482E0
6.381184666E0,2.815822592E0,-4.055617082E-1,7.243409421E-1,2.935644217E0
6.391130666E0,2.558229353E0,-2.685421497E-1,4.336245427E-1,2.608578646E0
6.401076667E0,2.400897737E0,-1.024455571E-1,1.376333700E-1,2.407020561E0
6.411021667E0,2.290756660E0,-1.457944751E-2,-3.843082488E-2,2.291125392E0
6.420967666E0,2.294953791E0,-3.438162804E-4,-2.302341163E-2,2.295069301E0
6.430913666E0,2.514258876E0,-7.682422757E-2,8.638296336E-2,2.516915111E0
6.440858666E0,2.768030959E0,-2.444188768E-1,2.181958687E-1,2.787354555E0
6.450804667E0,3.043445926E0,-4.233389980E-1,3.599411470E-1,3.093757690E0
6.460750666E0,3.262197281E0,-6.635256600E-1,6.132942769E-1,3.385015106E0
6.470695667E0,3.238944073E0,-9.222877568E-1,1.025867528E0,3.520479740E0
6.480641666E0,3.087338051E0,-1.127374753E0,1.504113781E0,3.614552301E0
6.490587667E0,2.761004945E0,-1.165707344E0,1.828140014E0,3.510572294E0
6.500532667E0,2.293869132E0,-1.060331163E0,1.984334347E0,3.213054710E0
6.510478667E0,1.722923023E0,-8.683892924E-1,2.011575355E0,2.787292434E0
6.520424666E0,1.284849626E0,-8.509464633E-1,2.053451213E0,2.567413159E0
6.530369666E0,9.946704394E-1,-1.155534359E0,2.248427788E0,2.716625932E0
6.540315666E0,4.287576127E-1,-1.327968163E0,2.482928910E0,2.848204436E0
6.550261667E0,-8.425136089E-2,-1.219659019E0,2.609836294E0,2.881997900E0
6.560206667E0,-3.964558393E-1,-9.590948099E-1,2.659298768E0,2.854629578E0
6.570152666E0,-4.854416907E-1,-6.485778379E-1,2.569515649E0,2.694200720E0
6.580098666E0,-4.388610166E-1,-3.487606859E-1,2.325399950E0,2.392011275E0
6.590043666E0,-3.725915980E-1,9.115224481E-3,2.023737710E0,2.057771101E0
6.599989667E0,-4.896592873E-1,3.836030746E-1,1.655083919E0,1.768112076E0
6.609935666E0,-1.137298647E0,6.697488517E-1,1.223057274E0,1.799411246E0
6.619880666E0,-2.270036466E0,7.368865818E-1,9.319689918E-1,2.562154092E0
6.629826666E0,-3.964489980E0,5.839877397E-1,9.937635362E-1,4.128654557E0
6.639772667E0,-6.078223940E0,3.242023802E-1,1.188779288E0,6.201863401E0
6.649717667E0,-7.751398852E0,-1.761935645E-1,1.086712923E0,7.829187270E0
6.659663667E0,-8.332254823E0,-9.925174946E-1,2.051381591E-1,8.393666843E0
6.669609666E0,-7.531983839E0,-1.450686017E0,-1.436227607E0,7.803718358E0
6.679554666E0,-6.592796459E0,-7.622933185E-1,-2.421792762E0,7.064781415E0
6.689500667E0,-5.231882744E0,2.861048466E-1,-2.565023526E0,5.833849391E0
6.699446667E0,-4.221548783E0,9.912656057E-1,-2.226601594E0,4.874611399E0
6.709391667E0,-3.492361815E0,1.239277012E0,-1.693094037E0,4.074182860E0
6.719337666E0,-2.960597897E0,1.456857169E0,-1.100418796E0,3.478288982E0
6.729283666E0,-2.723268769E0,1.628376469E0,-8.012401602E-1,3.272581322E0
6.739228666E0,-2.556048342E0,1.850533826E0,-6.561742482E-1,3.223107695E0
6.749174667E0,-2.338508531E0,2.103117170E0,-6.340510154E-1,3.208386615E0
6.759120666E0,-2.070752247E0,2.251672116E0,-7.591162339E-1,3.151872403E0
6.769065666E0,-1.807090768E0,2.210618815E0,-8.867872640E-1,2.989783310E0
6.779011666E0,-1.587062382E0,2.013609747E0,-9.973353079E-1,2.751012347E0
6.788957667E0,-1.293406441E0,1.732667992E0,-1.141432629E0,2.444975877E0
6.798902667E0,-7.975426733E-1,1.432795292E0,-1.345543724E0,2.121194139E0
6.808848666E0,-2.356539005E-1,1.193707906E0,-1.602782621E0,2.012307993E0
6.818793667E0,1.674116313E-1,1.023338753E0,-1.852240336E0,2.122744243E0
6.828738917E0,4.654845589E-1,8.977013844E-1,-2.006640159E0,2.247031014E0
6.838684916E0,5.552089137E-1,8.845755547E-1,-2.129591024E0,2.371895609E0
6.848629917E0,5.046866316E-1,1.024451478E0,-2.191588028E0,2.471288634E0
6.858575916E0,3.414200914E-1,1.196918027E0,-2.183950834E0,2.513726653E0
6.868521917E0,2.567529935E-1,1.305074560E0,-2.128249088E0,2.509698366E0
6.878466916E0,1.402863979E-1,1.455283098E0,-1.819838868E0,2.334382718E0
6.888412917E0,2.229250968E-1,1.533447508E0,-1.517456542E0,2.168831763E0
6.898358916E0,4.388692027E-1,1.402932976E0,-1.125375590E0,1.851296122E0
6.908303916E0,8.392239654E-1,1.193594470E0,-8.622193104E-1,1.694811719E0
6.918249916E0,1.140246229E0,9.412011606E-1,-8.307965197E-1,1.695949275E0
6.928195917E0,1.184463458E0,7.222182566E-1,-9.746691611E-1,1.695444740E0
6.938140917E0,1.213246377E0,6.273606312E-1,-1.044541926E0,1.719481308E0
6.948086916E0,1.292056319E0,5.561169863E-1,-1.034730299E0,1.746236646E0
6.958032916E0,1.078314275E0,5.119015110E-1,-9.550725102E-1,1.528714601E0
6.967977916E0,6.927909744E-1,3.669928890E-1,-1.080239324E0,1.334750955E0
6.977923917E0,3.558539432E-1,2.168726438E-1,-1.295247291E0,1.360636365E0
6.987869916E0,1.610586315E-1,-4.228706360E-3,-1.488384332E0,1.497079051E0
6.997814917E0,9.647730410E-2,-2.210183197E-1,-1.426924979E0,1.447159931E0
7.007760916E0,-1.670140207E-2,-3.801041007E-1,-1.136621540E0,1.198610274E0
7.017706917E0,-4.869561195E-2,-5.236275172E-1,-8.010205972E-1,9.582228533E-1
7.027651916E0,4.026977420E-3,-5.620928407E-1,-4.700380781E-1,7.327348586E-1
7.037597917E0,1.292614728E-1,-3.892672724E-1,1.252385885E-2,4.103588487E-1
7.047543916E0,2.129789829E-1,4.167544484E-2,8.530198860E-1,8.801930560E-1
7.057488916E0,-4.360023129E-1,5.945226681E-1,1.718329450E0,1.869815851E0
7.067434916E0,-1.578552344E0,1.075466096E0,1.842071443E0,2.653616783E0
7.077380917E0,-2.124915006E0,1.627359053E0,1.301123889E0,2.975984651E0
7.087325917E0,-2.280287805E0,2.043278520E0,9.077691203E-1,3.193547300E0
7.097271916E0,-2.392279526E0,2.046603831E0,9.264854729E-1,3.281762317E0
7.107217916E0,-2.719022521E0,1.786576397E0,8.912790951E-1,3.373324342E0
7.117162916E0,-3.319080164E0,1.513555280E0,6.343404526E-1,3.702638320E0
7.127108917E0,-3.920611889E0,1.278235255E0,3.725050592E-1,4.140512405E0
7.137054916E0,-4.344279501E0,1.183698642E0,1.588311347E-1,4.505456046E0
7.146999917E0,-4.463763844E0,1.133121396E0,-1.886232832E-1,4.609200636E0
7.156945916E0,-4.222490185E0,9.851780695E-1,-7.587303177E-1,4.401780422E0
7.166891917E0,-3.535861591E0,5.849952149E-1,-1.605555956E0,3.927129552E0
7.176836916E0,-2.402081214E0,1.175524235E-2,-2.357841180E0,3.365939300E0
7.186782917E0,-1.263535355E0,-5.570157033E-1,-2.766809184E0,3.092251792E0
7.196728916E0,-5.954921365E-1,-8.158824652E-1,-2.976682126E0,3.143391728E0
7.206673916E0,-6.990814090E-2,-7.132147139E-1,-2.926919104E0,3.013373163E0
7.216619916E0,2.328624398E-1,-4.797008944E-1,-2.544032606E0,2.599315249E0
7.226565917E0,3.828096074E-1,-2.997604340E-1,-1.792322456E0,1.857099701E0
7.236510917E0,7.614214987E-1,-1.515662616E-1,-9.931561567E-1,1.260592790E0
7.246456916E0,1.167650959E0,8.638500988E-2,-4.081157720E-1,1.239931295E0
7.256402916E0,1.171959187E0,3.096550924E-1,-2.405921665E-1,1.235823290E0
7.266347916E0,9.635223216E-1,4.256340301E-1,-3.480865020E-1,1.109370905E0
7.276293917E0,7.544627273E-1,5.344629925E-1,-5.037073691E-1,1.052894017E0
7.286239916E0,4.720235002E-1,6.691185218E-1,-6.023966749E-1,1.016566542E0
7.296184917E0,1.620497346E-1,7.418420970E-1,-5.593692076E-1,9.431244477E-1
7.306130916E0,-3.391051787E-1,7.953201467E-1,-3.876167496E-1,9.475089459E-1
7.316076917E0,-7.411293215E-1,8.233329874E-1,-2.478596708E-1,1.135158269E0
7.326021916E0,-9.948376697E-1,8.772577643E-1,-2.845535803E-1,1.356559587E0
7.335967917E0,-1.136309298E0,8.943848437E-1,-4.839250691E-1,1.524895584E0
7.345913916E0,-1.110672181E0,8.618012345E-1,-7.891659522E-1,1.612165302E0
7.355858916E0,-9.630983984E-1,7.625541043E-1,-1.118041135E0,1.661042825E0
7.365804916E0,-7.959569085E-1,6.058650970E-1,-1.346900571E0,1.677724967E0
7.375750917E0,-5.010672051E-1,4.581006950E-1,-1.492233116E0,1.639415830E0
7.385695917E0,-1.870062357E-1,2.922157717E-1,-1.483331168E0,1.523362316E0
7.395641916E0,1.990275264E-2,1.581537348E-1,-1.286066139E0,1.295906956E0
7.405586916E0,8.985533237E-2,1.113420957E-1,-1.056602978E0,1.066246171E0
7.415532916E0,1.468200767E-1,1.972084576E-1,-9.417738953E-1,9.733372389E-1
7.425478917E0,2.891518307E-1,3.403518051E-1,-8.709190902E-1,9.787482792E-1
7.435423917E0,3.055877692E-1,5.157203275E-1,-8.163386942E-1,1.012798205E0
7.445369917E0,3.428023732E-1,8.095546085E-1,-7.517176057E-1,1.156707176E0
7.455315916E0,3.350811249E-1,1.237552668E0,-6.616454878E-1,1.442771887E0
7.465260916E0,2.319999754E-1,1.733233418E0,-6.154612550E-1,1.853837810E0
7.475206917E0,4.852253437E-2,2.290287713E0,-5.728341758E-1,2.361336748E0
7.485152917E0,-1.454114825E-1,2.792963487E0,-4.798488289E-1,2.837612454E0
7.495097917E0,-3.418510312E-1,3.105641590E0,-4.716171187E-1,3.159793430E0
7.505043916E0,-6.611283016E-1,3.229269270E0,-5.431759286E-1,3.340705126E0
7.514989916E0,-9.189589369E-1,3.179504787E0,-7.083704419E-1,3.384601144E0
7.524934916E0,-1.044526724E0,3.001223182E0,-8.874085307E-1,3.299374269E0
7.534880917E0,-1.181535757E0,2.770309619E0,-1.101395135E0,3.206822941E0
7.544826916E0,-1.280012809E0,2.564129194E0,-1.283113003E0,3.139995270E0
7.554771916E0,-1.269068576E0,2.429682410E0,-1.399496129E0,3.077739606E0
7.564717916E0,-1.251515819E0,2.391617036E0,-1.519035583E0,3.097352579E0
7.574663917E0,-1.271668248E0,2.449157147E0,-1.611924451E0,3.195905395E0
7.584608917E0,-1.260098947E0,2.549174940E0,-1.638758347E0,3.282022417E0
7.594554916E0,-1.174102777E0,2.641756244E0,-1.595928515E0,3.302178252E0
7.604500916E0,-9.258574820E-1,2.674099533E0,-1.553319855E0,3.228129948E0
7.614445916E0,-7.238812047E-1,2.651409997E0,-1.462397990E0,3.113291964E0
7.624391917E0,-6.423704338E-1,2.601195863E0,-1.294788869E0,2.975791980E0
7.634337917E0,-7.030779809E-1,2.532837819E0,-1.118894682E0,2.856835903E0
7.644282917E0,-8.244784570E-1,2.481199304E0,-1.020128193E0,2.806559503E0
7.654228916E0,-9.745297050E-1,2.486517347E0,-1.021569386E0,2.859384666E0
7.664174917E0,-1.150414537E0,2.506507223E0,-1.025295816E0,2.942322819E0
7.674119916E0,-1.345374740E0,2.514823133E0,-9.249448778E-1,2.998314794E0
7.684065917E0,-1.441201249E0,2.457001187E0,-7.632923153E-1,2.948988136E0
7.694011916E0,-1.567459007E0,2.261324115E0,-5.661484694E-1,2.809099247E0
7.703956916E0,-2.080708301E0,1.874782230E0,-3.707783765E-1,2.825178233E0
7.713902916E0,-3.044065146E0,1.327868176E0,-1.022936757E-1,3.322654136E0
7.723848917E0,-3.975511982E0,6.859924167E-1,2.651811701E-1,4.042969474E0
7.733793917E0,-4.409645525E0,7.127755880E-2,5.424456114E-1,4.443456018E0
7.743739916E0,-4.090213888E0,-4.461940098E-1,7.597404242E-1,4.184034447E0
7.753685916E0,-3.159004449E0,-8.706293607E-1,9.036836708E-1,3.399109997E0
7.763630916E0,-2.043157482E0,-1.169013945E0,1.346708490E0,2.711956832E0
7.773576917E0,-1.142012672E0,-1.223969586E0,1.872580753E0,2.511743054E0
7.783522916E0,-8.406389916E-1,-1.196566610E0,2.255481285E0,2.688055318E0
7.793467917E0,-1.460718085E0,-1.394986610E0,2.816360828E0,3.465771672E0
7.803413916E0,-2.352794448E0,-2.010832905E0,3.684767954E0,4.812131083E0
7.813359917E0,-1.344034558E0,-2.904330726E0,4.574838430E0,5.583073752E0
7.823304916E0,7.543779427E-1,-3.833236946E0,5.072515712E0,6.402593788E0
7.833251083E0,1.923670800E0,-4.652919517E0,4.961189404E0,7.068491329E0
7.843197083E0,2.189608600E0,-5.095830899E0,4.126742321E0,6.913167187E0
7.853142083E0,2.245042543E0,-5.060968046E0,2.113693906E0,5.926323946E0
7.863088083E0,2.319255989E0,-4.454208909E0,1.109251893E-1,5.023069753E0
7.873033083E0,2.719672732E0,-3.236776510E0,-9.861060226E-1,4.341168856E0
7.882979083E0,3.224483909E0,-1.991610183E0,-9.803544089E-1,3.914703356E0
7.892925083E0,3.767546986E0,-1.050545263E0,-5.778630736E-1,3.953730058E0
7.902871083E0,4.292949718E0,-5.847332597E-1,-1.318243074E-1,4.334594320E0
7.912816083E0,4.611708925E0,-4.587854040E-1,3.802365401E-1,4.650045493E0
7.922762083E0,4.508785651E0,-4.329939204E-1,9.389681089E-1,4.625828887E0
7.932707083E0,4.262942977E0,-5.030154973E-1,1.401734882E0,4.515591666E0
7.942653083E0,3.908120483E0,-6.303345251E-1,1.671129556E0,4.296906016E0
7.952599083E0,3.414856387E0,-7.215312088E-1,1.800212688E0,3.927164009E0
7.962544083E0,2.975463858E0,-6.528521526E-1,1.755986103E0,3.516118357E0
7.972490083E0,2.233200762E0,-3.329065454E-1,1.563180599E0,2.746187538E0
7.982436083E0,1.334728714E0,-1.405027449E-2,9.427854636E-1,1.634179483E0
7.992381083E0,5.325515378E-1,2.663424271E-1,7.973847985E-2,6.007559022E-1
8.002327083E0,1.154374856E-1,2.790934503E-1,-4.548481813E-1,5.459906914E-1
8.012273083E0,1.324634081E-1,-3.043592691E-2,-5.813255024E-1,5.970027135E-1
8.022218083E0,5.670939642E-1,-4.971735442E-1,-3.495600003E-1,8.312456262E-1
8.032164083E0,9.701518947E-1,-9.286442649E-1,-8.694458842E-2,1.345783872E0
8.042110083E0,1.017691512E0,-1.209720506E0,1.312466025E-2,1.580914917E0
8.052055083E0,8.816466844E-1,-1.410077105E0,-4.615061134E-2,1.663655071E0
8.062001083E0,7.128282130E-1,-1.503081163E0,-1.587501508E-1,1.671101030E0
8.071947083E0,5.997185040E-1,-1.571861376E0,-3.140475208E-1,1.711442758E0
8.081892083E0,6.081478500E-1,-1.611351131E0,-4.180864441E-1,1.772312769E0
8.091838083E0,6.835786861E-1,-1.620301464E0,-3.990604815E-1,1.803304168E0
8.101784083E0,6.797388196E-1,-1.639148794E0,-3.870883074E-1,1.816229884E0
8.111729083E0,7.683767617E-1,-1.668394228E0,-3.494895414E-1,1.869782096E0
8.121675083E0,1.011061354E0,-1.673674264E0,-1.450583106E-1,1.960732648E0
8.131621083E0,1.295540090E0,-1.632313984E0,1.535519761E-1,2.089605531E0
8.141566083E0,1.471661734E0,-1.589474943E0,3.243620092E-1,2.190303533E0
8.151512083E0,1.308486995E0,-1.497200033E0,2.486075297E-1,2.003884193E0
8.161458083E0,7.593895912E-1,-1.330871306E0,1.602663338E-2,1.532366744E0
8.171403083E0,-1.089418137E-1,-1.074657426E0,-2.402258384E-1,1.106555627E0
8.181349083E0,-9.676071864E-1,-7.639556819E-1,-6.711343494E-1,1.403678477E0
8.191295083E0,-1.362332250E0,-3.389993441E-1,-8.861519641E-1,1.660161142E0
8.201240083E0,-1.171110756E0,3.109210145E-1,-6.597097671E-1,1.379633740E0
8.211186083E0,-4.236354518E-1,1.185296686E0,-1.831415185E-1,1.271981150E0
8.221132083E0,5.550013375E-1,1.947428037E0,1.218811172E-1,2.028634381E0
8.231077083E0,1.537813039E0,2.129301587E0,1.745174602E-1,2.632346963E0
8.241023083E0,2.094676715E0,1.596862900E0,1.859405807E-1,2.640495325E0
8.250969083E0,2.412047793E0,6.110012913E-1,1.909262091E-1,2.495546022E0
8.260914083E0,2.641405411E0,-4.198417783E-1,5.375988543E-1,2.728058319E0
8.270860083E0,2.564233274E0,-1.205476012E0,1.074167429E0,3.030231075E0
8.280806083E0,2.487259358E0,-1.704192052E0,1.317396398E0,3.290328697E0
8.290751083E0,2.759724405E0,-1.964035299E0,1.498660668E0,3.703983969E0
8.300697083E0,3.135113311E0,-2.049943176E0,1.957620026E0,4.226520870E0
8.310643083E0,3.346545705E0,-2.096716808E0,2.602294555E0,4.729431941E0
8.320588083E0,3.534683962E0,-2.256394912E0,3.042744260E0,5.181081098E0
8.330534083E0,3.334570608E0,-2.579194545E0,2.944238265E0,5.141998113E0
8.340479083E0,2.791944317E0,-3.001401522E0,2.472670555E0,4.787218800E0
8.350425083E0,2.319110393E0,-3.156465003E0,1.987683778E0,4.392315008E0
8.360371083E0,1.858034635E0,-2.945075294E0,1.659755552E0,3.857531553E0
8.370316083E0,1.432867212E0,-2.479738669E0,1.489595729E0,3.228174059E0
8.380262083E0,9.539486754E-1,-1.722841746E0,1.372296198E0,2.400291360E0
8.390208083E0,3.738183439E-1,-7.846805531E-1,1.113560413E0,1.412614781E0
8.400153083E0,-2.794396055E-1,2.053904665E-1,7.718541008E-1,8.461858482E-1
8.410099083E0,-7.668465453E-1,1.006570693E0,4.617929193E-1,1.347030395E0
8.420045083E0,-1.061170823E0,1.462320807E0,7.766505718E-2,1.808451691E0
8.429990083E0,-1.308087046E0,1.530153771E0,-4.726468134E-1,2.067814617E0
8.439936083E0,-1.470879961E0,1.219811046E0,-1.041452258E0,2.176246690E0
8.449882083E0,-1.444402599E0,8.463716018E-1,-1.128970458E0,2.019212236E0
8.459827083E0,-1.050955737E0,5.460480809E-1,-6.250024492E-1,1.339143207E0
8.469773083E0,-3.832481486E-1,3.428707856E-1,-1.779401278E-1,5.441527433E-1
8.479719083E0,3.487864137E-1,1.286188638E-1,-3.099258184E-2,3.730352726E-1
8.489664083E0,9.544304860E-1,-2.164639235E-1,4.592987895E-2,9.797467716E-1
8.499610083E0,1.264222988E0,-6.527281916E-1,1.412003177E-1,1.429773194E0
8.509556083E0,1.320129971E0,-1.110372804E0,3.403292933E-1,1.758264750E0
8.519501083E0,1.288678383E0,-1.530240895E0,5.146754301E-1,2.065725046E0
8.529447083E0,1.158803537E0,-1.787504350E0,6.265724266E-1,2.220493288E0
8.539393083E0,1.058433741E0,-1.832346647E0,6.554304823E-1,2.215257397E0
8.549338083E0,9.906925786E-1,-1.756892422E0,5.737676838E-1,2.096986438E0
8.559284083E0,1.010054464E0,-1.697775317E0,5.069152978E-1,2.039513218E0
8.569230083E0,1.177433935E0,-1.558913301E0,5.811138332E-1,2.038198872E0
8.579175083E0,1.464474337E0,-1.348090187E0,6.465897846E-1,2.092871373E0
8.589121083E0,1.753978754E0,-1.216361774E0,4.501604685E-1,2.181426570E0
8.599067083E0,1.927434068E0,-1.032184421E0,2.100083050E-1,2.196476782E0
8.609012083E0,1.952252575E0,-9.568646818E-1,2.160236281E-1,2.184844695E0
8.618958083E0,1.953346589E0,-8.864437401E-1,4.049360561E-1,2.182960973E0
8.628904083E0,2.039550920E0,-8.197597539E-1,6.508392486E-1,2.292458448E0
8.638849083E0,2.218142427E0,-7.355808985E-1,8.261951995E-1,2.478675774E0
8.648795083E0,2.384130846E0,-7.341834140E-1,8.090511632E-1,2.622531022E0
8.658741083E0,2.531966000E0,-7.609010965E-1,7.989971682E-1,2.761923021E0
8.668686083E0,2.708363047E0,-8.034840292E-1,8.035270062E-1,2.937085738E0
8.678632083E0,2.873550982E0,-8.565153515E-1,8.307934499E-1,3.111451679E0
8.688578083E0,3.083830306E0,-9.585586202E-1,9.322522894E-1,3.361240592E0
8.698523083E0,3.345198507E0,-1.008400871E0,1.043853417E0,3.646485338E0
8.708469083E0,3.573035849E0,-1.040466417E0,1.124638256E0,3.887668550E0
8.718415083E0,3.725972114E0,-9.760628450E-1,1.113273315E0,4.009357098E0
8.728360083E0,3.855366318E0,-8.408266872E-1,1.006564553E0,4.072347132E0
8.738306083E0,3.818656914E0,-6.613276917E-1,8.491639397E-1,3.967439267E0
8.748252083E0,3.481791803E0,-4.872297692E-1,7.833345240E-1,3.601927260E0
8.758197083E0,3.247485686E0,-3.735365081E-1,7.783755004E-1,3.360291836E0
8.768143083E0,3.213536167E0,-3.114712375E-1,9.069619122E-1,3.353566600E0
8.778089083E0,3.498217801E0,-5.143748832E-1,1.249080454E0,3.749974838E0
8.788034083E0,3.627973364E0,-7.820212394E-1,1.708722182E0,4.085765466E0
8.797980083E0,3.407825110E0,-7.696035075E-1,2.055826644E0,4.053638456E0
8.807925083E0,2.975416496E0,-5.705046451E-1,2.197761957E0,3.742824668E0
8.817871083E0,2.287333699E0,-3.138574862E-1,2.255204419E0,3.227436900E0
8.827817416E0,1.541926555E0,-1.906665927E-1,2.276794970E0,2.756390137E0
8.837762416E0,6.016188490E-1,-1.226038331E-1,2.320901687E0,2.400741882E0
8.847708417E0,-3.591166896E-1,-1.359775847E-1,2.400499249E0,2.431018582E0
8.857654416E0,-1.254161099E0,-2.276239192E-1,2.388250794E0,2.707115544E0
8.867599417E0,-1.907269360E0,-4.131560719E-1,2.177241738E0,2.923825566E0
8.877545416E0,-1.967385169E0,-7.206722528E-1,1.673559951E0,2.681562195E0
8.887491417E0,-1.778451106E0,-1.107735710E0,1.368795470E0,2.502712084E0
8.897436416E0,-1.709800116E0,-1.341067096E0,1.297121762E0,2.530692052E0
8.907382417E0,-1.765634009E0,-1.308655980E0,1.217741132E0,2.512555948E0
8.917328416E0,-2.011659116E0,-9.038538247E-1,1.047111193E0,2.441345118E0
8.927273416E0,-2.706067430E0,-2.780526459E-1,7.410965770E-1,2.819457102E0
8.937219416E0,-3.453508236E0,1.948485214E-1,3.892599633E-1,3.480834441E0
8.947165417E0,-4.231959751E0,4.084701133E-1,7.737328112E-2,4.252330865E0
8.957110417E0,-4.769664440E0,4.789688230E-1,-3.186557114E-1,4.804232661E0
8.967056416E0,-5.449533652E0,5.079832917E-1,-6.400186837E-1,5.510452610E0
8.977002416E0,-6.004997504E0,5.156782275E-1,-1.062989892E0,6.120119817E0
8.986947416E0,-6.355621698E0,6.289107281E-1,-1.471822532E0,6.554061141E0
8.996893417E0,-6.406712914E0,8.103375506E-1,-1.878468899E0,6.725419148E0
9.006839416E0,-5.806996749E0,1.005765531E0,-2.340487229E0,6.341187272E0
9.016784417E0,-5.088559887E0,1.319878541E0,-2.296774029E0,5.736784119E0
9.026730416E0,-4.411937633E0,1.597442944E0,-1.786260355E0,5.020731390E0
9.036676417E0,-3.526966807E0,1.652298013E0,-1.262222071E0,4.094238407E0
9.046621416E0,-2.759234993E0,1.665958278E0,-9.934241053E-1,3.372786116E0
9.056567417E0,-2.034979566E0,1.661507962E0,-9.921105283E-1,2.808208298E0
9.066513416E0,-1.409728026E0,1.624799142E0,-1.075454694E0,2.404975708E0
9.076458416E0,-8.983820003E-1,1.625216049E0,-1.131050020E0,2.174325544E0
9.086404416E0,-4.385370809E-1,1.644838720E0,-1.146334057E0,2.052289199E0
9.096350417E0,-1.266910368E-1,1.736078088E0,-1.129316028E0,2.074939141E0
9.106295417E0,7.643129468E-2,1.870297415E0,-1.169725551E0,2.207286123E0
9.116241416E0,2.508864820E-1,1.989633240E0,-1.335035108E0,2.409129136E0
9.126187416E0,5.363031113E-1,2.110186454E0,-1.542876728E0,2.668515785E0
9.136132416E0,9.274865162E-1,2.147851294E0,-1.673407339E0,2.876419395E0
9.146078417E0,1.401109230E0,2.110264807E0,-1.854063206E0,3.139088243E0
9.156024416E0,1.867396027E0,1.960569069E0,-1.997859687E0,3.364883702E0
9.165969416E0,2.076489535E0,1.683887011E0,-2.080693098E0,3.387708373E0
9.175915416E0,2.210273829E0,1.310323606E0,-1.964702758E0,3.234550244E0
9.185861417E0,2.216375399E0,8.906782937E-1,-1.551813612E0,2.848465063E0
9.195806417E0,2.008542550E0,2.732421416E-1,-1.170095387E0,2.340518673E0
9.205752417E0,1.762994576E0,-4.350743598E-1,-8.517662430E-1,2.005728124E0
9.215697417E0,1.383755279E0,-1.075587133E0,-5.651100039E-1,1.841471061E0
9.225643416E0,3.492103368E-1,-1.476650578E0,-2.784672135E-1,1.542721225E0
9.235589416E0,-1.206422676E0,-1.415784572E0,-4.645378947E-2,1.860661061E0
9.245535417E0,-2.527575325E0,-8.273997259E-1,2.183145672E-2,2.659643575E0
9.255480417E0,-3.334431444E0,1.764689684E-2,-1.942298859E-2,3.334534708E0
9.265426416E0,-3.744980827E0,8.927692580E-1,-1.994567120E-1,3.855087719E0
9.275371416E0,-3.558627141E0,1.764498480E0,-5.549378952E-1,4.010640607E0
9.285317416E0,-3.209391076E0,2.428103077E0,-9.404810759E-1,4.132841672E0
9.295263417E0,-2.817475015E0,2.663233652E0,-1.277975054E0,4.082180690E0
9.305208417E0,-2.493159199E0,2.623908788E0,-1.377078928E0,3.872607196E0
9.315154416E0,-2.070308443E0,2.430792797E0,-1.285065388E0,3.441848881E0
9.325100416E0,-1.460912797E0,2.184268337E0,-1.141980513E0,2.865207473E0
9.335045416E0,-7.745467436E-1,1.848065132E0,-9.887144655E-1,2.234462728E0
9.344991417E0,-1.374773955E-1,1.442759532E0,-8.618047428E-1,1.686167997E0
9.354937417E0,5.059151316E-1,9.698653811E-1,-8.326249440E-1,1.374719344E0
9.364882417E0,1.041217200E0,6.494502425E-1,-8.366168381E-1,1.485209281E0
9.374828416E0,1.496136425E0,4.971811455E-1,-7.962901998E-1,1.766264809E0
9.384774417E0,1.756742733E0,4.083859134E-1,-7.947517973E-1,1.970927321E0
9.394719416E0,1.703766375E0,3.675980759E-1,-7.877023941E-1,1.912700517E0
9.404665417E0,1.304454755E0,3.652895951E-1,-6.431966454E-1,1.499580148E0
9.414611416E0,5.641598314E-1,4.239599723E-1,-2.959669067E-1,7.652547179E-1
9.424556416E0,-2.257726908E-1,4.703295618E-1,8.714500174E-2,5.289399361E-1
9.434502416E0,-1.111491376E0,5.709735918E-1,3.208318989E-1,1.290099620E0
9.444448417E0,-2.047324208E0,7.411743450E-1,3.907840401E-1,2.212145562E0
9.454393417E0,-2.824440803E0,6.495262563E-1,4.841189043E-1,2.938319472E0
9.464339416E0,-3.400592689E0,1.527304423E-1,6.673029613E-1,3.468811103E0
9.474285416E0,-3.863478745E0,1.909525216E-1,9.889998096E-1,3.992624638E0
9.484230416E0,-4.050934047E0,5.431572175E-1,1.192288202E0,4.257538910E0
9.494176417E0,-3.850328357E0,9.035029918E-1,1.027302288E0,4.086159090E0
9.504122416E0,-3.214451256E0,1.233102937E0,3.979515570E-1,3.465776273E0
9.514067417E0,-2.439979942E0,1.444853420E0,-3.735794851E-1,2.860186209E0
9.524013416E0,-1.759289196E0,1.508012704E0,-1.100830148E0,2.565351400E0
9.533959417E0,-1.251725734E0,1.453324281E0,-1.598384492E0,2.496758251E0
9.543904416E0,-9.493714750E-1,1.342103807E0,-1.854391965E0,2.478168354E0
9.553850417E0,-7.761278307E-1,1.105223161E0,-1.975692454E0,2.393168051E0
9.563796416E0,-6.599629515E-1,7.638282126E-1,-1.921753644E0,2.170742201E0
9.573741416E0,-4.668574852E-1,3.839159006E-1,-1.810696308E0,1.908918136E0
9.583687416E0,-1.929405749E-1,6.228220224E-2,-1.679459499E0,1.691652845E0
9.593633417E0,1.788581407E-1,-1.515574908E-1,-1.504628774E0,1.522782866E0
9.603578417E0,6.075414938E-1,-2.695443624E-1,-1.323939140E0,1.481410029E0
9.613524416E0,9.348990315E-1,-3.549090332E-1,-1.178966783E0,1.545949319E0
9.623470416E0,1.226706668E0,-3.819143987E-1,-1.107153912E0,1.696012276E0
9.633415416E0,1.328337708E0,-3.663286453E-1,-9.618953338E-1,1.680452432E0
9.643361417E0,1.218276737E0,-3.343198174E-1,-7.489330155E-1,1.468628139E0
9.653307416E0,9.973508030E-1,-2.781286597E-1,-5.361212629E-1,1.165971777E0
9.663252417E0,7.641995108E-1,-2.048630476E-1,-3.789079066E-1,8.772348387E-1
9.673198416E0,5.154209501E-1,-1.318395102E-1,-3.431578839E-1,6.330858911E-1
9.683143416E0,2.878882474E-1,-2.040152013E-2,-4.728114125E-1,5.539372679E-1
9.693089416E0,6.441643596E-2,1.173682362E-1,-7.420473343E-1,7.540285316E-1
9.703035417E0,-1.096656990E-1,2.832554984E-1,-1.041126422E0,1.084529607E0
9.712980417E0,-2.594795501E-1,4.287038183E-1,-1.270888229E0,1.366116207E0
9.722926416E0,-4.645519280E-1,5.395377910E-1,-1.406978226E0,1.576863105E0
9.732872416E0,-7.317182279E-1,5.834614903E-1,-1.530274370E0,1.793760999E0
9.742817416E0,-1.012394519E0,6.326938766E-1,-1.585950388E0,1.985064945E0
9.752763417E0,-1.328502014E0,6.791944438E-1,-1.630714478E0,2.210305953E0
9.762709416E0,-1.627178959E0,8.367587793E-1,-1.665144346E0,2.473981065E0
9.772654417E0,-1.796081631E0,1.044933105E0,-1.770565259E0,2.729962592E0
9.782600416E0,-1.803705230E0,1.239057156E0,-1.877384241E0,2.883259749E0
9.792546417E0,-1.587760540E0,1.449702516E0,-1.853907670E0,2.838942508E0
9.802491417E0,-1.361848100E0,1.630626478E0,-1.742651236E0,2.747800263E0
9.812437417E0,-1.369302131E0,1.811123008E0,-1.556999508E0,2.753071438E0
9.822383416E0,-1.323968668E0,1.946600071E0,-1.445602594E0,2.762591488E0
9.832328416E0,-1.407019596E0,2.124565342E0,-1.316891929E0,2.868394392E0
9.842274416E0,-1.599173135E0,2.380075802E0,-1.167489283E0,3.095988819E0
9.852220417E0,-1.706968310E0,2.642799388E0,-1.040087517E0,3.313594945E0
9.862165417E0,-1.844805309E0,2.913925422E0,-9.842483622E-1,3.586504263E0
9.872111416E0,-2.022204570E0,3.158749511E0,-9.061742923E-1,3.858518063E0
9.882057416E0,-2.396801763E0,3.391186273E0,-8.040303053E-1,4.229807059E0
9.892002416E0,-2.729134696E0,3.531783743E0,-8.158071823E-1,4.537313517E0
9.901948417E0,-2.812116627E0,3.524387015E0,-9.584948856E-1,4.609557050E0
9.911894416E0,-2.725873704E0,3.428089221E0,-1.092219538E0,4.513881553E0
9.921839416E0,-2.496007962E0,3.303341213E0,-1.324582772E0,4.347026390E0
9.931785416E0,-2.068422716E0,3.132375644E0,-1.552130677E0,4.061928034E0
9.941731417E0,-1.709218318E0,2.962162027E0,-1.660092936E0,3.801544383E0
9.951676417E0,-1.587687449E0,2.785794801E0,-1.623406920E0,3.594002523E0
9.961622417E0,-1.499034305E0,2.555312178E0,-1.455469917E0,3.300775189E0
9.971568416E0,-1.223521104E0,2.291697477E0,-1.069256353E0,2.809304249E0
9.981513416E0,-1.033652072E0,1.978988968E0,-5.435293928E-1,2.297881229E0
9.991459416E0,-1.105435415E0,1.649914688E0,1.588511615E-1,1.992345258E0
1.000140542E1,-1.231599618E0,1.307667215E0,9.733946143E-1,2.043117285E0
1.001135042E1,-1.250359824E0,9.952990150E-1,1.873250844E0,2.462333963E0
1.002129642E1,-1.075580701E0,6.981774294E-1,2.717401966E0,3.004762721E0
1.003124242E1,-8.108743250E-1,4.998574162E-1,3.122530103E0,3.264593214E0
1.004118742E1,-6.069977027E-1,5.185497952E-1,3.196800267E0,3.294976790E0
1.005113342E1,-6.737196958E-1,5.443348467E-1,3.323063872E0,3.434086800E0
1.006107942E1,-7.579874289E-1,4.468132299E-1,3.498095302E0,3.607056660E0
1.007102442E1,-9.408491582E-1,2.544497752E-1,3.391799061E0,3.529056914E0
1.008097042E1,-1.218148098E0,-2.548041165E-2,2.939435070E0,3.181951063E0
1.009091642E1,-1.593443449E0,-4.883752388E-1,2.050909428E0,2.642688381E0
1.010086142E1,-1.815966842E0,-1.190927555E0,8.517875853E-1,2.332720751E0
1.011080742E1,-1.939016817E0,-2.238707669E0,-5.847215652E-2,2.962265559E0
1.012075242E1,-1.817416951E0,-3.703479044E0,-2.065698498E-1,4.130548694E0
1.013069842E1,1.377773577E-1,-5.229522808E0,-4.194061607E-2,5.231505559E0
1.014064442E1,2.709100381E0,-6.285025924E0,3.024115616E-1,6.850710073E0
1.015058942E1,3.224524840E0,-6.787060259E0,1.740790213E0,7.713112080E0
1.016053542E1,2.836638680E0,-7.222597134E0,3.436043773E0,8.486390585E0
1.017048142E1,3.055109952E0,-7.196399853E0,4.068110243E0,8.813137274E0
1.018042642E1,3.546825705E0,-6.005935982E0,3.454054659E0,7.783426828E0
1.019037242E1,3.117576926E0,-4.211976891E0,2.145137893E0,5.662300928E0
1.020031842E1,2.342697476E0,-2.702139271E0,7.135301712E-1,3.646767529E0
1.021026342E1,1.754792687E0,-1.636033983E0,-8.711561948E-2,2.400727743E0
1.022020942E1,1.414108175E0,-8.140669048E-1,-2.461680713E-1,1.650153198E0
1.023015542E1,1.674836106E0,-4.304994982E-1,-8.359384149E-2,1.731298279E0
1.024010042E1,2.401765464E0,-2.175778180E-1,1.940144160E-1,2.419392288E0
1.025004642E1,2.980550936E0,3.399454236E-2,4.194675565E-1,3.010115038E0
1.025999242E1,3.284061189E0,2.536299956E-1,4.876683104E-1,3.329745704E0
1.026993742E1,3.310699350E0,5.172675008E-1,4.469693506E-1,3.380543958E0
1.027988342E1,3.112066510E0,8.533005524E-1,3.937830770E-1,3.250868332E0
1.028982942E1,2.857255962E0,1.126440952E0,2.936661735E-1,3.085291019E0
1.029977442E1,2.564537914E0,1.206710359E0,7.654005289E-2,2.835288872E0
1.030972042E1,2.247880197E0,9.273216248E-1,-2.782514513E-1,2.447511929E0
1.031966642E1,1.964652180E0,4.733116418E-1,-5.150806421E-1,2.085471210E0
1.032961142E1,1.808261381E0,-2.487054706E-2,-4.829905379E-1,1.871819336E0
1.033955742E1,1.730044346E0,-5.184995091E-1,-3.070533738E-1,1.831987160E0
1.034950342E1,1.558503411E0,-9.005460548E-1,-9.134169459E-2,1.802292813E0
1.035944842E1,1.466501566E0,-1.096666346E0,2.059143770E-1,1.842743782E0
1.036939442E1,1.367760220E0,-1.050877969E0,4.875727084E-1,1.792439587E0
1.037934042E1,1.233280107E0,-8.529772013E-1,5.905029997E-1,1.611596637E0
1.038928542E1,1.045737682E0,-6.546946102E-1,4.651959988E-1,1.318559688E0
1.039923142E1,8.029934478E-1,-6.221747357E-1,1.417052248E-1,1.025660884E0
1.040917742E1,6.177407920E-1,-7.157670236E-1,-2.620915014E-1,9.811310174E-1
1.041912242E1,6.268799901E-1,-9.100220525E-1,-6.911499533E-1,1.303382874E0
1.042906842E1,9.427927727E-1,-1.094673030E0,-1.045433042E0,1.783282787E0
1.043901442E1,1.606697917E0,-1.309172873E0,-1.304005689E0,2.448640979E0
1.044895942E1,2.183649117E0,-1.603500075E0,-1.248556835E0,2.983023655E0
1.045890542E1,2.683264459E0,-1.873636175E0,-9.146004224E-1,3.398075132E0
1.046885142E1,2.917578762E0,-2.142725624E0,-4.035341862E-1,3.642304048E0
1.047879642E1,2.827831603E0,-2.337199924E0,7.586645365E-2,3.669453744E0
1.048874242E1,2.299433928E0,-2.398990960E0,6.368021303E-1,3.383499810E0
1.049868742E1,1.325083147E0,-2.235866507E0,1.285139063E0,2.899401110E0
1.050863342E1,3.496021003E-1,-1.764235940E0,1.730782265E0,2.496068374E0
1.051857942E1,-5.226674044E-1,-1.074666781E0,1.859549648E0,2.210433170E0
1.052852442E1,-1.246257418E0,-2.603899616E-1,1.886036950E0,2.275542982E0
1.053847042E1,-1.634169306E0,7.884023058E-1,2.001209557E0,2.701282511E0
1.054841642E1,-1.485050104E0,1.821032869E0,1.650295342E0,2.871412411E0
1.055836142E1,-9.720037079E-1,2.671357774E0,9.706874996E-1,3.003860480E0
1.056830742E1,-4.840874755E-1,3.154608513E0,3.182437751E-1,3.207362569E0
1.057825342E1,6.781834602E-2,3.131442429E0,-1.867600679E-1,3.137739686E0
1.058819842E1,6.989317203E-1,2.694701028E0,-3.981369138E-1,2.812193482E0
1.059814442E1,1.324277986E0,2.050186420E0,-2.527917972E-1,2.453748201E0
1.060809042E1,1.875283336E0,1.187808650E0,1.757281262E-1,2.226759384E0
1.061803542E1,2.357962217E0,-4.677772522E-5,5.072506356E-1,2.411905684E0
1.062798142E1,2.778417953E0,-1.155163645E0,6.394930190E-1,3.076192564E0
1.063792742E1,3.118345835E0,-2.191392585E0,5.519327188E-1,3.851092304E0
1.064787242E1,3.220710701E0,-3.204392291E0,3.781944001E-1,4.558962423E0
1.065781842E1,3.018476561E0,-4.134292538E0,3.158034396E-1,5.128675010E0
1.066776442E1,2.456912309E0,-4.915189943E0,4.327296263E-1,5.512056349E0
1.067770942E1,1.589719357E0,-5.404516523E0,6.211675528E-1,5.667614632E0
1.068765542E1,1.138493233E0,-5.257352046E0,9.355707304E-1,5.459964283E0
1.069760142E1,1.343772018E0,-4.284599310E0,1.347299058E0,4.688147740E0
1.070754642E1,9.756821913E-1,-2.872815987E0,1.632734837E0,3.445410061E0
1.071749242E1,2.952990085E-1,-1.407406681E0,1.255689415E0,1.909123091E0
1.072743842E1,6.815689981E-2,-1.101334763E-1,6.347678840E-1,6.478464418E-1
1.073738342E1,-3.730932891E-2,7.559970367E-1,1.420890945E-1,7.701381800E-1
1.074732942E1,-8.228494227E-2,1.049025571E0,-1.217594951E-1,1.059269010E0
1.075727542E1,-2.366409105E-1,1.006004097E0,-1.849295971E-1,1.049877193E0
1.076722042E1,-5.047415954E-1,8.882698256E-1,-2.245981313E-1,1.046055296E0
1.077716642E1,-6.474697906E-1,8.029378992E-1,-3.856076463E-1,1.101190109E0
1.078711242E1,-6.665650427E-1,8.044517434E-1,-5.839795536E-1,1.196864104E0
1.079705742E1,-5.758928543E-1,8.222787344E-1,-7.840399906E-1,1.273779260E0
1.080700342E1,-2.456561476E-1,7.584002423E-1,-9.493460396E-1,1.239667606E0
1.081694942E1,1.188452429E-1,5.677026594E-1,-9.780775031E-1,1.137121851E0
1.082689442E1,3.409037822E-1,2.121691436E-1,-7.538473079E-1,8.541176136E-1
1.083684042E1,5.452908665E-1,-2.380302089E-1,-4.645690311E-1,7.548674679E-1
1.084678642E1,9.460414857E-1,-6.705586910E-1,-2.794670874E-1,1.192788876E0
1.085673142E1,1.353318182E0,-1.082516668E0,4.222508311E-2,1.733521098E0
1.086667742E1,1.674893408E0,-1.380672042E0,5.062832138E-1,2.228866508E0
1.087662342E1,1.990233164E0,-1.570070958E0,8.119040197E-1,2.661830009E0
1.088656842E1,2.272054340E0,-1.611413696E0,1.052459056E0,2.977676123E0
1.089651442E1,2.547756990E0,-1.577491075E0,1.186017063E0,3.222759725E0
1.090645942E1,2.698590596E0,-1.519900678E0,1.197460357E0,3.320602443E0
1.091640542E1,2.662738978E0,-1.421140037E0,1.091810818E0,3.209652431E0
1.092635142E1,2.567862056E0,-1.225226737E0,8.710386658E-1,2.975534314E0
1.093629642E1,2.573177176E0,-1.015770702E0,7.244248496E-1,2.859689189E0
1.094624242E1,2.637737453E0,-8.268875098E-1,6.989521855E-1,2.851304260E0
1.095618842E1,2.863984353E0,-5.722020918E-1,5.987633613E-1,2.981331778E0
1.096613342E1,3.121875215E0,-3.386157668E-1,5.048304731E-1,3.180506139E0
1.097607942E1,3.493039507E0,-2.024446392E-1,5.184267113E-1,3.537099813E0
1.098602542E1,3.788298755E0,-1.630344057E-1,6.032098764E-1,3.839485620E0
1.099597042E1,4.027890170E0,-1.758076483E-1,6.403395496E-1,4.082259459E0
1.100591642E1,4.118599196E0,-2.750366521E-1,6.794675088E-1,4.183321718E0
1.101586242E1,4.020547822E0,-4.115796626E-1,6.716427648E-1,4.096987504E0
1.102580742E1,3.840463520E0,-5.344928133E-1,6.545314729E-1,3.932334429E0
1.103575342E1,3.711651698E0,-6.937043095E-1,6.770602101E-1,3.836143183E0
1.104569942E1,3.667052645E0,-8.147206235E-1,7.326128519E-1,3.827240048E0
1.105564442E1,3.670380296E0,-9.513858408E-1,8.049236137E-1,3.876174474E0
1.106559042E1,3.637029532E0,-1.097479109E0,9.381132460E-1,3.913119046E0
1.107553642E1,3.562391578E0,-1.267133732E0,1.099037245E0,3.937530256E0
1.108548142E1,3.360226436E0,-1.460335677E0,1.448826457E0,3.939898487E0
1.109542742E1,2.887651543E0,-1.545014470E0,1.876889420E0,3.774694033E0
1.110537342E1,2.383889941E0,-1.524355087E0,2.279637302E0,3.633639486E0
1.111531842E1,1.796276928E0,-1.424674678E0,2.453827318E0,3.358210423E0
1.112526442E1,1.341140186E0,-1.307053843E0,2.565826641E0,3.176556799E0
1.113521042E1,5.677242941E-1,-1.043091232E0,2.638527997E0,2.893471994E0
1.114515542E1,-3.803988004E-1,-7.505696511E-1,2.630658814E0,2.761960145E0
1.115510142E1,-1.404987103E0,-4.102681321E-1,2.697048100E0,3.068611601E0
1.116504742E1,-2.322222281E0,-1.290468800E-1,2.855755566E0,3.683029904E0
1.117499242E1,-2.885662905E0,2.220661408E-1,2.881106755E0,4.083765407E0
1.118493842E1,-3.240274315E0,6.535789615E-1,2.729584347E0,4.286860600E0
1.119488442E1,-3.411300695E0,1.090004613E0,2.442054534E0,4.334594887E0
1.120482942E1,-3.400868677E0,1.279341549E0,2.049682390E0,4.171788640E0
1.121477542E1,-3.220924709E0,1.151506212E0,1.599476606E0,3.776062493E0
1.122472142E1,-2.800291802E0,6.643553799E-1,9.415438074E-1,3.028119382E0
1.123466642E1,-2.190802016E0,-8.822220504E-2,4.270075411E-2,2.192993385E0
1.124461242E1,-2.282791582E0,-8.075320566E-1,-7.031776759E-1,2.521448844E0
1.125455842E1,-3.204912694E0,-1.290072944E0,-7.935314834E-1,3.544777255E0
1.126450342E1,-4.008304337E0,-1.587198038E0,-3.688879716E-1,4.326867181E0
1.127444942E1,-4.500184397E0,-1.594857305E0,3.646955180E-1,4.788343372E0
1.128439442E1,-4.452838322E0,-1.230354745E0,9.969607937E-1,4.726041975E0
1.129434042E1,-3.971822973E0,-4.225250655E-1,1.340288685E0,4.213107989E0
1.130428642E1,-3.504082559E0,4.718878448E-1,1.031748219E0,3.683174867E0
1.131423142E1,-3.319861937E0,1.213489621E0,3.237862046E-1,3.549489801E0
1.132417742E1,-3.151753317E0,1.657975075E0,-5.128405738E-1,3.597976622E0
1.133412342E1,-2.984731110E0,1.806658074E0,-1.305941848E0,3.725334523E0
1.134406842E1,-2.897781259E0,1.856109146E0,-1.984915706E0,3.972677655E0
1.135401442E1,-2.654530656E0,1.892498124E0,-2.380789747E0,4.036860411E0
1.136396042E1,-2.360518620E0,1.895498915E0,-2.755977509E0,4.093943859E0
1.137390542E1,-2.080393136E0,2.076709975E0,-3.029663454E0,4.221329242E0
1.138385142E1,-1.762422134E0,2.261172087E0,-3.053206099E0,4.188209458E0
1.139379742E1,-1.375666825E0,2.286589349E0,-2.846062052E0,3.901412471E0
1.140374242E1,-9.977086526E-1,2.087106909E0,-2.427630622E0,3.353330918E0
1.141368842E1,-6.516932344E-1,1.779172068E0,-1.799251406E0,2.612941435E0
1.142363442E1,-3.495488906E-1,1.540023871E0,-1.131754756E0,1.942865610E0
1.143357942E1,-4.608190656E-3,1.334311808E0,-5.853175427E-1,1.457053829E0
1.144352542E1,2.716768420E-1,1.244259424E0,-2.248203255E-1,1.293264861E0
1.145347142E1,4.362174904E-1,1.195369100E0,-1.273298451E-1,1.278829885E0
1.146341642E1,4.873946607E-1,1.204508883E0,-2.433587766E-1,1.321975302E0
1.147336242E1,3.191959941E-1,1.247122221E0,-3.694174370E-1,1.339279343E0
1.148330842E1,-3.575747788E-2,1.358124009E0,-5.328639252E-1,1.459357182E0
1.149325342E1,-2.689257270E-1,1.540490479E0,-7.268913513E-1,1.724471803E0
1.150319942E1,-4.724480081E-1,1.687844406E0,-8.686179185E-1,1.956150032E0
1.151314542E1,-4.864398104E-1,1.852103804E0,-1.041912141E0,2.180021353E0
1.152309042E1,-2.706997722E-1,1.879691552E0,-1.213368145E0,2.253615085E0
1.153303642E1,1.403331757E-3,1.610139588E0,-1.490699683E0,2.194250899E0
1.154298242E1,2.171100408E-1,1.205429235E0,-1.657028557E0,2.060567894E0
1.155292742E1,3.018426275E-1,6.985113055E-1,-1.669558994E0,1.834789974E0
1.156287342E1,4.696758431E-1,2.475535691E-1,-1.628164946E0,1.712541754E0
1.157281942E1,6.268484151E-1,2.598502636E-2,-1.571578370E0,1.692179876E0
1.158276442E1,5.848531276E-1,-2.259831905E-2,-1.385104524E0,1.503688268E0
1.159271042E1,1.757889372E-1,6.192727625E-2,-1.274638779E0,1.288192826E0
1.160265642E1,-2.279729980E-1,1.922500187E-1,-1.249508616E0,1.284602483E0
1.161260142E1,-6.339919585E-1,3.981994790E-1,-1.186953933E0,1.403341822E0
1.162254742E1,-7.168616223E-1,6.173139453E-1,-1.177875400E0,1.510747348E0
1.163249342E1,-5.371035951E-1,7.456375247E-1,-1.122990657E0,1.451056031E0
1.164243842E1,-4.339505249E-1,8.020122850E-1,-1.098755263E0,1.427865502E0
1.165238442E1,-5.087837756E-2,6.460635352E-1,-1.107222909E0,1.282937750E0
1.166233042E1,2.623008317E-1,3.395062977E-1,-1.047600166E0,1.132047862E0
1.167227542E1,5.955640572E-1,9.200652301E-2,-8.432008030E-1,1.036411762E0
1.168222142E1,6.472107589E-1,-2.907118678E-2,-5.713410893E-1,8.638041101E-1
1.169216742E1,2.800307590E-1,4.353778303E-2,-1.515911123E-1,3.213917078E-1
1.170211242E1,-7.921538794E-1,2.933741051E-1,6.105941789E-1,1.042305802E0
1.171205842E1,-1.536416724E0,5.961867857E-1,8.961343306E-1,1.875918914E0
1.172200342E1,-1.417989557E0,8.271488804E-1,6.859766293E-1,1.779166543E0
1.173194942E1,-9.477734309E-1,9.916871899E-1,8.905180800E-1,1.635463362E0
1.174189542E1,-7.053162950E-1,7.902915412E-1,1.021256267E0,1.471392592E0
1.175184042E1,-4.353754914E-1,5.562596583E-1,1.003518446E0,1.227202468E0
1.176178642E1,-4.446117532E-1,4.215561819E-1,1.182871115E0,1.332131112E0
1.177173242E1,-9.623832840E-1,5.474233460E-1,1.638733642E0,1.977701154E0
1.178167742E1,-1.779416481E0,8.210654372E-1,2.163029788E0,2.918761609E0
1.179162342E1,-2.617488545E0,9.985892433E-1,2.469764781E0,3.734724198E0
1.180156942E1,-3.188396063E0,1.044498657E0,2.282969045E0,4.058176261E0
1.181151442E1,-3.524953610E0,9.420232791E-1,1.623118360E0,3.993396928E0
1.182146042E1,-3.549680316E0,7.640813971E-1,3.576367593E-1,3.648555163E0
1.183140629E1,-3.290752158E0,6.283581662E-1,-1.349119881E0,3.611648959E0
1.184135129E1,-3.022765494E0,6.019989181E-1,-3.002557224E0,4.302890170E0
1.185129729E1,-2.905922338E0,7.108740735E-1,-4.076559762E0,5.056487523E0
1.186124329E1,-2.670569569E0,7.105337656E-1,-4.635696250E0,5.396895384E0
1.187118829E1,-2.073210416E0,5.602252400E-1,-4.520437982E0,5.004639178E0
1.188113429E1,-1.285620874E0,3.871768928E-1,-3.683958700E0,3.921004805E0
1.189108029E1,-5.415989345E-1,2.225409347E-1,-2.547983862E0,2.614397758E0
1.190102529E1,5.766641021E-2,9.096454918E-2,-1.705010662E0,1.708409003E0
1.191097129E1,6.276506531E-1,5.011180758E-2,-1.239900325E0,1.390614739E0
1.192091729E1,1.230792117E0,1.183838975E-1,-8.869346139E-1,1.521682290E0
1.193086229E1,1.693301028E0,2.608939916E-1,-4.904404753E-1,1.782095931E0
1.194080829E1,1.750777988E0,4.190477264E-1,-7.901576400E-2,1.801962278E0
1.195075429E1,1.453289198E0,5.939414549E-1,2.877835822E-1,1.596131365E0
1.196069929E1,9.833309340E-1,7.603613985E-1,5.098757431E-1,1.343526128E0
1.197064529E1,4.167737442E-1,9.254329741E-1,6.239654455E-1,1.191410685E0
1.198059129E1,-2.900622422E-1,1.007026191E0,6.264420336E-1,1.220928939E0
1.199053629E1,-9.486440814E-1,1.007489875E0,5.007941401E-1,1.471650846E0
1.200048229E1,-1.466905609E0,9.925993556E-1,2.714590332E-1,1.791858128E0
1.201042829E1,-1.703168204E0,9.915380859E-1,-2.385228369E-1,1.985150587E0
1.202037329E1,-1.809267102E0,1.018041760E0,-9.342874128E-1,2.276565273E0
1.203031929E1,-1.932725213E0,1.002236152E0,-1.563542542E0,2.680404696E0
1.204026529E1,-1.986490946E0,8.811695516E-1,-2.087803605E0,3.013557690E0
1.205021029E1,-1.995844152E0,6.814339274E-1,-2.574654475E0,3.328151400E0
1.206015629E1,-1.731776876E0,3.870412374E-1,-2.982738672E0,3.470674582E0
1.207010229E1,-1.334231116E0,1.055989605E-1,-3.041597621E0,3.323046780E0
1.208004729E1,-1.094608126E0,-1.018871480E-1,-2.840123620E0,3.045463859E0
1.208999329E1,-9.107207948E-1,-1.556809473E-1,-2.448091199E0,2.616638959E0
1.209993929E1,-8.202292854E-1,-1.241363883E-3,-1.948615168E0,2.114208763E0
1.210988429E1,-7.217440474E-1,3.652837479E-1,-1.529468477E0,1.730208227E0
1.211983029E1,-9.778795749E-1,8.735441977E-1,-1.217521569E0,1.789325767E0
1.212977529E1,-1.091163531E0,1.317517435E0,-1.012996198E0,1.988127596E0
1.213972129E1,-9.555426264E-1,1.678205856E0,-8.307314694E-1,2.102272908E0
1.214966729E1,-8.785470754E-1,1.967741264E0,-5.257450864E-1,2.218165580E0
1.215961229E1,-7.365521210E-1,2.139089826E0,-2.277484649E-1,2.273781800E0
1.216955829E1,-7.989267093E-1,2.452835630E0,-3.365321115E-2,2.579887411E0
1.217950429E1,-1.010256193E0,2.704311512E0,1.580259731E-1,2.891174594E0
1.218944929E1,-1.075601166E0,2.908200413E0,3.809496081E-1,3.124047073E0
1.219939529E1,-1.103666047E0,3.033163598E0,3.432257116E-1,3.245914978E0
1.220934129E1,-1.199904200E0,3.058311303E0,4.199938059E-2,3.285544409E0
1.221928629E1,-1.404739181E0,3.050433349E0,-3.330322605E-1,3.374810553E0
1.222923229E1,-1.711558959E0,3.003219422E0,-7.248457029E-1,3.531878007E0
1.223917829E1,-2.064525547E0,2.940115101E0,-1.041282688E0,3.740429411E0
1.224912329E1,-2.400714719E0,2.866380542E0,-1.297221896E0,3.957569105E0
1.225906929E1,-2.692492535E0,2.828015791E0,-1.323948934E0,4.123109281E0
1.226901529E1,-2.790980111E0,2.690984538E0,-1.217448917E0,4.063637487E0
1.227896029E1,-2.775766241E0,2.495920839E0,-1.040746060E0,3.875261465E0
1.228890629E1,-2.799852676E0,2.276264336E0,-7.358313055E-1,3.682662358E0
1.229885229E1,-2.272329744E0,1.871421250E0,-6.713188291E-1,3.019332531E0
1.230879729E1,-1.818474128E0,1.514765654E0,-6.666831565E-1,2.458826869E0
1.231874329E1,-1.771569518E0,1.277003247E0,-3.130225039E-1,2.206168384E0
1.232868929E1,-1.919131021E0,1.095427321E0,1.904894221E-1,2.217952009E0
1.233863429E1,-1.908422431E0,8.975207055E-1,5.961249514E-1,2.191571251E0
1.234858029E1,-1.721726682E0,6.721187282E-1,9.645847607E-1,2.084828557E0
1.235852629E1,-1.382663019E0,4.836372399E-1,1.330733312E0,1.979018229E0
1.236847129E1,-9.583405191E-1,4.050787282E-1,1.631136355E0,1.934712158E0
1.237841729E1,-5.752900064E-1,3.472637987E-1,1.769412480E0,1.892715314E0
1.238836329E1,-4.583737600E-1,3.005118012E-2,1.702205753E0,1.763097842E0
1.239830829E1,-6.669918895E-1,-7.800454652E-1,1.857246138E0,2.121959548E0
1.240825429E1,-7.355996096E-1,-1.915291155E0,2.958564236E0,3.600354056E0
1.241820029E1,3.958021206E-1,-3.125367172E0,4.250153947E0,5.290405263E0
1.242814529E1,2.622746946E0,-4.031135375E0,4.181079034E0,6.372619230E0
1.243809129E1,4.339088343E0,-4.515326931E0,3.656033275E0,7.251375335E0
1.244803729E1,4.386872959E0,-4.908111888E0,3.410596690E0,7.413931915E0
1.245798229E1,3.778453798E0,-5.297982593E0,2.457592925E0,6.955939595E0
1.246792829E1,3.639440339E0,-5.248747283E0,1.349173676E0,6.528027545E0
1.247787429E1,3.762223096E0,-4.671826488E0,2.308385722E-1,6.002796999E0
1.248781929E1,3.664740656E0,-3.745228749E0,-5.906295919E-1,5.273130548E0
1.249776529E1,3.187244747E0,-2.667146024E0,-7.958706620E-1,4.231501755E0
1.250771129E1,2.534938139E0,-1.641955458E0,-3.877306241E-1,3.045039266E0
1.251765629E1,1.986069946E0,-7.622822088E-1,1.472887310E-1,2.132426310E0
1.252760229E1,1.609429151E0,3.126857042E-2,4.955386627E-1,1.684279811E0
1.253754729E1,1.401831946E0,5.459095019E-1,6.518416075E-1,1.639526599E0
1.254749329E1,1.402454674E0,7.755752689E-1,9.102980411E-1,1.843105704E0
1.255743929E1,1.535791656E0,8.567170805E-1,1.258462896E0,2.162486769E0
1.256738429E1,1.637813290E0,8.473153424E-1,1.518351166E0,2.388674513E0
1.257733029E1,1.592629516E0,7.823913682E-1,1.712325821E0,2.465900393E0
1.258727629E1,1.413143969E0,6.622451198E-1,1.691696844E0,2.301604373E0
1.259722129E1,1.421086827E0,3.561726165E-1,1.278795126E0,1.944650014E0
1.260716729E1,1.481747596E0,-1.285194612E-1,8.014813578E-1,1.689516368E0
1.261711329E1,1.571098899E0,-6.603745955E-1,3.224394447E-1,1.734477890E0
1.262705829E1,1.640816420E0,-1.150099956E0,-2.808183789E-2,2.003945365E0
1.263700429E1,1.577356004E0,-1.564965754E0,-3.075590117E-1,2.243159005E0
1.264695029E1,1.380595443E0,-1.845074281E0,-4.576055820E-1,2.349413916E0
1.265689529E1,1.046253406E0,-1.892218042E0,-4.198524494E-1,2.202591970E0
1.266684129E1,6.891206771E-1,-1.669360188E0,-2.221722677E-1,1.819618439E0
1.267678729E1,5.438904583E-1,-1.259597840E0,-1.251432788E-1,1.377702577E0
1.268673229E1,5.124400395E-1,-8.625748211E-1,-1.997492190E-1,1.023000424E0
1.269667829E1,4.109773993E-1,-5.131832206E-1,-3.412002361E-1,7.407273735E-1
1.270662429E1,3.504195410E-1,-3.200637209E-1,-4.577504468E-1,6.593709970E-1
1.271656929E1,4.291908914E-1,-1.731641221E-1,-6.295182538E-1,7.813346698E-1
1.272651529E1,6.665995413E-1,-8.334211886E-2,-8.347960152E-1,1.071534061E0
1.273646129E1,1.049258291E0,-8.607276857E-2,-9.903804834E-1,1.445408241E0
1.274640629E1,1.494558261E0,-1.570801860E-1,-9.895034011E-1,1.799304188E0
1.275635229E1,1.884450601E0,-2.359643877E-1,-7.111848530E-1,2.027958864E0
1.276629829E1,2.099653280E0,-3.218833745E-1,-2.722779357E-1,2.141562065E0
1.277624329E1,2.086382439E0,-3.814191395E-1,2.289907059E-1,2.133285960E0
1.278618929E1,1.891726291E0,-4.462413722E-1,6.535174195E-1,2.050571808E0
1.279613529E1,1.499405603E0,-5.375316113E-1,1.050584878E0,1.908110579E0
1.280608029E1,8.451670754E-1,-6.873811305E-1,1.325308704E0,1.715588343E0
1.281602629E1,1.442999268E-1,-8.618632150E-1,1.443801506E0,1.687659165E0
1.282597229E1,-6.228056502E-1,-9.666347945E-1,1.481591476E0,1.875468743E0
1.283591796E1,-1.123237848E0,-9.935670698E-1,1.321859285E0,1.999037457E0
1.284586396E1,-1.235720150E0,-1.010312326E0,9.731257886E-1,1.869414103E0
1.285580996E1,-9.583206385E-1,-9.240594631E-1,5.258842501E-1,1.431369478E0
1.286575496E1,-3.234521824E-1,-6.973453707E-1,1.993741201E-1,7.941422543E-1
1.287570096E1,5.211313409E-1,-2.372577918E-1,2.976712239E-1,6.453505185E-1
1.288564696E1,1.219946117E0,4.665288717E-1,8.605171859E-1,1.564099595E0
1.289559196E1,1.491011925E0,1.052609915E0,1.247444987E0,2.210706491E0
1.290553796E1,1.632581202E0,1.395771307E0,1.163159128E0,2.442629337E0
1.291548296E1,1.855175346E0,1.472496716E0,1.010727917E0,2.575168551E0
1.292542896E1,2.193982902E0,1.280073620E0,9.632235289E-1,2.716606157E0
1.293537496E1,2.667621403E0,7.997599375E-1,1.126192153E0,3.004018754E0
1.294531996E1,3.030371552E0,1.162403083E-1,1.478658512E0,3.373884193E0
1.295526596E1,3.455414429E0,-7.306037486E-1,1.839405990E0,3.982095567E0
1.296521196E1,3.675812359E0,-1.529132847E0,2.139236883E0,4.519532963E0
1.297515696E1,3.320705105E0,-2.221102288E0,2.259150120E0,4.589568284E0
1.298510296E1,2.574919061E0,-2.808949775E0,1.966268935E0,4.287962282E0
1.299504896E1,1.786176447E0,-3.056609763E0,1.250413619E0,3.754573712E0
1.300499396E1,9.774147213E-1,-2.858734723E0,3.275642368E-1,3.038914622E0
1.301493996E1,-9.043946922E-2,-2.344580864E0,-5.590829864E-1,2.412014202E0
1.302488596E1,-1.010135155E0,-1.713408433E0,-1.135742411E0,2.290426230E0
1.303483096E1,-1.215808042E0,-1.057305813E0,-1.319722712E0,2.082727254E0
1.304477696E1,-1.036407280E0,-5.784948653E-1,-1.078964777E0,1.604045308E0
1.305472296E1,-8.570322454E-1,-5.189731336E-1,-6.222039717E-1,1.179396102E0
1.306466796E1,-5.473485017E-1,-6.380575275E-1,-3.302334908E-1,9.031954103E-1
1.307461396E1,-2.766124767E-1,-6.657060868E-1,-1.391625631E-1,7.341970275E-1
1.308455996E1,-2.016546804E-1,-5.605234480E-1,-4.877864242E-2,5.976876290E-1
1.309450496E1,-3.019671732E-1,-3.713800550E-1,-2.313567817E-2,4.792103698E-1
1.310445096E1,-2.521547431E-1,-2.409011918E-1,-1.443472892E-2,3.490326060E-1
1.311439696E1,1.052013499E-1,-2.606630266E-1,-1.682243943E-3,2.810967225E-1
1.312434196E1,5.929649699E-1,-3.771822470E-1,9.391710073E-2,7.090093968E-1
1.313428796E1,1.096077531E0,-5.920352626E-1,1.907355899E-1,1.260266548E0
1.314423396E1,1.593371528E0,-8.300379896E-1,1.970941445E-1,1.807385402E0
1.315417896E1,2.030297701E0,-1.029195909E0,1.907288656E-1,2.284235205E0
1.316412496E1,2.389827788E0,-1.175617790E0,2.100255543E-1,2.671603410E0
1.317407096E1,2.749576562E0,-1.207454125E0,2.812988739E-1,3.016164086E0
1.318401596E1,2.951675631E0,-1.158667297E0,4.265577440E-1,3.199507844E0
1.319396196E1,3.070593379E0,-1.066478341E0,6.190590468E-1,3.308950567E0
1.320390796E1,3.229340606E0,-1.015421038E0,6.667024523E-1,3.450248222E0
1.321385296E1,3.267558008E0,-1.028226441E0,5.917836861E-1,3.476261336E0
1.322379896E1,3.168951733E0,-1.131985867E0,5.108291316E-1,3.403614768E0
1.323374496E1,2.932029571E0,-1.171706588E0,4.582683639E-1,3.190564782E0
1.324368996E1,2.717335015E0,-1.105997332E0,4.339195347E-1,2.965708321E0
1.325363596E1,2.595037576E0,-9.339073437E-1,3.497348320E-1,2.780057086E0
1.326358196E1,2.570878635E0,-7.446896911E-1,3.445597538E-1,2.698648016E0
1.327352696E1,2.538545871E0,-5.849098456E-1,3.595327190E-1,2.629752544E0
1.328347296E1,2.510855212E0,-5.060782689E-1,4.349568307E-1,2.598017813E0
1.329341896E1,2.550778247E0,-5.055473417E-1,5.014968292E-1,2.648310187E0
1.330336396E1,2.624512805E0,-5.852606785E-1,4.919987583E-1,2.733616708E0
1.331330996E1,2.723658194E0,-6.950690496E-1,4.915599248E-1,2.853605807E0
1.332325496E1,2.872958075E0,-8.407138360E-1,4.361157489E-1,3.025042942E0
1.333320096E1,3.108413755E0,-9.978741288E-1,4.473973668E-1,3.295171202E0
1.334314696E1,3.204994555E0,-1.141104015E0,5.154858541E-1,3.440906005E0
1.335309196E1,3.131818405E0,-1.312285931E0,7.253947565E-1,3.472258406E0
1.336303796E1,2.995460166E0,-1.501333430E0,1.086474503E0,3.522387049E0
1.337298396E1,2.752368023E0,-1.646993419E0,1.465934679E0,3.526624666E0
1.338292896E1,2.493643348E0,-1.744675834E0,1.623453698E0,3.449311935E0
1.339287496E1,2.067239240E0,-1.787808405E0,1.619919641E0,3.177086183E0
1.340282096E1,1.783993682E0,-1.679820272E0,1.687100641E0,2.975019021E0
1.341276596E1,1.632606345E0,-1.465575952E0,1.834283683E0,2.859705051E0
1.342271196E1,1.466769953E0,-1.163256776E0,1.920337594E0,2.681842072E0
1.343265796E1,1.231591431E0,-7.585879380E-1,1.887781029E0,2.378232605E0
1.344260296E1,1.096202661E0,-3.283252519E-1,1.929309270E0,2.243143331E0
1.345254896E1,8.783190340E-1,1.706077194E-1,2.123084096E0,2.303917837E0
1.346249496E1,6.338177115E-1,6.645383978E-1,2.471642907E0,2.636731847E0
1.347243996E1,2.537703288E-1,1.118598667E0,2.769672858E0,2.997790869E0
1.348238596E1,-1.254438257E-1,1.335911021E0,3.037663030E0,3.320811813E0
1.349233196E1,-5.609994113E-1,1.312063737E0,3.319960170E0,3.613636274E0
1.350227696E1,-1.226135395E0,1.097475600E0,3.554398434E0,3.916836597E0
1.351222296E1,-2.476630874E0,8.342064697E-1,3.529137293E0,4.391401935E0
1.352216896E1,-3.901007345E0,5.749637318E-1,2.961708283E0,4.931547176E0
1.353211396E1,-5.162465184E0,9.019564033E-2,2.041883081E0,5.552339016E0
1.354205996E1,-6.395466964E0,-5.622735196E-1,9.245732872E-1,6.486369167E0
1.355200596E1,-7.404727376E0,-8.761567336E-1,-3.552477331E-1,7.464840192E0
1.356195096E1,-8.270453262E0,-2.732240152E-1,-1.766301177E0,8.461375087E0
1.357189696E1,-8.921082303E0,7.752361304E-1,-3.263697384E0,9.530919217E0
1.358184296E1,-8.395337509E0,1.337285702E0,-4.406778635E0,9.575475073E0
1.359178796E1,-6.283761756E0,1.541917784E0,-4.862729309E0,8.093782095E0
1.360173396E1,-4.347672640E0,1.531686911E0,-4.463434646E0,6.416429772E0
1.361167996E1,-3.284167024E0,1.448890922E0,-3.510441990E0,5.020780907E0
1.362162496E1,-2.606290542E0,1.296955701E0,-2.584673971E0,3.892991654E0
1.363157096E1,-1.984098850E0,1.112733325E0,-1.745214947E0,2.867158683E0
1.364151696E1,-1.377056124E0,8.956636298E-1,-9.355369627E-1,1.890430193E0
1.365146196E1,-9.314374799E-1,7.073727608E-1,-3.227062239E-1,1.213297700E0
1.366140796E1,-6.012808800E-1,5.812588441E-1,-5.223142326E-2,8.379311798E-1
1.367135396E1,-2.152874637E-1,5.865049660E-1,-1.174717319E-1,6.357172131E-1
1.368129896E1,6.893984199E-2,7.115962046E-1,-2.749205849E-1,7.659655268E-1
1.369124496E1,3.011742908E-1,8.956262076E-1,-4.039860298E-1,1.027646325E0
1.370118996E1,5.773254222E-1,1.084680723E0,-6.415912923E-1,1.386173258E0
1.371113596E1,5.890917742E-1,1.291005574E0,-1.022874484E0,1.749284631E0
1.372108196E1,3.608679307E-1,1.417995404E0,-1.501258585E0,2.096357310E0
1.373102696E1,1.532344723E-1,1.446233947E0,-1.960217652E0,2.440804514E0
1.374097296E1,3.941783488E-2,1.405193510E0,-2.296161241E0,2.692299948E0
1.375091896E1,-1.781576443E-1,1.379383900E0,-2.425547406E0,2.796018653E0
1.376086496E1,-4.795728403E-1,1.434804980E0,-2.208205084E0,2.676719099E0
1.377080996E1,-7.074207079E-1,1.558242041E0,-1.718253144E0,2.425068284E0
1.378075596E1,-7.804267037E-1,1.757344412E0,-1.297133456E0,2.319456925E0
1.379070096E1,-6.816789258E-1,1.905632139E0,-1.036861755E0,2.274027772E0
1.380064696E1,-5.730937922E-1,1.989917414E0,-8.836543259E-1,2.251455702E0
1.381059296E1,-1.903058195E-1,1.879838902E0,-9.231106062E-1,2.102889391E0
1.382053796E1,2.608507222E-1,1.696118801E0,-1.034180076E0,2.003594399E0
1.383048379E1,6.868560505E-1,1.442699305E0,-1.131859129E0,1.958126045E0
1.384042979E1,9.268234420E-1,1.141031510E0,-1.121073793E0,1.848718759E0
1.385037479E1,1.033993549E0,8.024309456E-1,-1.005924575E0,1.650733877E0
1.386032079E1,9.397949052E-1,4.480323744E-1,-7.810172725E-1,1.301512755E0
1.387026679E1,7.731182688E-1,1.895439273E-1,-4.974486557E-1,9.386660338E-1
1.388021179E1,7.042871851E-1,-9.116627812E-2,-2.717671815E-1,7.603874869E-1
1.389015779E1,5.537126112E-1,-3.133177882E-1,-1.360378110E-1,6.505935584E-1
1.390010379E1,2.809534496E-1,-3.373773265E-1,-5.896112993E-2,4.429838779E-1
1.391004879E1,-1.420943570E-1,-1.955899483E-1,3.962658048E-3,2.417890337E-1
1.391999479E1,-9.636638242E-1,3.367516744E-1,1.274947366E-1,1.028739308E0
1.392994079E1,-1.424519143E0,9.343113863E-1,2.004358283E-1,1.715332934E0
1.393988579E1,-1.151903822E0,1.188348348E0,7.473428652E-1,1.815922788E0
1.394983179E1,-1.081225019E0,1.438085852E0,1.457543047E0,2.315506466E0
1.395977779E1,-1.051211845E0,1.729285378E0,1.884401192E0,2.765220084E0
1.396972279E1,-8.384176344E-1,1.869287016E0,1.860459183E0,2.767397053E0
1.397966879E1,-9.255879253E-1,2.047339996E0,1.716680389E0,2.827597146E0
1.398961479E1,-1.400408733E0,2.054109317E0,1.598377037E0,2.955557284E0
1.399955979E1,-2.090184883E0,1.882359636E0,1.629724252E0,3.250869389E0
1.400950579E1,-2.834574028E0,1.604463696E0,1.596289727E0,3.627293007E0
1.401945179E1,-3.570354901E0,1.243225636E0,1.414749030E0,4.036651944E0
1.402939679E1,-4.244893207E0,8.064228398E-1,1.049930428E0,4.446548104E0
1.403934279E1,-4.612808202E0,2.690502727E-1,2.155108273E-1,4.625671030E0
1.404928879E1,-4.747240952E0,-2.693707001E-1,-1.131618662E0,4.887680230E0
1.405923379E1,-4.353718076E0,-6.738986206E-1,-2.822351885E0,5.232080906E0
1.406917979E1,-3.500887055E0,-7.745297867E-1,-4.014056243E0,5.382262915E0
1.407912579E1,-2.474683167E0,-5.894005072E-1,-4.174125525E0,4.888228067E0
1.408907079E1,-1.551886117E0,-3.983368886E-1,-3.706194491E0,4.037685031E0
1.409901679E1,-7.279496974E-1,-2.934150356E-1,-3.098032316E0,3.195904782E0
1.410896279E1,-7.244349360E-2,-2.964409697E-1,-2.560738394E0,2.578857582E0
1.411890779E1,5.621752864E-1,-3.573566777E-1,-2.134766394E0,2.236285404E0
1.412885379E1,1.276519098E0,-3.955910361E-1,-1.686616491E0,2.151898804E0
1.413879979E1,1.999010419E0,-4.142571026E-1,-1.200686119E0,2.368395820E0
1.414874479E1,2.557820633E0,-4.113065976E-1,-7.888355845E-1,2.708113935E0
1.415869079E1,2.854003156E0,-3.949876034E-1,-3.092014946E-1,2.897749952E0
1.416863679E1,2.849581491E0,-3.894152069E-1,1.079805315E-1,2.878092888E0
1.417858179E1,2.540694723E0,-3.579753131E-1,4.650784698E-1,2.607599276E0
1.418852779E1,1.940028386E0,-3.454271883E-1,5.550947468E-1,2.047232341E0
1.419847279E1,1.010193043E0,-2.642029309E-1,3.555485724E-1,1.103044858E0
1.420841879E1,1.921435994E-1,-1.483929777E-1,-2.402854800E-2,2.439610824E-1
1.421836479E1,-5.436594933E-1,1.321435654E-1,-2.311686476E-1,6.053647745E-1
1.422830979E1,-8.907554770E-1,6.271308357E-1,-5.022945356E-1,1.199599185E0
1.423825579E1,-1.203724771E0,1.191190680E0,-8.796102454E-1,1.908298390E0
1.424820179E1,-1.666477511E0,1.802239918E0,-1.239205091E0,2.749699124E0
1.425814679E1,-2.157974578E0,2.545504058E0,-1.653817120E0,3.724453820E0
1.426809279E1,-2.543276269E0,3.057244186E0,-2.018051000E0,4.459543253E0
1.427803879E1,-2.863182700E0,3.024620231E0,-2.406698760E0,4.810233012E0
1.428798379E1,-3.185191205E0,2.722751876E0,-2.678561251E0,4.973279719E0
1.429792979E1,-3.263639204E0,2.363291370E0,-2.685500726E0,4.842354913E0
1.430787579E1,-2.832315248E0,2.039615239E0,-2.392882082E0,4.231775590E0
1.431782079E1,-2.247339329E0,1.766445603E0,-1.907307659E0,3.436376963E0
1.432776679E1,-2.056548775E0,1.868396485E0,-1.548455117E0,3.180882196E0
1.433771279E1,-2.185614367E0,2.282667621E0,-1.176111880E0,3.372049938E0
1.434765779E1,-2.135402572E0,2.733729438E0,-8.026060697E-1,3.560533287E0
1.435760379E1,-2.035957806E0,2.953281861E0,-5.273021999E-1,3.625609679E0
1.436754979E1,-1.987322420E0,3.058339954E0,-2.543796086E-1,3.656173226E0
1.437749479E1,-1.825618840E0,3.116330300E0,-7.349862367E-2,3.612450794E0
1.438744079E1,-1.960219991E0,3.110362047E0,2.702583075E-2,3.676621393E0
1.439738679E1,-2.311092106E0,3.047823152E0,1.007270604E-1,3.826293066E0
1.440733179E1,-2.562607164E0,3.060388818E0,-2.414680794E-2,3.991681133E0
1.441727779E1,-2.928637601E0,3.150428923E0,-2.616098370E-1,4.309357296E0
1.442722379E1,-2.966500077E0,3.114446327E0,-5.801996210E-1,4.340107168E0
1.443716879E1,-2.607894434E0,2.933446351E0,-1.045534784E0,4.061940898E0
1.444711479E1,-1.988720489E0,2.568614008E0,-1.471242781E0,3.566138308E0
1.445706079E1,-1.418750864E0,2.149673871E0,-1.677664404E0,3.073842810E0
1.446700579E1,-1.158573741E0,1.618915089E0,-1.617302427E0,2.564926183E0
1.447695179E1,-1.152502577E0,1.063568766E0,-1.314672180E0,2.046412385E0
1.448689779E1,-1.493274797E0,5.802221328E-1,-7.244035073E-1,1.758205843E0
1.449684279E1,-1.907443022E0,2.025399488E-1,1.024818099E-1,1.920901829E0
1.450678879E1,-2.249450759E0,-1.418125212E-2,9.576369528E-1,2.444851398E0
1.451673479E1,-2.129156576E0,-7.736451030E-2,1.529141618E0,2.622511598E0
1.452667979E1,-1.710056224E0,1.099627376E-2,1.759505543E0,2.453624454E0
1.453662579E1,-1.225806781E0,1.968915385E-1,1.826704084E0,2.208668457E0
1.454657179E1,-9.744455051E-1,2.932261705E-1,1.887531499E0,2.144364892E0
1.455651679E1,-1.042967856E0,7.693064690E-2,2.060275791E0,2.310505704E0
1.456646279E1,-1.680731853E0,-5.335759699E-1,2.613198735E0,3.152518122E0
1.457640879E1,-2.564694035E0,-1.332037241E0,4.067613230E0,4.989735072E0
1.458635379E1,-2.230280662E0,-2.016595920E0,5.881148214E0,6.605203650E0
1.459629979E1,5.793479741E-2,-2.565154211E0,6.320394562E0,6.821345908E0
1.460624579E1,2.325499061E0,-3.278981128E0,5.208879213E0,6.579672163E0
1.461619079E1,3.028333797E0,-4.303020962E0,2.872123092E0,5.994654790E0
1.462613679E1,3.318118297E0,-5.187380170E0,4.229953279E-1,6.172337249E0
1.463608279E1,4.169331978E0,-5.426756993E0,-9.468035240E-1,6.908650919E0
1.464602779E1,3.845660525E0,-4.791795566E0,-1.407801076E0,6.303357319E0
1.465597379E1,2.792284040E0,-3.838004766E0,-1.076760669E0,4.866882399E0
1.466591879E1,2.602982773E0,-2.956088524E0,-5.133141983E-1,3.972086372E0
1.467586479E1,2.759971157E0,-1.984267834E0,1.181739825E-1,3.401282805E0
1.468581079E1,2.748579027E0,-1.122368951E0,8.466684942E-1,3.087271655E0
1.469575579E1,2.768658950E0,-4.816146880E-1,1.367923942E0,3.125482523E0
1.470570179E1,2.871852951E0,-1.885487312E-1,1.872487051E0,3.433554682E0
1.471564779E1,2.884586433E0,-1.434234291E-1,2.297078961E0,3.690254859E0
1.472559279E1,2.790331655E0,-6.531222939E-2,2.457691158E0,3.718932947E0
1.473553879E1,2.776922820E0,9.055524409E-2,2.376311803E0,3.656003062E0
1.474548479E1,2.748669659E0,2.497345805E-1,2.105229185E0,3.471245047E0
1.475542979E1,2.492334741E0,2.411304027E-1,1.645563190E0,2.996290131E0
1.476537579E1,2.157899149E0,1.460002971E-1,1.203459600E0,2.475108045E0
1.477532179E1,2.081116437E0,-7.224234939E-2,8.548524034E-1,2.251008043E0
1.478526679E1,2.097657040E0,-5.104133946E-1,4.538924539E-1,2.206061026E0
1.479521279E1,1.967489834E0,-9.973876405E-1,2.587027475E-2,2.206007167E0
1.480515879E1,1.846701561E0,-1.430568672E0,-3.530642366E-1,2.362517246E0
1.481510379E1,1.658688435E0,-1.604549065E0,-5.995327087E-1,2.384379268E0
1.482504979E1,1.350482867E0,-1.383902044E0,-6.327234051E-1,2.034533792E0
1.483499554E1,7.817750716E-1,-8.640138209E-1,-4.513799053E-1,1.249574313E0
1.484494054E1,1.810824215E-1,-3.775009203E-1,-7.485137701E-2,4.253240140E-1
1.485488654E1,-4.061686492E-1,-7.792525828E-2,3.045148051E-1,5.135898986E-1
1.486483254E1,-6.636414349E-1,7.455433846E-2,2.568752003E-1,7.155160180E-1
1.487477754E1,-5.754309243E-1,3.302098095E-2,-1.552682801E-1,5.969249305E-1
1.488472354E1,-1.832815593E-1,-1.315027106E-1,-5.773090500E-1,6.198151596E-1
1.489466954E1,3.551388288E-1,-2.727930754E-1,-9.606982626E-1,1.059943773E0
1.490461454E1,8.102334702E-1,-3.189480722E-1,-1.173891692E0,1.461584022E0
1.491456054E1,1.152943457E0,-4.461004543E-1,-1.197181298E0,1.720908856E0
1.492450654E1,1.424333786E0,-5.873721081E-1,-1.070947514E0,1.876342534E0
1.493445154E1,1.726644775E0,-7.545709008E-1,-8.936995500E-1,2.085516317E0
1.494439754E1,2.012012288E0,-9.074445999E-1,-7.054589671E-1,2.317179644E0
1.495434354E1,2.168842213E0,-1.046846899E0,-4.598779562E-1,2.451785617E0
1.496428854E1,2.235936089E0,-1.222139407E0,-1.044026202E-1,2.550281324E0
1.497423454E1,2.093939965E0,-1.430725962E0,3.038526079E-1,2.554190236E0
1.498418054E1,1.566802365E0,-1.503726110E0,7.093543822E-1,2.284566809E0
1.499412554E1,9.090192550E-1,-1.417100780E0,9.445035218E-1,1.930434544E0
1.500407154E1,1.807426983E-1,-1.090122727E0,1.034451971E0,1.513646710E0
1.501401754E1,-4.164001071E-1,-6.134617996E-1,8.927346133E-1,1.160473834E0
1.502396254E1,-7.015308076E-1,-2.126187944E-1,5.499572369E-1,9.164088543E-1
1.503390854E1,-7.768441147E-1,6.673953474E-2,2.873055723E-1,8.309545330E-1
1.504385454E1,-5.072868884E-1,1.994993967E-1,3.709725040E-1,6.593637806E-1
1.505379954E1,1.887247324E-2,2.914702517E-1,1.096954321E0,1.135173934E0
1.506374554E1,5.495499784E-1,4.342867398E-1,2.058088347E0,2.174014213E0
1.507369154E1,1.195007742E0,5.582845491E-1,2.380513612E0,2.721501461E0
1.508363654E1,2.063214017E0,7.467660373E-1,1.849685103E0,2.869816470E0
1.509358254E1,2.636480302E0,1.019668456E0,1.100485601E0,3.033450296E0
1.510352754E1,2.513316890E0,1.151448909E0,5.957160848E-1,2.827980557E0
1.511347354E1,2.244787604E0,8.917693841E-1,2.509145486E-1,2.428432032E0
1.512341954E1,2.525532893E0,3.895590484E-2,3.247543573E-3,2.525835407E0
1.513336454E1,2.997794960E0,-1.247163152E0,7.617577136E-2,3.247767432E0
1.514331054E1,3.001260020E0,-2.614504126E0,7.129925197E-1,4.043705215E0
1.515325654E1,2.863967981E0,-3.826903242E0,1.477898667E0,5.003167545E0
1.516320154E1,2.714842347E0,-4.722086231E0,2.028602593E0,5.812374370E0
1.517314754E1,2.268982213E0,-5.085979511E0,2.339925019E0,6.040754668E0
1.518309354E1,1.450522880E0,-4.843456301E0,2.316225084E0,5.561293393E0
1.519303854E1,4.454607689E-1,-3.960391667E0,1.559419962E0,4.279594382E0
1.520298454E1,-2.970034719E-1,-2.653873429E0,2.167013204E-1,2.679219047E0
1.521293054E1,-7.885666126E-1,-1.256326323E0,-6.915047331E-1,1.636573227E0
1.522287554E1,-1.172011228E0,9.619839191E-3,-1.015094471E0,1.550522378E0
1.523282154E1,-1.437417516E0,9.606472456E-1,-1.093020460E0,2.045410954E0
1.524276754E1,-1.277999028E0,1.473286090E0,-1.131193277E0,2.254651115E0
1.525271254E1,-9.269854099E-1,1.533163918E0,-1.093803695E0,2.099118880E0
1.526265854E1,-5.782264781E-1,1.264679655E0,-9.183940959E-1,1.666495786E0
1.527260454E1,-1.767613292E-1,9.019669282E-1,-6.870683044E-1,1.147541617E0
1.528254954E1,1.245100254E-1,5.251904780E-1,-5.320387369E-1,7.578871962E-1
1.529249554E1,1.222758043E-1,2.927431905E-1,-4.200815141E-1,5.264203894E-1
1.530244154E1,2.367853367E-1,1.806491429E-1,-4.239899392E-1,5.181398239E-1
1.531238654E1,5.842116880E-1,-4.883009791E-3,-5.151063699E-1,7.788849161E-1
1.532233254E1,8.701440418E-1,-3.086253977E-1,-4.371869588E-1,1.021534496E0
1.533227854E1,1.111703630E0,-7.466613722E-1,-2.248157939E-1,1.357913954E0
1.534222354E1,1.253616139E0,-1.181619372E0,-3.790019006E-3,1.722728106E0
1.535216954E1,1.406607367E0,-1.492964895E0,1.385573763E-1,2.055890709E0
1.536211554E1,1.586658340E0,-1.673695314E0,1.430135393E-1,2.310669505E0
1.537206054E1,1.785222766E0,-1.680766352E0,1.317680280E-1,2.455475243E0
1.538200654E1,2.047283862E0,-1.570287305E0,3.307571089E-1,2.601263866E0
1.539195254E1,2.363624661E0,-1.484153726E0,7.277624403E-1,2.884280151E0
1.540189754E1,2.840869140E0,-1.412789043E0,1.114831890E0,3.362939264E0
1.541184354E1,3.254643847E0,-1.367540950E0,1.366853317E0,3.785652231E0
1.542178954E1,3.466732299E0,-1.304845934E0,1.446065694E0,3.976425749E0
1.543173454E1,3.448874318E0,-1.254159345E0,1.389708767E0,3.924148338E0
1.544168054E1,3.411342210E0,-1.245169836E0,1.175217694E0,3.816915014E0
1.545162654E1,3.504507651E0,-1.229812708E0,8.668198997E-1,3.813841884E0
1.546157154E1,3.633991903E0,-1.142200953E0,6.115503448E-1,3.858045359E0
1.547151754E1,3.836400290E0,-1.014906483E0,4.965869223E-1,3.999325058E0
1.548146354E1,4.019666061E0,-8.689418542E-1,5.440750842E-1,4.148348212E0
1.549140854E1,4.147160506E0,-7.173270607E-1,6.367939442E-1,4.256642444E0
1.550135454E1,4.107930951E0,-6.526849222E-1,8.725209349E-1,4.249986716E0
1.551130054E1,4.014131672E0,-6.525188613E-1,1.093828107E0,4.211352974E0
1.552124554E1,3.872254831E0,-6.128876030E-1,1.136169696E0,4.081772932E0
1.553119154E1,3.940755547E0,-6.164345241E-1,1.184731261E0,4.160905426E0
1.554113754E1,3.998041304E0,-6.987112802E-1,1.415516623E0,4.298397263E0
1.555108254E1,3.943668630E0,-8.070332891E-1,1.816753292E0,4.416380590E0
1.556102854E1,3.681481819E0,-8.946491379E-1,2.378604058E0,4.473417344E0
1.557097354E1,3.066370520E0,-9.033872169E-1,2.996527283E0,4.381542239E0
1.558091954E1,2.193736149E0,-8.219512904E-1,3.399630822E0,4.128628337E0
1.559086554E1,1.123100438E0,-5.221341383E-1,3.338761307E0,3.561082099E0
1.560081054E1,3.525409108E-1,-2.282840699E-1,2.868453965E0,2.899038954E0
1.561075654E1,-1.268231839E-1,-3.041078389E-2,2.440201551E0,2.443684216E0
1.562070254E1,-4.364806151E-1,1.917302012E-2,2.030309980E0,2.076786351E0
1.563064754E1,-6.977523369E-1,8.140727520E-2,1.627591042E0,1.772720527E0
1.564059354E1,-9.940436178E-1,2.404503715E-1,1.455976432E0,1.779271330E0
1.565053954E1,-1.439377502E0,4.762118608E-1,1.534809909E0,2.157365705E0
1.566048454E1,-2.063799323E0,6.810485959E-1,1.722079123E0,2.772841745E0
1.567043054E1,-2.699868797E0,7.553655374E-1,1.896695109E0,3.384866460E0
1.568037654E1,-2.969657573E0,6.740003622E-1,1.978003712E0,3.631203833E0
1.569032154E1,-2.965366302E0,4.974156189E-1,2.137323528E0,3.689033947E0
1.570026754E1,-2.765710784E0,1.811660367E-1,2.140694302E0,3.502077864E0
1.571021354E1,-2.372092599E0,-2.670563722E-1,1.899244495E0,3.050454401E0
1.572015854E1,-2.260599060E0,-8.750942945E-1,1.376570805E0,2.787659469E0
1.573010454E1,-2.748249244E0,-1.563548974E0,8.624303949E-1,3.277399196E0
1.574005054E1,-3.485596586E0,-2.313733293E0,4.607436365E-1,4.208922667E0
1.574999554E1,-4.365444083E0,-2.839255309E0,3.930885740E-1,5.222354964E0
1.575994154E1,-4.766661894E0,-2.765192136E0,2.832133985E-1,5.517931043E0
1.576988754E1,-4.997299469E0,-1.435430632E0,7.467025951E-2,5.199907569E0
1.577983254E1,-4.788703558E0,5.004134864E-1,-5.608415365E-1,4.847333149E0
1.578977854E1,-4.426996552E0,1.941317112E0,-1.369095140E0,5.024085201E0
1.579972454E1,-4.021699723E0,2.791228618E0,-2.147201376E0,5.345605635E0
1.580966954E1,-3.378835199E0,3.127607825E0,-2.699344887E0,5.337126645E0
1.581961554E1,-2.627697199E0,3.184877209E0,-3.149136688E0,5.192812079E0
1.582956154E1,-2.003824432E0,3.013984730E0,-3.336632921E0,4.922655336E0
1.583950658E1,-1.416659900E0,2.615613928E0,-3.286936850E0,4.433093203E0
1.584945258E1,-8.172618234E-1,2.135946947E0,-3.093163047E0,3.846796574E0
1.585939858E1,-3.021490216E-1,1.681698398E0,-2.702265278E0,3.197130146E0
1.586934358E1,6.657756686E-2,1.241226473E0,-2.192776182E0,2.520583884E0
1.587928958E1,2.754944891E-1,9.972104698E-1,-1.639065764E0,1.938262756E0
1.588923558E1,3.788545507E-1,9.309901679E-1,-1.311242788E0,1.652159530E0
1.589918058E1,4.184828854E-1,9.490744364E-1,-1.313181725E0,1.673414609E0
1.590912658E1,3.438127720E-1,8.775267363E-1,-1.566573738E0,1.828226921E0
1.591907258E1,2.717727363E-2,7.681510592E-1,-1.815533563E0,1.971536652E0
1.592901758E1,-4.043250221E-1,7.178702670E-1,-1.897411100E0,2.068570842E0
1.593896358E1,-8.818408120E-1,7.916627133E-1,-1.878414520E0,2.220993962E0
1.594890958E1,-1.417365074E0,8.839440554E-1,-1.765166817E0,2.430245818E0
1.595885458E1,-1.800372902E0,9.688906503E-1,-1.606885613E0,2.600417861E0
1.596880058E1,-1.920579962E0,1.073603758E0,-1.542235288E0,2.686957778E0
1.597874658E1,-1.792915948E0,1.184734184E0,-1.536949697E0,2.642036536E0
1.598869158E1,-1.398743446E0,1.259650465E0,-1.454806550E0,2.379004965E0
1.599863758E1,-7.975935441E-1,1.181161535E0,-1.460143596E0,2.040420877E0
1.600858358E1,-1.641126323E-1,9.238360995E-1,-1.535872056E0,1.799808064E0
1.601852858E1,3.890421546E-1,5.382473105E-1,-1.431543695E0,1.578094204E0
1.602847458E1,1.049277002E0,1.924739671E-1,-1.420182263E0,1.776216798E0
1.603842058E1,1.470801609E0,-1.208268642E-2,-1.411357645E0,2.038463579E0
1.604836558E1,1.337906091E0,-8.119969904E-2,-1.281918124E0,1.854696789E0
1.605831158E1,9.275321245E-1,-8.773630142E-2,-1.141815621E0,1.473688031E0
1.606825658E1,1.937825739E-1,-1.025835514E-2,-1.036402017E0,1.054412662E0
1.607820258E1,-5.397266561E-1,1.778307849E-1,-1.009848203E0,1.158758838E0
1.608814858E1,-1.076710383E0,3.740650964E-1,-1.047976873E0,1.548381566E0
1.609809358E1,-1.359153703E0,4.423652530E-1,-1.156579256E0,1.838657495E0
1.610803958E1,-1.284104691E0,3.063034683E-1,-1.288022033E0,1.844382668E0
1.611798558E1,-1.220460672E0,5.766173244E-2,-1.300961190E0,1.784754646E0
1.612793058E1,-7.243478125E-1,-2.846295941E-1,-1.493411330E0,1.684034192E0
1.613787658E1,-4.216894984E-2,-6.212736797E-1,-1.732606743E0,1.841109809E0
1.614782258E1,7.182719707E-1,-7.033913916E-1,-1.712030975E0,1.985377580E0
1.615776758E1,1.279433350E0,-5.293402469E-1,-1.231990796E0,1.853362381E0
1.616771358E1,9.026785344E-1,-1.090341997E-1,-7.647471026E-2,9.124502038E-1
1.617765958E1,3.563527107E-2,5.074114341E-1,7.981157005E-1,9.464274443E-1
1.618760458E1,4.111241645E-1,1.246613513E0,1.375941060E0,1.901652473E0
1.619755058E1,1.001108224E0,1.611195011E0,1.977179693E0,2.739964704E0
1.620749658E1,1.417572650E0,1.475122701E0,2.372951116E0,3.133112861E0
1.621744158E1,1.456673566E0,1.229474739E0,2.840634082E0,3.420922098E0
1.622738758E1,6.413231975E-1,1.096096827E0,3.186645992E0,3.430369714E0
1.623733358E1,-3.606954378E-1,1.203543507E0,2.879097651E0,3.141308877E0
1.624727858E1,-1.596338990E0,1.561621732E0,2.379099902E0,3.262985894E0
1.625722458E1,-2.821535321E0,2.031723837E0,1.836054074E0,3.931928011E0
1.626717058E1,-3.993054798E0,2.223017251E0,9.833329806E-1,4.674744493E0
1.627711558E1,-5.364688214E0,2.197668986E0,1.595939040E-2,5.797403152E0
1.628706158E1,-6.636397392E0,2.014026069E0,-1.178108119E0,7.034629350E0
1.629700758E1,-7.517788553E0,1.708256451E0,-2.627057221E0,8.144735384E0
1.630695258E1,-7.485776217E0,1.150743735E0,-3.806583875E0,8.476505029E0
