"Time (s)","Linear Acceleration x (m/s^2)","Linear Acceleration y (m/s^2)","Linear Acceleration z (m/s^2)","Absolute acceleration (m/s^2)"
-1.696750056E-3,-1.659935646E0,-7.760810530E-1,-4.596847057E-2,1.832976064E0
8.247249760E-3,-1.500400214E0,-1.178634953E0,1.959115452E-1,1.918010034E0
1.819224982E-2,-1.237098924E0,-1.457117954E0,5.353459221E-1,1.984994140E0
2.813625010E-2,-9.301698035E-1,-1.494636029E0,9.822788738E-1,2.015942586E0
3.808125015E-2,-6.210894924E-1,-1.156334842E0,1.366770725E0,1.894973520E0
4.802524997E-2,-4.649992400E-1,-5.784007251E-1,1.631895908E0,1.792723054E0
5.796924978E-2,-4.887342578E-1,8.354677141E-2,1.649342976E0,1.722258253E0
6.791424984E-2,-6.219800234E-1,6.378978986E-1,1.482001804E0,1.729191206E0
7.785825012E-2,-9.123229319E-1,1.032506602E0,1.279525882E0,1.880316330E0
8.780224994E-2,-1.241081463E0,1.243442568E0,1.040227412E0,2.041691868E0
9.774724999E-2,-1.600356027E0,1.370364570E0,8.428813988E-1,2.269248228E0
1.076912498E-1,-1.920278830E0,1.428098808E0,6.232016529E-1,2.472916758E0
1.176352501E-1,-2.193434433E0,1.445614142E0,4.029292917E-1,2.657688257E0
1.275802501E-1,-2.414939826E0,1.405549021E0,2.127323766E-1,2.802277194E0
1.375242500E-1,-2.484708218E0,1.311400663E0,2.210642204E-2,2.809632595E0
1.474692500E-1,-2.375297458E0,1.223310020E0,-1.605222957E-1,2.676619664E0
1.574132498E-1,-2.012217525E0,1.179768729E0,-3.388736290E-1,2.357055145E0
1.673572501E-1,-1.478174363E0,1.152234775E0,-5.239460443E-1,1.946063689E0
1.773022497E-1,-9.228993756E-1,1.037149292E0,-7.389746225E-1,1.572738186E0
1.872462500E-1,-4.337932348E-1,8.503892237E-1,-8.775039321E-1,1.296669408E0
1.971902498E-1,-3.472953737E-2,6.516523039E-1,-9.146517317E-1,1.123585625E0
2.071352499E-1,3.183335298E-1,4.457794422E-1,-8.935282266E-1,1.048068814E0
2.170792501E-1,6.014761770E-1,3.525122595E-1,-7.427213721E-1,1.018662614E0
2.270242497E-1,7.579540998E-1,3.935924578E-1,-4.539229325E-1,9.671894689E-1
2.369682500E-1,7.794888103E-1,5.156220943E-1,-2.603882074E-2,9.349582716E-1
2.469122498E-1,8.110275221E-1,6.891943520E-1,3.222405662E-1,1.112022248E0
2.568572499E-1,8.639541793E-1,9.069668823E-1,6.233737803E-1,1.399142816E0
2.668012497E-1,1.026895614E0,1.147674531E0,7.566406690E-1,1.715860290E0
2.767452500E-1,1.314541787E0,1.457829561E0,7.280805288E-1,2.093654316E0
2.866902500E-1,1.624620218E0,1.686607136E0,5.629709463E-1,2.408520452E0
2.966342499E-1,1.920125048E0,1.902299227E0,4.425523639E-1,2.738882097E0
3.065782501E-1,2.224614125E0,2.080522944E0,3.650288093E-1,3.067691275E0
3.165232497E-1,2.574553610E0,2.219509506E0,2.454778075E-1,3.408050483E0
3.264672500E-1,2.717864773E0,2.192018822E0,2.469647545E-1,3.500389554E0
3.364122501E-1,2.520600767E0,2.183885930E0,1.862115260E-1,3.340278538E0
3.463562499E-1,2.335967331E0,2.312429364E0,-6.277300291E-2,3.287554317E0
3.563002497E-1,2.445026089E0,2.364215814E0,-4.491047537E-1,3.430650678E0
3.662452498E-1,2.535235178E0,2.305533743E0,-9.927432702E-1,3.567694276E0
3.761892500E-1,1.755558672E0,2.175961198E0,-1.327171773E0,3.094863212E0
3.861332498E-1,9.127877855E-1,1.818540786E0,-1.494120889E0,2.524414658E0
3.960782499E-1,1.206117452E0,1.563716204E0,-1.661292931E0,2.580663069E0
4.060222497E-1,1.498644880E0,1.471177585E0,-1.418412895E0,2.534205024E0
4.159662500E-1,1.562831520E0,1.760372685E0,-6.370114607E-1,2.438675450E0
4.259118750E-1,1.853552159E0,2.186283288E0,1.513803202E-1,2.870262396E0
4.358558748E-1,1.938129795E0,2.282840699E0,5.631067479E-1,3.047096645E0
4.458008748E-1,1.678487692E0,1.935424873E0,4.235430658E-1,2.596647665E0
4.557448751E-1,1.550203289E0,1.517365326E0,-2.002320528E-1,2.178444547E0
4.656888749E-1,1.399785420E0,1.290493943E0,-7.890420643E-1,2.060912715E0
4.756338750E-1,1.135250952E0,1.209183147E0,-1.066436241E0,1.971853154E0
4.855778748E-1,9.634176564E-1,1.357217690E0,-1.185008272E0,2.043149051E0
4.955218751E-1,6.864566857E-1,1.550932437E0,-1.164830116E0,2.057533330E0
5.054668752E-1,4.840705186E-1,1.648674493E0,-1.121667870E0,2.051972384E0
5.154108750E-1,2.458619696E-1,1.576214043E0,-1.058388718E0,1.914441301E0
5.253548748E-1,3.293970466E-2,1.179432514E0,-1.134688450E0,1.636967916E0
5.352998748E-1,-1.457102752E-1,5.011005342E-1,-1.184177018E0,1.294066628E0
5.452438751E-1,-3.243929994E-1,-1.775793546E-1,-1.071421138E0,1.133449823E0
5.551888747E-1,-2.343979186E-1,-8.464505392E-1,-1.000351156E0,1.331211228E0
5.651328750E-1,-2.456292504E-1,-1.191658457E0,-9.346312290E-1,1.534248722E0
5.750768748E-1,-4.554127300E-1,-1.136589380E0,-8.216973750E-1,1.474592401E0
5.850218749E-1,-6.627988511E-1,-1.020929700E0,-7.797273767E-1,1.445536078E0
5.949658751E-1,-1.034078334E0,-1.016085282E0,-8.619124047E-1,1.686606147E0
6.049098750E-1,-1.324822361E0,-1.230055953E0,-9.695975786E-1,2.051416925E0
6.148548750E-1,-1.353110021E0,-1.498393450E0,-1.028892512E0,2.265989731E0
6.247988748E-1,-1.572773541E0,-1.870505576E0,-9.066120294E-1,2.606597992E0
6.347428751E-1,-2.336200635E0,-2.768138548E0,-8.437883750E-1,3.719193898E0
6.446878747E-1,-3.400041296E0,-4.043208706E0,-8.403549631E-1,5.349206850E0
6.546318750E-1,-4.138628833E0,-4.710572478E0,-2.678749824E-1,6.276105377E0
6.645768750E-1,-4.385193053E0,-4.668801139E0,4.627223343E-1,6.421972762E0
6.745208749E-1,-4.395927372E0,-4.443202695E0,6.296193375E-1,6.281930289E0
6.844648751E-1,-4.246954350E0,-4.018113626E0,7.551684862E-1,5.895094385E0
6.944098747E-1,-4.069360963E0,-3.594226159E0,9.433020651E-1,5.510714936E0
7.043538750E-1,-3.974170046E0,-3.283381158E0,1.164642566E0,5.284979819E0
7.142978748E-1,-3.489008437E0,-2.875026820E0,1.336102810E0,4.714247533E0
7.242428749E-1,-2.801243729E0,-2.395283241E0,9.365811293E-1,3.802832161E0
7.341868747E-1,-1.858228762E0,-1.879989760E0,3.072682589E-1,2.661163169E0
7.441308750E-1,-1.134856265E0,-1.169255435E0,2.680104916E-1,1.651328749E0
7.540758750E-1,-3.749497801E-1,-3.166676581E-1,5.024500716E-1,7.023687192E-1
7.640198749E-1,3.779821461E-1,3.547090584E-1,3.495098604E-1,6.251769041E-1
7.739648749E-1,9.161370707E-1,7.391781056E-1,6.229272723E-2,1.178800996E0
7.839088747E-1,1.158085499E0,9.189489967E-1,-1.101235360E-1,1.482483212E0
7.938528750E-1,1.318262955E0,8.501132351E-1,-2.097678383E-1,1.582565094E0
8.037978751E-1,1.177074332E0,5.248460770E-1,-7.857678428E-2,1.291178414E0
8.137418749E-1,7.286273897E-1,-3.388870776E-2,2.771375567E-1,7.802893968E-1
8.236858747E-1,3.311009252E-1,-7.756629771E-1,8.633799827E-1,1.206940707E0
8.336308748E-1,1.403214812E-1,-1.480156569E0,1.513485698E0,2.121601410E0
8.435748750E-1,-2.004536623E-1,-2.115561799E0,1.992118745E0,2.912785693E0
8.535198751E-1,-6.506261176E-1,-2.607659960E0,2.226140249E0,3.489828824E0
8.634638749E-1,-1.173919759E0,-2.858461073E0,2.377787641E0,3.899071860E0
8.734078747E-1,-1.573259445E0,-2.552210814E0,2.357088497E0,3.813763431E0
8.833528748E-1,-1.840128121E0,-1.876942776E0,2.150447457E0,3.396087448E0
8.932968751E-1,-1.909319978E0,-7.135275400E-1,1.790570484E0,2.713073347E0
9.032408749E-1,-1.431770275E0,5.031581694E-1,1.365377480E0,2.041418606E0
9.131858749E-1,-5.005497265E-1,1.338356912E0,9.709820531E-1,1.727586582E0
9.231298747E-1,1.140803468E-1,1.850655448E0,5.117358886E-1,1.923489936E0
9.330738750E-1,5.536079460E-1,1.894081550E0,2.539333199E-1,1.989600162E0
9.430188751E-1,1.051297215E0,1.502325118E0,4.024740860E-2,1.834073730E0
9.529628749E-1,1.590391202E0,9.477991587E-1,-1.907063538E-1,1.861192181E0
9.629078750E-1,1.892290547E0,4.660774666E-1,-4.021289541E-1,1.989899348E0
9.728518748E-1,1.922235893E0,-6.975728273E-4,-5.991630185E-1,2.013451673E0
9.827958751E-1,1.864024522E0,-3.647288471E-1,-7.697692761E-1,2.049429016E0
9.927408751E-1,1.936322420E0,-5.475449681E-1,-7.823862518E-1,2.158999364E0
1.002684875E0,2.038493743E0,-5.164325184E-1,-6.297240758E-1,2.195156418E0
1.012628875E0,2.180617921E0,-1.907899690E-1,-3.788071883E-1,2.221483787E0
1.022573875E0,2.247919373E0,4.192342526E-1,-6.685545579E-2,2.287655682E0
1.032517875E0,2.346426830E0,1.064270432E0,2.828385919E-1,2.591985357E0
1.042461875E0,2.451466797E0,1.590929731E0,6.603937452E-1,2.996141980E0
1.052406875E0,2.563347421E0,2.088256472E0,9.137981844E-1,3.430246670E0
1.062350875E0,2.579385749E0,2.552555800E0,1.051480817E0,3.778145559E0
1.072295875E0,2.631673306E0,2.967236241E0,1.051190357E0,4.103071589E0
1.082239875E0,2.736292858E0,3.273472466E0,8.527250402E-1,4.350868946E0
1.092183875E0,2.794346938E0,3.485573198E0,4.173251367E-1,4.486842497E0
1.102128875E0,2.796861241E0,3.538612706E0,-1.016129136E-1,4.511600367E0
1.112072875E0,2.625020928E0,3.586356391E0,-5.239286488E-1,4.475174664E0
1.122016875E0,2.516532274E0,3.607621545E0,-8.977243347E-1,4.489295811E0
1.131961875E0,2.490910360E0,3.538734328E0,-1.291531824E0,4.516118855E0
1.141905875E0,2.308204751E0,3.403661892E0,-1.473618066E0,4.368555099E0
1.151850875E0,2.006684305E0,3.127142386E0,-1.386565304E0,3.965900244E0
1.161794875E0,1.663510049E0,2.735102364E0,-1.054236756E0,3.370380656E0
1.171738875E0,1.384393795E0,2.306212020E0,-6.036055867E-1,2.756719022E0
1.181683875E0,1.213145220E0,1.836799886E0,-2.972050546E-1,2.221235240E0
1.191627875E0,9.516074502E-1,1.287988411E0,-8.888337895E-2,1.603861322E0
1.201571875E0,4.987628174E-1,7.979759520E-1,8.474720478E-2,9.448344070E-1
1.211516875E0,-1.970225161E-1,4.053009224E-1,2.509342830E-1,5.158049282E-1
1.221460875E0,-8.116309547E-1,2.238489568E-1,2.663158223E-1,8.830499869E-1
1.231405875E0,-1.161055884E0,1.909145147E-1,1.544773711E-1,1.186744445E0
1.241349875E0,-1.081529658E0,1.560428900E-1,-1.199048314E-1,1.099287476E0
1.251293875E0,-3.928931308E-1,-4.673094749E-3,-5.231141317E-1,6.542440254E-1
1.261238875E0,4.194377357E-1,-2.370104545E-1,-7.961534480E-1,9.305709443E-1
1.271182875E0,1.103005312E0,-5.469140536E-1,-8.236345576E-1,1.481252708E0
1.281126875E0,1.836585878E0,-9.575575769E-1,-9.305574739E-1,2.270661008E0
1.291071875E0,2.389465261E0,-1.263723051E0,-9.496297757E-1,2.865019528E0
1.301015875E0,2.693886511E0,-1.524703581E0,-6.790079176E-1,3.169037282E0
1.310959875E0,2.555991624E0,-1.713266346E0,7.813568495E-2,3.078064317E0
1.320904875E0,1.932947992E0,-1.948310382E0,1.103507588E0,2.958028107E0
1.330848875E0,1.120545790E0,-2.180792168E0,1.823272353E0,3.055454045E0
1.340793875E0,5.363188988E-1,-2.499059039E0,1.788339771E0,3.119470016E0
1.350737875E0,-7.904266119E-3,-2.702124653E0,1.149717548E0,2.936561009E0
1.360681875E0,-5.218663359E-1,-2.799117097E0,4.775255840E-1,2.887114767E0
1.370626875E0,-9.054723340E-1,-2.788813133E0,3.699635670E-2,2.932358704E0
1.380570875E0,-1.138777993E0,-2.683595411E0,-5.081815124E-3,2.915223057E0
1.390514875E0,-1.216463515E0,-2.631052916E0,2.427471578E-1,2.908805444E0
1.400459875E0,-1.161059393E0,-2.795695306E0,5.690567283E-1,3.080226732E0
1.410403875E0,-9.587182492E-1,-3.313873803E0,7.263655405E-1,3.525408794E0
1.420348875E0,-1.125634621E0,-3.975863984E0,9.705255318E-1,4.244580960E0
1.430292750E0,-1.681703076E0,-4.661033113E0,1.141928473E0,5.085012837E0
1.440236750E0,-2.588486356E0,-5.246818287E0,1.057526253E0,5.945395321E0
1.450181750E0,-3.541865512E0,-5.448058400E0,9.430516581E-1,6.566239263E0
1.460125750E0,-4.273998892E0,-5.399288528E0,7.309937578E-1,6.924863538E0
1.470069750E0,-5.076567248E0,-5.029747422E0,4.787631471E-1,7.162339583E0
1.480014750E0,-5.526612818E0,-4.191230385E0,3.021800119E-1,6.942706543E0
1.489958750E0,-5.737748174E0,-2.912605121E0,4.872033106E-1,6.453091489E0
1.499902750E0,-4.974442118E0,-1.832844830E0,5.044982050E-1,5.325308723E0
1.509847750E0,-4.066470099E0,-1.073622469E0,2.812263684E-1,4.215202551E0
1.519791750E0,-3.335353550E0,-4.979974169E-1,1.397075236E-1,3.375218944E0
1.529736750E0,-2.446346390E0,5.164787114E-2,1.478760839E-1,2.451355849E0
1.539680750E0,-1.421247625E0,5.545598727E-1,2.279355758E-1,1.542542088E0
1.549624750E0,-4.668738574E-1,9.321379763E-1,2.891051991E-1,1.081866083E0
1.559569750E0,3.009842563E-1,1.289936703E0,3.652890104E-1,1.374032126E0
1.569513750E0,7.529664248E-1,1.625364568E0,3.109547822E-1,1.818092763E0
1.579457750E0,8.856672299E-1,1.922458087E0,1.256239200E-1,2.120385085E0
1.589402750E0,7.748852974E-1,2.089957427E0,-1.891644430E-1,2.236996302E0
1.599346750E0,5.397997463E-1,2.205913560E0,-5.155250305E-1,2.328777460E0
1.609290750E0,6.617177010E-2,2.288298490E0,-6.795780212E-1,2.387993922E0
1.619235750E0,-4.205674177E-1,2.376645241E0,-6.696968114E-1,2.504758147E0
1.629179750E0,-7.336396229E-1,2.356046085E0,-6.557985646E-1,2.553282594E0
1.639124750E0,-9.203967673E-1,2.279494337E0,-7.221014585E-1,2.562158301E0
1.649068750E0,-1.039629096E0,2.158438262E0,-7.843653882E-1,2.520895367E0
1.659012750E0,-1.008125467E0,2.022641941E0,-7.855395091E-1,2.392586404E0
1.668957750E0,-9.399013245E-1,1.823422626E0,-8.000885510E-1,2.201914227E0
1.678901750E0,-8.429784626E-1,1.582591601E0,-7.775970899E-1,1.954447773E0
1.688845750E0,-6.626018000E-1,1.337477490E0,-7.861932278E-1,1.687005327E0
1.698790750E0,-5.823815095E-1,1.145210515E0,-7.099205388E-1,1.467876874E0
1.708734750E0,-4.595285851E-1,1.022704330E0,-4.785234113E-1,1.219046891E0
1.718679750E0,-3.595143002E-1,9.458298165E-1,-3.817880988E-2,1.012572069E0
1.728623750E0,-2.172527128E-1,9.592912763E-1,4.366915534E-1,1.076168206E0
1.738567750E0,2.187981319E-1,1.079540436E0,7.296418816E-1,1.321233306E0
1.748512750E0,7.502001071E-1,1.188499791E0,8.094657308E-1,1.621902193E0
1.758456750E0,1.018393763E0,1.311954394E0,7.599099203E-1,1.826420892E0
1.768400750E0,1.153025318E0,1.394239921E0,7.024488205E-1,1.940826290E0
1.778345750E0,1.394655073E0,1.456414534E0,4.374782963E-1,2.063393644E0
1.788289750E0,1.713414865E0,1.486830581E0,-2.257266439E-2,2.268692399E0
1.798233750E0,1.595194690E0,1.595299940E0,-2.638971946E-1,2.271402590E0
1.808178750E0,1.046266270E0,1.616652802E0,-9.925363518E-2,1.928235119E0
1.818122750E0,6.816783410E-1,1.514083868E0,8.451273143E-2,1.662611717E0
1.828067750E0,8.043295366E-1,1.454591373E0,-1.343682848E-1,1.667584151E0
1.838011750E0,1.013836443E0,1.622401199E0,-6.900936538E-1,2.033784461E0
1.847955750E0,8.538653934E-1,1.495350559E0,-1.370821822E0,2.200979753E0
1.857900750E0,7.393102527E-1,9.732860023E-1,-1.934870118E0,2.288577651E0
1.867844750E0,7.143748015E-1,4.940838754E-1,-1.709746322E0,1.917728531E0
1.877788750E0,9.510472870E-1,2.855329889E-1,-9.061143583E-1,1.344270531E0
1.887733750E0,1.430935877E0,3.366686440E-1,-2.798594356E-2,1.470274285E0
1.897677750E0,1.816673185E0,7.322234273E-1,3.625178687E-1,1.991951760E0
1.907622750E0,2.007782412E0,1.165724886E0,2.723105340E-1,2.337575186E0
1.917566750E0,2.201062710E0,1.765622900E0,-7.856085062E-2,2.822812974E0
1.927510750E0,2.295986409E0,2.386030607E0,-3.697960442E-1,3.331883065E0
1.937455750E0,2.451601868E0,2.815040234E0,-5.154186112E-1,3.768349716E0
1.947399750E0,2.500468803E0,3.092035119E0,-8.320512591E-1,4.062675807E0
1.957343750E0,2.393723788E0,3.164171634E0,-1.180859965E0,4.139604566E0
1.967288750E0,2.109964845E0,3.084132022E0,-1.490199162E0,4.022998324E0
1.977232750E0,1.715622774E0,2.772138628E0,-1.824582714E0,3.735935781E0
1.987177750E0,1.265816354E0,2.304808103E0,-1.994451345E0,3.300343559E0
1.997121750E0,9.105418700E-1,1.744534916E0,-1.942129290E0,2.764842627E0
2.007065750E0,7.949143499E-1,1.155093479E0,-1.843124819E0,2.315866764E0
2.017010750E0,6.338668281E-1,7.236186647E-1,-1.705115327E0,1.957761325E0
2.026954750E0,4.760931623E-1,5.319796801E-1,-1.482372664E0,1.645325437E0
2.036898750E0,2.649116135E-1,5.048562008E-1,-1.206782353E0,1.334684080E0
2.046843750E0,1.812098908E-1,4.687718636E-1,-1.140631706E0,1.246444854E0
2.056787750E0,-7.942916214E-2,3.946028566E-1,-1.064074112E0,1.137661690E0
2.066731750E0,-1.235575140E-1,1.624584550E-1,-8.346900344E-1,8.592826440E-1
2.076676750E0,-1.064485610E-1,-1.866179806E-1,-6.666890037E-1,7.004511364E-1
2.086620750E0,-4.362052113E-1,-5.927813673E-1,-5.384649731E-1,9.119261281E-1
2.096565750E0,-1.167517642E0,-1.139729919E0,-4.477728311E-1,1.691916736E0
2.106509750E0,-2.167385087E0,-1.496641039E0,-1.290229064E-1,2.637070235E0
2.116453750E0,-3.000667112E0,-1.503885739E0,3.768185502E-1,3.377523894E0
2.126398750E0,-4.047505825E0,-1.922924695E0,5.280591220E-1,4.512071500E0
2.136342750E0,-5.373304671E0,-2.927171119E0,7.355528319E-1,6.162935325E0
2.146286750E0,-6.184140404E0,-3.917387150E0,1.123730768E0,7.406232879E0
2.156231750E0,-5.757486035E0,-4.389402464E0,7.967028670E-1,7.283559219E0
2.166175750E0,-4.470720862E0,-4.370681434E0,5.279465631E-2,6.252438604E0
2.176120750E0,-2.974670976E0,-3.792152655E0,-1.564131649E-1,4.822193925E0
2.186064750E0,-2.104491266E0,-3.088426217E0,-3.845433068E-1,3.757011252E0
2.196008750E0,-1.628799807E0,-2.606178861E0,-5.164835353E-1,3.116394120E0
2.205953750E0,-1.261567183E0,-2.221430901E0,-1.188779873E-1,2.557428197E0
2.215897750E0,-9.433254540E-1,-1.634873310E0,2.382319379E-1,1.902479464E0
2.225841750E0,-7.524162018E-1,-8.330580765E-1,4.907209955E-1,1.225121625E0
2.235786750E0,-7.441020459E-1,-1.283183169E-1,6.192123900E-1,9.765128925E-1
2.245730750E0,-8.166899657E-1,2.158452880E-1,4.843177097E-1,9.737224103E-1
2.255675750E0,-1.057256112E0,2.510244763E-1,6.284258477E-1,1.255277985E0
2.265619750E0,-1.286838264E0,1.457348335E-1,8.805092548E-1,1.566042115E0
2.275563750E0,-1.445919952E0,-1.552634561E-1,1.323198005E0,1.966124159E0
2.285508750E0,-1.391198199E0,-5.614391220E-1,1.836719195E0,2.371536151E0
2.295452750E0,-1.251408230E0,-1.001943206E0,2.244728694E0,2.758390773E0
2.305396750E0,-8.567053860E-1,-1.318385746E0,2.414766894E0,2.881524639E0
2.315341750E0,-3.469895643E-1,-1.558899268E0,2.601517460E0,3.052615564E0
2.325285750E0,1.899842227E-1,-1.673852604E0,2.660466165E0,3.148961219E0
2.335229750E0,3.665561020E-1,-1.699787344E0,2.391901650E0,2.957166531E0
2.345174750E0,3.736335719E-1,-1.686216542E0,1.933400567E0,2.592482598E0
2.355118750E0,3.406669700E-1,-1.574725342E0,1.553197063E0,2.237908623E0
2.365063750E0,2.857914358E-1,-1.602234153E0,1.336654495E0,2.106057042E0
2.375007750E0,4.166690791E-1,-1.583485056E0,1.229879805E0,2.047838465E0
2.384951750E0,6.506927758E-1,-1.493426825E0,1.124729034E0,1.979580806E0
2.394896750E0,8.648517269E-1,-1.380314192E0,8.145172866E-1,1.821173849E0
2.404840750E0,8.929967147E-1,-1.275978815E0,5.168465012E-1,1.640943440E0
2.414784750E0,8.206450224E-1,-1.170124331E0,3.514352024E-1,1.471786637E0
2.424730000E0,6.989586174E-1,-1.101555787E0,2.237957472E-1,1.323651328E0
2.434674000E0,5.535939127E-1,-1.064611325E0,1.275171022E-1,1.206699674E0
2.444619000E0,4.787343496E-1,-1.072257144E0,-8.912472278E-3,1.174308900E0
2.454563000E0,4.531644756E-1,-1.086160069E0,-2.293522100E-1,1.199043024E0
2.464507000E0,5.223750436E-1,-8.630922997E-1,-4.342556034E-1,1.098354193E0
2.474452000E0,6.594448882E-1,-3.035634631E-1,-5.452499360E-1,9.079184046E-1
2.484396000E0,8.394099069E-1,4.229109818E-1,-4.386043239E-1,1.037225358E0
2.494340000E0,1.077677513E0,1.083928186E0,-2.019354929E-1,1.541774003E0
2.504285000E0,1.279056789E0,1.680043051E0,-5.689808607E-2,2.112289828E0
2.514229000E0,1.555543551E0,2.199590966E0,1.412919728E-1,2.697754544E0
2.524174000E0,1.794818047E0,2.531311111E0,2.949750727E-1,3.117036743E0
2.534118000E0,1.879131389E0,2.780021260E0,4.535743654E-1,3.386057100E0
2.544062000E0,1.887520389E0,2.964934777E0,6.251215862E-1,3.569922751E0
2.554007000E0,1.939583997E0,3.102057247E0,6.688002871E-1,3.719144938E0
2.563951000E0,2.116447653E0,3.249362642E0,5.808647418E-1,3.921111079E0
2.573895000E0,2.353066344E0,3.396517180E0,3.812014769E-1,4.149525845E0
2.583840000E0,2.476497558E0,3.430553237E0,1.413481061E-1,4.233404653E0
2.593784000E0,2.560092276E0,3.401828790E0,-1.980622973E-1,4.262128606E0
2.603728000E0,2.630406214E0,3.361352609E0,-5.021156108E-1,4.297656141E0
2.613673000E0,2.475713446E0,3.227819746E0,-7.622442019E-1,4.138718836E0
2.623617000E0,2.283396184E0,3.081482064E0,-9.645017302E-1,3.954705227E0
2.633562000E0,2.101665891E0,3.000940177E0,-1.113900429E0,3.829283958E0
2.643506000E0,2.017050249E0,2.920631009E0,-1.205395467E0,3.748540440E0
2.653450000E0,1.900512902E0,2.773435541E0,-1.189376435E0,3.566302047E0
2.663395000E0,1.641611642E0,2.505079333E0,-1.105568147E0,3.192583933E0
2.673339000E0,1.429737198E0,2.240034987E0,-1.026876172E0,2.848926091E0
2.683283000E0,1.167826375E0,2.078696859E0,-8.986294837E-1,2.548005892E0
2.693228000E0,1.071244991E0,1.896015224E0,-8.168914023E-1,2.325887169E0
2.703172000E0,1.187477698E0,1.619064778E0,-8.924922462E-1,2.197274777E0
2.713117000E0,1.415474669E0,1.386005872E0,-9.404967172E-1,2.192969423E0
2.723061000E0,1.331489941E0,9.299090177E-1,-8.872668819E-1,1.850631991E0
2.733005000E0,1.141736099E0,3.063286114E-1,-8.293657060E-1,1.444038092E0
2.742950000E0,8.739920944E-1,-3.849204522E-1,-6.881314744E-1,1.177094245E0
2.752894000E0,6.309069675E-1,-1.036785010E0,-4.136184405E-1,1.282203951E0
2.762838000E0,5.116991973E-1,-1.544160191E0,-6.026081979E-2,1.627850771E0
2.772783000E0,5.112665033E-1,-1.851246017E0,1.485167925E-1,1.926282038E0
2.782727000E0,6.173630619E-1,-2.041172352E0,1.710485995E-1,2.139340867E0
2.792672000E0,6.538128501E-1,-2.078078223E0,3.522713542E-2,2.178788952E0
2.802616000E0,5.499411571E-1,-2.032345980E0,-1.087903708E-1,2.108245907E0
2.812560000E0,3.224803752E-1,-1.938525651E0,-1.214573403E-1,1.968915229E0
2.822505000E0,8.377247393E-2,-1.864498147E0,-2.468635976E-2,1.866542414E0
2.832449000E0,-2.076457375E-1,-1.887429172E0,1.911546890E-1,1.908414459E0
2.842393000E0,-4.143681997E-1,-2.148026125E0,3.242712311E-1,2.211530934E0
2.852338000E0,-6.856801754E-1,-2.453949525E0,4.258706962E-1,2.583290813E0
2.862282000E0,-8.616351736E-1,-2.694254301E0,5.533857518E-1,2.882300678E0
2.872226000E0,-9.546450788E-1,-2.960625964E0,6.116060396E-1,3.170286308E0
2.882171000E0,-1.246635148E0,-3.273167827E0,7.421117999E-1,3.580287242E0
2.892115000E0,-1.729466642E0,-3.554390248E0,9.302442093E-1,4.060800314E0
2.902060000E0,-2.186898415E0,-3.802337335E0,1.117746727E0,4.526549639E0
2.912004000E0,-2.718407394E0,-3.982094777E0,1.333906450E0,5.002611717E0
2.921948000E0,-3.418878686E0,-4.044102160E0,1.539218125E0,5.514769822E0
2.931893000E0,-4.176966687E0,-3.816808609E0,1.589664393E0,5.877253742E0
2.941837000E0,-5.059836025E0,-3.203229280E0,1.593987093E0,6.197048755E0
2.951781000E0,-5.681161160E0,-2.361164153E0,1.486274218E0,6.329273207E0
2.961726000E0,-5.566860958E0,-1.518405545E0,1.058273381E0,5.866467325E0
2.971670000E0,-5.102120749E0,-8.833838922E-1,5.104247966E-1,5.203127590E0
2.981615000E0,-4.449713570E0,-5.302284390E-1,1.379942894E-3,4.481193474E0
2.991559000E0,-3.504004206E0,-2.990540904E-1,-3.506908518E-1,3.534184899E0
3.001503000E0,-2.589176912E0,-2.199845320E-1,-5.483660634E-1,2.655736360E0
3.011448000E0,-1.732913575E0,-1.597073400E-1,-5.636376750E-1,1.829257588E0
3.021392000E0,-7.247600412E-1,-5.415340304E-2,-4.036350507E-1,8.313428670E-1
3.031336000E0,2.105061954E-1,5.946033597E-2,-6.364226460E-2,2.278129226E-1
3.041281000E0,9.105868936E-1,1.217489702E-1,3.146491992E-1,9.710795132E-1
3.051225000E0,1.250546350E0,3.489267468E-2,6.417471206E-1,1.406030953E0
3.061170000E0,1.159001173E0,3.466463327E-2,1.002706853E0,1.532940438E0
3.071114000E0,7.941583049E-1,1.545027333E-1,1.324323009E0,1.551898818E0
3.081058000E0,4.994019181E-1,3.005655956E-1,1.486176277E0,1.596390266E0
3.091003000E0,1.858613509E-1,5.006660861E-1,1.540823039E0,1.630750321E0
3.100947000E0,-9.146507084E-2,7.657788438E-1,1.468067304E0,1.658313814E0
3.110891000E0,-3.324019307E-1,1.012636594E0,1.305587215E0,1.685372923E0
3.120836000E0,-5.909810096E-1,1.209804706E0,1.083275052E0,1.728111923E0
3.130780000E0,-8.827009374E-1,1.255964381E0,7.829297505E-1,1.723248811E0
3.140725000E0,-1.260905278E0,1.243803341E0,3.973456393E-1,1.815161819E0
3.150669000E0,-1.488627430E0,1.170686249E0,-3.104535297E-2,1.894064870E0
3.160613000E0,-1.514227125E0,1.040229605E0,-3.189990892E-1,1.864596963E0
3.170558000E0,-1.255634013E0,9.009249544E-1,-4.601140375E-1,1.612447666E0
3.180502000E0,-8.607744634E-1,7.794841325E-1,-4.565950370E-1,1.247800953E0
3.190446000E0,-3.921973121E-1,6.131752861E-1,-5.069382481E-1,8.870113023E-1
3.200391000E0,4.134039938E-2,5.341513360E-1,-5.717688131E-1,7.835472251E-1
3.210335000E0,2.411988151E-1,5.344331717E-1,-7.011062998E-1,9.139724980E-1
3.220280000E0,6.588800472E-1,5.771570224E-1,-9.428242014E-1,1.286915156E0
3.230224000E0,1.364755921E0,5.854729325E-1,-1.151648738E0,1.879263710E0
3.240168000E0,1.871345236E0,6.754574883E-1,-1.326141347E0,2.390988642E0
3.250113000E0,2.082464805E0,8.010398930E-1,-1.251231644E0,2.558105784E0
3.260057000E0,2.190433642E0,9.836560392E-1,-1.055872661E0,2.623060392E0
3.270001000E0,2.417851739E0,1.170081062E0,-8.288703007E-1,2.811071450E0
3.279946000E0,2.577697658E0,1.311331081E0,-5.999578013E-1,2.953652617E0
3.289890000E0,2.676017420E0,1.442607504E0,-5.497581393E-1,3.089404417E0
3.299834000E0,2.714671023E0,1.689814918E0,-5.018473698E-1,3.236782972E0
3.309779000E0,2.591441538E0,1.897880486E0,-3.353860572E-1,3.229551578E0
3.319723000E0,2.791470108E0,1.933954298E0,-2.954639000E-1,3.408780355E0
3.329668000E0,2.954823772E0,1.963333048E0,-2.853400308E-1,3.559084027E0
3.339612000E0,3.046994601E0,2.153431292E0,-1.457131988E-1,3.733989122E0
3.349556000E0,3.175731579E0,2.160813401E0,-6.327169731E-2,3.841664864E0
3.359501000E0,3.011459903E0,1.834506024E0,-6.739442289E-2,3.526874693E0
3.369445000E0,2.833071293E0,1.708837665E0,-3.830313630E-1,3.330635396E0
3.379389000E0,2.470160345E0,1.770604727E0,-6.275964202E-1,3.103322494E0
3.389334000E0,2.313587113E0,2.067028740E0,-6.121954389E-1,3.162289740E0
3.399278000E0,2.261594256E0,2.557661589E0,-6.025908025E-1,3.466923284E0
3.409223000E0,2.139766349E0,3.021247557E0,-7.898063685E-1,3.785542356E0
3.419167000E0,2.011319978E0,3.236523326E0,-1.197831436E0,3.994407521E0
3.429110000E0,1.722518395E0,2.889850681E0,-1.570534642E0,3.712800243E0
3.439055000E0,1.285065973E0,2.114861888E0,-1.710169368E0,3.008108147E0
3.448999000E0,8.744943702E-1,1.218419994E0,-1.624420243E0,2.210888692E0
3.458943000E0,4.763983870E-1,4.324723488E-1,-1.445618382E0,1.582340122E0
3.468888000E0,4.615499675E-2,-2.734158039E-2,-1.163346970E0,1.164583195E0
3.478832000E0,-3.223347795E-1,-9.431617320E-2,-8.421013802E-1,9.066035436E-1
3.488777000E0,-3.578501827E-1,-7.835853696E-3,-6.881512088E-1,7.756740552E-1
3.498721000E0,-5.490208054E-1,2.438505274E-1,-4.753002068E-1,7.660268996E-1
3.508665000E0,-8.220436764E-1,7.271474594E-1,-3.771313032E-1,1.160485783E0
3.518610000E0,-1.275815678E0,1.351949349E0,-3.868020131E-1,1.898707056E0
3.528554000E0,-1.647594513E0,1.033929815E0,-7.680499023E-1,2.091286492E0
3.538498000E0,-1.764459304E0,1.653914183E-1,-1.191155012E0,2.135303542E0
3.548443000E0,-1.620038339E0,-5.436483836E-1,-1.514657480E0,2.283476531E0
3.558387000E0,-1.479776500E0,-1.227872602E0,-1.712241329E0,2.574719399E0
3.568332000E0,-1.533726420E0,-1.840530410E0,-1.695273879E0,2.934931421E0
3.578276000E0,-1.785858943E0,-2.167894964E0,-1.509926498E0,3.188877353E0
3.588220000E0,-2.411668893E0,-2.398588087E0,-1.299272368E0,3.641082304E0
3.598165000E0,-3.373204331E0,-2.689428009E0,-8.710141806E-1,4.401158504E0
3.608109000E0,-4.337018428E0,-3.011197363E0,1.934023587E-1,5.283412049E0
3.618053000E0,-5.315405542E0,-3.547337337E0,1.304630172E0,6.522208072E0
3.627998000E0,-5.746463449E0,-3.975335981E0,1.809007047E0,7.217869826E0
3.637942000E0,-5.460450404E0,-3.816899825E0,1.802672758E0,6.901802081E0
3.647887000E0,-4.593780193E0,-3.492426719E0,1.746265254E0,6.029038330E0
3.657831000E0,-3.390483438E0,-2.731593450E0,1.903179232E0,4.751744091E0
3.667775000E0,-2.295640839E0,-1.826370208E0,1.579754386E0,3.331849174E0
3.677720000E0,-1.384877944E0,-1.126678349E0,9.517622553E-1,2.023151604E0
3.687664000E0,-4.944043028E-1,-4.869754153E-1,4.665475827E-1,8.362100913E-1
3.697608000E0,2.900470394E-1,1.049873418E-1,7.067105636E-2,3.164554079E-1
3.707553000E0,8.914752692E-1,6.081016570E-1,-1.150870912E-1,1.085246893E0
3.717497000E0,1.238442029E0,1.030592224E0,-2.468472254E-1,1.629967038E0
3.727442000E0,1.301255744E0,1.155923783E0,-3.007929061E-1,1.766324623E0
3.737386000E0,1.141657746E0,9.779550040E-1,-1.715644701E-1,1.513014464E0
3.747330000E0,8.239650714E-1,6.701534790E-1,1.366979617E-1,1.070845674E0
3.757275000E0,3.689154536E-1,3.795111930E-1,6.758401886E-1,8.584214105E-1
3.767219000E0,-1.519784904E-1,1.057808089E-1,1.395044498E0,1.407279714E0
3.777163000E0,-7.516151333E-1,-1.584817636E-1,2.026996363E0,2.167661420E0
3.787108000E0,-1.101780905E0,-4.083981925E-1,2.268542356E0,2.554798362E0
3.797052000E0,-1.484192317E0,-5.525320584E-1,2.437073145E0,2.906448696E0
3.806997000E0,-1.819183980E0,-5.765430647E-1,2.568384213E0,3.199754635E0
3.816941000E0,-1.667656894E0,-4.875156981E-1,2.544158906E0,3.080827099E0
3.826885000E0,-1.018390839E0,-2.598379844E-1,2.087052822E0,2.336755264E0
3.836830000E0,-3.669671613E-1,1.220430851E-2,1.424693097E0,1.471245820E0
3.846774000E0,1.610247177E-1,2.667926627E-1,8.629484582E-1,9.174896872E-1
3.856718000E0,6.004108143E-1,3.019613260E-1,6.101850200E-1,9.077442079E-1
3.866663000E0,1.069658056E0,5.433232784E-2,2.573903400E-1,1.101530820E0
3.876607000E0,1.477584379E0,-2.947622341E-1,-1.416711648E-1,1.513344339E0
3.886552000E0,1.851055983E0,-6.204480529E-1,-5.204171035E-1,2.020445000E0
3.896496000E0,1.926427177E0,-8.596670008E-1,-7.269004145E-1,2.231262699E0
3.906440000E0,1.851617315E0,-9.891617775E-1,-8.025258167E-1,2.247437517E0
3.916385000E0,1.820223615E0,-1.010764900E0,-7.486659439E-1,2.212546132E0
3.926329000E0,1.776048485E0,-9.727585834E-1,-5.899766041E-1,2.109189388E0
3.936273000E0,1.747330470E0,-8.124203289E-1,-4.479110447E-1,1.978336389E0
3.946218000E0,1.636418145E0,-4.520295310E-1,-3.908670706E-1,1.742117134E0
3.956162000E0,1.730377053E0,2.103032970E-1,-4.680631810E-1,1.804858821E0
3.966107000E0,2.062519952E0,9.589264101E-1,-5.388039654E-1,2.337485428E0
3.976051000E0,2.415444440E0,1.543997054E0,-4.835455848E-1,2.907252153E0
3.985995000E0,2.650108407E0,2.014762233E0,-1.861180437E-1,3.334213753E0
3.995940000E0,2.928597840E0,2.371811932E0,1.517223823E-1,3.771630527E0
4.005884000E0,3.299284415E0,2.583872318E0,6.161696452E-1,4.235721761E0
4.015828000E0,3.472220496E0,2.754297019E0,8.075648010E-1,4.504955954E0
4.025773000E0,3.521864526E0,2.718956448E0,7.492774165E-1,4.511947534E0
4.035717000E0,3.298112633E0,2.506958628E0,6.560318685E-1,4.194373173E0
4.045662000E0,2.695799135E0,2.253104684E0,6.112831271E-1,3.566157702E0
4.055606000E0,2.018075266E0,2.012038600E0,6.020642607E-1,2.912629136E0
4.065550000E0,1.431671457E0,1.784232248E0,4.987153088E-1,2.341342528E0
4.075495000E0,7.632481688E-1,1.633960560E0,3.785073723E-1,1.842726976E0
4.085439000E0,3.150245905E-2,1.521924984E0,1.613040684E-1,1.530773355E0
4.095383000E0,-5.499201071E-1,1.398947514E0,-2.472302181E-1,1.523347975E0
4.105328000E0,-9.846407104E-1,1.403111901E0,-7.582330120E-1,1.874341921E0
4.115272000E0,-1.164585848E0,1.448081083E0,-1.207957717E0,2.216384639E0
4.125217000E0,-1.136889927E0,1.359374143E0,-1.565094978E0,2.364305195E0
4.135161000E0,-9.095414114E-1,1.224589391E0,-1.821016643E0,2.375497078E0
4.145105000E0,-5.675003457E-1,1.137245438E0,-1.754957578E0,2.166854847E0
4.155050000E0,-1.257432032E-1,1.001662540E0,-1.398125396E0,1.724498135E0
4.164994000E0,3.234247005E-1,7.509590757E-1,-8.847796226E-1,1.204731526E0
4.174938000E0,8.503664196E-1,5.249314463E-1,-4.182261926E-1,1.083323229E0
4.184883000E0,1.260808799E0,2.204037774E-1,-1.280087069E-2,1.279992388E0
4.194827000E0,1.570949795E0,-1.166548759E-1,3.218487297E-1,1.607817845E0
4.204772000E0,1.999511526E0,-4.720363641E-1,4.407284711E-1,2.101215423E0
4.214716000E0,2.179184768E0,-6.188728130E-1,5.115598874E-1,2.322400338E0
4.224660000E0,2.001127111E0,-8.280300558E-1,6.658199613E-1,2.265713951E0
4.234605000E0,1.844695382E0,-1.126672502E0,7.606560981E-1,2.291481983E0
4.244549000E0,1.503453630E0,-1.369724300E0,8.825565112E-1,2.217075432E0
4.254493000E0,1.049306238E0,-1.572712730E0,8.354297072E-1,2.066981303E0
4.264438000E0,6.669158757E-1,-1.690946939E0,5.901091897E-1,1.911101042E0
4.274382000E0,2.217457134E-1,-1.678647321E0,2.763242090E-1,1.715629056E0
4.284327000E0,-1.998952532E-1,-1.762950137E0,-4.703734159E-2,1.774870083E0
4.294271000E0,-4.515980065E-1,-2.210570868E0,-4.214341213E-1,2.295249668E0
4.304215000E0,-7.672248602E-1,-2.971688311E0,-6.494999439E-1,3.137103056E0
4.314160000E0,-1.224422160E0,-3.917276638E0,-6.457033467E-1,4.154659877E0
4.324104000E0,-1.842614357E0,-4.888313801E0,-3.530607283E-1,5.235980459E0
4.334048000E0,-2.592767102E0,-5.793248191E0,2.198358665E-1,6.350786853E0
4.343993000E0,-3.434193129E0,-6.576940565E0,9.712557028E-1,7.482858229E0
4.353937000E0,-4.253618422E0,-6.981546838E0,1.657585942E0,8.341633958E0
4.363882000E0,-4.651475839E0,-6.956574549E0,1.992993488E0,8.602451975E0
4.373826000E0,-4.912605473E0,-6.362761733E0,2.109409213E0,8.310718178E0
4.383770000E0,-5.217547710E0,-4.871541063E0,2.095740762E0,7.439546073E0
4.393715000E0,-5.292495566E0,-2.979216017E0,1.833994392E0,6.344270866E0
4.403659000E0,-5.022254800E0,-1.474364317E0,1.246372462E0,5.380542513E0
4.413603000E0,-4.542346330E0,-4.530592257E-1,5.817248672E-1,4.601801458E0
4.423548000E0,-3.714752476E0,2.545462543E-1,7.451691628E-3,3.723470865E0
4.433492000E0,-2.773040269E0,7.618699801E-1,-3.684962082E-1,2.899308134E0
4.443437000E0,-1.784260315E0,1.046848068E0,-4.908965582E-1,2.126136209E0
4.453381000E0,-8.744926161E-1,1.335920961E0,-4.136375901E-1,1.649399347E0
4.463325000E0,-1.584607136E-1,1.565117197E0,-2.805938458E-1,1.597946978E0
4.473270000E0,3.848169565E-1,1.718929374E0,-2.425050831E-1,1.778091955E0
4.483214000E0,7.372362453E-1,1.792334150E0,-2.456175560E-1,1.953537041E0
4.493158000E0,9.388885868E-1,1.785179497E0,-2.696139443E-1,2.034961743E0
4.503103000E0,9.518530333E-1,1.643748799E0,-3.152643263E-1,1.925441743E0
4.513047000E0,8.068952948E-1,1.487151008E0,-2.834022635E-1,1.715521781E0
4.522992000E0,6.248065674E-1,1.374796175E0,-2.296616739E-1,1.527479052E0
4.532936000E0,4.499853444E-1,1.311328742E0,-2.893898124E-1,1.416268457E0
4.542880000E0,3.321388060E-1,1.329900668E0,-3.896118195E-1,1.425043629E0
4.552825000E0,2.970958579E-1,1.389520048E0,-5.124792159E-1,1.510518739E0
4.562769000E0,2.985295951E-1,1.432490652E0,-6.847206473E-1,1.615546889E0
4.572713000E0,1.822407550E-1,1.404273743E0,-7.762952073E-1,1.614877917E0
4.582658000E0,-1.319535309E-1,1.335353197E0,-7.406197366E-1,1.532676577E0
4.592602000E0,-4.008178622E-1,1.205887656E0,-6.127643730E-1,1.410779988E0
4.602547000E0,-4.197353590E-1,1.067862961E0,-4.167240429E-1,1.220724377E0
4.612491000E0,-4.489749455E-1,9.888267320E-1,-1.541738275E-1,1.096871176E0
4.622435000E0,-6.961127776E-1,9.132269114E-1,6.803498536E-2,1.150297853E0
4.632380000E0,-8.476252449E-1,7.909978849E-1,1.452068299E-2,1.159464126E0
4.642324000E0,-7.366404140E-1,7.501322794E-1,-2.686626023E-1,1.085134614E0
4.652268000E0,-6.025105494E-1,7.131644279E-1,-6.497867498E-1,1.137473201E0
4.662213000E0,-3.958699483E-1,5.877539313E-1,-1.147051949E0,1.348293690E0
4.672157000E0,-1.752697045E-1,3.242029649E-1,-1.625919615E0,1.667165747E0
4.682102000E0,1.898982686E-1,-4.111937463E-2,-1.817023141E0,1.827382076E0
4.692046000E0,6.656786048E-1,-2.369543213E-1,-1.655151454E0,1.799667106E0
4.701990000E0,1.188919036E0,-1.414739674E-1,-1.163299753E0,1.669374037E0
4.711935000E0,1.209441594E0,7.372169495E-2,-2.575949925E-1,1.238765126E0
4.721879000E0,1.116498932E0,5.277112126E-2,7.369245887E-1,1.338810108E0
4.731823000E0,1.267849431E0,-4.821660805E-1,1.319925903E0,1.892651764E0
4.741768000E0,1.556584355E0,-9.378910518E-1,1.000642785E0,2.074579587E0
4.751712000E0,1.445707698E0,-3.952858114E-1,1.116853273E-1,1.502928885E0
4.761657000E0,1.726122619E0,6.063469076E-1,-5.410797018E-1,1.907858252E0
4.771601000E0,2.047031263E0,2.064107471E0,-4.174011505E-1,2.936852118E0
4.781545000E0,2.489187770E0,3.041807536E0,-6.274360603E-1,3.980241808E0
4.791490000E0,2.844566334E0,3.394721500E0,-1.037066846E0,4.548757999E0
4.801434000E0,3.029097444E0,3.771901993E0,-1.444059952E0,5.048562678E0
4.811378000E0,2.994535137E0,3.911874395E0,-1.802422497E0,5.245829661E0
4.821323000E0,2.615543761E0,3.549590853E0,-1.960162688E0,4.825235969E0
4.831267000E0,2.270678490E0,2.663651728E0,-1.788079716E0,3.930426237E0
4.841212000E0,2.098330055E0,1.859518073E0,-1.551635418E0,3.204429583E0
4.851156000E0,1.981865798E0,1.314045358E0,-1.401345750E0,2.760122671E0
4.861100000E0,1.800343081E0,9.392967224E-1,-1.227935314E0,2.373044180E0
4.871045000E0,1.429420279E0,7.590656555E-1,-1.205980627E0,2.018368716E0
4.880989000E0,9.669365108E-1,9.302113187E-1,-9.910024810E-1,1.668036340E0
4.890934000E0,6.069257820E-1,1.197629634E0,-8.982191554E-1,1.615386423E0
4.900878000E0,3.453049815E-1,1.231083893E0,-1.144020752E0,1.715688365E0
4.910822000E0,2.756166959E-1,1.131433890E0,-1.389262771E0,1.812776395E0
4.920767000E0,2.044093037E-1,9.131310171E-1,-1.482382604E0,1.753011581E0
4.930711000E0,1.776033282E-2,3.196316117E-1,-1.439207641E0,1.474380693E0
4.940655000E0,-4.871116555E-1,-5.082914400E-1,-1.057623902E0,1.270514176E0
4.950600000E0,-1.232644515E0,-1.249105012E0,-5.417620718E-1,1.836622436E0
4.960544000E0,-1.560644077E0,-1.221424878E0,-3.137484357E-1,2.006471218E0
4.970489000E0,-1.503175887E0,-7.835970640E-1,-6.135555013E-1,1.802779094E0
4.980433000E0,-1.977718953E0,-1.078801932E0,-1.047615223E0,2.484488583E0
4.990377000E0,-2.849690834E0,-1.893212653E0,-1.220312153E0,3.632375772E0
5.000322000E0,-3.524485833E0,-2.543394383E0,-8.366228315E-1,4.426148793E0
5.010266000E0,-3.681554325E0,-2.822529348E0,4.965864837E-2,4.639286599E0
5.020210000E0,-3.302173524E0,-2.485251424E0,1.057925034E0,4.266149318E0
5.030155000E0,-2.765089225E0,-1.790513912E0,1.736000759E0,3.723621507E0
5.040099000E0,-2.254594554E0,-1.135901747E0,1.864930110E0,3.138699364E0
5.050044000E0,-1.739485261E0,-6.599986196E-1,1.834511140E0,2.612821898E0
5.059988000E0,-1.341538966E0,-4.756774253E-1,1.638484405E0,2.170397879E0
5.069932000E0,-1.040310296E0,-4.749728358E-1,1.284161116E0,1.719568109E0
5.079877000E0,-8.511809367E-1,-6.373722339E-1,1.036041098E0,1.484632449E0
5.089821000E0,-8.478199571E-1,-8.575468004E-1,1.000466784E0,1.566881929E0
5.099765000E0,-8.273716593E-1,-9.433944511E-1,9.287471759E-1,1.561124040E0
5.109710000E0,-8.301900172E-1,-9.414455742E-1,9.589971614E-1,1.579623623E0
5.119654000E0,-7.272848690E-1,-7.294296277E-1,1.033022912E0,1.458817054E0
5.129599000E0,-4.549560624E-1,-2.853037781E-1,1.131505664E0,1.252472887E0
5.139543000E0,-1.253403300E-1,1.383217335E-1,1.204532710E0,1.218910231E0
5.149487000E0,1.916366458E-1,4.395837325E-1,1.250231624E0,1.339043530E0
5.159432000E0,2.809160274E-1,6.356116372E-1,1.374458060E0,1.540146397E0
5.169376000E0,1.589951491E-1,7.114517784E-1,1.551657491E0,1.714375706E0
5.179320000E0,-7.556766093E-2,6.375874114E-1,1.698531947E0,1.815830101E0
5.189265000E0,-3.417200536E-1,4.600285220E-1,1.803255579E0,1.892123020E0
5.199209000E0,-6.002149326E-1,2.253207010E-1,1.961180981E0,2.063312439E0
5.209154000E0,-6.080355835E-1,2.752284408E-2,1.987853347E0,2.078948221E0
5.219098000E0,-4.760434610E-1,-3.729231352E-1,1.820879672E0,1.918669284E0
5.229042000E0,-3.679921782E-1,-7.993079478E-1,1.634973005E0,1.856730505E0
5.238987000E0,-1.259174502E-1,-1.235542980E0,1.562494136E0,1.995948292E0
5.248931000E0,1.957641953E-1,-1.753496944E0,1.505269483E0,2.319248018E0
5.258875000E0,4.765498298E-1,-2.349127659E0,1.415188594E0,2.783569517E0
5.268820000E0,6.139184672E-1,-2.707939124E0,1.263836925E0,3.050756293E0
5.278764000E0,6.922144389E-1,-2.775954521E0,1.051294291E0,3.048000003E0
5.288709000E0,6.731367284E-1,-2.728842920E0,7.984387591E-1,2.921848933E0
5.298653000E0,4.698606151E-1,-2.596926227E0,5.577077213E-1,2.697375155E0
5.308597000E0,2.798167509E-1,-2.303193687E0,2.160451166E-1,2.330166103E0
5.318542000E0,2.115803289E-1,-1.701828607E0,-2.149886709E-1,1.728353833E0
5.328486000E0,2.438212913E-1,-7.703566289E-1,-6.620371051E-1,1.044601018E0
5.338430000E0,4.605413228E-1,2.427839953E-1,-9.187936069E-1,1.056041699E0
5.348375000E0,6.527170819E-1,1.142378123E0,-8.849316502E-1,1.585613885E0
5.358319000E0,8.922658128E-1,1.796079876E0,-7.266943002E-1,2.133102391E0
5.368264000E0,1.250829940E0,2.271917515E0,-4.217244355E-1,2.627553279E0
5.378208000E0,1.455362036E0,2.661197652E0,-2.702694172E-1,3.045176046E0
5.388152000E0,1.731223730E0,2.840838150E0,-5.367451608E-2,3.327217749E0
5.398097000E0,1.999745414E0,2.869021729E0,1.510876670E-1,3.500442099E0
5.408041000E0,2.245897406E0,2.810772352E0,3.523442982E-1,3.615057797E0
5.417985000E0,2.501086854E0,2.666771218E0,4.653986049E-1,3.685607146E0
5.427930375E0,2.641425292E0,2.580022511E0,4.933969738E-1,3.725195874E0
5.437874375E0,2.704891555E0,2.553825231E0,4.971133178E-1,3.753076509E0
5.447819375E0,2.739978942E0,2.640631825E0,4.347340518E-1,3.830067197E0
5.457763375E0,2.616909086E0,2.743653333E0,3.152735357E-1,3.804634565E0
5.467707375E0,2.380416110E0,2.776867856E0,1.236713885E-1,3.659599782E0
5.477652375E0,2.326628158E0,2.885375222E0,-1.499267024E-1,3.709591187E0
5.487596375E0,2.493550377E0,2.951528281E0,-4.503293069E-1,3.890001178E0
5.497541375E0,2.462754847E0,2.768653688E0,-7.305008376E-1,3.776802371E0
5.507485375E0,2.270087922E0,2.609548611E0,-9.093215561E-1,3.576298200E0
5.517429375E0,1.953463533E0,2.447095419E0,-9.221743208E-1,3.264153985E0
5.527374375E0,1.568306853E0,2.206880690E0,-8.168205048E-1,2.827915222E0
5.537318375E0,1.211654765E0,1.950834040E0,-7.434174831E-1,2.413820680E0
5.547262375E0,8.963968706E-1,1.564179888E0,-8.568626761E-1,1.996096120E0
5.557207375E0,6.845306128E-1,1.158661450E0,-1.108328763E0,1.743407916E0
5.567151375E0,5.438401723E-1,7.343097138E-1,-1.274556187E0,1.568268588E0
5.577096375E0,4.064551628E-1,2.729731697E-1,-1.268759258E0,1.359952280E0
5.587040375E0,2.922298050E-1,-9.161183596E-2,-1.028381392E0,1.073014107E0
5.596984375E0,2.157318521E-1,-3.665549326E-1,-6.375032115E-1,7.663635529E-1
5.606929375E0,1.590752560E-1,-4.252627319E-1,-2.072319008E-1,4.990975746E-1
5.616873375E0,9.306545377E-2,-4.963900173E-1,5.731089950E-2,5.082802053E-1
5.626817375E0,1.755965638E-1,-6.940416938E-1,-3.798015073E-2,7.169173717E-1
5.636762375E0,4.496649170E-1,-9.123825735E-1,-3.841386795E-1,1.087291600E0
5.646706375E0,6.117643529E-1,-1.165040762E0,-7.528326698E-1,1.516025273E0
5.656651375E0,6.544443494E-1,-1.537507229E0,-9.987455101E-1,1.946719929E0
5.666595375E0,6.184272552E-1,-2.007374861E0,-1.030417977E0,2.339608367E0
5.676539375E0,3.438496095E-1,-2.436996108E0,-6.798974253E-1,2.553320014E0
5.686484375E0,1.562960744E-3,-2.807365179E0,-9.570620254E-2,2.808996506E0
5.696428375E0,-2.537001622E-1,-3.157054403E0,4.214292973E-1,3.195146151E0
5.706372375E0,-3.772804803E-1,-3.466688445E0,6.966562763E-1,3.556065143E0
5.716317375E0,-5.248887616E-1,-3.782849734E0,6.675472288E-1,3.876993633E0
5.726261375E0,-7.736258072E-1,-4.210500469E0,4.179537123E-1,4.301336583E0
5.736206375E0,-1.224974722E0,-4.630890132E0,2.054710118E-1,4.794572433E0
5.746150375E0,-1.832827873E0,-4.990930097E0,1.919639437E-1,5.320290537E0
5.756094375E0,-2.313479524E0,-5.248584731E0,3.009675917E-1,5.743727942E0
5.766039375E0,-2.925238030E0,-5.377670787E0,5.606143722E-1,6.147409950E0
5.775983375E0,-3.667378335E0,-5.309990435E0,8.316453892E-1,6.506711637E0
5.785928375E0,-4.218605295E0,-5.020268501E0,1.046739602E0,6.640435999E0
5.795872375E0,-4.479660670E0,-4.528687819E0,1.131996246E0,6.469759545E0
5.805816375E0,-4.525621539E0,-3.858406870E0,1.120586135E0,6.051798673E0
5.815761375E0,-4.096410182E0,-3.001811997E0,9.251920688E-1,5.162115071E0
5.825705375E0,-3.862760122E0,-2.245219713E0,6.693649819E-1,4.517740232E0
5.835649375E0,-3.555103024E0,-1.680896160E0,4.056083398E-1,3.953313488E0
5.845594375E0,-2.939073127E0,-1.037290794E0,1.699456684E-1,3.121378632E0
5.855538375E0,-2.294016482E0,-2.558373195E-1,1.463707182E-1,2.312874563E0
5.865483375E0,-1.610689811E0,5.337315059E-1,2.660265313E-1,1.717545080E0
5.875427375E0,-1.079625805E0,1.129392627E0,3.955774413E-1,1.611707510E0
5.885371375E0,-7.036071539E-1,1.572537898E0,5.112265961E-1,1.797022844E0
5.895316375E0,-4.730695671E-1,1.893372867E0,6.200584821E-1,2.047712907E0
5.905260375E0,-3.160922921E-1,2.052328840E0,7.414310378E-1,2.204923579E0
5.915204375E0,-2.780497223E-1,2.092281695E0,8.939118040E-1,2.292167675E0
5.925149375E0,-2.635632455E-1,2.009954068E0,9.358918887E-1,2.232772843E0
5.935093375E0,-3.332597172E-1,1.826899381E0,8.482336476E-1,2.041598322E0
5.945038375E0,-5.220142704E-1,1.600722647E0,6.630470654E-1,1.809542291E0
5.954982375E0,-7.466034847E-1,1.412038261E0,3.424144104E-1,1.633559439E0
5.964926375E0,-9.121597946E-1,1.218470280E0,-2.931267679E-2,1.522354934E0
5.974871375E0,-1.083446960E0,9.406830972E-1,-3.878104386E-1,1.486317241E0
5.984815375E0,-1.177935627E0,5.725090706E-1,-7.228374767E-1,1.495925464E0
5.994759375E0,-1.126484222E0,1.644915318E-1,-9.372341171E-1,1.474595523E0
6.004704375E0,-1.063651797E0,-1.458944625E-1,-1.119292293E0,1.550953118E0
6.014648375E0,-9.368449849E-1,-3.237650084E-1,-1.220833724E0,1.572557563E0
6.024593375E0,-7.837847596E-1,-2.757272083E-1,-1.142879522E0,1.412981828E0
6.034537375E0,-4.548537362E-1,-3.282860756E-2,-1.056601224E0,1.150815270E0
6.044481375E0,5.029891849E-2,3.338871235E-1,-1.050779736E0,1.103697715E0
6.054426375E0,2.963094074E-1,7.642649996E-1,-9.451278582E-1,1.251066314E0
6.064370375E0,4.155651248E-1,1.118985752E0,-7.090802939E-1,1.388386960E0
6.074314375E0,9.340394908E-1,1.363715116E0,-6.075960191E-1,1.761056959E0
6.084259375E0,1.417315373E0,1.546784422E0,-3.901522484E-1,2.133903393E0
6.094203375E0,1.637051398E0,1.870207953E0,-1.872942111E-1,2.492527671E0
6.104148375E0,1.842156520E0,2.184042050E0,-4.290979207E-2,2.857520179E0
6.114092375E0,2.076954973E0,2.392899331E0,2.026140623E-1,3.175021516E0
6.124036375E0,2.372260998E0,2.252974876E0,2.751600283E-1,3.283173933E0
6.133981375E0,2.200254040E0,1.878972929E0,2.108089350E-1,2.901051106E0
6.143925375E0,1.942041582E0,1.020901634E0,-6.162965298E-3,2.194038202E0
6.153869375E0,1.787121357E0,-1.457979834E-1,-4.298592281E-1,1.843865167E0
6.163814375E0,1.965608785E0,-4.513635331E-1,-9.547649467E-1,2.231350048E0
6.173758375E0,2.146040411E0,-9.220591307E-2,-1.180014896E0,2.450801202E0
6.183703375E0,2.288672712E0,5.348553407E-1,-9.838782334E-1,2.547961812E0
6.193647375E0,2.587349072E0,1.311692439E0,-1.001410671E0,3.068832939E0
6.203591375E0,2.993877910E0,2.158845229E0,-1.313066096E0,3.917660045E0
6.213536375E0,3.432365874E0,3.172648927E0,-1.736248827E0,4.986120405E0
6.223480375E0,3.921894768E0,4.340715623E0,-2.461321110E0,6.346745016E0
6.233425375E0,4.081871665E0,4.761347360E0,-2.824954188E0,6.878406148E0
6.243369375E0,3.837541666E0,4.208555685E0,-2.810360123E0,6.351125177E0
6.253313375E0,3.447728848E0,2.940275899E0,-2.473439756E0,5.162360003E0
6.263258375E0,2.972956572E0,1.504278672E0,-1.967260623E0,3.869294440E0
6.273202375E0,2.525032371E0,2.655343419E-1,-1.579885071E0,2.990373522E0
6.283146375E0,2.070937019E0,-5.289122307E-1,-1.336648940E0,2.520944004E0
6.293091375E0,1.509494973E0,-7.781147146E-1,-1.204710027E0,2.082153653E0
6.303035375E0,8.936416626E-1,-5.558942074E-1,-1.246522881E0,1.631389924E0
6.312980375E0,4.935775065E-1,-1.651253700E-3,-1.419202854E0,1.502583849E0
6.322924375E0,3.982409942E-1,6.278623223E-1,-1.666677778E0,1.824999124E0
6.332868375E0,2.325285637E-1,7.701829666E-1,-1.936973362E0,2.097407242E0
6.342813375E0,-3.513048095E-1,1.073636502E-1,-1.972216869E0,2.006135938E0
6.352757375E0,-1.244493313E0,-1.079112419E0,-1.640412085E0,2.324693319E0
6.362701375E0,-2.223024852E0,-2.031598706E0,-1.299033217E0,3.279743907E0
6.372646375E0,-3.066852915E0,-2.155593592E0,-1.115849891E0,3.911175209E0
6.382590375E0,-4.136470041E0,-2.101142566E0,-1.220870854E0,4.797469138E0
6.392535375E0,-5.145150994E0,-2.418213097E0,-1.151803250E0,5.800602043E0
6.402479375E0,-5.922232506E0,-3.028622650E0,-5.552723560E-1,6.674857332E0
6.412423375E0,-6.340666859E0,-4.100408508E0,3.295508283E-1,7.558175038E0
6.422368375E0,-6.512997168E0,-4.985754726E0,1.198947888E0,8.289412424E0
6.432312042E0,-5.581552672E0,-4.800417286E0,2.209111695E0,7.686215637E0
6.442256042E0,-4.309834138E0,-3.270237787E0,2.743631113E0,6.066023175E0
6.452201041E0,-3.582244629E0,-1.033229903E0,2.244122483E0,4.351565964E0
6.462145042E0,-3.176477684E0,3.082739800E-1,1.462252687E0,3.510445305E0
6.472090042E0,-1.992048140E0,2.820533109E-1,6.205009702E-1,2.105429010E0
6.482034042E0,-6.517078525E-1,-3.222336227E-1,-4.214873309E-1,8.403625424E-1
6.491978041E0,4.066989917E-1,-2.658413208E-1,-1.009114378E0,1.119994422E0
6.501923041E0,1.033707036E0,3.682915556E-1,-1.062639059E0,1.527544001E0
6.511867042E0,1.371731064E0,1.083290840E0,-9.144682753E-1,1.972667580E0
6.521812042E0,1.452203954E0,1.606161143E0,-7.470373482E-1,2.290570833E0
6.531756042E0,1.285821433E0,1.902636611E0,-6.212760186E-1,2.378938150E0
6.541700041E0,8.716257262E-1,2.020211838E0,-4.105587387E-1,2.238201456E0
6.551645041E0,1.149708778E-1,1.760801870E0,3.068148074E-1,1.791026760E0
6.561589042E0,-8.055586213E-1,1.320568512E0,1.323281035E0,2.035656795E0
6.571533042E0,-1.796511986E0,9.434055609E-1,1.949930353E0,2.814195755E0
6.581478042E0,-2.738335875E0,4.747675985E-1,2.222466151E0,3.558545128E0
6.591422041E0,-3.375201155E0,-1.304139590E-1,2.476346115E0,4.188231216E0
6.601367041E0,-3.251772864E0,-5.837480038E-1,2.911470176E0,4.403572082E0
6.611311042E0,-2.076545668E0,-8.509628356E-1,2.942152563E0,3.700329899E0
6.621255042E0,-1.028926352E0,-8.661901546E-1,2.244668906E0,2.616775366E0
6.631200042E0,-5.129335445E-1,-7.491136944E-1,1.839309804E0,2.051178369E0
6.641144041E0,-1.740102142E-1,-8.494899219E-1,1.558938737E0,1.783872940E0
6.651088042E0,9.754032791E-2,-9.984056407E-1,1.267197759E0,1.616204844E0
6.661033042E0,8.634407938E-2,-1.437339748E0,9.421972337E-1,1.720795304E0
6.670977042E0,-1.229342008E-1,-1.908537621E0,6.466008943E-1,2.018841595E0
6.680922042E0,-1.162566805E-1,-2.191137062E0,3.532127559E-1,2.222466308E0
6.690866041E0,1.629186308E-1,-2.233400152E0,1.450951481E-1,2.244030151E0
6.700810042E0,4.205212247E-1,-1.922743431E0,-1.703293920E-2,1.968265867E0
6.710755042E0,6.439550292E-1,-1.383188683E0,-3.811449051E-1,1.572628517E0
6.720699042E0,9.576751059E-1,-7.063629466E-1,-1.177179289E0,1.673870156E0
6.730644042E0,1.417680824E0,1.837353033E-1,-1.777731606E0,2.281207409E0
6.740588041E0,1.928649704E0,9.722411048E-1,-1.970513721E0,2.923673506E0
6.750532042E0,2.310191050E0,1.633399227E0,-1.690230947E0,3.295733056E0
6.760477041E0,2.823914554E0,2.238412385E0,-9.904850024E-1,3.737117064E0
6.770421042E0,3.480560380E0,2.977154288E0,-6.801223969E-1,4.630368742E0
6.780365041E0,3.800165679E0,3.320621490E0,1.339244811E-1,5.048338542E0
6.790310042E0,4.026898482E0,3.325030290E0,9.779256217E-1,5.313010102E0
6.800254042E0,3.945937350E0,3.400825408E0,1.729239185E0,5.488743315E0
6.810199041E0,3.702261654E0,3.438936975E0,2.306111448E0,5.554383754E0
6.820143042E0,3.452262779E0,3.540417157E0,2.420070465E0,5.505398532E0
6.830087041E0,3.316367640E0,3.625511101E0,2.189594566E0,5.379307524E0
6.840032042E0,2.929324649E0,3.681099411E0,1.720935408E0,5.009296802E0
6.849976042E0,2.376923568E0,3.656894277E0,1.018098040E0,4.478745921E0
6.859921041E0,1.684538975E0,3.607549624E0,2.843727551E-1,3.991610416E0
6.869865042E0,9.964579332E-1,3.519531487E0,-5.410359938E-1,3.697668218E0
6.879809042E0,2.228689635E-1,3.334381742E0,-1.303177431E0,3.586926762E0
6.889754042E0,-5.523999113E-1,2.928921191E0,-1.901917988E0,3.535677734E0
6.899698041E0,-6.687536556E-1,2.664082668E0,-2.511675869E0,3.721973077E0
6.909642042E0,1.767116278E-1,2.650932865E0,-2.872637063E0,3.912890970E0
6.919587042E0,1.041304323E0,2.315314381E0,-2.728610786E0,3.726970914E0
6.929531042E0,1.580349194E0,1.710349170E0,-2.336679522E0,3.298919375E0
6.939475042E0,2.222583387E0,1.185116007E0,-1.806827059E0,3.099838848E0
6.949420041E0,2.818937988E0,6.652640373E-1,-1.504807261E0,3.263959637E0
6.959364042E0,2.950437775E0,3.412932068E-1,-1.125816616E0,3.176322901E0
6.969309042E0,2.816952859E0,2.132590646E-1,-8.877063002E-1,2.961203355E0
6.979253042E0,2.610132163E0,4.215433180E-2,-7.827727528E-1,2.725307337E0
6.989197041E0,2.480654343E0,-2.019482106E-1,-8.911568883E-1,2.643594078E0
6.999142041E0,2.337789908E0,-5.404809469E-1,-1.033287790E0,2.612482529E0
7.009086042E0,2.175225618E0,-8.645850939E-1,-1.050157154E0,2.565529950E0
7.019031042E0,1.963452331E0,-1.154807550E0,-9.317985454E-1,2.461092047E0
7.028975042E0,1.627979443E0,-1.542279727E0,-8.448130265E-1,2.396383290E0
7.038919041E0,1.188524934E0,-2.205860935E0,-1.020202599E0,2.705407054E0
7.048864041E0,4.500151652E-1,-3.039124249E0,-1.585436271E0,3.457224034E0
7.058808042E0,-5.822294819E-1,-3.852860202E0,-2.218744690E0,4.484010582E0
7.068753042E0,-1.849622245E0,-4.574365098E0,-2.824813271E0,5.685550854E0
7.078697042E0,-3.230397198E0,-5.321684867E0,-3.543579623E0,7.163292010E0
7.088641041E0,-4.296810635E0,-5.890071065E0,-3.941240866E0,8.287876589E0
7.098586041E0,-4.971563534E0,-5.935070652E0,-3.534310910E0,8.510749745E0
7.108530042E0,-5.569224987E0,-5.936704949E0,-2.498054488E0,8.514752423E0
7.118474042E0,-6.007265639E0,-6.034081555E0,-1.741907178E0,8.690893009E0
7.128419042E0,-6.147343876E0,-6.047477526E0,-1.489856223E0,8.751085231E0
7.138363041E0,-5.806992656E0,-5.841416384E0,-1.308605694E0,8.340009469E0
7.148307042E0,-5.202818574E0,-5.260683789E0,-5.717917635E-1,7.420987863E0
7.158252042E0,-4.258674510E0,-4.325987071E0,9.504935557E-1,6.144421105E0
7.168196042E0,-3.517856260E0,-3.048095047E0,3.102277687E0,5.593775373E0
7.178141042E0,-3.272142225E0,-2.078965246E0,4.411264619E0,5.872671178E0
7.188085041E0,-3.504640383E0,-1.567118114E0,4.006823237E0,5.549143704E0
7.198029042E0,-4.031769213E0,-9.058114725E-1,2.661925045E0,4.915435114E0
7.207974042E0,-4.006663608E0,2.022125047E-1,1.650709763E0,4.338097035E0
7.217918042E0,-3.331442932E0,1.000994203E0,1.319465142E0,3.720415254E0
7.227863042E0,-2.433384283E0,1.340251994E0,1.401810019E0,3.111704646E0
7.237807041E0,-1.620586808E0,1.483736234E0,1.475105598E0,2.646452596E0
7.247751042E0,-8.355893362E-1,1.590281274E0,1.464304183E0,2.317626115E0
7.257696041E0,-1.011995155E-1,1.693785762E0,1.532010408E0,2.286089990E0
7.267640042E0,4.984365427E-1,1.793217664E0,1.576089790E0,2.438878350E0
7.277584041E0,9.093893838E-1,1.922616547E0,1.701818082E0,2.723899452E0
7.287529042E0,1.041986108E0,2.134257687E0,1.914837996E0,3.050802431E0
7.297473042E0,7.130773044E-1,2.362440600E0,2.180918468E0,3.293328133E0
7.307418041E0,6.762714207E-2,2.460938702E0,2.414198252E0,3.448064084E0
7.317362042E0,-5.764945328E-1,2.534518309E0,2.448308423E0,3.570762264E0
7.327306041E0,-9.526213574E-1,2.715338191E0,2.216007901E0,3.631974664E0
7.337251042E0,-1.235019654E0,2.837630952E0,1.699854587E0,3.530853804E0
7.347195041E0,-1.477891942E0,2.885958774E0,1.100249519E0,3.423955555E0
7.357140041E0,-1.735122069E0,2.917571161E0,4.083391356E-1,3.419007300E0
7.367084042E0,-1.954359326E0,2.938761470E0,-4.383189797E-1,3.556397459E0
7.377028042E0,-2.307786675E0,2.891492579E0,-1.461645746E0,3.977815601E0
7.386973042E0,-2.552377460E0,2.718707356E0,-2.414515902E0,4.442509137E0
7.396917041E0,-2.657076534E0,2.356142564E0,-2.875589029E0,4.569515921E0
7.406861042E0,-2.343484511E0,1.685360509E0,-2.810487300E0,4.028796168E0
7.416806042E0,-1.686312436E0,1.003211467E0,-2.495420902E0,3.174461900E0
7.426750500E0,-8.866086316E-1,5.469397813E-1,-2.165621859E0,2.403151270E0
7.436695500E0,-4.629532993E-2,2.821778566E-1,-1.905163485E0,1.926503440E0
7.446639500E0,5.451476097E-1,2.355433881E-1,-1.500680296E0,1.613910764E0
7.456583500E0,9.774188143E-1,3.996495885E-1,-9.321572721E-1,1.408539851E0
7.466528500E0,1.317316875E0,7.298085272E-1,-2.534991641E-1,1.527156201E0
7.476472500E0,1.488629184E0,1.091376954E0,4.602089086E-1,1.902344013E0
7.486417500E0,1.529217632E0,1.379362850E0,1.031321079E0,2.303208980E0
7.496361500E0,1.429180543E0,1.714093727E0,1.523722711E0,2.702296288E0
7.506305500E0,1.185515372E0,2.040292931E0,1.872437350E0,3.012351834E0
7.516250500E0,9.314860117E-1,2.293249912E0,1.970304099E0,3.163662370E0
7.526194500E0,6.963238621E-1,2.517797611E0,1.841245817E0,3.195990909E0
7.536138500E0,5.578752440E-1,2.758485380E0,1.553564122E0,3.214658280E0
7.546083500E0,4.511337376E-1,2.937795510E0,1.230786270E0,3.216986004E0
7.556027500E0,2.889541948E-1,3.070875215E0,9.198161387E-1,3.218669110E0
7.565972500E0,2.789420074E-1,3.119397749E0,5.346084420E-1,3.177146070E0
7.575916500E0,3.948016620E-1,3.118061661E0,9.991868287E-2,3.144544580E0
7.585860500E0,5.191836333E-1,3.019231437E0,-3.309361799E-1,3.081368019E0
7.595805500E0,6.218139625E-1,2.875278835E0,-7.016921908E-1,3.024277254E0
7.605749500E0,6.287633783E-1,2.689753114E0,-9.188386305E-1,2.911078774E0
7.615693500E0,5.919902390E-1,2.518443144E0,-1.086799754E0,2.806090166E0
7.625638500E0,4.756411725E-1,2.407776402E0,-1.196303777E0,2.730341454E0
7.635582500E0,3.658164293E-1,2.369339730E0,-1.212545442E0,2.686607315E0
7.645527500E0,2.237033612E-1,2.371365790E0,-1.200250940E0,2.667212257E0
7.655471500E0,1.562949049E-1,2.414795399E0,-1.247100148E0,2.722301177E0
7.665415500E0,1.502927381E-1,2.393250749E0,-1.371750652E0,2.762596044E0
7.675360500E0,2.663915437E-1,2.280481932E0,-1.568332142E0,2.780508588E0
7.685304500E0,5.009052372E-1,2.045516834E0,-1.792193671E0,2.765321559E0
7.695249500E0,8.118958336E-1,1.745511986E0,-2.045721632E0,2.809085961E0
7.705193500E0,1.209827510E0,1.368719164E0,-2.234336876E0,2.886058909E0
7.715137500E0,1.495836462E0,9.046794516E-1,-2.287874421E0,2.879295226E0
7.725082500E0,1.608070258E0,3.999618298E-1,-2.269681394E0,2.810215837E0
7.735026500E0,1.680370495E0,3.765022159E-2,-2.192178451E0,2.762373780E0
7.744971500E0,1.613632715E0,-4.163100600E-2,-1.971117446E0,2.547714204E0
7.754915500E0,1.318579289E0,-4.126321614E-2,-1.648249547E0,2.111179899E0
7.764859500E0,9.689000058E-1,-1.007890409E-1,-1.434829684E0,1.734261190E0
7.774804500E0,5.218107873E-1,-1.443344253E-1,-1.298427007E0,1.406780586E0
7.784748500E0,1.758199275E-2,-1.618123376E-1,-1.251584816E0,1.262123968E0
7.794692500E0,-4.440556830E-1,-7.775568902E-2,-1.237172160E0,1.316748401E0
7.804637500E0,-8.796177006E-1,2.151903999E-1,-1.218039340E0,1.517779312E0
7.814581500E0,-1.221582168E0,5.325076836E-1,-1.205678472E0,1.797077629E0
7.824526500E0,-1.463400203E0,7.025950009E-1,-1.206589322E0,2.022631376E0
7.834470500E0,-1.658241708E0,7.671757436E-1,-1.225737199E0,2.200171781E0
7.844414500E0,-1.739613900E0,7.149080676E-1,-1.381387302E0,2.333576856E0
7.854359500E0,-1.607735213E0,5.433905214E-1,-1.729043888E0,2.422741947E0
7.864303500E0,-1.364947125E0,3.110765505E-1,-2.204685353E0,2.611606168E0
7.874248500E0,-1.037218289E0,-4.205317497E-3,-2.667820208E0,2.862359888E0
7.884192500E0,-6.998783845E-1,-2.770334762E-1,-3.023770046E0,3.116049196E0
7.894136500E0,-4.334295380E-1,-4.475605041E-1,-3.221721684E0,3.281411614E0
7.904081500E0,-3.023425645E-1,-4.702307439E-1,-3.125916810E0,3.175513168E0
7.914025500E0,-4.865473992E-1,-4.399538612E-1,-2.630167940E0,2.710732588E0
7.923969500E0,-1.206616219E0,-4.324396044E-1,-1.939286374E0,2.324598536E0
7.933914500E0,-2.438779508E0,-5.312826920E-1,-1.195469087E0,2.767499436E0
7.943858500E0,-3.548063561E0,-4.760323513E-1,-5.325231788E-1,3.619246160E0
7.953803500E0,-4.517942975E0,-4.084923327E-2,7.206956416E-2,4.518702403E0
7.963747500E0,-5.388186420E0,6.370477134E-1,4.675163202E-1,5.445819882E0
7.973691500E0,-6.277921557E0,1.086884539E0,5.536231488E-1,6.395319826E0
7.983636500E0,-7.030430145E0,1.274764348E0,5.739053857E-1,7.168077815E0
7.993580500E0,-7.772888539E0,1.550645923E0,8.897637892E-1,7.975837173E0
8.003524500E0,-7.511327380E0,2.008387599E0,1.192442569E0,7.866103167E0
8.013469500E0,-5.559244959E0,2.457667769E0,1.009946290E0,6.161601001E0
8.023413500E0,-3.378750415E0,2.763081876E0,7.507170010E-1,4.428786723E0
8.033358500E0,-1.921226079E0,2.794266247E0,7.572199818E-1,3.474538186E0
8.043302500E0,-7.719084799E-1,2.491353579E0,1.039120388E0,2.807571288E0
8.053246500E0,1.548909885E-1,2.094493697E0,1.522143817E0,2.593803551E0
8.063191500E0,5.770915335E-1,1.805387474E0,2.294893711E0,2.976406510E0
8.073135500E0,5.631114256E-1,1.573161796E0,3.413109823E0,3.800164626E0
8.083080500E0,2.679422253E-1,1.437452599E0,4.837838881E0,5.053983384E0
8.093024500E0,-4.505279660E-1,1.586724413E0,6.683434734E0,6.883964675E0
8.102968500E0,-1.245844020E0,1.738233372E0,8.417975004E0,8.685383454E0
8.112913500E0,-2.082870601E0,1.652022609E0,9.344139465E0,9.714961193E0
8.122857500E0,-2.673388512E0,1.244433671E0,8.759803231E0,9.242822834E0
8.132802500E0,-2.727489290E0,6.359151077E-1,6.502235953E0,7.079735746E0
8.142746500E0,-2.610689988E0,-2.444603920E-2,3.979045454E0,4.759107327E0
8.152690500E0,-2.382288973E0,-6.001079285E-1,2.111562889E0,3.239464170E0
8.162635500E0,-1.854480112E0,-8.098475540E-1,5.421811710E-1,2.094972546E0
8.172579500E0,-9.476026922E-1,-6.571410853E-1,-5.883908392E-1,1.294599957E0
8.182523500E0,2.504654825E-2,-3.295245159E-1,-1.298751381E0,1.340137637E0
8.192468500E0,5.212781060E-1,2.338652372E-2,-1.705924436E0,1.783943938E0
8.202412500E0,1.261956022E0,4.424798584E-1,-1.671748191E0,2.140809062E0
8.212357500E0,1.883009262E0,8.628636736E-1,-7.811804098E-1,2.213707396E0
8.222301500E0,2.411177727E0,8.468376249E-1,5.029301280E-1,2.604582636E0
8.232245500E0,2.933060435E0,7.091479754E-1,1.612715871E0,3.421488981E0
8.242190500E0,3.189490077E0,5.645936948E-1,2.327860605E0,3.988802827E0
8.252134500E0,3.082102454E0,5.431215495E-1,2.479114187E0,3.992535999E0
8.262078500E0,2.978872200E0,7.547498256E-1,2.412959958E0,3.907134838E0
8.272023500E0,2.942300205E0,9.794828814E-1,2.303982915E0,3.863269921E0
8.281967500E0,2.926427354E0,9.075130123E-1,1.893970453E0,3.602038450E0
8.291912500E0,2.467910922E0,6.617416745E-1,1.217247188E0,2.830225623E0
8.301856500E0,1.509960997E0,2.908352441E-1,5.178637706E-1,1.622575186E0
8.311800500E0,2.830052376E-1,-1.482175612E-1,-2.704221757E-1,4.185553285E-1
8.321745500E0,-6.985528207E-1,-4.824169260E-1,-7.968797453E-1,1.164353667E0
8.331689500E0,-1.158325235E0,-7.710986406E-1,-1.009695591E0,1.719242755E0
8.341634500E0,-1.004996037E0,-1.015381277E0,-1.248107038E0,1.897047009E0
8.351578500E0,-5.953833783E-1,-1.191834458E0,-1.173037414E0,1.775096481E0
8.361522500E0,-3.381643617E-1,-1.190182620E0,-7.816549113E-1,1.463514333E0
8.371467500E0,-3.174149323E-1,-9.612173492E-1,-4.830577809E-1,1.121621973E0
8.381411500E0,-8.412739992E-2,-4.933950734E-1,-2.490621507E-1,5.590599903E-1
8.391355500E0,5.448359531E-1,7.000345051E-2,-8.157859862E-2,5.553393257E-1
8.401300500E0,1.221573982E0,6.195692164E-1,-1.487487808E-2,1.369792053E0
8.411244500E0,1.693499833E0,1.122554893E0,-4.295423090E-2,2.032219535E0
8.421189500E0,2.043200167E0,1.475493999E0,-3.232739885E-1,2.540916279E0
8.431133625E0,1.995716683E0,1.645665516E0,-6.895656502E-1,2.677050776E0
8.441077625E0,2.163137085E0,1.654471423E0,-9.263128339E-1,2.876541883E0
8.451022625E0,1.944766969E0,1.445360373E0,-9.418993181E-1,2.599684500E0
8.460966625E0,1.515510589E0,1.047402384E0,-7.434284467E-1,1.986582481E0
8.470911625E0,1.196644962E0,6.029800808E-1,-4.812832971E-1,1.423789927E0
8.480855625E0,9.817580330E-1,2.004402137E-1,-3.094117020E-1,1.048694768E0
8.490799625E0,6.876343149E-1,-2.168586105E-1,-2.781516100E-1,7.728110546E-1
8.500744625E0,3.341087329E-1,-6.612662959E-1,-3.262484671E-1,8.095306182E-1
8.510688625E0,-1.162017167E-2,-1.112153866E0,-4.419569711E-1,1.196807091E0
8.520633625E0,-3.389379483E-1,-1.509206121E0,-6.338013393E-1,1.671611853E0
8.530577625E0,-6.790330607E-1,-1.882849633E0,-8.240079023E-1,2.164531742E0
8.540521625E0,-9.797489297E-1,-2.244525064E0,-1.101632971E0,2.685404240E0
8.550466625E0,-1.189987323E0,-2.635983873E0,-1.457737906E0,3.238746765E0
8.560410625E0,-1.295949980E0,-2.940429096E0,-1.654812608E0,3.614417573E0
8.570354625E0,-1.334334027E0,-3.160077413E0,-1.505799679E0,3.746193966E0
8.580299625E0,-1.451887620E0,-3.408881702E0,-1.186413797E0,3.890505085E0
8.590243625E0,-1.575691887E0,-3.786700711E0,-1.069790350E0,4.238674154E0
8.600188625E0,-1.584108953E0,-4.027293169E0,-1.142377539E0,4.475881800E0
8.610132625E0,-1.247291206E0,-4.065295393E0,-1.148382922E0,4.404673123E0
8.620076625E0,-7.197209108E-1,-4.349303429E0,-1.193800438E0,4.567230889E0
8.630021625E0,-7.283514011E-1,-4.728712880E0,-1.179230346E0,4.927657199E0
8.639965625E0,-1.390693585E0,-4.675575723E0,-8.679438807E-1,4.954630518E0
8.649910625E0,-2.268224414E0,-4.102997655E0,-1.525985876E-1,4.690705499E0
8.659854625E0,-2.735474247E0,-3.134151444E0,7.535537776E-1,4.227714267E0
8.669798625E0,-2.775470957E0,-2.151382427E0,1.649689570E0,3.879840339E0
8.679743625E0,-2.728765737E0,-1.253213266E0,2.249979932E0,3.752214763E0
8.689687625E0,-2.573684129E0,-4.363864750E-1,2.404059327E0,3.548772238E0
8.699631625E0,-2.419066206E0,3.536700082E-1,2.314260712E0,3.366417447E0
8.709576625E0,-2.225898174E0,1.134504263E0,2.070110807E0,3.244546403E0
8.719520625E0,-2.051261138E0,1.906500451E0,1.795955185E0,3.326841032E0
8.729465625E0,-2.020955604E0,2.526483650E0,1.603706920E0,3.610991149E0
8.739409625E0,-2.060016759E0,2.862935362E0,1.503387557E0,3.834089472E0
8.749353625E0,-2.252983062E0,2.969132493E0,1.448677206E0,3.998793079E0
8.759298625E0,-2.618058064E0,2.942413056E0,1.545120304E0,4.230770542E0
8.769242625E0,-2.992236596E0,2.882301925E0,1.655650806E0,4.472395760E0
8.779187625E0,-3.302512078E0,2.737192744E0,1.674880252E0,4.604783817E0
8.789131625E0,-3.407334529E0,2.595680185E0,1.627845834E0,4.582288323E0
8.799075625E0,-3.323319395E0,2.547154727E0,1.494274086E0,4.445818715E0
8.809020625E0,-3.122497358E0,2.546167132E0,1.299237869E0,4.233317359E0
8.818964625E0,-2.942562160E0,2.420000591E0,9.908574700E-1,3.936606845E0
8.828908625E0,-2.794598368E0,2.174541494E0,6.948983109E-1,3.608503071E0
8.838853625E0,-2.617655776E0,1.872518188E0,4.391042608E-1,3.248270105E0
8.848797625E0,-2.389951165E0,1.572141457E0,3.010947686E-1,2.876482816E0
8.858742625E0,-1.997074991E0,1.295022612E0,2.735324559E-1,2.395873972E0
8.868686625E0,-1.507429737E0,1.038138056E0,2.567360365E-1,1.848239278E0
8.878630625E0,-8.970745629E-1,7.853980064E-1,2.609476398E-1,1.220527128E0
8.888575625E0,-4.249306101E-1,6.031438029E-1,2.675364286E-1,7.848083912E-1
8.898519625E0,2.526815772E-2,5.339665639E-1,2.301738900E-1,5.820127068E-1
8.908464625E0,4.133882064E-1,5.607251769E-1,1.387976968E-1,7.103290321E-1
8.918408625E0,7.586241907E-1,6.167257154E-1,-3.173181608E-2,9.781963908E-1
8.928352625E0,1.011782316E0,7.167861933E-1,-1.630846918E-1,1.250632847E0
8.938297625E0,1.119412599E0,8.404922265E-1,-1.856778945E-1,1.412086410E0
8.948241625E0,9.584311509E-1,9.425857812E-1,-1.569715740E-1,1.353402490E0
8.958185625E0,4.569563949E-1,8.855613953E-1,8.328876302E-2,9.999825747E-1
8.968130625E0,4.223473102E-1,7.931555074E-1,8.476986274E-2,9.025845329E-1
8.978074625E0,6.255479944E-1,8.372084302E-1,3.576858759E-2,1.045709157E0
8.988019625E0,8.552283794E-1,7.987127012E-1,8.901084825E-2,1.173575942E0
8.997963625E0,6.960683388E-1,5.535331017E-1,1.126770151E-1,8.964408160E-1
9.007907625E0,4.079269069E-1,-5.681154728E-3,-1.319108462E-1,4.287622981E-1
9.017852625E0,2.012465447E-1,-5.050222617E-1,-4.955692144E-1,7.356198086E-1
9.027796625E0,3.676039231E-1,-8.661942476E-1,-5.393731919E-1,1.084596035E0
9.037741625E0,4.752891701E-1,-1.696934488E0,-2.679656142E-1,1.782496009E0
9.047685625E0,7.682609868E-1,-1.936420069E0,-4.091138917E-1,2.123045408E0
9.057629625E0,9.675007671E-1,-1.427914036E0,-7.782452537E-1,1.892263698E0
9.067574625E0,1.013976776E0,-6.678198552E-1,-1.281475782E0,1.765308030E0
9.077518625E0,1.290379922E0,2.041537803E-1,-1.483521641E0,1.976763914E0
9.087463625E0,2.023673390E0,1.489464167E0,-1.740435433E0,3.056611358E0
9.097407625E0,3.122027827E0,3.083308734E0,-1.914250351E0,4.787296200E0
9.107351625E0,3.985511890E0,4.524046884E0,-2.010582936E0,6.355607679E0
9.117296625E0,4.454607689E0,5.465449773E0,-2.137486665E0,7.367735075E0
9.127240625E0,4.239115573E0,5.602458222E0,-2.259890378E0,7.380023272E0
9.137184625E0,3.754704747E0,4.502408677E0,-2.483756876E0,6.366988287E0
9.147129625E0,2.984145804E0,2.838302797E0,-2.506477694E0,4.821153325E0
9.157073625E0,2.128052037E0,1.427324052E0,-2.334801396E0,3.466577127E0
9.167018625E0,1.673133397E0,9.057956851E-1,-2.177075239E0,2.891279610E0
9.176962625E0,1.641354949E0,1.258326071E0,-1.986859028E0,2.867932943E0
9.186906625E0,1.760884901E0,1.850089438E0,-1.816911752E0,3.134440121E0
9.196851625E0,1.376721663E0,1.854288908E0,-1.757098244E0,2.901920766E0
9.206795625E0,4.445012408E-1,9.843109274E-1,-1.246073377E0,1.648983995E0
9.216740625E0,-7.494364607E-1,-2.423355138E-1,-6.565475929E-1,1.025395656E0
9.226684625E0,-1.809966429E0,-9.604449320E-1,-1.655741438E-1,2.055686683E0
9.236628625E0,-2.127168522E0,-7.537400115E-1,4.129865026E-1,2.294237952E0
9.246573625E0,-2.894384612E0,-5.799636859E-1,5.693658999E-1,3.006326277E0
9.256517625E0,-3.928181110E0,-5.624916208E-1,1.330288339E-1,3.970478602E0
9.266461625E0,-4.759818898E0,-7.229743016E-1,-2.788478673E-2,4.814493259E0
9.276406625E0,-5.219108917E0,-1.086483420E0,3.657648276E-1,5.343531418E0
9.286350625E0,-5.180544190E0,-1.766268432E0,7.517531276E-1,5.524751130E0
9.296295625E0,-4.533322322E0,-1.873421583E0,1.067652315E0,5.020020036E0
9.306239625E0,-3.904052575E0,-1.239996219E0,1.464895921E0,4.350303114E0
9.316183625E0,-3.360916992E0,-5.025301784E-1,1.682905263E0,3.792158980E0
9.326128625E0,-2.773065412E0,-1.013357556E-1,1.864861259E0,3.343331905E0
9.336072625E0,-2.144905466E0,4.257942438E-2,2.081724840E0,2.989316105E0
9.346017625E0,-1.437863658E0,-1.148562723E-1,1.922187653E0,2.403216436E0
9.355961625E0,-8.992573285E-1,-5.666063064E-1,1.685627142E0,1.992748181E0
9.365905625E0,-5.690042496E-1,-1.153838081E0,1.360195093E0,1.872228310E0
9.375850625E0,-3.775535452E-1,-1.734545533E0,1.060738714E0,2.067936533E0
9.385794625E0,-1.609644914E-1,-2.195746422E0,1.036320741E0,2.433345967E0
9.395739625E0,2.061131823E-1,-2.437271512E0,1.215756002E0,2.731453408E0
9.405683625E0,6.014551270E-1,-2.450213739E0,1.451077781E0,2.910484901E0
9.415627625E0,8.022023195E-1,-2.451124150E0,1.645145406E0,3.059091625E0
9.425572625E0,6.741114593E-1,-2.571549311E0,1.732514210E0,3.173152629E0
9.435516125E0,3.361605209E-1,-2.648624969E0,1.702812401E0,3.166668311E0
9.445460125E0,-1.174150139E-1,-2.686296240E0,1.725335584E0,3.194801504E0
9.455405125E0,-5.656514561E-1,-2.563929219E0,1.883068904E0,3.231043656E0
9.465349125E0,-9.595438761E-1,-2.151055568E0,1.940002073E0,3.051454170E0
9.475294125E0,-1.104249015E0,-1.420897377E0,1.803602904E0,2.547802716E0
9.485238125E0,-9.559805828E-1,-5.268236053E-1,1.558929381E0,1.903077193E0
9.495182125E0,-5.466205233E-1,7.181140959E-2,1.233347935E0,1.350961881E0
9.505127125E0,-1.146826100E-1,4.232787716E-1,9.458520359E-1,1.042570426E0
9.515071125E0,2.738730562E-1,5.415708679E-1,8.478836918E-1,1.042694687E0
9.525016125E0,4.939885658E-1,5.402225000E-1,8.091330242E-1,1.091128454E0
9.534960125E0,6.340451682E-1,3.993168819E-1,6.653078914E-1,1.002048820E0
9.544904125E0,6.480135816E-1,2.033585590E-1,4.696868066E-1,8.257614679E-1
9.554849125E0,6.460342991E-1,3.603522062E-2,2.068832606E-1,6.793081306E-1
9.564793125E0,9.040900522E-1,-2.150149834E-1,-1.494964935E-1,9.412541991E-1
9.574737125E0,1.157496099E0,-3.007182080E-1,-4.909737414E-1,1.292781449E0
9.584682125E0,1.321748480E0,6.575310946E-2,-6.959320986E-1,1.495213698E0
9.594626125E0,1.537463960E0,4.825017107E-1,-9.126945224E-1,1.851921872E0
9.604571125E0,2.016172582E0,7.233806831E-1,-1.045450876E0,2.383526595E0
9.614515125E0,2.515137713E0,1.061405296E0,-1.012459424E0,2.911627209E0
9.624459125E0,2.857654742E0,1.536145413E0,-7.058378667E-1,3.320262105E0
9.634404125E0,3.174700130E0,1.894551666E0,-2.564980549E-1,3.705919344E0
9.644348125E0,3.380476513E0,2.244001738E0,2.120691562E-1,4.063020869E0
9.654293125E0,3.537753750E0,2.558829862E0,5.211728561E-1,4.397150555E0
9.664237125E0,3.524655987E0,2.905659798E0,7.146776873E-1,4.623507639E0
9.674181125E0,3.372393907E0,3.214240172E0,6.918213598E-1,4.709882943E0
9.684126125E0,3.168245974E0,3.541194252E0,3.549142957E-1,4.764850830E0
9.694070125E0,2.996150138E0,3.725277464E0,-4.285279633E-1,4.799817085E0
9.704015125E0,2.751361717E0,3.823627632E0,-1.194791980E0,4.859799115E0
9.713959125E0,2.464711910E0,3.842753874E0,-1.724387311E0,4.880069030E0
9.723903125E0,2.160925083E0,3.655387450E0,-2.011649907E0,4.698743446E0
9.733848125E0,1.860771132E0,3.366254915E0,-2.060127271E0,4.363286116E0
9.743792125E0,1.632496417E0,2.988410763E0,-2.009831861E0,3.954120326E0
9.753736125E0,1.369228456E0,2.446927019E0,-1.850057278E0,3.359308014E0
9.763681125E0,1.162426472E0,1.887146167E0,-1.653175680E0,2.765058008E0
9.773625125E0,1.062215136E0,1.372008807E0,-1.288181077E0,2.161045962E0
9.783570125E0,1.103111731E0,8.564212114E-1,-9.526279356E-1,1.690506660E0
9.793514125E0,1.264022428E0,3.265371734E-1,-6.952223928E-1,1.479092087E0
9.803458125E0,1.361003762E0,-1.766093016E-1,-5.197630924E-1,1.467540718E0
9.813403125E0,1.271822029E0,-6.433428258E-1,-3.889240408E-1,1.477390664E0
9.823347125E0,9.955884522E-1,-1.137331392E0,-3.842708266E-1,1.559609928E0
9.833292125E0,6.893253297E-1,-1.683649614E0,-5.111440042E-1,1.889739036E0
9.843236125E0,3.740838075E-1,-2.234029897E0,-5.606813228E-1,2.333493480E0
9.853180125E0,-3.784434915E-2,-2.814757229E0,-5.180597985E-1,2.862285172E0
9.863125125E0,-5.401926792E-1,-3.430321687E0,-5.302682000E-1,3.512847758E0
9.873069125E0,-1.171030065E0,-4.040830058E0,-5.071515253E-1,4.237549014E0
9.883013125E0,-1.802773769E0,-4.615365189E0,-3.296414602E-1,4.965909039E0
9.892958125E0,-2.294265574E0,-5.152422591E0,-2.244979978E-2,5.640178816E0
9.902902125E0,-2.547620750E0,-5.639240132E0,3.787918393E-1,6.199587406E0
9.912847125E0,-2.752851003E0,-5.954263553E0,9.236944507E-1,6.624549384E0
9.922791125E0,-2.978313791E0,-6.066745856E0,1.513103729E0,6.925694276E0
9.932735125E0,-3.030473878E0,-6.232150138E0,1.917134636E0,7.190192799E0
9.942680125E0,-3.464750678E0,-6.363476263E0,2.221626783E0,7.578519180E0
9.952624125E0,-4.056350323E0,-6.197308919E0,2.348308464E0,7.770145972E0
9.962569125E0,-4.301367370E0,-5.530557350E0,2.015334676E0,7.290432066E0
9.972513125E0,-3.967064509E0,-4.488851323E0,1.278425729E0,6.125500744E0
9.982457125E0,-3.665652822E0,-3.278295835E0,5.649334180E-1,4.950089288E0
9.992402125E0,-3.558206726E0,-2.160409359E0,1.892537592E-1,4.167015801E0
1.000234612E1,-3.542778847E0,-1.230754110E0,3.665122479E-1,3.768337680E0
1.001229113E1,-3.440220439E0,-4.409584129E-1,8.681219284E-1,3.575359656E0
1.002223512E1,-3.098174111E0,2.411409277E-1,1.375453548E0,3.398338451E0
1.003217913E1,-2.434644358E0,8.847439545E-1,1.777328002E0,3.141521899E0
1.004212412E1,-1.717970431E0,1.416026646E0,1.941265510E0,2.953822210E0
1.005206812E1,-1.194069264E0,1.784098347E0,1.965986222E0,2.910998135E0
1.006201313E1,-8.173606414E-1,1.963922448E0,1.875303217E0,2.835812397E0
1.007195712E1,-6.158217359E-1,2.096675878E0,1.708732269E0,2.773995694E0
1.008190113E1,-5.773447180E-1,2.192702361E0,1.526548963E0,2.733426843E0
1.009184612E1,-4.870759875E-1,2.305736057E0,1.332156378E0,2.707083744E0
1.010179013E1,-3.671302986E-1,2.396090156E0,1.083108991E0,2.655025006E0
1.011173412E1,-2.687327689E-1,2.363421763E0,7.641549258E-1,2.498381972E0
1.012167912E1,-3.202239347E-1,2.203563564E0,4.521312726E-1,2.272148419E0
1.013162312E1,-4.049962825E-1,1.951092487E0,9.687915400E-2,1.995036203E0
1.014156812E1,-3.309775490E-1,1.668117655E0,-3.525100668E-1,1.736786111E0
1.015151213E1,-1.032787853E-1,1.382924974E0,-7.619097412E-1,1.582294045E0
1.016145612E1,2.168089092E-1,1.091216156E0,-1.169374718E0,1.614061967E0
1.017140112E1,4.879407907E-1,9.385108566E-1,-1.443719645E0,1.789752848E0
1.018134512E1,5.894005072E-1,9.458602220E-1,-1.418844420E0,1.804207306E0
1.019129012E1,4.815328270E-1,1.076612150E0,-1.210227606E0,1.689857522E0
1.020123413E1,3.361125737E-1,1.321261407E0,-9.858931839E-1,1.682465078E0
1.021117812E1,5.293291372E-1,1.592388611E0,-8.312175192E-1,1.872648762E0
1.022112312E1,9.615892321E-1,1.950355153E0,-7.737601469E-1,2.308082286E0
1.023106712E1,1.540685191E0,2.304853712E0,-7.250255048E-1,2.865610489E0
1.024101113E1,2.124133818E0,2.605548531E0,-5.584190351E-1,3.407735236E0
1.025095613E1,2.433032865E0,2.811016181E0,-3.610427624E-1,3.735212546E0
1.026090012E1,2.655586079E0,3.134773588E0,-1.452560927E-1,4.110966091E0
1.027084512E1,2.825720174E0,3.526907165E0,1.051234357E-1,4.520488866E0
1.028078912E1,2.816476895E0,3.750138656E0,2.368278752E-1,4.695973752E0
1.029073313E1,2.835459296E0,3.835175883E0,3.889116155E-1,4.785358473E0
1.030067813E1,3.234404295E0,3.668698636E0,4.987340198E-1,4.916244141E0
1.031062212E1,3.547405164E0,3.447528874E0,8.847743601E-1,5.025173072E0
1.032056712E1,3.323964928E0,3.145510830E0,1.117003985E0,4.710698369E0
1.033051112E1,3.028852445E0,2.331242781E0,6.276483142E-1,3.873316724E0
1.034045513E1,2.169654976E0,8.058164835E-1,-2.633188319E-1,2.329394713E0
1.035040013E1,1.152387387E0,-1.453979169E0,-1.306412549E0,2.269089214E0
1.036034412E1,5.719962698E-1,-2.929835111E0,-1.733289405E0,3.451869880E0
1.037028913E1,2.911936784E-1,-3.077500695E0,-1.042731628E0,3.262375444E0
1.038023312E1,6.909099251E-1,-1.842669321E0,1.676770949E-1,1.975070217E0
1.039017713E1,1.230821353E0,2.237033612E-1,9.386832033E-1,1.563998259E0
1.040012212E1,1.866478014E0,2.087413303E0,6.990302458E-1,2.886118113E0
1.041006612E1,2.104695919E0,3.464064215E0,2.088553803E-1,4.058707475E0
1.042001012E1,1.982275103E0,4.255830424E0,-5.368129885E-1,4.725428591E0
1.042995542E1,1.406330209E0,4.533343956E0,-1.330460685E0,4.929411498E0
1.043989942E1,6.150487339E-1,4.378972785E0,-2.256453384E0,4.964400213E0
1.044984442E1,1.490466964E-1,3.622565274E0,-3.479210258E0,5.024947572E0
1.045978842E1,-1.186610556E-1,2.546056620E0,-4.344490585E0,5.036971630E0
1.046973242E1,-9.704272985E-2,1.633576398E0,-4.097986591E0,4.412650365E0
1.047967742E1,1.919810468E-1,9.483365178E-1,-3.108595603E0,3.255697390E0
1.048962142E1,4.779976004E-1,3.072682589E-1,-2.031349615E0,2.109330877E0
1.049956642E1,3.463007623E-1,-5.491634774E-1,-1.272777464E0,1.428799222E0
1.050951042E1,1.718099070E-1,-1.488834422E0,-8.666357124E-1,1.731243494E0
1.051945442E1,-1.663667339E-1,-2.274502569E0,-6.671837512E-1,2.376167921E0
1.052939942E1,-7.547422242E-1,-2.856253164E0,-6.637255617E-1,3.027928266E0
1.053934342E1,-1.981495085E0,-3.238523074E0,-6.336486538E-1,3.849138227E0
1.054928842E1,-3.807913824E0,-3.406127663E0,-6.769415847E-1,5.153655330E0
1.055923242E1,-5.352485660E0,-3.341417112E0,-6.368196720E-1,6.341901162E0
1.056917642E1,-6.340780295E0,-3.231964837E0,-3.919172305E-1,7.127740916E0
1.057912142E1,-6.729603179E0,-3.260054861E0,5.571453653E-2,7.477875417E0
1.058906542E1,-6.443921671E0,-3.281974318E0,4.986306703E-1,7.248731922E0
1.059900942E1,-5.788307878E0,-2.995825033E0,1.080782238E0,6.606630455E0
1.060895442E1,-4.684942378E0,-2.629023932E0,1.985867048E0,5.727488093E0
1.061889842E1,-3.055598195E0,-2.396824567E0,2.546662391E0,4.644021713E0
1.062884342E1,-1.883555392E0,-2.049909262E0,2.310868742E0,3.618013715E0
1.063878742E1,-1.107734540E0,-1.394447497E0,2.103604097E0,2.756212951E0
1.064873142E1,-5.018068779E-1,-4.396521449E-1,2.657320655E0,2.739791455E0
1.065867642E1,-2.398937166E-1,2.114440888E-1,2.476982877E0,2.497539143E0
1.066862042E1,-7.325859547E-2,1.987339962E-1,1.471455327E0,1.486621271E0
1.067856542E1,4.195874244E-1,7.718324661E-3,3.666973123E-1,5.572971363E-1
1.068850942E1,7.940045232E-1,-1.106562173E-1,-4.893973321E-2,8.031706411E-1
1.069845342E1,9.875368363E-1,-1.461119789E-1,3.096857902E-1,1.045219117E0
1.070839842E1,1.007433157E0,-3.540173328E-1,8.514358753E-1,1.365720648E0
1.071834242E1,6.522732782E-1,-8.065842229E-1,1.432765763E0,1.768857335E0
1.072828642E1,-1.358600557E-1,-1.387945393E0,2.005749189E0,2.442924514E0
1.073823142E1,-1.020238559E0,-2.184051991E0,2.257923813E0,3.302906260E0
1.074817542E1,-1.429962316E0,-3.044994269E0,2.392136708E0,4.127844516E0
1.075812042E1,-1.390135760E0,-3.454333279E0,2.392098116E0,4.425723582E0
1.076806442E1,-1.101198522E0,-3.319273122E0,2.289663230E0,4.180044252E0
1.077800842E1,-7.863680595E-1,-2.836310651E0,1.911527595E0,3.509554185E0
1.078795342E1,-5.750713205E-1,-2.165325698E0,1.291875640E0,2.586171895E0
1.079789742E1,-3.403558981E-1,-1.383741245E0,5.990256089E-1,1.545772833E0
1.080784242E1,-8.567164958E-2,-6.484801894E-1,5.554606363E-2,6.564690037E-1
1.081778642E1,2.815083504E-2,-2.037374586E-1,-2.320423678E-1,3.100727043E-1
1.082773042E1,1.203468078E-1,1.118081188E-1,-3.862831458E-1,4.197607394E-1
1.083767542E1,3.536846262E-1,3.752468187E-1,-4.566204724E-1,6.887708222E-1
1.084761942E1,6.916800034E-1,5.842263061E-1,-5.262540865E-1,1.047227276E0
1.085756442E1,1.159314584E0,7.757489312E-1,-5.864540952E-1,1.513183767E0
1.086750842E1,1.447975248E0,1.050596718E0,-5.914777306E-1,1.884205851E0
1.087745242E1,1.775028146E0,1.393133628E0,-5.330032352E-1,2.318542359E0
1.088739742E1,2.131368577E0,1.860780487E0,-5.125929442E-1,2.875410851E0
1.089734142E1,2.514686893E0,2.259874590E0,-4.119769809E-1,3.405937222E0
1.090728542E1,2.956640502E0,2.527359563E0,-3.228674608E-1,3.903013299E0
1.091723042E1,3.454201131E0,2.830403209E0,-1.845792027E-1,4.469536583E0
1.092717442E1,3.773207091E0,3.112173514E0,-1.134959176E-2,4.891098501E0
1.093711942E1,3.991590655E0,3.299014274E0,5.648805007E-2,5.178752943E0
1.094706342E1,4.254468607E0,3.475364544E0,5.320673883E-2,5.493768543E0
1.095700742E1,4.363736696E0,3.608810869E0,-1.568477592E-1,5.664831423E0
1.096695242E1,4.216783302E0,3.659308008E0,-5.383684941E-1,5.609067405E0
1.097689642E1,3.918733179E0,3.617463579E0,-1.054594167E0,5.436421739E0
1.098684142E1,3.627245970E0,3.613299776E0,-1.741832918E0,5.408033886E0
1.099678542E1,3.449808118E0,3.720157058E0,-2.397162243E0,5.611339538E0
1.100672942E1,3.143733861E0,3.733531979E0,-2.637277569E0,5.547752392E0
1.101667442E1,2.719110230E0,3.546583630E0,-2.372793680E0,5.059838509E0
1.102661842E1,2.228886101E0,3.179570861E0,-1.736047098E0,4.253406122E0
1.103656342E1,1.910249101E0,2.753503552E0,-1.157588632E0,3.545538729E0
1.104650742E1,1.875815433E0,2.434694644E0,-4.970210780E-1,3.113430824E0
1.105645142E1,1.636918082E0,2.193991672E0,3.097150263E-1,2.754818263E0
1.106639642E1,1.188127323E0,1.783663899E0,9.041929632E-1,2.326084340E0
1.107634042E1,9.264193994E-1,1.180579153E0,9.473720196E-1,1.774692588E0
1.108628442E1,5.556860465E-1,5.519122535E-1,6.850391744E-1,1.040515636E0
1.109622942E1,2.701553965E-1,-1.033892977E-1,3.524882859E-1,4.559838559E-1
1.110617342E1,9.751693904E-2,-8.971131545E-1,-7.729726732E-3,9.024307808E-1
1.111611842E1,-1.961501116E-1,-1.819409097E0,-2.226268888E-1,1.843444347E0
1.112606242E1,-4.523867959E-1,-2.918896140E0,-2.902850211E-1,2.967974710E0
1.113600642E1,-6.856585407E-1,-4.114396217E0,-3.909520014E-1,4.189418496E0
1.114595142E1,-9.983378130E-1,-5.129457652E0,-5.223623259E-1,5.251749860E0
1.115589542E1,-1.434651783E0,-5.945210309E0,-6.633192533E-1,6.151726895E0
1.116584042E1,-1.712121461E0,-6.436434311E0,-6.860539587E-1,6.695499726E0
1.117578442E1,-2.065272236E0,-6.425051537E0,-4.963970339E-1,6.767055983E0
1.118572842E1,-2.473767493E0,-5.950441813E0,8.891802371E-2,6.444780042E0
1.119567342E1,-2.691454654E0,-5.531878236E0,6.995322293E-1,6.191522455E0
1.120561742E1,-2.825168197E0,-5.284476110E0,1.072243988E0,6.087443656E0
1.121556242E1,-2.951987872E0,-4.966072413E0,1.346309417E0,5.932002753E0
1.122550642E1,-2.777411647E0,-4.736892550E0,1.415542789E0,5.670619708E0
1.123545042E1,-2.522198226E0,-4.580454973E0,1.329179999E0,5.395254500E0
1.124539542E1,-2.376996658E0,-4.407580288E0,1.350303212E0,5.186539875E0
1.125533942E1,-2.390114887E0,-4.020648978E0,1.403636397E0,4.883488764E0
1.126528342E1,-2.645759248E0,-3.468163113E0,1.524872420E0,4.620977524E0
1.127522842E1,-3.189639766E0,-2.787302797E0,1.819127700E0,4.609998299E0
1.128517242E1,-3.762290924E0,-1.867017127E0,2.078815119E0,4.686369410E0
1.129511742E1,-4.066098801E0,-7.399288881E-1,2.093031893E0,4.632648996E0
1.130506142E1,-4.002565879E0,3.300092500E-1,1.829961421E0,4.413411212E0
1.131500542E1,-3.835181145E0,1.159732659E0,1.573086806E0,4.304439145E0
1.132495042E1,-3.433737046E0,1.653453423E0,1.440272126E0,4.074167660E0
1.133489442E1,-2.751058246E0,2.101862358E0,1.302778358E0,3.699105067E0
1.134483942E1,-2.064263007E0,2.450162283E0,1.044452318E0,3.369771153E0
1.135478342E1,-1.414112268E0,2.597550125E0,6.902639540E-1,3.037012427E0
1.136472742E1,-8.835990697E-1,2.608612472E0,2.972923243E-1,2.770196576E0
1.137467242E1,-4.281565189E-1,2.479373218E0,-4.589070261E-2,2.516488728E0
1.138461642E1,-1.524959689E-1,2.232594990E0,-2.182457162E-1,2.248414242E0
1.139456142E1,-4.981652319E-2,1.878975853E0,-3.621367764E-1,1.914203486E0
1.140450542E1,-3.367294550E-2,1.627271345E0,-4.769848627E-1,1.696072067E0
1.141444942E1,-4.056681275E-2,1.591035565E0,-6.025906563E-1,1.701809430E0
1.142439442E1,9.274210274E-2,1.632932035E0,-8.405207317E-1,1.838897286E0
1.143433850E1,2.242775577E-1,1.623716238E0,-1.119713585E0,1.985072633E0
1.144428250E1,2.711716425E-1,1.565764484E0,-1.313143718E0,2.061431275E0
1.145422750E1,3.250280070E-1,1.455566103E0,-1.385487224E0,2.035654866E0
1.146417150E1,3.832265139E-1,1.398794902E0,-1.381321667E0,2.002882744E0
1.147411650E1,4.803359020E-1,1.446077242E0,-1.245259298E0,1.967875171E0
1.148406050E1,6.845715433E-1,1.613794098E0,-1.007554925E0,2.021914072E0
1.149400450E1,1.065657392E0,1.820606607E0,-8.167718267E-1,2.262156120E0
1.150394950E1,1.469332788E0,1.985196957E0,-5.684025711E-1,2.534369208E0
1.151389350E1,1.777762304E0,2.167547055E0,-1.729409046E-1,2.808666517E0
1.152383850E1,1.648329508E0,2.314454255E0,2.322571068E-1,2.850900214E0
1.153378250E1,1.628175910E0,2.387092461E0,2.001485838E-1,2.896416176E0
1.154372650E1,2.044320493E0,2.464247056E0,-5.533424824E-2,3.202315055E0
1.155367150E1,2.306763997E0,2.590318873E0,-1.641354364E-1,3.472441856E0
1.156361550E1,2.423221237E0,2.678093181E0,-1.351889415E-1,3.614202582E0
1.157356050E1,2.413959247E0,2.735577158E0,-1.536984488E-2,3.648399357E0
1.158350450E1,2.274082155E0,2.744904052E0,1.500464241E-1,3.567696992E0
1.159344850E1,2.304066676E0,2.569460101E0,3.242101277E-1,3.466404573E0
1.160339350E1,2.283404371E0,2.217081742E0,3.643856156E-1,3.203461229E0
1.161333750E1,1.907528976E0,1.597128364E0,7.651841819E-2,2.489044169E0
1.162328150E1,1.480602127E0,5.361978614E-1,-8.982866907E-1,1.812900930E0
1.163322650E1,1.068493291E0,-6.693442243E-1,-1.885941641E0,2.268584465E0
1.164317050E1,5.917727226E-1,-1.429643058E0,-2.006299266E0,2.533635919E0
1.165311550E1,5.654304314E-1,-1.525212289E0,-1.140566656E0,1.986674708E0
1.166305950E1,9.735643297E-1,-1.039517414E0,-3.079981376E-1,1.457150236E0
1.167300350E1,1.511551439E0,1.213765025E-1,-1.154317845E-1,1.520803901E0
1.168294850E1,2.042319576E0,1.961423348E0,3.533131818E-1,2.853608418E0
1.169289250E1,2.645176865E0,3.580013916E0,5.025832419E-1,4.479514506E0
1.170283750E1,3.020524256E0,4.428410994E0,-1.718245250E-1,5.363200013E0
1.171278150E1,2.661373068E0,4.881590087E0,-1.222793126E0,5.692806989E0
1.172272550E1,1.944036652E0,4.709454491E0,-2.167282907E0,5.536727851E0
1.173267050E1,1.190823475E0,3.635184735E0,-2.975726398E0,4.846398271E0
1.174261450E1,7.430004305E-1,1.896109949E0,-3.498744636E0,4.048270816E0
1.175255950E1,5.340168500E-1,5.103560919E-1,-3.509490064E0,3.586385066E0
1.176250350E1,2.365087634E-1,-6.867437840E-2,-2.965720058E0,2.975928095E0
1.177244750E1,-2.991879916E-1,-3.278808635E-1,-2.254246060E0,2.297530112E0
1.178239250E1,-8.603879625E-1,-6.291492945E-1,-1.578533633E0,1.904695438E0
1.179233650E1,-1.271983997E0,-9.824246156E-1,-1.020711745E0,1.903931165E0
1.180228050E1,-1.440495490E0,-1.149626917E0,-5.542990869E-1,1.924556256E0
1.181222550E1,-1.816877838E0,-1.133314354E0,-4.785367868E-1,2.194184122E0
1.182216950E1,-2.948108245E0,-1.471165890E0,-8.116298584E-1,3.393289602E0
1.183211450E1,-4.487615222E0,-2.233633456E0,-1.064236737E0,5.124491060E0
1.184205850E1,-5.814318632E0,-3.157273673E0,-8.168976150E-1,6.666483325E0
1.185200250E1,-6.875691769E0,-3.957749895E0,-1.079676676E-1,7.934140064E0
1.186194750E1,-7.187022673E0,-4.418116971E0,8.668496474E-1,8.480830194E0
1.187189150E1,-7.218007069E0,-4.301510627E0,1.762778668E0,8.585453299E0
1.188183650E1,-6.751772897E0,-3.794956979E0,2.415998025E0,8.113271978E0
1.189178050E1,-5.101733079E0,-3.035475587E0,3.142059803E0,6.716720349E0
1.190172450E1,-3.311102223E0,-2.317893003E0,3.464964101E0,5.323720703E0
1.191166950E1,-1.980481762E0,-1.739053152E0,2.862751760E0,3.891267340E0
1.192161350E1,-1.129110206E0,-1.259616551E0,2.403163533E0,2.938829475E0
1.193155850E1,-4.419559479E-1,-9.277812159E-1,1.955535201E0,2.209122217E0
1.194150250E1,3.032927370E-1,-7.078972560E-1,1.254644079E0,1.472153788E0
1.195144650E1,1.104020973E0,-4.846406221E-1,5.004222572E-1,1.305435283E0
1.196139150E1,1.935958723E0,-3.615117091E-1,-2.529169276E-2,1.969585379E0
1.197133550E1,2.434478297E0,-4.179133666E-1,-9.715908945E-2,2.471998391E0
1.198127950E1,2.277585222E0,-6.400186837E-1,2.110529101E-1,2.375197189E0
1.199122450E1,1.679091125E0,-9.750249642E-1,7.925193304E-1,2.097166559E0
1.200116850E1,7.291355127E-1,-1.532545867E0,1.283561923E0,2.127878436E0
1.201111350E1,-2.727486366E-1,-2.235358969E0,1.600554540E0,2.762787790E0
1.202105750E1,-1.003136038E0,-2.579236645E0,1.848956686E0,3.328270483E0
1.203100150E1,-1.563929628E0,-2.513114576E0,2.090412340E0,3.623733504E0
1.204094650E1,-1.700826395E0,-2.095636243E0,2.004443652E0,3.361888761E0
1.205089050E1,-1.495380964E0,-1.304676949E0,1.677699341E0,2.598657586E0
1.206083550E1,-9.838875890E-1,-5.348582643E-1,1.284102644E0,1.703827383E0
1.207077950E1,-4.590947217E-1,-3.583232224E-2,1.007962184E0,1.108169519E0
1.208072350E1,-6.857088268E-2,1.319827670E-1,7.947845417E-1,8.085814025E-1
1.209066850E1,2.893272471E-1,1.480298656E-1,6.043085682E-1,6.861573746E-1
1.210061250E1,5.078412044E-1,4.974928021E-2,4.723965526E-1,6.953676601E-1
1.211055750E1,6.610481948E-1,-5.542634189E-2,2.901802097E-1,7.240589405E-1
1.212050150E1,9.923081642E-1,-6.953742743E-2,-5.659797773E-2,9.963504794E-1
1.213044550E1,1.434069400E0,-5.402359486E-2,-4.653816479E-1,1.508659561E0
1.214039050E1,1.801082169E0,-1.008937061E-2,-8.245759593E-1,1.980889772E0
1.215033450E1,2.113212388E0,1.260764945E-1,-1.034147770E0,2.356061011E0
1.216027950E1,2.586480176E0,3.413803303E-1,-1.081777727E0,2.824298724E0
1.217022350E1,2.940102822E0,6.534894991E-1,-1.016965873E0,3.178910617E0
1.218016750E1,3.153792826E0,1.093390735E0,-8.638921988E-1,3.447930136E0
1.219011250E1,3.220291455E0,1.627054998E0,-4.936652148E-1,3.641605466E0
1.220005650E1,3.264181826E0,2.239321627E0,4.651284635E-2,3.958738156E0
1.221000050E1,3.566646012E0,2.896293143E0,6.358075190E-1,4.638289442E0
1.221994550E1,3.794461720E0,3.540444639E0,1.138836465E0,5.313156922E0
1.222988950E1,4.064619455E0,4.044495093E0,1.439065261E0,5.911850869E0
1.223983450E1,4.100886810E0,4.412393131E0,1.455379139E0,6.197145651E0
1.224977850E1,3.595589730E0,4.627566574E0,1.213940442E0,5.984671194E0
1.225972250E1,3.075607367E0,4.629818922E0,7.428277914E-1,5.607706933E0
1.226966750E1,2.466714581E0,4.386472424E0,2.201628721E-1,5.037290228E0
1.227961150E1,1.730453067E0,3.964756613E0,-3.464954746E-1,4.339795149E0
1.228955650E1,1.098804672E0,3.507723035E0,-9.445219405E-1,3.795209388E0
1.229950050E1,5.216915041E-1,3.049400731E0,-1.693745563E0,3.527007354E0
1.230944450E1,4.893300891E-2,2.739386035E0,-2.406163740E0,3.646402916E0
1.231938950E1,-9.507631123E-2,2.419211801E0,-2.744142745E0,3.659500601E0
1.232933350E1,7.358837843E-2,2.040075415E0,-2.715139385E0,3.396955229E0
1.233927850E1,8.410751939E-2,1.488381262E0,-2.181282164E0,2.642034205E0
1.234922250E1,3.052363515E-1,7.751016444E-1,-1.502933228E0,1.718359705E0
1.235916650E1,7.015132660E-1,1.405775893E-1,-8.671958756E-1,1.124238234E0
1.236911150E1,9.863264626E-1,-6.690927941E-1,-2.933273274E-1,1.227422494E0
1.237905550E1,1.156561714E0,-1.658148152E0,-1.784084898E-1,2.029512228E0
1.238900050E1,1.063705591E0,-2.354801797E0,-2.304526560E-1,2.594160657E0
1.239894450E1,4.239745903E-1,-2.656998181E0,-1.838651115E-1,2.696887126E0
1.240888850E1,-3.293029064E-1,-2.720797736E0,-5.444707945E-2,2.741194121E0
1.241883350E1,-7.496779507E-1,-2.587243822E0,-5.775367990E-2,2.694287125E0
1.242877750E1,-7.973549777E-1,-2.382897084E0,-1.705985101E-1,2.518546669E0
1.243872163E1,-7.805915952E-1,-2.493654458E0,-1.879922225E-1,2.619728396E0
1.244866662E1,-1.136278308E0,-3.066588621E0,-7.326195762E-2,3.271155985E0
1.245861063E1,-1.664121083E0,-3.745481349E0,1.337071109E-1,4.100708122E0
1.246855563E1,-2.198415676E0,-4.475983940E0,3.707238512E-1,5.000489965E0
1.247849962E1,-2.684171362E0,-4.939893259E0,6.669375104E-1,5.661459790E0
1.248844362E1,-3.159881532E0,-5.196331088E0,9.463202517E-1,6.154854189E0
1.249838862E1,-3.293666995E0,-5.234335651E0,1.036446310E0,6.270624605E0
1.250833263E1,-3.228437212E0,-5.149747490E0,8.191854112E-1,6.133006667E0
1.251827763E1,-2.889139659E0,-4.965197085E0,5.879094672E-1,5.774595017E0
1.252822162E1,-2.417821333E0,-4.644955609E0,3.658596987E-1,5.249316711E0
1.253816562E1,-1.879086365E0,-4.123921916E0,3.442852271E-1,4.544912525E0
1.254811062E1,-1.423134522E0,-3.424145274E0,5.434356911E-1,3.747719983E0
1.255805463E1,-1.044542511E0,-2.590335830E0,9.779381932E-1,2.959268808E0
1.256799963E1,-7.686469030E-1,-1.811617683E0,1.503382879E0,2.476476685E0
1.257794362E1,-6.295854968E-1,-1.117899925E0,1.943650882E0,2.328917536E0
1.258788762E1,-7.279204613E-1,-4.997094816E-1,2.229456789E0,2.397927301E0
1.259783262E1,-9.127094328E-1,1.134096712E-1,2.303749173E0,2.480556493E0
1.260777663E1,-1.135505306E0,7.513806599E-1,2.200826337E0,2.587968655E0
1.261772163E1,-1.478694765E0,1.336216831E0,1.909285041E0,2.759960687E0
1.262766562E1,-1.898612557E0,1.896656663E0,1.543097899E0,3.095672345E0
1.263760962E1,-2.177016621E0,2.291353076E0,1.097994248E0,3.345936588E0
1.264755462E1,-2.245375249E0,2.517744402E0,5.589581484E-1,3.419529367E0
1.265749863E1,-2.164936273E0,2.530900637E0,2.007056773E-2,3.330587025E0
1.266744262E1,-2.024246417E0,2.412693910E0,-4.189758056E-1,3.177138050E0
1.267738762E1,-1.745190389E0,2.151210519E0,-7.038334411E-1,2.858107364E0
1.268733162E1,-1.413351545E0,1.807149240E0,-8.962910360E-1,2.463064877E0
1.269727662E1,-1.074299576E0,1.435511323E0,-1.011233847E0,2.058496109E0
1.270722063E1,-8.346631372E-1,1.042364423E0,-1.085339119E0,1.720798404E0
1.271716462E1,-7.593983620E-1,6.446765757E-1,-9.883433135E-1,1.403252032E0
1.272710963E1,-7.394295359E-1,2.834695065E-1,-8.560534215E-1,1.166163994E0
1.273705362E1,-6.428306097E-1,6.789085150E-2,-6.049295425E-1,8.853135670E-1
1.274699862E1,-5.297700173E-1,-3.750754952E-2,-2.291209526E-1,5.784111845E-1
1.275694262E1,-2.635147136E-1,-7.811997056E-2,1.201393779E-1,2.999603377E-1
1.276688662E1,1.701949060E-1,4.595911503E-3,2.593561739E-1,3.102467620E-1
1.277683163E1,8.340094185E-1,2.542018533E-1,7.350593269E-2,8.749819509E-1
1.278677562E1,1.477972634E0,5.313861877E-1,-9.019622505E-2,1.573184587E0
1.279672062E1,1.864572406E0,8.471060121E-1,-1.520229292E-1,2.053613845E0
1.280666462E1,2.049317524E0,1.183983402E0,-1.583743210E-1,2.372045833E0
1.281660862E1,2.180740712E0,1.448178146E0,-1.953217073E-1,2.625071536E0
1.282655363E1,2.293482631E0,1.760752169E0,-3.180078399E-1,2.908855405E0
1.283649762E1,2.283892613E0,2.219835781E0,-3.964086230E-1,3.209513383E0
1.284644262E1,2.098072777E0,2.745982279E0,-4.593379658E-1,3.486161129E0
1.285638662E1,2.283076926E0,3.053656919E0,-6.943170977E-1,3.875478946E0
1.286633063E1,2.646505353E0,3.214619656E0,-8.826630767E-1,4.256390986E0
1.287627563E1,2.959982770E0,3.490435157E0,-8.644238569E-1,4.657452543E0
1.288621962E1,3.169540547E0,3.782766119E0,-5.273526321E-1,4.963205375E0
1.289616362E1,3.338642024E0,3.825704563E0,-2.610506970E-1,5.084357721E0
1.290610862E1,3.616819215E0,3.646813093E0,-2.683538693E-1,5.143213078E0
1.291605263E1,3.787152116E0,3.166557298E0,-4.294582553E-1,4.955203392E0
1.292599763E1,3.537063194E0,2.490503978E0,-8.010219128E-1,4.399438851E0
1.293594162E1,2.373209417E0,1.445548069E0,-1.022997276E0,2.961124040E0
1.294588562E1,1.782737700E0,2.681626654E-1,-1.449361623E0,2.313161048E0
1.295583062E1,1.736655793E0,-3.520608544E-1,-1.562424554E0,2.362433211E0
1.296577463E1,1.709848648E0,-8.501325309E-2,-9.728119393E-1,1.969053763E0
1.297571963E1,1.981124371E0,7.460690492E-1,-2.529552269E-1,2.132008243E0
1.298566362E1,2.233774958E0,1.331100517E0,-1.511202653E-1,2.604691246E0
1.299560762E1,2.089063972E0,1.535959471E0,-4.159019244E-1,2.626087239E0
1.300555262E1,1.723154572E0,1.630954506E0,-6.486189146E-1,2.459670868E0
1.301549663E1,1.333138272E0,1.748370105E0,-9.556993318E-1,2.397377085E0
1.302544163E1,1.022813673E0,1.827505737E0,-1.330273721E0,2.481038734E0
1.303538562E1,6.424762684E-1,1.761407642E0,-1.812300930E0,2.607636343E0
1.304532962E1,3.538828468E-1,1.422276735E0,-2.082909047E0,2.546883248E0
1.305527462E1,9.930911064E-3,6.159983218E-1,-1.953991098E0,2.048812770E0
1.306521863E1,-3.028173584E-1,-6.048260468E-1,-1.445004278E0,1.595478067E0
1.307516262E1,-6.563517112E-1,-1.315411853E0,-8.360729009E-1,1.691190056E0
1.308510762E1,-1.052434498E0,-1.678230414E0,-6.876881093E-1,2.096900244E0
1.309505162E1,-1.265017624E0,-1.819451782E0,-7.128586916E-1,2.327840607E0
1.310499662E1,-2.200312513E0,-1.906454843E0,-8.520019589E-1,3.033455547E0
1.311494063E1,-4.058949995E0,-2.389341885E0,-1.064731777E0,4.828838728E0
1.312488462E1,-5.912481689E0,-3.044092628E0,-8.389203487E-1,6.702814857E0
1.313482963E1,-7.048837765E0,-3.667709872E0,-6.071061686E-2,7.946187471E0
1.314477362E1,-7.797897665E0,-4.097286095E0,9.324351610E-1,8.858013133E0
1.315471862E1,-7.828189166E0,-4.234032004E0,1.848616524E0,9.089827043E0
1.316466262E1,-7.223950764E0,-4.056041590E0,2.296783969E0,8.597217842E0
1.317460662E1,-6.387555681E0,-3.526979671E0,2.531758423E0,7.723357683E0
1.318455163E1,-5.101233727E0,-2.652667149E0,2.734063899E0,6.366657988E0
1.319449562E1,-3.361904002E0,-1.886096592E0,2.509378790E0,4.599645724E0
1.320444062E1,-1.826435696E0,-1.403542841E0,1.809017280E0,2.928880909E0
1.321438462E1,-8.202479964E-1,-1.102542213E0,1.025154021E0,1.714452354E0
1.322432863E1,7.223240912E-2,-9.583375955E-1,4.742088971E-1,1.071682110E0
1.323427363E1,9.978519094E-1,-9.539551073E-1,5.845914647E-2,1.381722205E0
1.324421762E1,1.626112427E0,-9.930571926E-1,-1.723637845E-1,1.913142307E0
1.325416262E1,1.897219750E0,-1.079532250E0,-2.560872880E-1,2.197820138E0
1.326410662E1,1.748422730E0,-1.277928861E0,-1.326272763E-1,2.169717542E0
1.327405063E1,1.236807148E0,-1.518600842E0,1.816121793E-1,1.966932491E0
1.328399563E1,5.884655374E-1,-1.802580226E0,7.159167123E-1,2.026850734E0
1.329393962E1,-2.505414963E-2,-1.921374013E0,1.272302086E0,2.304573368E0
1.330388362E1,-6.808813655E-1,-1.690551082E0,1.903262263E0,2.635141294E0
1.331382862E1,-1.358976533E0,-1.020137402E0,2.597298694E0,3.103781249E0
1.332377263E1,-1.548339781E0,-7.758027256E-2,2.914401970E0,3.301077645E0
1.333371763E1,-1.312124548E0,8.377107060E-1,2.771681376E0,3.178938141E0
1.334366162E1,-8.133172917E-1,1.452192845E0,2.340555495E0,2.872028743E0
1.335360562E1,-1.041751635E-1,1.745947604E0,1.673439791E0,2.420658223E0
1.336355062E1,4.524990624E-1,1.791164122E0,1.060702461E0,2.130284963E0
1.337349463E1,7.803430885E-1,1.594331056E0,6.537973550E-1,1.891633641E0
1.338343963E1,9.251967466E-1,1.262521448E0,2.780228251E-1,1.589731461E0
1.339338362E1,1.125072119E0,8.163332856E-1,-1.013784403E-1,1.393723392E0
1.340332762E1,1.346097456E0,3.527923411E-1,-4.048844545E-1,1.449266096E0
1.341327262E1,1.537060502E0,-6.448952615E-2,-7.142530333E-1,1.696134217E0
1.342321663E1,1.694315520E0,-3.853209865E-1,-9.915094346E-1,2.000566995E0
1.343316117E1,2.034217674E0,-4.799494010E-1,-1.156300490E0,2.388602896E0
1.344310517E1,2.454913731E0,-2.462163109E-1,-1.072825639E0,2.690386357E0
1.345304917E1,2.939702872E0,2.656629807E-1,-8.697978866E-1,3.077170479E0
1.346299417E1,3.443542242E0,9.283092195E-1,-3.349548250E-1,3.582169163E0
1.347293817E1,3.816805685E0,1.589877232E0,3.635984342E-1,4.150652849E0
1.348288317E1,3.950604013E0,2.205889587E0,1.056484426E0,4.646437375E0
1.349282717E1,3.968225182E0,2.780253394E0,1.609883626E0,5.105716925E0
1.350277117E1,3.616153802E0,3.172494560E0,1.910629608E0,5.176079169E0
1.351271617E1,3.026910000E0,3.407101225E0,1.767705532E0,4.888282495E0
1.352266017E1,2.500155392E0,3.573682551E0,1.223165448E0,4.529692890E0
1.353260417E1,2.062027617E0,3.686315712E0,4.238001971E-1,4.245054538E0
1.354254917E1,1.700855631E0,3.560004160E0,-6.417295790E-1,3.997293628E0
1.355249317E1,1.419506325E0,3.221291914E0,-1.731307199E0,3.922900001E0
1.356243817E1,9.000870484E-1,2.979140003E0,-2.687284420E0,4.111803668E0
1.357238217E1,5.629933119E-1,2.876527800E0,-3.286406507E0,4.403616853E0
1.358232617E1,2.823006481E-1,2.796142618E0,-3.298802020E0,4.333613038E0
1.359227117E1,2.380389798E-1,2.596574224E0,-2.806135510E0,3.830568725E0
1.360221517E1,3.409324336E-1,2.232934129E0,-2.040908789E0,3.044263200E0
1.361216017E1,2.604425865E-1,1.817725684E0,-1.168826395E0,2.176720502E0
1.362210417E1,1.989690542E-2,1.337349436E0,-2.960509604E-1,1.369870641E0
1.363204817E1,3.654100478E-2,7.307288790E-1,3.254918374E-1,8.007776694E-1
1.364199317E1,5.438232154E-1,2.959170592E-1,6.394311847E-1,8.900465355E-1
1.365193717E1,9.904581052E-1,-5.156367123E-2,7.469280052E-1,1.241598774E0
1.366188217E1,1.292094326E0,-7.170282680E-1,3.146975850E-1,1.510851367E0
1.367182617E1,1.485568167E0,-1.390491271E0,-2.862504423E-1,2.054827990E0
1.368177017E1,1.510266806E0,-1.947205258E0,-7.743029147E-1,2.583032935E0
1.369171517E1,1.369933046E0,-2.388381187E0,-1.147731396E0,2.983013342E0
1.370165917E1,1.138841727E0,-2.895651703E0,-1.534493136E0,3.469355625E0
1.371160417E1,7.437143755E-1,-3.313510106E0,-1.765546301E0,3.827481422E0
1.372154817E1,2.730415821E-2,-3.529599223E0,-1.585239805E0,3.869341214E0
1.373149217E1,-9.372934663E-1,-3.673928971E0,-1.012271728E0,3.924406602E0
1.374143717E1,-1.675233132E0,-3.834964213E0,-3.764525145E-1,4.201794029E0
1.375138117E1,-2.151105269E0,-3.967866163E0,2.963965309E-1,4.523169980E0
1.376132617E1,-2.503899364E0,-4.107233378E0,7.901810288E-1,4.874757851E0
1.377127017E1,-2.939100609E0,-4.156339465E0,9.894493143E-1,5.185795993E0
1.378121417E1,-3.082928665E0,-4.160340714E0,9.223099762E-1,5.259614027E0
1.379115917E1,-2.794214791E0,-4.223834460E0,7.415702015E-1,5.118431420E0
1.380110317E1,-2.424116446E0,-4.395057306E0,5.793701935E-1,5.052577470E0
1.381104717E1,-2.199602076E0,-4.469337995E0,6.333715689E-1,5.021393328E0
1.382099217E1,-2.144501424E0,-4.273513573E0,8.889948803E-1,4.863344170E0
1.383093617E1,-2.244524480E0,-3.908604047E0,1.117988802E0,4.643810364E0
1.384088117E1,-2.607261765E0,-3.363310257E0,1.382668135E0,4.474532486E0
1.385082517E1,-3.156922840E0,-2.675954270E0,1.689518903E0,4.470052259E0
1.386076917E1,-3.568142899E0,-1.894030094E0,1.821350373E0,4.431287728E0
1.387071417E1,-3.757612567E0,-9.746753007E-1,1.889998585E0,4.317607995E0
1.388065817E1,-3.582713576E0,1.623128593E-2,1.903588391E0,4.057061595E0
1.389060317E1,-3.126991528E0,9.266339922E-1,1.844587208E0,3.746895854E0
1.390054717E1,-2.595968453E0,1.614941322E0,1.692732679E0,3.494628965E0
1.391049117E1,-2.155802922E0,2.042189183E0,1.410942492E0,3.287671154E0
1.392043617E1,-1.859770673E0,2.226541952E0,1.073767918E0,3.093414548E0
1.393038017E1,-1.768610827E0,2.161522669E0,7.432360733E-1,2.890080339E0
1.394032517E1,-1.703160018E0,2.010532942E0,4.320617281E-1,2.670144958E0
1.395026917E1,-1.672169775E0,1.830686038E0,1.460393272E-1,2.483725148E0
1.396021317E1,-1.704404306E0,1.631404157E0,-1.304044573E-1,2.362938612E0
1.397015817E1,-1.680911363E0,1.405719175E0,-4.292324066E-1,2.232879277E0
1.398010217E1,-1.501464407E0,1.302034593E0,-7.603485346E-1,2.127867322E0
1.399004717E1,-1.198887370E0,1.118497510E0,-1.087901954E0,1.967713970E0
1.399999117E1,-7.142830002E-1,8.049809164E-1,-1.471249067E0,1.822846208E0
1.400993517E1,-1.420510876E-1,4.535819668E-1,-1.836054951E0,1.896579261E0
1.401988017E1,2.515571576E-1,2.129912621E-1,-1.873494819E0,1.902269465E0
1.402982417E1,5.501627666E-1,1.324897206E-1,-1.493374931E0,1.596997583E0
1.403976817E1,7.839917511E-1,2.164089596E-1,-8.008453269E-1,1.141415411E0
1.404971317E1,9.834677589E-1,3.262980223E-1,8.434725523E-2,1.039612279E0
1.405965717E1,1.430233626E0,4.723772568E-1,6.973792845E-1,1.659833234E0
1.406960217E1,1.926700827E0,7.716336608E-1,8.286614089E-1,2.234787308E0
1.407954617E1,2.352464665E0,1.073736489E0,7.297095631E-1,2.686908278E0
1.408949017E1,2.639965827E0,1.439021407E0,4.810491161E-1,3.044931925E0
1.409943517E1,2.698700523E0,1.745512571E0,1.902982181E-1,3.219629181E0
1.410937917E1,2.789415981E0,2.033707797E0,5.960753962E-2,3.452587722E0
1.411932417E1,2.874953730E0,2.332086534E0,5.195104927E-3,3.701893237E0
1.412926817E1,2.710962135E0,2.486262993E0,-9.808353424E-2,3.679733651E0
1.413921217E1,2.485908067E0,2.675919771E0,-1.659844722E-1,3.656205189E0
1.414915717E1,2.733683830E0,2.920211179E0,-4.267001237E-1,4.022776853E0
1.415910117E1,2.705354070E0,2.953982942E0,-8.091014493E-1,4.086514532E0
1.416904617E1,2.488479087E0,2.892111214E0,-1.304399791E0,4.032157519E0
1.417899017E1,2.853266991E0,2.723033711E0,-2.321439924E0,4.576584800E0
1.418893417E1,2.846033401E0,2.403716095E0,-2.807603161E0,4.664803607E0
1.419887917E1,2.509749504E0,1.954855170E0,-2.521904111E0,4.059593779E0
1.420882317E1,2.688157994E0,1.458808385E0,-1.860513123E0,3.579919606E0
1.421876817E1,2.485974725E0,1.199384968E0,-7.722053723E-1,2.866163947E0
1.422871217E1,2.631761014E0,1.313613834E0,-2.713857968E-1,2.953878398E0
1.423865617E1,2.606196402E0,1.584543986E0,-1.176847167E-1,3.052357945E0
1.424860117E1,2.528596249E0,1.910294124E0,7.149682939E-4,3.169072916E0
1.425854517E1,2.288316032E0,2.186566878E0,-5.135755688E-3,3.165042077E0
1.426848917E1,1.841194654E0,2.386174448E0,-1.443607378E-1,3.017393954E0
1.427843417E1,1.276560028E0,2.550280648E0,-3.905567296E-1,2.878553708E0
1.428837817E1,5.143216735E-1,2.705178654E0,-6.325036959E-1,2.825345865E0
1.429832317E1,-3.575455427E-2,3.011546441E0,-7.726276875E-1,3.109283503E0
1.430826717E1,8.824734807E-2,3.214560599E0,-9.497714245E-1,3.353096062E0
1.431821117E1,1.475135565E-1,3.086007224E0,-1.440447543E0,3.408825305E0
1.432815617E1,-2.920801163E-1,2.250646514E0,-2.172206262E0,3.141528382E0
1.433810017E1,-9.914872152E-1,8.825325376E-1,-2.588800936E0,2.909261223E0
1.434804517E1,-1.467394436E0,-3.342069662E-1,-2.398900913E0,2.831901537E0
1.435798917E1,-2.281692306E0,-1.286890889E0,-1.999096373E0,3.295238117E0
1.436793317E1,-3.971448167E0,-2.413027201E0,-1.907983890E0,5.023495132E0
1.437787817E1,-5.703992198E0,-3.309228775E0,-1.794096355E0,6.834127875E0
1.438782217E1,-6.728569976E0,-4.240973234E0,-1.551953507E0,8.103583626E0
1.439776717E1,-7.294015610E0,-4.691669599E0,-3.258891557E-1,8.678745940E0
1.440771117E1,-7.430429982E0,-4.430203165E0,9.016295439E-1,8.697754057E0
1.441765517E1,-6.711316597E0,-4.078348133E0,1.438521908E0,7.983986425E0
1.442760017E1,-5.474864375E0,-3.504046306E0,1.943078732E0,6.784396465E0
1.443754492E1,-4.212882625E0,-2.686254725E0,2.684675392E0,5.672021370E0
1.444748992E1,-3.048302039E0,-1.967229633E0,3.519389400E0,5.054526634E0
1.445743392E1,-2.336835058E0,-1.575617042E0,3.375857505E0,4.397701791E0
1.446737792E1,-2.019202609E0,-1.572932585E0,3.328118790E0,4.198531978E0
1.447732292E1,-1.290655911E0,-1.788632863E0,3.328723392E0,3.993169120E0
1.448726692E1,-2.073124462E-1,-1.987966783E0,2.848794748E0,3.480031882E0
1.449721192E1,7.274509299E-1,-1.999606835E0,2.126003172E0,3.007906554E0
1.450715592E1,1.527721914E0,-1.906009870E0,1.574523028E0,2.906188335E0
1.451709992E1,2.060511433E0,-1.882014651E0,1.182895235E0,3.030994498E0
1.452704492E1,2.363963215E0,-2.057547480E0,8.919879238E-1,3.258445361E0
1.453698892E1,2.177734074E0,-2.290996395E0,6.746953037E-1,3.232089716E0
1.454693292E1,1.548987653E0,-2.335496630E0,5.898665303E-1,2.863887180E0
1.455687792E1,6.680022883E-1,-2.289726380E0,6.552313846E-1,2.473540402E0
1.456682192E1,-1.813958323E-1,-2.139840024E0,9.700340733E-1,2.356434993E0
1.457676692E1,-7.941273147E-1,-1.747175519E0,1.624135337E0,2.514175030E0
1.458671092E1,-1.031386276E0,-1.138879734E0,2.110105762E0,2.610239650E0
1.459665492E1,-9.227169424E-1,-5.265113640E-1,2.347835863E0,2.577004853E0
1.460659992E1,-5.505644703E-1,2.361105680E-2,2.406788222E0,2.469070324E0
1.461654392E1,-2.023686254E-1,4.618218631E-1,2.202774775E0,2.259745385E0
1.462648892E1,-1.011848974E-1,7.038691092E-1,1.716992192E0,1.858421990E0
1.463643292E1,-7.640205860E-2,7.862107694E-1,1.294724988E0,1.516666557E0
1.464637692E1,-2.548257512E-1,7.717821801E-1,8.529332010E-1,1.178167621E0
1.465632192E1,-2.590404242E-1,6.655710161E-1,3.191579872E-1,7.822713977E-1
1.466626592E1,7.356966734E-3,5.368369621E-1,-2.760600610E-1,6.037029121E-1
1.467621092E1,3.583711696E-1,5.185340077E-1,-6.578947914E-1,9.111163311E-1
1.468615492E1,9.455029571E-1,5.601492262E-1,-9.436531904E-1,1.448524885E0
1.469609892E1,1.490665770E0,7.807605797E-1,-1.084100241E0,2.001735460E0
1.470604392E1,1.981391589E0,1.084077290E0,-1.092614225E0,2.508972309E0
1.471598792E1,2.437053410E0,1.165814348E0,-1.072139176E0,2.906515927E0
1.472593292E1,2.895954005E0,1.185132964E0,-9.142378950E-1,3.259895806E0
1.473587692E1,3.269375907E0,1.336431423E0,-6.593162495E-1,3.592988406E0
1.474582092E1,3.636108010E0,1.560960411E0,-3.920698428E-1,3.976379966E0
1.475576592E1,3.945007643E0,1.798469633E0,-2.401691204E-1,4.342264332E0
1.476570992E1,4.142486826E0,2.091906888E0,-1.970549682E-1,4.644900666E0
1.477565492E1,4.162646856E0,2.501458737E0,-2.868977290E-1,4.864898249E0
1.478559892E1,3.958600665E0,2.924510636E0,-3.875597392E-1,4.936950905E0
1.479554292E1,3.691284091E0,3.306957716E0,-5.865377104E-1,4.990548474E0
1.480548792E1,3.306222137E0,3.621936699E0,-9.343450078E-1,4.992247075E0
1.481543192E1,2.712497613E0,3.808258810E0,-1.268875033E0,4.844638512E0
1.482537692E1,1.976858827E0,3.872309795E0,-1.442103620E0,4.580656811E0
1.483532092E1,1.561286101E0,3.871345589E0,-1.685359924E0,4.501707347E0
1.484526492E1,1.424326184E0,3.812308592E0,-1.736756950E0,4.424785484E0
1.485520992E1,1.193421392E0,3.570894599E0,-1.561194008E0,4.075888809E0
1.486515392E1,1.032487307E0,3.385556574E0,-1.304644205E0,3.772283109E0
1.487509892E1,1.069640515E0,3.156201879E0,-1.109771125E0,3.512453997E0
1.488504292E1,1.052350883E0,2.774685676E0,-9.949623616E-1,3.129899851E0
1.489498692E1,1.167890695E0,2.130592067E0,-1.039374303E0,2.642667246E0
1.490493192E1,1.393408447E0,1.269742175E0,-1.223072769E0,2.247162497E0
1.491487592E1,1.509189164E0,3.452418315E-1,-1.339284280E0,2.047077487E0
1.492481992E1,1.571579540E0,-5.069395638E-1,-1.390152717E0,2.158558442E0
1.493476492E1,1.554967015E0,-1.317425634E0,-1.424234968E0,2.486358374E0
1.494470892E1,1.478721077E0,-1.971989851E0,-1.361739342E0,2.815971242E0
1.495465392E1,1.184476322E0,-2.425139709E0,-1.142462323E0,2.930786059E0
1.496459792E1,6.924050581E-1,-2.654611933E0,-7.110687858E-1,2.834079762E0
1.497454192E1,1.275195873E-1,-2.748558562E0,-1.558318055E-1,2.755924339E0
1.498448692E1,-3.377322525E-1,-2.920842093E0,2.821888201E-1,2.953813152E0
1.499443092E1,-9.276046300E-1,-3.222046790E0,5.472906142E-1,3.397287577E0
1.500437592E1,-1.639335321E0,-3.628887869E0,7.124246089E-1,4.045218941E0
1.501431992E1,-2.181439455E0,-4.100180467E0,8.260803017E-1,4.717262619E0
1.502426392E1,-2.647311684E0,-4.547811137E0,9.906323522E-1,5.354642635E0
1.503420892E1,-2.959910265E0,-4.892503331E0,1.168088331E0,5.836273465E0
1.504415292E1,-2.853256466E0,-5.131066806E0,1.305046493E0,6.014321689E0
1.505409792E1,-2.441439992E0,-5.288517120E0,1.269034662E0,5.961500779E0
1.506404192E1,-2.050150752E0,-5.326321709E0,1.262212130E0,5.845168989E0
1.507398592E1,-1.781071243E0,-5.070554556E0,1.423773623E0,5.559664523E0
1.508393092E1,-1.667530010E0,-4.526536043E0,1.590379508E0,5.079320020E0
1.509387492E1,-1.859009365E0,-4.004369745E0,1.663211841E0,4.717750153E0
1.510381992E1,-2.186122490E0,-3.531697789E0,1.647125420E0,4.468225930E0
1.511376392E1,-2.504276510E0,-3.005420313E0,1.522819901E0,4.197967669E0
1.512370792E1,-2.708025078E0,-2.298331727E0,1.393021215E0,3.815263642E0
1.513365292E1,-2.906792403E0,-1.462168779E0,1.394662675E0,3.540121974E0
1.514359692E1,-3.120644960E0,-5.357926494E-1,1.472153923E0,3.491809832E0
1.515354192E1,-3.211160443E0,3.983854204E-1,1.591877418E0,3.606152527E0
1.516348592E1,-3.069057900E0,1.194223630E0,1.636826280E0,3.677565329E0
1.517342992E1,-2.796408666E0,1.817478347E0,1.593485548E0,3.696258265E0
1.518337492E1,-2.434701076E0,2.195042417E0,1.367011777E0,3.551718139E0
1.519331892E1,-2.102905501E0,2.431203271E0,9.950649802E-1,3.364983686E0
1.520326392E1,-1.834536429E0,2.515194431E0,6.958113536E-1,3.189965576E0
1.521320792E1,-1.665616216E0,2.470235775E0,4.818003371E-1,3.018024805E0
1.522315192E1,-1.513506163E0,2.323330913E0,2.307498407E-1,2.782411351E0
1.523309692E1,-1.213584931E0,2.087326180E0,-6.471639812E-2,2.415348252E0
1.524304092E1,-1.062404001E0,1.854969524E0,-3.773184872E-1,2.170710353E0
1.525298492E1,-9.436189842E-1,1.573872818E0,-6.402975959E-1,1.943572341E0
1.526292992E1,-8.266577142E-1,1.184668111E0,-9.213622887E-1,1.713391367E0
1.527287392E1,-6.978260118E-1,7.005309337E-1,-1.288897215E0,1.624487846E0
1.528281892E1,-6.628900677E-1,3.134288853E-1,-1.559090618E0,1.722911624E0
1.529276292E1,-5.662928957E-1,8.974832833E-2,-1.569995091E0,1.671414667E0
1.530270692E1,-3.429736966E-1,1.565299630E-3,-1.288035189E0,1.332917122E0
1.531265192E1,1.699516618E-1,9.036053181E-2,-8.759281075E-1,8.968269859E-1
1.532259592E1,9.725936919E-1,2.779532433E-1,-4.627153176E-1,1.112340757E0
1.533254092E1,1.600287030E0,5.904226005E-1,-1.780044472E-1,1.714993588E0
1.534248492E1,2.001065716E0,1.013544667E0,-7.307280019E-2,2.244298648E0
1.535242892E1,2.549829243E0,1.412280920E0,-2.043543398E-2,2.914890079E0
1.536237392E1,2.730257946E0,1.803768380E0,3.400120819E-1,3.289908363E0
1.537231792E1,2.315945295E0,2.088690335E0,8.141470116E-1,3.223207297E0
1.538226292E1,2.182525867E0,2.209425398E0,8.692973650E-1,3.225005064E0
1.539220692E1,2.025005971E0,2.280576072E0,6.868974195E-1,3.126260461E0
1.540215092E1,1.907379287E0,2.221324482E0,7.562940753E-1,3.023964108E0
1.541209592E1,1.812723391E0,2.007488297E0,6.769039433E-1,2.788220634E0
1.542203992E1,1.468683162E0,1.537288544E0,4.589172587E-2,2.126591721E0
1.543198492E1,9.362865758E-1,6.562844682E-1,-8.991795605E-1,1.454601573E0
1.544192838E1,3.360307127E-1,-7.346938759E-1,-1.388910184E0,1.606786616E0
1.545187237E1,6.272115272E-1,-2.386477919E0,-1.309991630E0,2.793698127E0
1.546181737E1,1.455959621E0,-2.859728165E0,-3.171781200E-1,3.224665185E0
1.547176137E1,1.776201682E0,-2.031702202E0,3.475324783E-1,2.720934596E0
1.548170637E1,2.117116574E0,-1.000750959E-1,5.204331833E-1,2.182440907E0
1.549165038E1,2.692527033E0,2.212304567E0,6.700078833E-1,3.548648177E0
1.550159437E1,3.172161269E0,3.729005649E0,4.934099838E-1,4.920522702E0
1.551153937E1,3.398585340E0,4.994332591E0,5.536319196E-2,6.041258596E0
1.552148337E1,3.511995011E0,5.887532204E0,-4.194938689E-1,6.868269034E0
1.553142837E1,3.377050045E0,6.042575220E0,-1.254679601E0,7.035012665E0
1.554137238E1,2.918861641E0,5.366055293E0,-2.507476106E0,6.603161297E0
1.555131637E1,2.373610536E0,3.610986618E0,-3.297855940E0,5.435908860E0
1.556126137E1,1.569648789E0,1.384453436E0,-2.943255640E0,3.611545708E0
1.557120537E1,6.813082123E-1,-2.841056836E-1,-1.892609221E0,2.031469070E0
1.558115037E1,3.496845460E-1,-4.627147329E-1,-1.160285221E0,1.297168455E0
1.559109438E1,3.324422765E-1,7.157453889E-1,-8.784348819E-1,1.180871361E0
1.560103837E1,6.301094073E-1,1.942904046E0,-1.197139125E0,2.367499965E0
1.561098337E1,7.553631985E-1,2.544659135E0,-1.478361327E0,3.038324520E0
1.562092737E1,6.798879236E-1,2.587226281E0,-1.420014301E0,3.028601663E0
1.563087237E1,-1.948876977E-2,1.701157347E0,-1.382657756E0,2.192272474E0
1.564081638E1,-1.076119815E0,4.532527685E-2,-1.360248302E0,1.735039965E0
1.565076037E1,-2.577580714E0,-1.860172961E0,-1.287811241E0,3.429668143E0
1.566070538E1,-3.964298776E0,-3.290237603E0,-8.767667444E-1,5.225901664E0
1.567064937E1,-5.132794073E0,-4.305653379E0,-3.831208985E-1,6.710514708E0
1.568059437E1,-5.873739792E0,-4.573438899E0,6.908010207E-2,7.444590960E0
1.569053837E1,-5.838244854E0,-3.701536015E0,6.685848172E-1,6.945032578E0
1.570048237E1,-5.365170025E0,-2.483200221E0,1.127958305E0,6.018606373E0
1.571042738E1,-4.635329922E0,-1.565525333E0,1.408674942E0,5.091317919E0
1.572037137E1,-3.973501124E0,-1.028848000E0,1.484788295E0,4.364840853E0
1.573031538E1,-3.359617741E0,-8.197474748E-1,1.176634475E0,3.652873659E0
1.574026037E1,-2.817380290E0,-7.392172819E-1,7.312906502E-1,3.003141672E0
1.575020438E1,-2.361002185E0,-5.570478630E-1,5.831638670E-1,2.494937621E0
1.576014938E1,-1.674245537E0,-2.510952276E-1,4.318506436E-1,1.747181132E0
1.577009337E1,-9.273309803E-1,6.206117749E-2,1.664421630E-1,9.441913632E-1
1.578003737E1,-2.889670587E-1,2.537586343E-1,-1.121285462E-1,4.005848429E-1
1.578998237E1,1.742446876E-1,3.425725776E-1,-3.542898130E-1,5.227221573E-1
1.579992638E1,3.591447562E-1,3.810495955E-1,-4.026756687E-1,6.605538921E-1
1.580987138E1,3.568883157E-1,3.994338262E-1,-1.366371506E-1,5.527986635E-1
1.581981537E1,2.945529038E-1,2.584007388E-1,9.832552126E-1,1.058453196E0
1.582975937E1,3.297081184E-1,1.674490535E-1,1.653972071E0,1.694806844E0
1.583970437E1,2.725322896E-1,-1.946771979E-1,1.743345300E0,1.775225590E0
1.584964838E1,6.300842643E-2,-5.804408187E-1,2.190132510E0,2.266619072E0
1.585959338E1,-2.302908343E-1,-1.048195851E0,2.673776182E0,2.881115666E0
1.586953737E1,-8.188282925E-1,-1.657790887E0,3.085782691E0,3.597333070E0
1.587948137E1,-1.354443187E0,-2.172897257E0,3.373669184E0,4.235285422E0
1.588942637E1,-1.158766115E0,-2.302715385E0,3.333839706E0,4.214228783E0
1.589937038E1,-6.382849842E-1,-2.164788923E0,2.771880181E0,3.574498363E0
1.590931538E1,-2.388324469E-1,-1.863418751E0,2.097933321E0,2.816148895E0
1.591925937E1,1.169846588E-1,-1.554112737E0,1.644296391E0,2.265538000E0
1.592920337E1,6.448098922E-1,-1.369523156E0,1.295909634E0,1.992675400E0
1.593914837E1,8.908817768E-1,-1.364555361E0,9.796910423E-1,1.901440562E0
1.594909238E1,9.795793605E-1,-1.494206843E0,6.877459967E-1,1.914477571E0
1.595903737E1,9.533195150E-1,-1.763717877E0,4.678468341E-1,2.058737357E0
1.596898137E1,1.020595239E0,-2.064220907E0,3.296554935E-1,2.326219108E0
1.597892537E1,1.163096563E0,-2.157831321E0,1.817149441E-1,2.458058166E0
1.598887037E1,1.299945382E0,-2.025764939E0,1.624999702E-2,2.407040849E0
1.599881438E1,1.518794385E0,-1.541963392E0,-2.929244542E-1,2.184076973E0
1.600875937E1,1.797320656E0,-6.002085006E-1,-7.468970150E-1,2.036778568E0
1.601870338E1,2.027720833E0,5.248823297E-1,-1.232953394E0,2.430499395E0
1.602864737E1,2.243103606E0,1.477726466E0,-1.610790091E0,3.132065455E0
1.603859237E1,2.307035308E0,2.279321260E0,-1.706916416E0,3.664871208E0
1.604853637E1,2.342366524E0,2.914784378E0,-1.392890968E0,3.990337599E0
1.605848137E1,2.459045373E0,3.381895047E0,-6.800409745E-1,4.236339692E0
1.606842538E1,2.765932978E0,3.865437562E0,-6.423868060E-2,4.753537567E0
1.607836937E1,2.953934410E0,4.357374925E0,1.847281605E-2,5.264293493E0
1.608831437E1,2.968713248E0,4.650795808E0,2.439736113E-1,5.522923421E0
1.609825837E1,3.059017062E0,4.597597840E0,4.346122836E-1,5.539348257E0
1.610820337E1,3.136978573E0,4.375672617E0,4.719767225E-1,5.404619084E0
1.611814738E1,3.144565335E0,4.167881284E0,2.737488028E-1,5.228237174E0
1.612809137E1,2.901336951E0,3.918103434E0,-1.138581526E-1,4.876705271E0
1.613803637E1,2.456021778E0,3.658637332E0,-5.433764881E-1,4.439924336E0
1.614798037E1,2.012381247E0,3.507286833E0,-1.128392168E0,4.198095771E0
1.615792537E1,1.752719849E0,3.323128191E0,-1.788027383E0,4.160799174E0
1.616786938E1,1.439686820E0,3.072155170E0,-2.257401218E0,4.075131383E0
1.617781337E1,1.133856391E0,2.784767445E0,-2.325924446E0,3.801379298E0
1.618775837E1,9.152816230E-1,2.381032991E0,-2.005559593E0,3.244892577E0
1.619770237E1,9.687380379E-1,1.617880717E0,-1.731356169E0,2.559997185E0
1.620764737E1,1.437595271E0,7.460690492E-1,-1.618428893E0,2.289674927E0
1.621759138E1,1.797800712E0,1.241200161E-1,-1.380409502E0,2.270027218E0
1.622753537E1,1.835464967E0,-5.668577367E-1,-1.172534261E0,2.250576800E0
1.623748037E1,1.634445879E0,-1.329118896E0,-1.025651619E0,2.343060309E0
1.624742437E1,1.222949247E0,-2.058587700E0,-8.973180994E-1,2.557062367E0
1.625736937E1,6.005950016E-1,-2.793986750E0,-8.157725376E-1,2.971962508E0
1.626731338E1,-1.350244886E-1,-3.380930257E0,-8.004499090E-1,3.477016116E0
1.627725737E1,-7.251979977E-1,-3.649088829E0,-8.003513834E-1,3.805564841E0
1.628720238E1,-8.820144743E-1,-3.571886871E0,-7.226556283E-1,3.749474165E0
1.629714637E1,-6.012095439E-1,-3.284928916E0,-3.087853190E-1,3.353738104E0
1.630709038E1,-4.384096116E-1,-3.164362838E0,3.174432912E-1,3.210321697E0
1.631703537E1,-7.520992827E-1,-3.307963437E0,1.012795054E0,3.540343099E0
1.632697937E1,-1.158793012E0,-3.698334079E0,1.337983567E0,4.100082467E0
1.633692438E1,-1.636134555E0,-4.080402260E0,1.468209538E0,4.634895698E0
1.634686837E1,-2.336585966E0,-4.521730217E0,1.386808695E0,5.275311980E0
1.635681238E1,-3.127924744E0,-5.095805756E0,1.285086730E0,6.115766298E0
1.636675737E1,-3.994325398E0,-5.754722641E0,1.407268102E0,7.145059242E0
