"Time (s)","Linear Acceleration x (m/s^2)","Linear Acceleration y (m/s^2)","Linear Acceleration z (m/s^2)","Absolute acceleration (m/s^2)"
-6.010835059E-4,-6.486371287E0,-1.199418882E0,1.004810608E0,6.672425532E0
9.342916775E-3,-4.425012592E0,1.686565620E0,5.947554604E-1,4.772732350E0
1.928591682E-2,-1.596411495E0,5.255699038E0,7.341530085E-2,5.493295172E0
2.922991663E-2,-2.952832210E-1,6.366545466E0,-9.689877141E-1,6.446629394E0
3.917291667E-2,-5.627629316E-1,4.678408114E0,-2.284139366E0,5.236553947E0
4.911691649E-2,-4.092121249E-1,3.102468306E0,-2.878564385E0,4.251928630E0
5.906091677E-2,6.933979154E-2,2.089979646E0,-2.017559688E0,2.905747756E0
6.900391681E-2,9.026580691E-1,1.696769012E0,-3.182547386E-1,1.948102345E0
7.894791663E-2,1.768502069E0,1.708209674E0,1.019913381E0,2.661917196E0
8.889091667E-2,2.031292312E0,1.675441293E0,1.884410693E0,3.237940031E0
9.883491648E-2,1.826263788E0,1.584024169E0,2.728704341E0,3.645572571E0
1.087789168E-1,1.570278534E0,1.416022553E0,3.634733915E0,4.205019046E0
1.187219168E-1,1.483423993E0,1.029376003E0,4.621612939E0,4.961800869E0
1.286659166E-1,1.218618214E0,1.654838043E-1,5.070932286E0,5.217927701E0
1.386089167E-1,3.582951558E-1,-1.237739779E0,4.753938353E0,4.925475108E0
1.485529165E-1,-1.312674771E0,-2.598863994E0,4.220039032E0,5.126981426E0
1.584969168E-1,-2.036136146E0,-2.851681226E0,2.763769509E0,4.462774711E0
1.684399168E-1,-1.896697009E0,-1.948085849E0,1.432787105E0,3.073333192E0
1.783839166E-1,-7.354095751E-1,-1.291151170E0,5.223118937E-1,1.575026445E0
1.883269167E-1,6.449946642E-1,-1.127212200E0,-3.230346912E-1,1.338273841E0
1.982709165E-1,1.680852306E0,-1.132697473E0,-5.558690643E-1,2.101727493E0
2.082149168E-1,2.543531207E0,-9.838010502E-1,-2.330817103E-1,2.737104783E0
2.181579168E-1,3.238155869E0,-4.391270649E-1,-9.051344381E-1,3.390833874E0
2.281019166E-1,3.966222510E0,3.242626065E-1,-2.606583488E0,4.757136189E0
2.380449167E-1,4.598663203E0,7.708612436E-1,-3.964719776E0,6.120533736E0
2.479889165E-1,5.056049953E0,1.015452029E0,-5.019619460E0,7.196621671E0
2.579329167E-1,5.425107493E0,1.118948915E0,-5.299756054E0,7.666241075E0
2.678759168E-1,5.506400748E0,1.036906047E0,-5.093817118E0,7.572489431E0
2.778199166E-1,4.874409707E0,1.012096896E0,-4.500562127E0,6.711130275E0
2.877629166E-1,4.013510113E0,1.164698115E0,-3.523856088E0,5.466474810E0
2.977069165E-1,3.266413708E0,1.253182275E0,-2.534201683E0,4.319965566E0
3.076509167E-1,2.486128507E0,1.233100013E0,-6.355166200E-1,2.846972421E0
3.175939168E-1,1.873078351E0,1.332366439E0,2.193094710E0,3.176993428E0
3.275379166E-1,2.023250052E0,1.444352898E0,3.664470515E0,4.428096681E0
3.374809166E-1,2.149767426E0,1.392972829E0,3.636996202E0,4.448551974E0
3.474249165E-1,1.887791115E0,1.426621801E0,2.576891912E0,3.498482097E0
3.573689167E-1,1.216880422E0,1.513281630E0,1.373648951E0,2.378598473E0
3.673119168E-1,2.419589531E-1,1.555465198E0,4.092651884E-1,1.626503647E0
3.772559166E-1,-5.297858047E-1,1.433709211E0,-4.120024163E-1,1.583016454E0
3.871989166E-1,-1.110199726E0,8.190352839E-1,-1.721841434E0,2.206377155E0
3.971429165E-1,-1.623956559E0,-2.334155864E-1,-3.334533478E0,3.716292676E0
4.070869167E-1,-1.446648515E0,-1.144177896E0,-4.771575894E0,5.115649665E0
4.170299168E-1,-5.624793416E-1,-1.747570791E0,-5.676926022E0,5.966395539E0
4.269739166E-1,7.302002907E-1,-2.610137426E0,-5.558653806E0,6.184225253E0
4.369169166E-1,1.369429016E0,-4.021038988E0,-4.384170375E0,6.104509829E0
4.468609169E-1,1.539584160E0,-5.811898470E0,-3.175232812E0,6.799307804E0
4.568049167E-1,1.292083801E0,-7.404366018E0,-2.215771381E0,7.836055098E0
4.667479168E-1,7.842180383E-1,-8.531187040E0,-1.220593988E0,8.653669737E0
4.766919166E-1,-3.924417257E-1,-9.332153258E0,-2.196459782E-1,9.342983426E0
4.866349166E-1,-2.016820453E0,-9.595485538E0,8.274389023E-1,9.839998099E0
4.965789169E-1,-3.685141591E0,-9.046078817E0,2.187809265E0,1.000991108E1
5.065229167E-1,-4.872623382E0,-7.556878944E0,3.475936401E0,9.640073229E0
5.164659168E-1,-5.035853670E0,-5.362185606E0,4.280715004E0,8.511015075E0
5.264099166E-1,-4.845317470E0,-2.829617343E0,4.646012201E0,7.284865480E0
5.363529166E-1,-4.171697761E0,-7.234432483E-1,3.998074048E0,5.823317649E0
5.462969169E-1,-2.790190153E0,9.197366166E-1,2.870539666E0,4.107441358E0
5.562409167E-1,-1.788321206E0,2.258344374E0,1.820228731E0,3.407556996E0
5.661839168E-1,-1.027403153E0,3.445901009E0,1.000260231E0,3.732333256E0
5.761279166E-1,-7.305201334E-1,4.569601956E0,1.025290992E0,4.739846339E0
5.860709166E-1,-1.140591214E0,5.279790151E0,1.559665692E0,5.622249499E0
5.960149169E-1,-1.993944392E0,5.619687628E0,2.519053009E0,6.473201011E0
6.059589167E-1,-3.081073344E0,5.490664721E0,3.890168361E0,7.400933854E0
6.159019168E-1,-4.221557554E0,5.106766362E0,5.110192246E0,8.367477257E0
6.258459166E-1,-4.778032390E0,4.155688085E0,5.011512296E0,8.075555242E0
6.357889166E-1,-4.742406474E0,2.560946555E0,3.048228364E0,6.191975661E0
6.457329169E-1,-4.246088963E0,9.470717651E-1,7.466640034E-1,4.414037102E0
6.556769167E-1,-2.926537281E0,-6.885844874E-1,-1.153029411E0,3.219976068E0
6.656199167E-1,-1.471258861E0,-2.087737824E0,-3.024150699E0,3.958375842E0
6.755639166E-1,-3.297934878E-1,-3.309277307E0,-4.646513892E0,5.714032848E0
6.855069166E-1,1.160314457E0,-4.077285694E0,-5.646939746E0,7.061056349E0
6.954509169E-1,2.659865656E0,-3.719995674E0,-6.070497429E0,7.600275795E0
7.053949167E-1,3.331532394E0,-2.332349074E0,-5.311064569E0,6.689272543E0
7.153379167E-1,2.887592486E0,-6.049166787E-1,-2.966295424E0,4.183661446E0
7.252819166E-1,3.382379197E0,7.196296942E-1,-5.108516434E-1,3.495615158E0
7.352249166E-1,4.371413505E0,1.769135322E0,1.203784997E0,4.867051894E0
7.451689169E-1,5.040729078E0,2.584920723E0,1.937010638E0,5.986883580E0
7.551129167E-1,5.396095948E0,3.074936691E0,1.606498965E0,6.415132583E0
7.650559167E-1,5.597720808E0,3.317000894E0,9.368186724E-1,6.573781438E0
7.749999166E-1,5.702417543E0,3.364455727E0,3.001387489E-1,6.627760666E0
7.849429166E-1,5.776384821E0,3.426853704E0,-3.943055257E-1,6.727958439E0
7.948869169E-1,6.156274914E0,3.464968194E0,-1.085584118E0,7.147322455E0
8.048309167E-1,6.269807376E0,3.467570790E0,-1.581280071E0,7.337232338E0
8.147739167E-1,6.232720826E0,3.384599385E0,-2.157878684E0,7.413417721E0
8.247179165E-1,6.093190473E0,3.181379989E0,-2.960133044E0,7.484018734E0
8.346609166E-1,5.853682673E0,2.867285691E0,-3.776021356E0,7.532945330E0
8.446049169E-1,5.597036099E0,2.562942209E0,-4.376245059E0,7.552946887E0
8.545489167E-1,5.204565137E0,2.130536519E0,-4.740492096E0,7.355198803E0
8.644919167E-1,4.117594060E0,1.484482924E0,-4.296278538E0,6.133211204E0
8.744359165E-1,2.541016320E0,7.856979686E-1,-2.887786029E0,3.925989479E0
8.843789166E-1,1.116883094E0,1.195931017E-1,-1.370650499E0,1.772121086E0
8.943229169E-1,-6.246884537E-1,-8.565095043E-1,-2.536677101E-1,1.090041973E0
9.042669167E-1,-3.794735370E0,-2.505482790E0,-8.788175091E-2,4.548096716E0
9.142099167E-1,-8.555939473E0,-5.664930459E0,-1.064844775E0,1.031646411E1
9.241539165E-1,-1.263489045E1,-9.037534280E0,-1.251484975E0,1.558472641E1
9.340969166E-1,-1.445867678E1,-1.108945148E1,4.934949146E-1,1.822835169E1
9.440409169E-1,-1.264851213E1,-1.061104399E1,2.176706718E0,1.665284257E1
9.539849167E-1,-7.552307591E0,-5.647166618E0,7.913995155E-1,9.463305656E0
9.639279167E-1,-6.192770895E0,-3.750328106E-1,-2.226618551E0,6.591577287E0
9.738719165E-1,-5.872797221E0,1.484184131E0,-1.239346594E0,6.182922425E0
9.838142083E-1,-4.594754924E0,2.812852206E0,1.463917682E0,5.582738156E0
9.937582081E-1,-3.760447882E0,2.781784195E0,3.679693741E0,5.951423158E0
1.003702208E0,-4.430450503E0,2.194959387E0,5.810482274E0,7.629445761E0
1.013645208E0,-4.888090437E0,2.044771314E0,6.646071610E0,8.499693271E0
1.023589208E0,-3.978692282E0,2.008813861E0,4.303577033E0,6.195651756E0
1.033532208E0,-2.017492883E0,2.370872869E0,1.598621743E0,3.499558140E0
1.043476209E0,-7.524267268E-1,2.335433480E0,1.150030959E0,2.709790901E0
1.053420208E0,-3.841234767E-1,1.617127596E0,1.538845365E0,2.265104316E0
1.063363208E0,-5.211330950E-2,6.237733644E-1,2.115306130E0,2.205975755E0
1.073307208E0,4.696530390E-1,1.028449219E-1,3.182665792E0,3.218775015E0
1.083250208E0,8.660159075E-1,-3.979030252E-2,4.554774294E0,4.636543507E0
1.093194209E0,1.256210548E0,-9.170422196E-2,5.419257354E0,5.563706038E0
1.103138208E0,1.524080853E0,-3.384000045E-1,5.484180159E0,5.702067084E0
1.113081208E0,1.674902179E0,-8.914916414E-1,4.999996204E0,5.347898344E0
1.123025208E0,1.458392648E0,-1.379417814E0,4.126487675E0,4.588856410E0
1.132968208E0,6.900182247E-1,-1.611335928E0,3.063522341E0,3.529546396E0
1.142912209E0,-2.057880771E-1,-1.656580514E0,2.110654085E0,2.690997659E0
1.152856208E0,-1.044679921E0,-1.448276964E0,1.214650878E0,2.159684944E0
1.162799208E0,-1.284765426E0,-1.042476105E0,1.925311236E-1,1.665667092E0
1.172743208E0,-7.282426429E-1,-2.438318163E-1,-6.518152951E-1,1.007300591E0
1.182686208E0,4.557109380E-1,8.660205853E-1,-1.005736295E0,1.403271039E0
1.192630209E0,1.937888889E0,1.853971989E0,-1.151259459E0,2.918565371E0
1.202574208E0,2.963177104E0,2.486420867E0,-2.213585692E0,4.456755422E0
1.212517208E0,4.040530096E0,2.896075627E0,-3.459672956E0,6.056605853E0
1.222461208E0,5.245038979E0,3.042416232E0,-3.886948299E0,7.202436914E0
1.232404208E0,6.210954566E0,3.206119559E0,-3.805108330E0,7.958266686E0
1.242348209E0,6.776620640E0,3.478776394E0,-3.455063011E0,8.364325012E0
1.252292208E0,6.838635625E0,3.755366651E0,-2.944765976E0,8.339146392E0
1.262235208E0,6.776390845E0,3.941088839E0,-2.538393259E0,8.239847963E0
1.272179208E0,6.494796540E0,3.961348856E0,-2.054448017E0,7.880064943E0
1.282122208E0,5.905645709E0,3.961337746E0,-1.436757657E0,7.254868748E0
1.292066209E0,5.104038051E0,3.884931595E0,1.358534776E-1,6.415789436E0
1.302010208E0,4.487145690E0,3.852790620E0,2.406085825E0,6.384960533E0
1.311953208E0,4.214467220E0,3.706758163E0,3.871629179E0,6.818453089E0
1.321897208E0,3.590886814E0,3.070971694E0,4.304901427E0,6.391988075E0
1.331841209E0,2.704891555E0,2.230672426E0,3.445740210E0,4.915838015E0
1.341784209E0,1.725765939E0,1.291989076E0,1.939168260E0,2.899634010E0
1.351728208E0,5.843210310E-1,2.358766794E-1,3.514104979E-1,7.214972025E-1
1.361671208E0,-5.238292462E-1,-7.011144859E-1,-1.321013047E0,1.584624268E0
1.371615208E0,-1.142454722E0,-2.021071964E0,-3.273960124E0,4.013570676E0
1.381558208E0,-1.913669137E0,-4.083853871E0,-5.359121665E0,7.004297040E0
1.391502209E0,-3.481039267E0,-6.368803661E0,-6.956731839E0,1.005362682E1
1.401446208E0,-4.152775002E0,-7.212427656E0,-7.342357466E0,1.109841728E1
1.411389208E0,-3.060453138E0,-6.936153733E0,-5.851520373E0,9.576893687E0
1.421333208E0,-1.350488130E0,-7.125633341E0,-3.444566090E0,8.028916754E0
1.431276208E0,-6.538239598E-2,-8.101151226E0,-1.083727481E0,8.173578854E0
1.441220209E0,9.264445424E-2,-9.382163908E0,1.245875595E0,9.464976946E0
1.451164208E0,-1.092816539E0,-1.010013533E1,3.541350957E0,1.075863134E1
1.461107208E0,-3.053899578E0,-9.514441960E0,5.019302541E0,1.118232116E1
1.471051208E0,-4.182387641E0,-7.420181567E0,5.523622552E0,1.015193907E1
1.480994208E0,-4.400028609E0,-3.865368565E0,5.657449531E0,8.142976182E0
1.490938209E0,-4.450649124E0,-9.137847358E-1,5.054555404E0,6.796455731E0
1.500882208E0,-4.185324697E0,7.909084225E-1,3.779931389E0,5.694766041E0
1.510825208E0,-3.726910007E0,2.315282806E0,2.630008603E0,5.115402030E0
1.520769208E0,-3.839964752E0,3.698881379E0,2.239827850E0,5.783068524E0
1.530712208E0,-4.252278825E0,4.644365625E0,2.287755868E0,6.699689110E0
1.540656209E0,-5.201754965E0,5.278455817E0,3.341921142E0,8.129501058E0
1.550600208E0,-6.405062245E0,5.274772655E0,5.111428932E0,9.745499200E0
1.560543208E0,-7.464796407E0,4.549945371E0,6.634181882E0,1.097440465E1
1.570487208E0,-7.354045465E0,3.215986735E0,6.223136070E0,1.015637622E1
1.580430208E0,-6.004049671E0,1.824980325E0,4.122184709E0,7.508100453E0
1.590374209E0,-4.226581482E0,4.456519729E-1,1.731663440E0,4.589254294E0
1.600318208E0,-2.563366717E0,-7.960223973E-1,-3.819056278E-1,2.711153351E0
1.610261208E0,-7.417929804E-1,-1.532406703E0,-2.061728824E0,2.673808683E0
1.620205208E0,1.166816561E0,-2.144171056E0,-3.135834857E0,3.973964099E0
1.630148208E0,2.804123483E0,-2.393099890E0,-3.549481511E0,5.117504723E0
1.640092209E0,3.909545449E0,-1.852639409E0,-3.624590750E0,5.643977011E0
1.650036208E0,4.159099351E0,-7.109120804E-1,-3.469230815E0,5.462514608E0
1.659979208E0,3.905561741E0,5.994325751E-1,-3.106998144E0,5.026546468E0
1.669923208E0,4.273604205E0,1.757299388E0,-2.736268884E0,5.370191938E0
1.679866208E0,4.755644571E0,2.669134077E0,-1.983581810E0,5.803018939E0
1.689810209E0,5.095509303E0,3.341853315E0,-1.133479246E0,6.198142773E0
1.699754208E0,5.265434067E0,3.640632001E0,-1.095076488E0,6.494473789E0
1.709697208E0,5.415218098E0,3.542933798E0,-1.180520827E0,6.578038945E0
1.719641208E0,5.475049147E0,3.419587954E0,-1.158920189E0,6.558417564E0
1.729584208E0,5.640525935E0,3.293264707E0,-1.167268112E0,6.635031281E0
1.739528209E0,5.966449150E0,3.098522020E0,-1.343671592E0,6.856005216E0
1.749472208E0,6.469761686E0,2.830327780E0,-1.497476460E0,7.218795424E0
1.759415208E0,6.884055626E0,2.448431507E0,-1.565121436E0,7.472258281E0
1.769359208E0,7.266720223E0,2.003063709E0,-1.585458491E0,7.702672630E0
1.779302208E0,7.239709595E0,1.467644112E0,-1.591511675E0,7.556472965E0
1.789246209E0,6.526078559E0,9.737315601E-1,-1.913072868E0,6.870058392E0
1.799190208E0,5.081778286E0,6.570943075E-1,-2.530203649E0,5.714733063E0
1.809133208E0,3.267069181E0,6.540800679E-1,-2.864904705E0,4.394228116E0
1.819077208E0,2.120576956E0,6.608078742E-1,-2.507614685E0,3.349872398E0
1.829020208E0,6.238289130E-1,6.810059112E-1,-1.320993897E0,1.611817744E0
1.838964208E0,-1.154866022E0,4.723836887E-1,9.664219558E-2,1.251479761E0
1.848908208E0,-3.063598355E0,-1.632747263E-1,1.264813118E0,3.318440257E0
1.858851208E0,-4.335110482E0,-7.642901427E-1,1.938042086E0,4.809711992E0
1.868795208E0,-6.404548275E0,-2.127964913E0,7.612260555E-1,6.791607938E0
1.878738208E0,-1.063268570E1,-3.950234469E0,-5.691125692E-1,1.135703512E1
1.888682208E0,-1.195135094E1,-4.885322365E0,-1.302166740E0,1.297677935E1
1.898626208E0,-1.053044246E1,-5.045256577E0,-8.391380844E-1,1.170679226E1
1.908569208E0,-8.102932287E0,-3.732470709E0,-3.200824320E-1,8.926998488E0
1.918513208E0,-4.798612250E0,2.177742845E-1,-3.606183715E0,6.006551935E0
1.928456208E0,-3.738670512E0,1.817457297E0,-6.967745070E0,8.113586111E0
1.938400208E0,-4.990436007E0,-4.261901003E-1,-4.433529062E0,6.688966249E0
1.948344208E0,-5.363568472E0,-1.204409480E0,1.287586123E0,5.645914184E0
1.958287208E0,-5.203467030E0,-3.728436130E-1,5.795350850E0,7.797510690E0
1.968231208E0,-5.821867973E0,-4.034789300E-1,8.174809186E0,1.004412501E1
1.978174208E0,-5.892422816E0,-5.032353526E-1,7.587014324E0,9.619598682E0
1.988118042E0,-4.217707747E0,2.306182784E-1,4.063810201E0,5.861467118E0
1.998062042E0,-2.401739736E0,1.743893477E0,2.572600640E0,3.927822841E0
2.008005042E0,-4.276589209E-1,2.671367714E0,2.635141874E0,3.776648026E0
2.017949042E0,1.499761698E0,2.446777330E0,2.895287714E0,4.076603415E0
2.027892041E0,2.314941913E0,1.702415668E0,3.202928149E0,4.303013350E0
2.037836042E0,2.643485851E0,9.602923197E-1,3.278220406E0,4.319364283E0
2.047780042E0,2.706921124E0,3.795263958E-1,3.541646534E0,4.473781670E0
2.057723042E0,2.054166620E0,-2.385020792E-1,4.172750260E0,4.657072952E0
2.067667042E0,1.081492236E0,-1.270269594E0,4.665795085E0,4.955083660E0
2.077610041E0,5.160752535E-1,-2.426175835E0,4.659036289E0,5.278189272E0
2.087554042E0,-2.045987535E-1,-3.109208391E0,3.925640495E0,5.011954785E0
2.097498042E0,-1.183669406E0,-3.381236066E0,3.028894838E0,4.691272166E0
2.107441042E0,-2.026985253E0,-2.971721640E0,2.064435354E0,4.147492261E0
2.117385042E0,-2.099217077E0,-1.962727277E0,1.046488903E0,3.058455448E0
2.127328041E0,-1.333388532E0,-8.746551687E-1,8.733255118E-3,1.594685835E0
2.137272042E0,-2.772229260E-1,5.887386024E-2,-5.791001983E-1,6.447291849E-1
2.147216042E0,1.135600616E0,1.004670932E0,-7.249120688E-1,1.680609993E0
2.157159042E0,2.393740160E0,1.548163195E0,-1.001361554E0,3.021510582E0
2.167103042E0,3.121927840E0,2.021857245E0,-2.435969337E0,4.446154154E0
2.177046041E0,4.194803034E0,2.530236393E0,-3.693880255E0,6.135407080E0
2.186990042E0,5.279553339E0,2.921872373E0,-3.966418977E0,7.221045708E0
2.196934042E0,5.928810623E0,3.481888867E0,-3.704461377E0,7.810081919E0
2.206877042E0,6.087640296E0,4.141608574E0,-2.990096223E0,7.946883753E0
2.216821042E0,6.113423009E0,4.540426104E0,-2.415796881E0,7.989085346E0
2.226764041E0,6.027722123E0,4.603820447E0,-2.124832121E0,7.876770166E0
2.236708042E0,5.812801280E0,4.518623006E0,-1.691780898E0,7.554385164E0
2.246652042E0,5.357646412E0,4.436387181E0,-4.042345364E-1,6.967733624E0
2.256595042E0,5.169502308E0,4.527963933E0,1.074486102E0,6.955625916E0
2.266539042E0,5.180520802E0,4.293168989E0,1.807525070E0,6.966795721E0
2.276482041E0,4.685181529E0,3.409095710E0,2.318947840E0,6.241023843E0
2.286426042E0,4.169133173E0,2.463835412E0,1.589194715E0,5.096831976E0
2.296370042E0,3.454311644E0,1.561362700E0,7.058195941E-1,3.855943946E0
2.306313042E0,2.233955637E0,7.989921981E-1,1.026408541E-1,2.374759244E0
2.316257042E0,7.349681103E-1,-6.397438645E-3,-4.872942348E-1,8.818586744E-1
2.326200041E0,-8.158163917E-1,-6.613417250E-1,-1.200255472E0,1.594848726E0
2.336144042E0,-2.199861692E0,-1.658822921E0,-1.935160578E0,3.366887496E0
2.346088042E0,-3.246126208E0,-3.624396622E0,-2.953271921E0,5.691695817E0
2.356031042E0,-3.731110062E0,-5.427841651E0,-4.005200050E0,7.708714207E0
2.365975042E0,-2.172633548E0,-6.040128745E0,-4.346355555E0,7.752051238E0
2.375918042E0,4.983470803E-1,-6.022173700E0,-3.790947543E0,7.133457028E0
2.385862042E0,2.033476247E0,-6.422342522E0,-2.502443992E0,7.186357565E0
2.395806042E0,2.658690950E0,-7.212938118E0,-1.032739468E0,7.756395082E0
2.405749042E0,2.283177499E0,-7.955156776E0,5.185872173E-1,8.292547951E0
2.415693042E0,3.906378597E-1,-8.447454327E0,2.050771580E0,8.701594487E0
2.425636042E0,-2.317472588E0,-8.522779328E0,3.115478361E0,9.365610076E0
2.435580042E0,-4.999512055E0,-8.307481924E0,3.541291316E0,1.032231180E1
2.445524042E0,-6.850042373E0,-7.310112995E0,3.681615136E0,1.067310276E1
2.455467042E0,-7.431032245E0,-4.731245894E0,3.775886285E0,9.584479390E0
2.465411042E0,-6.577396063E0,-1.470843124E0,3.557795666E0,7.621248485E0
2.475354042E0,-5.345677747E0,8.491051751E-1,2.455078622E0,5.943455326E0
2.485298042E0,-4.408634541E0,3.023388807E0,1.357764259E0,5.515474792E0
2.495242042E0,-4.088491298E0,5.129555300E0,9.125234914E-1,6.622748508E0
2.505185042E0,-4.027135879E0,5.840652153E0,9.994832826E-1,7.164496339E0
2.515129042E0,-4.616383774E0,5.477756993E0,2.239229680E0,7.505396084E0
2.525072042E0,-5.444424355E0,4.611509535E0,3.807582872E0,8.087364470E0
2.535016042E0,-6.209741269E0,3.218216863E0,5.221776416E0,8.728387901E0
2.544960042E0,-5.827379558E0,1.310973231E0,5.063617419E0,7.830531572E0
2.554903042E0,-5.036614977E0,-5.102157587E-1,3.502956385E0,6.156176897E0
2.564847042E0,-3.973701099E0,-1.691528737E0,1.681330754E0,4.634484114E0
2.574790042E0,-2.606410410E0,-2.410818708E0,-6.676292360E-2,3.551039194E0
2.584734042E0,-1.140753182E0,-2.690747141E0,-1.553117395E0,3.309624093E0
2.594678042E0,2.593111503E-1,-2.546955337E0,-2.310198652E0,3.448367958E0
2.604621042E0,1.519865010E0,-1.802329381E0,-2.965120718E0,3.788181849E0
2.614565042E0,2.548907138E0,-7.717494357E-1,-3.765499291E0,4.612104693E0
2.624508042E0,3.284991481E0,1.083138227E-1,-4.298205196E0,5.410865811E0
2.634452042E0,3.761317363E0,8.025718635E-1,-4.266281152E0,5.743934607E0
2.644396042E0,4.069462704E0,1.278646899E0,-3.566924340E0,5.560432882E0
2.654339042E0,4.357373756E0,1.726931874E0,-2.445741934E0,5.286837746E0
2.664283042E0,4.761012315E0,2.240094044E0,-1.239360042E0,5.405670440E0
2.674226042E0,5.074348814E0,2.699772318E0,7.615624166E-1,5.798082767E0
2.684170042E0,5.548669100E0,3.156732806E0,1.557978916E0,6.571148233E0
2.694114042E0,6.130416187E0,3.474186915E0,1.373605682E0,7.179050767E0
2.704057042E0,6.716440512E0,3.968187760E0,1.030281737E0,7.868835219E0
2.714001042E0,7.246045638E0,4.338673190E0,1.000865418E0,8.504763020E0
2.723944042E0,7.760099509E0,4.509484393E0,8.828611511E-1,9.018538556E0
2.733888042E0,8.011284199E0,4.569662767E0,6.513510261E-1,9.245904525E0
2.743832042E0,8.069942297E0,4.541891416E0,3.868237209E-1,9.268353624E0
2.753775042E0,7.761037987E0,4.320447419E0,-1.820808336E-2,8.882584538E0
2.763719042E0,7.118115576E0,3.976620029E0,-6.939909692E-1,8.183073975E0
2.773662042E0,6.009857125E0,3.540055214E0,-1.536665815E0,7.142248624E0
2.783606042E0,4.265016984E0,3.021375026E0,-2.482451777E0,5.786332496E0
2.793550042E0,2.411918569E0,2.430111011E0,-3.044100230E0,4.581412110E0
2.803493042E0,9.282144946E-1,1.866269853E0,-2.538732398E0,3.284769018E0
2.813437042E0,-6.041536170E-1,1.289902205E0,-1.354892399E0,1.965854192E0
2.823380042E0,-2.648484635E0,2.714558172E-1,-7.978471671E-1,2.779337912E0
2.833324042E0,-5.074992592E0,-1.418659648E0,-8.969044820E-1,5.345332792E0
2.843268041E0,-7.796324179E0,-3.632396783E0,-8.140867853E-1,8.639427897E0
2.853211042E0,-1.076068359E1,-5.826530542E0,-3.005953433E-1,1.224055256E1
2.863155042E0,-1.171083041E1,-6.862300476E0,2.220076686E-1,1.357512446E1
2.873098042E0,-1.242094083E1,-6.694951410E0,-1.866935266E0,1.423332684E1
2.883042042E0,-1.236691256E1,-5.565001543E0,-6.246423776E0,1.493075947E1
2.892986041E0,-7.803098179E0,-2.279474457E0,-8.859743257E0,1.202411725E1
2.902929042E0,-4.444408976E0,-2.493673754E-1,-7.778904154E0,8.962494356E0
2.912873042E0,-3.764661970E0,-3.180090094E-1,-3.277588906E0,5.001639583E0
2.922816042E0,-2.287047186E0,5.270054537E-1,2.939539150E0,3.761543565E0
2.932760042E0,-3.317749922E0,6.192756861E-1,6.802495739E0,7.593741844E0
2.942704041E0,-4.807670172E0,-2.414835745E-1,8.745089298E0,9.982414218E0
2.952647042E0,-4.725650108E0,-2.547854054E-1,7.433193376E0,8.811869740E0
2.962591042E0,-3.148222184E0,4.556056881E-1,2.909048844E0,4.310619983E0
2.972534042E0,-1.497263768E0,1.184875102E0,9.233273917E-1,2.120910481E0
2.982477917E0,-5.104490626E-1,1.253878679E0,1.599305721E0,2.095363638E0
2.992421917E0,1.368850726E-1,1.002555994E0,2.404203022E0,2.608457057E0
3.002364917E0,7.515742028E-1,7.170235902E-1,3.047055705E0,3.219244489E0
3.012308917E0,1.074332321E0,6.864186788E-1,4.182940788E0,4.372911407E0
3.022251917E0,1.108900475E0,6.283844787E-1,5.379144870E0,5.528085279E0
3.032195917E0,8.202392256E-1,7.092087865E-2,6.159519534E0,6.214298274E0
3.042139917E0,6.083647817E-1,-1.103951392E0,6.277977106E0,6.403265802E0
3.052082917E0,2.824520910E-1,-2.131221228E0,5.262393515E0,5.684599248E0
3.062026917E0,-6.768614048E-1,-2.680385290E0,4.112793496E0,4.955570300E0
3.071969917E0,-1.493867705E0,-2.599894858E0,2.941231334E0,4.200230441E0
3.081913917E0,-1.916155373E0,-2.120117365E0,1.961394696E0,3.466066677E0
3.091857917E0,-1.625274521E0,-1.548536248E0,1.044181153E0,2.475842495E0
3.101800917E0,-1.117234511E0,-1.022846417E0,2.307638741E-1,1.532213990E0
3.111744917E0,-2.709915483E-1,-5.385075116E-1,-1.451430953E-1,6.200752192E-1
3.121687917E0,1.065402453E0,2.575756967E-2,-7.198265992E-1,1.286038947E0
3.131631917E0,2.247520008E0,1.217786155E0,-2.564826767E0,3.621144246E0
3.141575917E0,3.450340215E0,2.256856257E0,-3.551716316E0,5.441776967E0
3.151518917E0,4.534030420E0,2.865152042E0,-4.034458932E0,6.711437025E0
3.161462917E0,5.388241968E0,3.293607354E0,-4.057453693E0,7.506259480E0
3.171405917E0,5.930011057E0,3.777284355E0,-3.682961165E0,7.937071952E0
3.181349917E0,6.154082208E0,4.306479591E0,-3.291873654E0,8.200910098E0
3.191293917E0,6.259508675E0,4.549222071E0,-2.880909119E0,8.256906664E0
3.201236917E0,6.264572949E0,4.497683542E0,-1.659025819E0,7.888371071E0
3.211180917E0,6.212191837E0,4.712184556E0,-2.820533109E-1,7.802279460E0
3.221123917E0,6.123108337E0,5.042134164E0,1.256559335E0,8.030847651E0
3.231067917E0,5.793071020E0,4.863042135E0,2.502487847E0,7.966887477E0
3.241011917E0,5.441366261E0,4.295506706E0,2.569924954E0,7.393534941E0
3.250954917E0,4.749984466E0,3.248136481E0,1.857927631E0,6.046870108E0
3.260898917E0,4.010095339E0,2.225110554E0,5.043799451E-1,4.613716586E0
3.270841917E0,2.978062946E0,1.279591225E0,-9.063669580E-1,3.365666899E0
3.280785917E0,1.539615735E0,2.690356547E-1,-2.204672489E0,2.702476194E0
3.290729917E0,-1.912975073E-2,-7.536733532E-1,-3.229763360E0,3.316588734E0
3.300672917E0,-1.641527442E0,-1.766088338E0,-3.538289355E0,4.281725344E0
3.310616917E0,-2.891009014E0,-3.401861535E0,-3.491619803E0,5.667627711E0
3.320559917E0,-2.994680148E0,-5.666955349E0,-3.503242899E0,7.304464589E0
3.330503917E0,-1.437788814E0,-7.167017595E0,-3.526869743E0,8.116168311E0
3.340447917E0,8.401747227E-1,-7.203121812E0,-2.977098155E0,7.839258309E0
3.350390917E0,2.392575395E0,-6.651613017E0,-1.879873985E0,7.314526570E0
3.360334917E0,2.451619409E0,-6.323474291E0,-5.858991945E-1,6.807352107E0
3.370277917E0,1.398533531E0,-6.671693525E0,4.350784528E-1,6.830569800E0
3.380221917E0,-4.776216245E-1,-7.405226728E0,1.180593625E0,7.513940818E0
3.390165917E0,-2.903559478E0,-7.896108084E0,1.723096100E0,8.587679587E0
3.400108917E0,-5.173823985E0,-7.852802435E0,2.142959075E0,9.645062691E0
3.410052917E0,-6.944801180E0,-7.171228759E0,2.952525816E0,1.041029270E1
3.419995917E0,-7.802198292E0,-5.535024623E0,3.891802658E0,1.032748390E1
3.429939917E0,-7.421598347E0,-3.007228857E0,4.642261797E0,9.256032736E0
3.439883917E0,-6.106285313E0,-4.103768903E-1,4.204674888E0,7.425255580E0
3.449826917E0,-4.437094109E0,1.530213997E0,2.800620708E0,5.465604757E0
3.459770916E0,-3.444328108E0,2.903481710E0,2.073428371E0,4.959103484E0
3.469713917E0,-3.945583009E0,4.105747016E0,2.838392259E0,6.362488071E0
3.479657917E0,-4.391294038E0,4.612521688E0,3.878362833E0,7.456575482E0
3.489601917E0,-5.076445625E0,4.658558571E0,4.405803904E0,8.178237964E0
3.499544917E0,-5.853643497E0,4.183757644E0,4.883768175E0,8.695985384E0
3.509488916E0,-5.769086326E0,3.113192684E0,4.684516116E0,8.057233829E0
3.519431917E0,-5.213314326E0,1.723048153E0,3.489106085E0,6.505490179E0
3.529375917E0,-4.059465719E0,5.633891684E-1,2.204071687E0,4.653450471E0
3.539319917E0,-3.205722533E0,-1.963834155E-1,1.325336332E0,3.474440933E0
3.549262917E0,-2.316931136E0,-7.337396103E-1,1.949368143E-1,2.438143569E0
3.559206916E0,-1.030265949E0,-1.111618261E0,-1.047319354E0,1.842286870E0
3.569149917E0,5.299530351E-1,-1.279578361E0,-2.218300741E0,2.615153758E0
3.579093917E0,1.973665663E0,-1.177104737E0,-3.156712341E0,3.904582502E0
3.589037917E0,3.254965444E0,-7.578044111E-1,-3.789529009E0,5.052682226E0
3.598980917E0,4.298367164E0,-9.087450206E-2,-3.959318703E0,5.844691869E0
3.608924916E0,5.022068859E0,7.119984931E-1,-3.613251829E0,6.227656562E0
3.618867917E0,5.159850894E0,1.555324280E0,-2.896226485E0,6.118106138E0
3.628811917E0,5.378025713E0,2.239964236E0,-1.627278362E0,6.048854041E0
3.638755917E0,6.080585046E0,2.668818913E0,-6.376727808E-1,6.671037060E0
3.648698917E0,6.269764107E0,2.624858961E0,-1.266781729E-1,6.798225789E0
3.658642916E0,6.129198212E0,2.484759089E0,-6.291004702E-2,6.614004545E0
3.668585917E0,6.313341651E0,2.932058222E0,-2.082251966E-1,6.964094051E0
3.678529917E0,6.428325393E0,3.080766950E0,1.170271973E-1,7.129389014E0
3.688473917E0,6.569389470E0,3.108554673E0,3.219475476E-1,7.274863599E0
3.698416917E0,6.746546071E0,3.165031759E0,8.475115165E-2,7.452549408E0
3.708360916E0,6.635260109E0,2.973105676E0,-3.810664062E-1,7.280882205E0
3.718303917E0,6.140287457E0,2.535556190E0,-9.560875869E-1,6.711652458E0
3.728247917E0,5.401665421E0,2.080216550E0,-1.746133106E0,6.046012822E0
3.738191917E0,4.627485298E0,1.690348769E0,-2.766407772E0,5.650124875E0
3.748134917E0,3.951135525E0,1.590532705E0,-3.316450086E0,5.398157778E0
3.758078916E0,3.311627303E0,1.910984681E0,-3.006007374E0,4.863621919E0
3.768021917E0,2.743059840E0,2.067597674E0,-2.256722356E0,4.110004042E0
3.777965917E0,1.716956524E0,1.532556392E0,-1.124961607E0,2.561680584E0
3.787909917E0,-2.251078624E-1,4.991317767E-1,4.490654312E-2,5.493839075E-1
3.797852917E0,-2.542785687E0,-7.619138342E-1,7.994196296E-2,2.655684932E0
3.807796916E0,-4.654738001E0,-1.853635774E0,-6.346567869E-3,5.010248668E0
3.817739916E0,-7.844844375E0,-3.570188255E0,2.765638717E-1,8.623474649E0
3.827683917E0,-1.159530814E1,-5.584334192E0,1.525893782E-1,1.287086798E1
3.837627917E0,-1.251337596E1,-7.441581792E0,-4.958498076E-1,1.456734651E1
3.847570917E0,-1.306816563E1,-8.410596988E0,-4.178643596E-1,1.554637273E1
3.857514916E0,-9.330227770E0,-5.310370504E0,-8.971651947E-1,1.077302606E1
3.867457916E0,-4.552688885E0,2.960953993E-1,-4.440371473E0,6.366439145E0
3.877401917E0,-2.761278595E0,1.344408195E0,-5.433839141E0,6.241690530E0
3.887345917E0,-2.719417793E0,5.702181315E-1,-2.057439891E0,3.457374836E0
3.897288917E0,-2.861507472E0,5.999912766E-1,3.152231619E0,4.299392833E0
3.907232917E0,-4.203615957E0,8.375551701E-2,6.940154983E0,8.114379415E0
3.917175916E0,-5.529073327E0,-3.132341731E-1,7.754204346E0,9.528717256E0
3.927119917E0,-5.757634555E0,-2.755535460E-1,4.581915023E0,7.363438782E0
3.937063917E0,-3.672631474E0,1.067827878E0,1.253197478E0,4.024795925E0
3.947006917E0,-1.818731990E0,2.594819475E0,8.461996937E-1,3.279775614E0
3.956950917E0,-5.829890352E-1,2.958014597E0,1.024583187E0,3.184257728E0
3.966893916E0,3.798386371E-1,2.535483100E0,1.210230968E0,2.835068065E0
3.976837917E0,1.028462668E0,2.116080447E0,1.744231592E0,2.928801080E0
3.986781208E0,1.402158805E0,2.141825738E0,2.733241780E0,3.744873487E0
3.996725208E0,1.389853340E0,2.342430258E0,4.048305724E0,4.879287966E0
4.006669208E0,1.231345264E0,2.324334880E0,4.995132490E0,5.645360253E0
4.016612208E0,9.345446903E-1,1.860151327E0,5.013019708E0,5.428066260E0
4.026556208E0,1.543431044E-1,8.768771106E-1,3.911856853E0,4.011902205E0
4.036500209E0,-1.531353035E0,-6.691992134E-1,3.015109442E0,3.447282213E0
4.046443208E0,-2.911529233E0,-2.010294376E0,2.516842761E0,4.341979207E0
4.056387208E0,-3.620731003E0,-2.512147447E0,1.915508087E0,4.805179395E0
4.066330208E0,-3.201371035E0,-2.398874601E0,1.427710991E0,4.247556301E0
4.076274208E0,-1.742703568E0,-1.704290870E0,5.024576730E-1,2.488792239E0
4.086217208E0,-5.190105557E-2,-8.630993164E-1,-9.373846829E-2,8.697246978E-1
4.096161209E0,1.178838437E0,-3.077296042E-1,-3.929223669E-1,1.280134975E0
4.106105208E0,2.170505161E0,2.356726116E-1,-4.349309568E-1,2.226162432E0
4.116048208E0,3.247038374E0,7.463584864E-1,-3.299192029E-1,3.348007747E0
4.125992208E0,4.029415124E0,1.236453976E0,-1.104207573E0,4.357095253E0
4.135936209E0,4.845937275E0,1.783333531E0,-2.125127259E0,5.583865366E0
4.145879209E0,5.761980205E0,2.208134333E0,-2.737100358E0,6.750406765E0
4.155823208E0,6.315753043E0,2.683035833E0,-3.009833207E0,7.493097738E0
4.165766208E0,6.442642300E0,3.159142444E0,-2.960097960E0,7.762087395E0
4.175710208E0,6.285610646E0,3.625651435E0,-2.743522940E0,7.757652199E0
4.185654209E0,6.022395310E0,3.906922973E0,-2.413274100E0,7.573452599E0
4.195597209E0,5.730594106E0,3.895472370E0,-1.537358710E0,7.097738062E0
4.205541208E0,5.431514872E0,3.772663885E0,-2.376337677E-1,6.617462988E0
4.215484208E0,5.111024889E0,3.501389916E0,1.019879394E0,6.278730822E0
4.225428208E0,4.773711882E0,3.058173893E0,1.833734776E0,5.958467582E0
4.235371208E0,4.237380120E0,2.513923831E0,2.053100526E0,5.337642277E0
4.245315209E0,3.410682060E0,1.880483850E0,1.527498550E0,4.183565876E0
4.255259208E0,2.314874085E0,1.210580047E0,8.465882412E-1,2.746062223E0
4.265202208E0,1.213430564E0,5.484542102E-1,2.314152539E-1,1.351580103E0
4.275146208E0,3.037125671E-1,-2.223766279E-1,-4.007731310E-1,5.498288739E-1
4.285089208E0,-6.418933010E-1,-1.199582604E0,-1.106142636E0,1.753447166E0
4.295033209E0,-1.645581316E0,-2.700695886E0,-2.278944261E0,3.898112759E0
4.304977208E0,-2.180770533E0,-4.461661770E0,-3.902466810E0,6.315966519E0
4.314920208E0,-1.689543607E0,-5.529231201E0,-5.159580753E0,7.749079224E0
4.324864208E0,-3.642072755E-1,-5.675618584E0,-5.236698511E0,7.730996349E0
4.334808209E0,5.473110795E-1,-5.719642271E0,-4.291835824E0,7.171730047E0
4.344751209E0,2.220059144E-1,-6.022968337E0,-3.001725750E0,6.733185850E0
4.354695208E0,-8.281844223E-1,-6.579254892E0,-1.153701403E0,6.730788312E0
4.364638208E0,-2.526012365E0,-7.293986374E0,7.187853563E-1,7.752394990E0
4.374582208E0,-4.525915069E0,-8.023202578E0,2.067936666E0,9.440977115E0
4.384525208E0,-6.003557920E0,-8.212995012E0,2.869442144E0,1.057022672E1
4.394469209E0,-6.701264648E0,-7.140108708E0,3.326408479E0,1.034181288E1
4.404413208E0,-6.326575069E0,-4.894929925E0,3.599215003E0,8.771558569E0
4.414356208E0,-5.564620889E0,-2.165727401E0,3.646546167E0,6.996619167E0
4.424300208E0,-4.747609327E0,-1.081243730E-1,3.140634837E0,5.693423608E0
4.434243208E0,-3.314472558E0,1.360076979E0,2.344700148E0,4.281723544E0
4.444187209E0,-1.893631899E0,3.189142753E0,2.044315669E0,4.235056059E0
4.454131208E0,-1.417552770E0,5.001635179E0,2.315747659E0,5.691089310E0
4.464074208E0,-1.302028745E0,6.200841807E0,2.880328490E0,6.960029467E0
4.474018208E0,-1.564630709E0,6.492443036E0,4.026043620E0,7.798006992E0
4.483961208E0,-2.695773992E0,5.668138241E0,5.305856454E0,8.218704353E0
4.493905209E0,-3.507400854E0,3.978588787E0,5.858943998E0,7.903053476E0
4.503849208E0,-3.741130435E0,1.958202701E0,5.454932971E0,6.898326498E0
4.513792208E0,-3.755150889E0,2.353515995E-1,4.390112024E0,5.781836400E0
4.523736208E0,-3.741736792E0,-9.956539410E-1,3.101345640E0,4.960873489E0
4.533679208E0,-3.088755416E0,-1.701136882E0,1.376560280E0,3.785392306E0
4.543623209E0,-2.104918113E0,-1.929850722E0,-2.950904091E-1,2.870902719E0
4.553567208E0,-1.230497417E0,-1.695208974E0,-1.671367830E0,2.679799952E0
4.563510208E0,-4.366612941E-1,-1.123131428E0,-2.684053541E0,2.942148993E0
4.573454208E0,3.541225827E-1,-4.773158151E-1,-3.392991893E0,3.444651968E0
4.583397208E0,1.104528512E0,-3.506926060E-2,-3.898004215E0,4.051623125E0
4.593341209E0,1.842674584E0,8.762754321E-2,-4.037128186E0,4.438640805E0
4.603285208E0,2.549670784E0,1.536215580E-1,-3.899263705E0,4.661403022E0
4.613228208E0,3.143459042E0,4.289312750E-1,-3.518076700E0,4.737317854E0
4.623172208E0,3.884269105E0,9.614360350E-1,-2.723312916E0,4.840282943E0
4.633115208E0,4.242394692E0,1.411192753E0,-1.674927907E0,4.774385950E0
4.643059209E0,4.326666518E0,1.898452343E0,-1.160981186E0,4.865392253E0
4.653003208E0,4.617433934E0,2.235577655E0,-1.003286604E0,5.227340394E0
4.662946208E0,5.126101935E0,2.696214287E0,-7.957902628E-1,5.846347122E0
4.672890208E0,5.370173487E0,2.989674346E0,-6.991217548E-1,6.185926544E0
4.682833208E0,5.686909558E0,2.946456406E0,-9.449857709E-1,6.474221480E0
4.692777209E0,6.433153439E0,2.830027233E0,-1.206760646E0,7.130973886E0
4.702721208E0,7.077751077E0,2.624731199E0,-1.193920306E0,7.642592484E0
4.712664208E0,7.622139133E0,2.200527398E0,-1.289679426E0,8.037574187E0
4.722608208E0,7.729227964E0,1.797700725E0,-1.476639030E0,8.071750470E0
4.732551208E0,7.276248261E0,1.475698652E0,-1.822157289E0,7.644719252E0
4.742495209E0,6.256913096E0,1.330367861E0,-1.978612554E0,6.695800757E0
4.752439208E0,4.484617939E0,1.309381619E0,-1.774340806E0,4.997455710E0
4.762382208E0,2.659266316E0,1.250421220E0,-1.583427168E0,3.338037173E0
4.772326208E0,1.118334957E0,1.034602244E0,-1.485313375E0,2.127729001E0
4.782269208E0,-7.188987923E-1,8.073735970E-1,-1.114823120E0,1.552899928E0
4.792213209E0,-2.615465993E0,7.001572967E-1,-5.805466533E-1,2.769100399E0
4.802157208E0,-4.572682854E0,2.820930719E-1,6.250205755E-2,4.581802210E0
4.812100208E0,-7.489782729E0,-8.838908458E-1,4.785368599E-1,7.556924367E0
4.822044208E0,-1.055791151E1,-2.675479476E0,-1.866267514E-1,1.089323255E1
4.831987208E0,-1.075299684E1,-4.524452096E0,-1.234321496E0,1.173120443E1
4.841931209E0,-9.486828484E0,-5.961670806E0,-1.568823308E0,1.131382517E1
4.851875208E0,-6.660998967E0,-5.073449512E0,-1.538871385E0,8.513337908E0
4.861818208E0,-3.065931979E0,-1.458438256E0,-3.615290753E0,4.959567348E0
4.871762208E0,-2.570956403E0,3.489314246E-1,-6.705940667E0,7.190355359E0
4.881705208E0,-4.914834432E0,-1.573095723E0,-4.324657999E0,6.732970701E0
4.891649208E0,-5.805936649E0,-2.653732511E0,7.392810166E-1,6.426331227E0
4.901593208E0,-4.884245893E0,-1.479458411E0,5.423220597E0,7.446876981E0
4.911536208E0,-5.790507601E0,-9.449153119E-1,7.695124079E0,9.676661501E0
4.921480208E0,-7.483845466E0,-1.316184270E0,7.335581712E0,1.056177272E1
4.931423208E0,-5.775932831E0,-1.397443610E-1,4.883511482E0,7.565025641E0
4.941367208E0,-2.114458430E0,2.604448670E0,3.065485252E0,4.544368730E0
4.951311208E0,4.934897983E-1,4.210885216E0,2.569619145E0,4.957623325E0
4.961254208E0,1.726600336E0,3.869068683E0,2.387132807E0,4.863048862E0
4.971198208E0,2.366843553E0,2.525490208E0,2.212880372E0,4.108149065E0
4.981141208E0,2.464341196E0,1.582105113E0,2.276776990E0,3.709413374E0
4.991085667E0,2.324875163E0,1.249649388E0,2.968380834E0,3.972147138E0
5.001029667E0,1.964401335E0,8.701873112E-1,3.739332417E0,4.312621648E0
5.010972667E0,1.311719921E0,2.253224552E-1,4.382609754E0,4.580245366E0
5.020916667E0,2.812884951E-1,-1.083463333E0,5.198225001E0,5.317382737E0
5.030859667E0,-5.549592376E-1,-2.602235498E0,5.171829500E0,5.816135291E0
5.040803667E0,-1.386800508E0,-3.543530214E0,4.218803515E0,5.681384086E0
5.050747667E0,-2.417912550E0,-3.703056291E0,3.290377352E0,5.512305335E0
5.060690667E0,-3.106719232E0,-2.980450948E0,2.362443523E0,4.910797455E0
5.070634667E0,-2.486637799E0,-1.811094941E0,1.087358602E0,3.262787330E0
5.080577667E0,-1.320925777E0,-8.055182755E-1,1.066918051E-1,1.550834531E0
5.090521667E0,4.330857217E-2,6.442754567E-2,-3.127981170E-1,3.222874540E-1
5.100465667E0,1.737512995E0,7.013220620E-1,-2.897248578E-1,1.895981154E0
5.110408667E0,2.759075949E0,1.498029168E0,-1.437974755E0,3.453167079E0
5.120352667E0,3.357472397E0,2.560274125E0,-2.736651292E0,5.031588694E0
5.130295667E0,4.299626069E0,3.165928722E0,-3.350093211E0,6.303412848E0
5.140239667E0,5.140750380E0,3.654935460E0,-3.499978983E0,7.213578901E0
5.150183666E0,5.674297113E0,4.079010623E0,-3.336284426E0,7.743821354E0
5.160126667E0,5.981370660E0,4.339343866E0,-2.987485149E0,7.970681757E0
5.170070667E0,6.185158989E0,4.332617229E0,-2.652504304E0,8.003970444E0
5.180013667E0,6.252295550E0,4.151508495E0,-1.983949161E0,7.762878120E0
5.189957667E0,6.006227759E0,3.890052001E0,-6.605716467E-1,7.186350351E0
5.199901666E0,5.485909765E0,3.706210279E0,6.196608715E-1,6.649449615E0
5.209844667E0,5.135556298E0,3.516783881E0,1.776036206E0,6.472712875E0
5.219788667E0,4.753698617E0,3.178534734E0,2.559290623E0,6.265038076E0
5.229731667E0,4.472560396E0,2.527710981E0,2.558132290E0,5.739090530E0
5.239675667E0,4.273859729E0,1.514061649E0,1.638078754E0,4.820950286E0
5.249619666E0,3.888203697E0,6.037039661E-1,9.139570825E-1,4.039542550E0
5.259562667E0,3.109142902E0,-1.200702345E-1,3.166606414E-1,3.127532640E0
5.269506667E0,1.966561881E0,-6.323921603E-1,-3.296860452E-1,2.091883927E0
5.279449667E0,4.357403576E-1,-9.537235576E-1,-9.840647596E-1,1.437999212E0
5.289393667E0,-1.073340633E0,-1.377749019E0,-1.873941985E0,2.561622735E0
5.299337666E0,-2.189191693E0,-2.265816531E0,-3.121179396E0,4.434889586E0
5.309280667E0,-2.735701704E0,-3.653458453E0,-4.287912927E0,6.262429221E0
5.319224667E0,-2.325008479E0,-4.593361532E0,-5.092058861E0,7.241111657E0
5.329167667E0,-1.030726125E0,-4.556287261E0,-4.537710072E0,6.512523524E0
5.339111667E0,3.592260325E-1,-5.015507698E0,-3.232413318E0,5.977696602E0
5.349055666E0,7.388407212E-1,-5.690044250E0,-1.998148540E0,6.075778696E0
5.358998667E0,6.009171832E-1,-6.468558329E0,-7.974555498E-1,6.545172547E0
5.368942667E0,-4.308246034E-1,-7.172623320E0,5.014227158E-1,7.203024356E0
5.378885667E0,-1.931899002E0,-7.618724359E0,1.776623851E0,8.058137932E0
5.388829667E0,-3.543287555E0,-7.596710177E0,2.907842563E0,8.872454034E0
5.398773666E0,-5.126841023E0,-6.880146763E0,4.042943242E0,9.485057112E0
5.408716667E0,-6.635482888E0,-5.703306904E0,5.069535971E0,1.011224692E1
5.418660667E0,-7.518994249E0,-3.864453476E0,5.454075184E0,1.006062678E1
5.428603667E0,-6.696103896E0,-1.142468171E0,4.451368917E0,8.121436211E0
5.438547667E0,-4.150218015E0,6.554325289E-1,2.288914202E0,4.784666090E0
5.448491666E0,-2.223893164E0,1.917544672E0,6.615234272E-1,3.010031830E0
5.458434667E0,-1.098498863E0,3.164616022E0,-1.096662837E-1,3.351644524E0
5.468378667E0,-1.217646407E0,4.230847026E0,5.076235418E-1,4.431750330E0
5.478321667E0,-2.133115726E0,4.868750187E0,2.376016080E0,5.822401866E0
5.488265667E0,-3.222488254E0,4.692108725E0,4.574092033E0,7.302234779E0
5.498209666E0,-4.523713008E0,3.448398939E0,6.084667572E0,8.329382575E0
5.508152667E0,-5.405490085E0,1.448177562E0,6.026638634E0,8.224166495E0
5.518096667E0,-5.449670477E0,-2.109207630E-2,5.131301279E0,7.485292646E0
5.528039667E0,-4.798052087E0,-3.206361634E-1,3.502621924E0,5.949157228E0
5.537983667E0,-3.980357569E0,-1.514177424E-1,1.296410156E0,4.188896395E0
5.547927666E0,-3.051216291E0,-9.793384552E-2,-6.651640499E-1,3.124412762E0
5.557870666E0,-1.852592631E0,-1.695201373E-1,-2.257199050E0,2.925027194E0
5.567814667E0,-4.722842860E-1,-4.914649075E-1,-3.360026169E0,3.428464096E0
5.577757667E0,8.433819205E-1,-7.990541786E-1,-4.194422380E0,4.352351060E0
5.587701667E0,1.988684821E0,-7.318158764E-1,-4.760933377E0,5.211229070E0
5.597645667E0,2.829868189E0,-3.430029327E-1,-4.720576479E0,5.514494290E0
5.607588666E0,3.542575364E0,2.675346744E-1,-4.045452282E0,5.383966863E0
5.617532667E0,4.352242824E0,9.816329026E-1,-3.190133271E0,5.484758066E0
5.627475667E0,5.141691197E0,1.626569095E0,-2.315369344E0,5.868871321E0
5.637419667E0,5.642399967E0,2.113629879E0,-1.173182425E0,6.138441631E0
5.647363667E0,5.965765611E0,2.630576953E0,-8.547255188E-2,6.520552123E0
5.657306666E0,6.176828461E0,2.881370464E0,3.882508801E-1,6.826876616E0
5.667250667E0,6.410237031E0,3.024040772E0,3.448708257E-1,7.096118465E0
5.677193667E0,6.605795989E0,3.348080599E0,1.587191606E-1,7.407521591E0
5.687137667E0,6.657042156E0,3.570370688E0,6.601945013E-2,7.554344160E0
5.697081667E0,6.537278316E0,3.422547814E0,-5.467643648E-2,7.379216140E0
5.707024666E0,6.494324670E0,3.096491867E0,-4.511790535E-1,7.208888773E0
5.716968667E0,6.067742806E0,2.646781341E0,-9.396522331E-1,6.686247120E0
5.726911667E0,5.104061440E0,2.011690106E0,-1.576274562E0,5.708150468E0
5.736855667E0,3.830946007E0,1.323613742E0,-2.339517906E0,4.679897935E0
5.746799667E0,2.708091152E0,9.032650101E-1,-2.903474693E0,4.071831364E0
5.756742666E0,2.058722770E0,8.016830868E-1,-2.850424075E0,3.606376661E0
5.766686667E0,1.799870626E0,1.096148867E0,-2.174625256E0,3.028212610E0
5.776629667E0,1.444763957E0,1.465088879E0,-1.360281047E0,2.466615665E0
5.786573667E0,7.365234697E-1,1.690078043E0,-6.253338401E-1,1.946759621E0
5.796517667E0,-6.884704667E-1,1.449917108E0,-2.472701253E-1,1.624005456E0
5.806460666E0,-2.743645731E0,4.589619899E-1,-4.187658906E-1,2.813112667E0
5.816404667E0,-5.253303434E0,-1.081025044E0,-8.330925751E-1,5.427693373E0
5.826347667E0,-8.674557844E0,-3.259433886E0,-1.301753342E0,9.357693349E0
5.836291667E0,-1.048951896E1,-4.862927529E0,-8.550238730E-1,1.159349551E1
5.846235667E0,-1.104547457E1,-6.289240013E0,-8.287510175E-1,1.273749884E1
5.856178666E0,-1.067109255E1,-6.875156164E0,-1.237928059E0,1.275431121E1
5.866122667E0,-6.119288351E0,-3.851613575E0,-2.290755490E0,7.584733204E0
5.876065667E0,-3.011907215E0,8.458880371E-1,-5.134488012E0,6.012493558E0
5.886009667E0,-3.867782296E0,1.142372276E0,-5.332357789E0,6.685715661E0
5.895953667E0,-5.168915248E0,-1.034090613E0,-1.726244826E0,5.546796322E0
5.905896666E0,-3.636408557E0,-8.692973650E-1,2.680634381E0,4.600537554E0
5.915840667E0,-3.108964562E0,4.824163413E-1,6.075617836E0,6.841894348E0
5.925783667E0,-5.107048783E0,1.291807812E-1,7.345618458E0,8.947443516E0
5.935727667E0,-6.405712456E0,-7.461544186E-1,5.549835035E0,8.508264653E0
5.945671667E0,-4.624830662E0,-1.522433692E-1,2.729534061E0,5.372391729E0
5.955614666E0,-2.241730680E0,1.932963780E0,2.594394382E0,3.936062452E0
5.965558667E0,-4.937096536E-1,3.241246122E0,3.126430196E0,4.530341203E0
5.975501667E0,7.915048385E-1,3.309220589E0,3.007142026E0,4.540960689E0
5.985445917E0,1.488320451E0,2.468744735E0,2.675712780E0,3.933095118E0
5.995389916E0,1.561589572E0,1.621528210E0,3.096002747E0,3.827943147E0
6.005332917E0,1.317102283E0,1.093857928E0,4.159832007E0,4.498387035E0
6.015276917E0,8.555277568E-1,5.043422306E-1,5.146214603E0,5.241165287E0
6.025219917E0,2.677644700E-1,-5.306248802E-1,5.908550606E0,5.938369375E0
6.035163917E0,1.375078011E-1,-1.827905102E0,6.033995601E0,6.306286417E0
6.045107916E0,-3.388812304E-1,-2.768835536E0,5.243202369E0,5.939062367E0
6.055050917E0,-1.304257704E0,-3.132553985E0,4.050306933E0,5.283840353E0
6.064994917E0,-2.082102277E0,-2.759382927E0,2.903787519E0,4.514568195E0
6.074937917E0,-2.231409175E0,-2.000967482E0,1.652086198E0,3.422345186E0
6.084881917E0,-1.607114239E0,-1.253414410E0,6.444372784E-1,2.137560120E0
6.094825916E0,-2.747746968E-1,-6.705008036E-1,1.119500600E-1,7.332157101E-1
6.104768916E0,1.258504996E0,-4.564038330E-1,-6.536779256E-1,1.489776531E0
6.114712917E0,2.179437368E0,7.619676286E-1,-2.235764766E0,3.213905101E0
6.124655917E0,3.076692610E0,2.126254603E0,-3.151079133E0,4.890428995E0
6.134599917E0,3.912975426E0,2.989056880E0,-3.566292840E0,6.079825848E0
6.144543916E0,4.624128996E0,3.790266343E0,-3.650931287E0,7.005568298E0
6.154486916E0,5.262106417E0,4.418176612E0,-3.478156589E0,7.701144186E0
6.164430917E0,5.678864374E0,4.782786761E0,-3.238072253E0,8.099979117E0
6.174373917E0,5.953634977E0,4.966355419E0,-2.847205183E0,8.259360323E0
6.184317917E0,6.190682269E0,5.040410405E0,-1.718248174E0,8.165945187E0
6.194261917E0,6.120898089E0,5.214214797E0,-8.395397151E-1,8.084445331E0
6.204204916E0,5.824392800E0,5.156324438E0,6.118655097E-1,7.802923337E0
6.214148917E0,5.608881973E0,4.803035084E0,1.694309088E0,7.576238268E0
6.224091917E0,5.688384225E0,4.130833325E0,1.947194002E0,7.294728476E0
6.234035917E0,5.721018705E0,3.029195677E0,1.680061762E0,6.687951032E0
6.243979917E0,5.432675545E0,1.764870948E0,9.720083857E-1,5.794267282E0
6.253922916E0,4.565227654E0,8.770075035E-1,1.871551935E-1,4.652469534E0
6.263866917E0,3.379358525E0,2.514483994E-1,-4.084803459E-1,3.413231099E0
6.273809917E0,1.877972471E0,-4.187834322E-1,-9.725568545E-1,2.155928338E0
6.283753917E0,-1.178950703E-1,-1.144685435E0,-1.444600528E0,1.846909493E0
6.293697917E0,-2.003203458E0,-2.046557053E0,-2.057287279E0,3.526138229E0
6.303640916E0,-3.353799176E0,-3.247652624E0,-3.026449825E0,5.563687179E0
6.313584917E0,-4.353084823E0,-4.617260857E0,-3.853579409E0,7.424184774E0
6.323527917E0,-3.954742672E0,-5.562153949E0,-4.087381496E0,7.955138820E0
6.333471917E0,-1.574398482E0,-5.781857815E0,-3.702966828E0,7.044187228E0
6.343415917E0,7.201921964E-1,-5.994773648E0,-2.977453373E0,6.732103422E0
6.353358916E0,1.407910126E0,-6.231061386E0,-1.641478325E0,6.595664335E0
6.363302917E0,9.838139141E-1,-6.481522191E0,1.380603629E-1,6.557215903E0
6.373245917E0,-2.995236218E-2,-6.915265725E0,1.381401190E0,7.051954795E0
6.383189917E0,-1.733185471E0,-7.248987957E0,1.505221682E0,7.603778704E0
6.393133917E0,-3.437728940E0,-7.146348857E0,8.169675623E-1,7.972184032E0
6.403076916E0,-4.909508203E0,-6.669590866E0,3.385735206E-1,8.288627459E0
6.413020917E0,-6.346688322E0,-6.361113988E0,6.627988511E-1,9.010190128E0
6.422963917E0,-7.442275271E0,-6.001828313E0,1.622335711E0,9.697493361E0
6.432907917E0,-8.112925179E0,-5.160547882E0,2.950333110E0,1.005759787E1
6.442851917E0,-7.240265665E0,-3.269136171E0,3.938281006E0,8.866721800E0
6.452794916E0,-4.199199556E0,-7.592989594E-1,3.742899803E0,5.676188048E0
6.462738917E0,-1.520376642E0,1.280315110E0,3.269247853E0,3.826059780E0
6.472681917E0,-1.419236183E-1,2.476482940E0,3.142521733E0,4.003567522E0
6.482625917E0,1.749603868E-1,3.496741964E0,3.558856936E0,4.992321924E0
6.492569917E0,-2.796805108E-1,4.403254518E0,4.420098592E0,6.245329703E0
6.502512916E0,-1.103688852E0,4.930289208E0,5.669194248E0,7.593789843E0
6.512456917E0,-2.032320837E0,5.082785761E0,6.531505945E0,8.522066005E0
6.522399917E0,-2.932627741E0,4.912289139E0,6.036904006E0,8.317156968E0
6.532343917E0,-3.537756089E0,4.207865714E0,4.665167679E0,7.210106898E0
6.542287917E0,-3.649503397E0,3.180418122E0,2.595955589E0,5.492988248E0
6.552230916E0,-3.391901972E0,2.276390051E0,5.704321396E-1,4.124602221E0
6.562174917E0,-3.120973574E0,1.091002148E0,-1.316980807E0,3.558820055E0
6.572117917E0,-2.466995248E0,-1.958864021E-1,-3.258953830E0,4.092092020E0
6.582061917E0,-1.331961227E0,-1.137605041E0,-4.992174969E0,5.290564890E0
6.592005917E0,2.792864084E-1,-1.824407882E0,-6.026342765E0,6.302640093E0
6.601948917E0,2.192344512E0,-1.855333806E0,-6.262816445E0,6.889957026E0
6.611892917E0,3.962959764E0,-1.095361247E0,-6.130241940E0,7.381377419E0
6.621835917E0,5.024880200E0,-1.310513055E-1,-5.327596986E0,7.324608189E0
6.631779917E0,5.443531485E0,7.127574617E-1,-2.876435999E0,6.197898215E0
6.641723917E0,5.665565466E0,1.624894452E0,-3.886743647E-1,5.906774229E0
6.651666917E0,6.081289635E0,2.220574284E0,1.128265138E0,6.571606805E0
6.661610917E0,6.232251295E0,2.534862710E0,1.970406425E0,7.010633826E0
6.671553917E0,6.205228388E0,2.720684300E0,2.273217790E0,7.146642675E0
6.681497917E0,6.035548621E0,2.823597634E0,2.063221472E0,6.975488055E0
6.691441917E0,5.847005737E0,2.887295448E0,1.497941460E0,6.690872866E0
6.701384917E0,6.296695213E0,3.369462698E0,7.189560950E-1,7.177642185E0
6.711328917E0,6.447325335E0,3.860034150E0,1.280860363E-1,7.515602015E0
6.721271917E0,6.247921833E0,4.117678844E0,-5.641457981E-1,7.504003383E0
6.731215917E0,5.735840228E0,4.311393006E0,-1.563193463E0,7.343810085E0
6.741159917E0,4.638457013E0,4.224173598E0,-2.334802566E0,6.694044299E0
6.751102917E0,3.342595911E0,3.766775739E0,-3.218874090E0,5.976846769E0
6.761046917E0,2.106362375E0,2.792005713E0,-4.141865852E0,5.420988018E0
6.770989917E0,1.078461624E0,1.181072658E0,-4.382441354E0,4.665169270E0
6.780933917E0,5.036206841E-2,-4.266368276E-1,-4.068683270E0,4.091300389E0
6.790877917E0,-8.084664416E-1,-1.798119385E0,-3.178996664E0,3.740704626E0
6.800820917E0,-1.399125270E0,-2.702010047E0,-1.477626479E0,3.382571481E0
6.810764917E0,-1.984681233E0,-2.945298073E0,5.047917353E-1,3.587276826E0
6.820707917E0,-2.098462202E0,-2.681191621E0,2.061338668E0,3.980131810E0
6.830651917E0,-1.451459604E0,-2.088896157E0,2.255880357E0,3.399885045E0
6.840595917E0,-2.231182303E0,-1.370862168E0,6.913582604E-1,2.708396905E0
6.850538917E0,-5.129343047E0,-1.035173517E0,-8.468510735E-1,5.300839654E0
6.860482917E0,-7.679117911E0,-1.535239679E0,-1.917757511E0,8.062481419E0
6.870425917E0,-9.536704064E0,-3.081924114E0,-3.346855023E0,1.056638156E1
6.880369917E0,-1.032436787E1,-4.284412783E0,-3.074353139E0,1.159311916E1
6.890313917E0,-8.420161278E0,-4.086220239E0,-1.796601448E0,9.530167289E0
6.900256917E0,-6.518042731E0,-3.534916096E0,-2.819564810E0,7.932872025E0
6.910200917E0,-6.068922774E0,-2.917218574E0,-2.210131742E0,7.087077688E0
6.920143917E0,-5.007173662E0,-1.629934167E0,1.192513831E0,5.399126106E0
6.930087917E0,-4.372965356E0,-3.378819412E-1,4.843320353E0,6.534121384E0
6.940031917E0,-5.339409531E0,-8.706854939E-2,7.503409081E0,9.209670076E0
6.949974917E0,-5.521036913E0,-3.682564723E-1,7.570531023E0,9.377121168E0
6.959918917E0,-2.978950553E0,1.162654513E-1,4.865522524E0,5.706222347E0
6.969861917E0,-8.341380572E-1,1.288467883E0,2.858592928E0,3.244609269E0
6.979805917E0,6.047950566E-2,1.925923147E0,2.234237912E0,2.950365534E0
6.989749708E0,6.348093992E-1,1.757991698E0,2.378281876E0,3.024854124E0
6.999692708E0,1.169907984E0,8.900614125E-1,2.294540831E0,2.725034245E0
7.009636709E0,1.163126383E0,-1.026057708E-1,2.065525275E0,2.372716921E0
7.019579709E0,9.399463481E-1,-8.773267615E-1,2.623819326E0,2.921922182E0
7.029523708E0,7.837935305E-1,-1.466551268E0,3.594689258E0,3.960668603E0
7.039467708E0,7.620828187E-1,-1.930346566E0,4.292684839E0,4.768034314E0
7.049410708E0,6.413828391E-1,-2.350606420E0,4.516358964E0,5.131687908E0
7.059354709E0,1.375037080E-1,-2.528382826E0,4.487219365E0,5.152355249E0
7.069297709E0,-8.163344550E-1,-2.288689669E0,4.343627536E0,4.977107847E0
7.079241708E0,-1.523286216E0,-1.726455910E0,3.599419071E0,4.272805701E0
7.089184708E0,-1.442230359E0,-1.014574946E0,2.301890928E0,2.899671114E0
7.099128708E0,-7.292659056E-1,-1.162040555E-1,9.203640229E-1,1.180000881E0
7.109072709E0,2.290178955E-1,7.553807402E-1,-2.433558530E-1,8.259971733E-1
7.119015709E0,1.244723693E0,1.253550650E0,-1.628247684E0,2.402481389E0
7.128959708E0,1.858049837E0,1.913684925E0,-3.186091091E0,4.155203440E0
7.138902708E0,2.549035776E0,2.945647736E0,-3.894513427E0,5.508326316E0
7.148846708E0,3.449999907E0,3.860615948E0,-3.980562222E0,6.530829232E0
7.158790709E0,4.147157582E0,4.585239750E0,-3.918183541E0,7.319528798E0
7.168733709E0,4.757716824E0,4.962644776E0,-3.784440177E0,7.847655701E0
7.178677708E0,5.385982604E0,5.002637392E0,-3.523011165E0,8.151490487E0
7.188620708E0,5.949084089E0,4.907616629E0,-2.568361409E0,8.128516642E0
7.198564708E0,6.312776225E0,4.932348597E0,-1.311919457E0,8.117902378E0
7.208508709E0,6.242883872E0,4.956155536E0,1.732603088E-2,7.971033617E0
7.218451709E0,5.926689253E0,4.758276987E0,1.189179676E0,7.692918412E0
7.228395708E0,5.759737798E0,4.326267153E0,1.856758187E0,7.438999795E0
7.238338708E0,5.694257169E0,3.613390408E0,2.032229036E0,7.043515443E0
7.248282708E0,5.496079243E0,2.321452788E0,1.728407711E0,6.211555627E0
7.258226709E0,5.098038808E0,1.000755637E0,8.645324689E-1,5.266775857E0
7.268169709E0,4.444549309E0,2.095232785E-2,-2.554546192E-2,4.444672106E0
7.278113708E0,3.306496371E0,-7.657794285E-1,-4.784795572E-1,3.427576268E0
7.288056708E0,1.706872416E0,-1.632577693E0,-4.595186448E-1,2.406217104E0
7.298000708E0,-4.101465100E-1,-2.777728567E0,-7.098417476E-2,2.808742584E0
7.307944709E0,-3.027201192E0,-3.840869316E0,-1.755791683E-1,4.893572540E0
7.317887709E0,-5.001093727E0,-4.211735986E0,-1.152876799E0,6.639185446E0
7.327831708E0,-4.895297130E0,-3.505076585E0,-3.096280198E0,6.770261954E0
7.337774708E0,-2.059401047E0,-2.549475487E0,-5.361423129E0,6.283774017E0
7.347718708E0,6.797663015E-1,-3.426846395E0,-5.750724900E0,6.728758824E0
7.357662708E0,1.991572176E0,-4.952529677E0,-4.389363288E0,6.910891405E0
7.367605709E0,2.064748326E0,-6.039398428E0,-2.521105381E0,6.862469772E0
7.377549708E0,1.189211397E0,-7.013973742E0,-9.334284568E-1,7.175049831E0
7.387492708E0,-4.820561528E-1,-7.692898044E0,1.816975486E-1,7.710127914E0
7.397436708E0,-2.463387516E0,-8.089130520E0,7.793486233E-1,8.491742748E0
7.407380708E0,-4.115546950E0,-8.214702984E0,1.182169011E0,9.263724703E0
7.417323709E0,-5.611702085E0,-7.611953868E0,1.992175463E0,9.664460930E0
7.427267708E0,-6.647712924E0,-6.115109346E0,3.010221462E0,9.520928667E0
7.437210708E0,-7.132939437E0,-3.989587399E0,3.716265736E0,8.978099111E0
7.447154708E0,-6.534327811E0,-1.852482703E0,4.097041097E0,7.931889930E0
7.457098708E0,-5.030092993E0,-1.479585296E-1,3.892839954E0,6.362226823E0
7.467041709E0,-3.677909170E0,1.395945554E0,3.110923380E0,5.015328915E0
7.476985708E0,-2.506099672E0,2.521227003E0,2.156961256E0,4.158076842E0
7.486928708E0,-1.288595352E0,3.507054698E0,1.719502401E0,4.112979352E0
7.496872708E0,-9.676855391E-1,4.515743253E0,2.404025559E0,5.206504712E0
7.506816708E0,-1.748545521E0,5.000683252E0,3.901303799E0,6.579089280E0
7.516759709E0,-2.490809788E0,5.009433026E0,5.176739407E0,7.622150846E0
7.526703708E0,-3.017403597E0,4.745987309E0,5.435514368E0,7.821376890E0
7.536646708E0,-3.566858851E0,4.247815061E0,4.478651440E0,7.129146763E0
7.546590708E0,-4.035272280E0,3.221173800E0,2.768499906E0,5.858666636E0
7.556534708E0,-4.285637190E0,1.766904024E0,8.214362969E-1,4.707801350E0
7.566477709E0,-4.133910130E0,1.847778618E-1,-7.888437706E-1,4.212556269E0
7.576421708E0,-3.149027930E0,-1.282648149E0,-2.452728626E0,4.192545872E0
7.586364708E0,-1.313924906E0,-2.487243571E0,-3.897613036E0,4.806679375E0
7.596308708E0,6.305479485E-1,-3.124214101E0,-4.965304674E0,5.900216519E0
7.606252708E0,2.515499656E0,-2.969476309E0,-5.597381085E0,6.817345750E0
7.616195709E0,4.085565351E0,-2.138684614E0,-5.054175335E0,6.841820257E0
7.626139708E0,4.763606139E0,-9.159125376E-1,-3.305198289E0,5.869853061E0
7.636082708E0,5.175364727E0,9.653519154E-2,-1.193603387E0,5.312100163E0
7.646026708E0,5.700868031E0,9.068973005E-1,7.787473834E-1,5.824843904E0
7.655970708E0,5.960890203E0,1.537832919E0,2.374274195E0,6.598054262E0
7.665913709E0,6.198804637E0,1.942589466E0,2.977805668E0,7.146059009E0
7.675857708E0,6.271513009E0,2.203164784E0,2.675963041E0,7.165653402E0
7.685800708E0,6.105728073E0,2.297507270E0,1.937947215E0,6.805445935E0
7.695744708E0,6.229597828E0,2.684687086E0,1.086888193E0,6.869989796E0
7.705688708E0,6.396683185E0,3.289139496E0,3.512907761E-1,7.201347069E0
7.715631709E0,6.182325429E0,3.591197301E0,-4.663499469E-1,7.164867622E0
7.725575708E0,5.952582479E0,3.774358408E0,-1.242158958E0,7.156953153E0
7.735518708E0,5.407486909E0,4.007105073E0,-1.755775019E0,6.955612960E0
7.745462708E0,4.847792011E0,4.035109143E0,-2.089142471E0,6.644374270E0
7.755406708E0,4.203491997E0,3.687516730E0,-2.183394763E0,6.002860759E0
7.765349708E0,2.840302545E0,3.142403619E0,-2.282121491E0,4.811454827E0
7.775293708E0,1.315218894E0,2.297158191E0,-2.663404976E0,3.755058263E0
7.785236708E0,4.076988655E-1,1.247067257E0,-2.900524773E0,3.183463376E0
7.795180708E0,-3.326130152E-1,4.435651016E-1,-2.450437687E0,2.512374629E0
7.805124708E0,-1.080474236E0,-4.902247131E-2,-1.303831003E0,1.694049309E0
7.815067708E0,-2.148619033E0,-5.031950068E-1,-7.086737663E-1,2.317754834E0
7.825011708E0,-3.431301681E0,-1.121117063E0,-1.020608103E0,3.751316515E0
7.834954708E0,-5.099483655E0,-2.017394650E0,-1.669093117E0,5.732406698E0
7.844898708E0,-7.137410803E0,-3.052075247E0,-1.984151913E0,8.012156707E0
7.854842708E0,-8.157401440E0,-3.929734715E0,-2.791016364E0,9.475008471E0
7.864785708E0,-8.841556077E0,-4.683595764E0,-3.560002406E0,1.061992468E1
7.874729708E0,-9.498476722E0,-5.110098106E0,-3.398114054E0,1.130846328E1
7.884672708E0,-7.889356889E0,-5.033910640E0,-4.340668260E0,1.031618192E1
7.894616708E0,-5.639655284E0,-4.179954615E0,-4.665159493E0,8.428608747E0
7.904560708E0,-5.046183361E0,-2.566884402E0,-2.443786479E0,6.166437740E0
7.914503708E0,-3.293631327E0,-7.560204256E-1,2.171666418E0,4.016927835E0
7.924447708E0,-2.719593794E0,-1.502617478E-2,5.754922031E0,6.365182148E0
7.934390708E0,-4.174682765E0,-8.180570447E-1,7.197133094E0,8.360377880E0
7.944334708E0,-5.328120312E0,-1.252501659E0,6.531591314E0,8.521696519E0
7.954278708E0,-4.764715941E0,-5.528039539E-1,5.129700311E0,7.022957745E0
7.964221708E0,-2.833763019E0,4.004646903E-1,4.945714747E0,5.714077281E0
7.974165708E0,-8.197650164E-1,9.485856092E-1,3.568889004E0,3.782697194E0
7.984108708E0,5.410510504E-1,1.156875125E0,2.592871767E0,2.890342591E0
7.994052333E0,1.253671103E0,8.569895607E-1,2.945280239E0,3.313728719E0
8.003996334E0,1.429426711E0,3.879744530E-1,3.107342545E0,3.442290311E0
8.013939333E0,1.205190083E0,-1.232926351E-1,3.355078547E0,3.567104746E0
8.023883333E0,9.596766078E-1,-7.292021710E-1,3.716801341E0,3.907342729E0
8.033826333E0,7.479711485E-1,-1.266831431E0,3.949934506E0,4.215009528E0
8.043770333E0,6.019135487E-1,-1.666187489E0,3.868997347E0,4.255305059E0
8.053714334E0,2.049197656E-1,-1.834662144E0,3.627176973E0,4.069937357E0
8.063657333E0,-3.884129941E-1,-1.688754233E0,3.063944510E0,3.520015835E0
8.073601333E0,-9.675656712E-1,-1.202858214E0,2.355792900E0,2.816524702E0
8.083544333E0,-9.432172805E-1,-3.975738269E-1,1.509160513E0,1.823537562E0
8.093488333E0,-2.251388526E-1,4.075526851E-1,7.545035116E-1,8.866015132E-1
8.103432334E0,9.434002984E-1,9.902294791E-1,3.539217308E-2,1.368141495E0
8.113375333E0,2.118738007E0,1.401919069E0,-1.594734514E0,2.999600972E0
8.123319333E0,2.809781249E0,2.293041751E0,-3.208518671E0,4.842262199E0
8.133262333E0,3.604676303E0,3.237036127E0,-3.764447962E0,6.135402399E0
8.143206333E0,4.499471036E0,4.007669914E0,-3.765464208E0,7.105306358E0
8.153150334E0,5.185813116E0,4.617299448E0,-3.486138039E0,7.769509013E0
8.163093333E0,5.643111573E0,5.012716237E0,-3.227507504E0,8.209070410E0
8.173037333E0,6.002202535E0,5.151808634E0,-2.941598539E0,8.439228012E0
8.182980333E0,6.148327963E0,5.255978535E0,-2.482205025E0,8.461004011E0
8.192924333E0,6.091506475E0,5.329280984E0,-1.894392622E0,8.312425058E0
8.202868334E0,5.640590839E0,5.345015842E0,-7.785346909E-1,7.809710342E0
8.212811333E0,5.233063297E0,5.325772655E0,4.590530603E-1,7.480610640E0
8.222755333E0,5.257722175E0,5.003564175E0,1.532048854E0,7.417982921E0
8.232698333E0,5.374689292E0,4.202383949E0,2.242282218E0,7.181583766E0
8.242642333E0,4.999113860E0,2.985944992E0,2.337145983E0,6.274492667E0
8.252586334E0,4.134633431E0,1.683385904E0,1.719994591E0,4.784073902E0
8.262529333E0,3.050663145E0,3.248227698E-1,1.180613797E0,3.287233547E0
8.272473333E0,1.550858177E0,-1.113456041E0,8.637319851E-1,2.095466149E0
8.282416333E0,-2.324852943E-1,-2.539703035E0,3.105777830E-1,2.569163187E0
8.292360333E0,-1.889856352E0,-4.113296356E0,-5.588502672E-1,4.561039088E0
8.302304334E0,-3.398454362E0,-5.855830355E0,-1.953827230E0,7.046820705E0
8.312247334E0,-4.337635310E0,-6.960072938E0,-3.735528803E0,9.011762914E0
8.322191333E0,-3.918621497E0,-6.374757881E0,-5.829975722E0,9.485871040E0
8.332134333E0,-1.785792285E0,-4.582655865E0,-6.986719869E0,8.544240364E0
8.342078333E0,2.809949648E-1,-4.483987024E0,-5.850299474E0,7.376388123E0
8.352022334E0,6.323108840E-1,-5.153522453E0,-3.514933237E0,6.270037192E0
8.361965334E0,3.979305071E-1,-6.086411796E0,-1.517396316E0,6.285320105E0
8.371909333E0,-8.609896410E-1,-6.908442609E0,1.553366925E-1,6.963620605E0
8.381852333E0,-2.754712756E0,-7.605300322E0,1.473350995E0,8.221909663E0
8.391796333E0,-4.645002971E0,-8.047204814E0,2.637593027E0,9.658698406E0
8.401739333E0,-6.168822454E0,-7.931788378E0,3.574291247E0,1.066504549E1
8.411683334E0,-6.795940425E0,-6.668452413E0,4.036771506E0,1.034159504E1
8.421627333E0,-6.481054414E0,-4.095405046E0,4.170772732E0,8.727643095E0
8.431570333E0,-5.089381421E0,-1.249673946E0,3.526999551E0,6.316899085E0
8.441514333E0,-3.563989037E0,6.531164467E-1,2.556720187E0,4.434568419E0
8.451457333E0,-2.867368137E0,2.197438606E0,2.295464838E0,4.280151315E0
8.461401334E0,-3.073275497E0,3.441352460E0,3.618528941E0,5.863589407E0
8.471345333E0,-3.218018643E0,4.448047698E0,4.962907900E0,7.400758551E0
8.481288333E0,-3.730431200E0,5.322425709E0,5.276931447E0,8.371997245E0
8.491232333E0,-4.706763017E0,5.663494967E0,5.400977204E0,9.132324354E0
8.501175333E0,-5.701140511E0,5.448052552E0,5.302268602E0,9.502543453E0
8.511119334E0,-5.632518758E0,4.494891497E0,4.446512804E0,8.467632092E0
8.521063333E0,-4.875534711E0,3.148877072E0,2.800219297E0,6.444182930E0
8.531006333E0,-3.716097336E0,1.796795576E0,6.814731038E-1,4.183570167E0
8.540950333E0,-2.411490553E0,1.466779894E-1,-1.124051342E0,2.664637412E0
8.550893333E0,-1.256652013E0,-1.412476217E0,-2.650126534E0,3.255370023E0
8.560837334E0,-1.163362026E-2,-2.577616966E0,-3.925413038E0,4.696074114E0
8.570781333E0,1.832346647E0,-3.164922416E0,-4.879413169E0,6.097778367E0
8.580724333E0,3.761239595E0,-2.802426036E0,-5.346926127E0,7.112674180E0
8.590668333E0,5.046734169E0,-1.744581694E0,-4.990697962E0,7.308909440E0
8.600611333E0,5.456449154E0,-5.196245134E-1,-3.528958953E0,6.518926161E0
8.610555334E0,5.425618540E0,5.278123695E-1,-1.791111059E0,5.737943993E0
8.620499333E0,5.841870128E0,1.318457083E0,-2.667137253E-1,5.994740351E0
8.630442333E0,6.285224730E0,2.032431934E0,6.707563269E-1,6.639634291E0
8.640386333E0,6.727372466E0,2.528477551E0,1.050437089E0,7.263205704E0
8.650329333E0,6.884442127E0,2.859863235E0,1.227712827E0,7.555239236E0
8.660273334E0,6.596556219E0,3.052314983E0,1.295968545E0,7.383137218E0
8.670217333E0,5.862158797E0,3.087935051E0,1.302840485E0,6.752602607E0
8.680160333E0,5.625778087E0,3.526178602E0,1.078013143E0,6.726472103E0
8.690104333E0,5.702829772E0,4.204623433E0,7.555147876E-1,7.125442317E0
8.700047333E0,5.844742280E0,4.638334807E0,1.299847734E-1,7.462711179E0
8.709991334E0,5.982191609E0,5.108167940E0,-6.429522318E-1,7.892615772E0
8.719935333E0,5.560319678E0,5.285231570E0,-1.435026004E0,7.804494045E0
8.729878333E0,4.870948155E0,5.069424874E0,-2.099308002E0,7.337049718E0
8.739822333E0,4.082626541E0,4.347364492E0,-2.518942496E0,6.473985542E0
8.749765333E0,3.276980796E0,2.930789376E0,-2.696705453E0,5.157552696E0
8.759709334E0,1.983280824E0,1.461892791E0,-2.829674646E0,3.752011722E0
8.769653333E0,3.250496417E-1,1.770367330E-1,-3.012087309E0,3.034743684E0
8.779596333E0,-1.416761642E0,-9.280227059E-1,-2.662918487E0,3.155879364E0
8.789540333E0,-3.069607539E0,-1.762977619E0,-1.870172431E0,4.003514137E0
8.799483333E0,-4.382653023E0,-2.398037279E0,-1.474055730E0,5.208749428E0
8.809427334E0,-5.102333003E0,-3.144741921E0,-1.192921309E0,6.111159062E0
8.819371333E0,-6.992872894E0,-4.339650260E0,-8.973732094E-1,8.278774932E0
8.829314333E0,-8.763778753E0,-5.035786427E0,-7.165828563E-1,1.013293906E1
8.839258333E0,-8.545112184E0,-5.419547376E0,-1.755696812E0,1.027000035E1
8.849201333E0,-8.966251459E0,-5.602726609E0,-2.948130464E0,1.097614158E1
8.859145334E0,-7.469895764E0,-5.202123340E0,-5.207336717E0,1.048702940E1
8.869089333E0,-4.126792899E0,-3.095293187E0,-7.028998162E0,8.718834481E0
8.879032333E0,-4.033802290E0,-2.042020783E0,-4.564810748E0,6.424866299E0
8.888976333E0,-5.222328978E0,-2.391506524E0,-3.315032136E-1,5.753426613E0
8.898919333E0,-4.667179706E0,-1.467900220E0,3.492141375E0,6.011018953E0
8.908863334E0,-4.581827899E0,1.550628966E-1,7.011323199E0,8.377102387E0
8.918807333E0,-6.146717640E0,4.167111790E-1,9.650111396E0,1.144903646E1
8.928750333E0,-6.679127090E0,-1.304852951E-1,9.446496145E0,1.156996346E1
8.938694333E0,-3.993802072E0,6.293013221E-1,6.504166703E0,7.658371867E0
8.948637333E0,-1.647290457E0,2.424171410E0,4.229424983E0,5.145698063E0
8.958581334E0,-1.456190586E-1,3.212804680E0,2.665508219E0,4.177110591E0
8.968525333E0,5.997986108E-1,3.182717248E0,2.406666308E0,4.035032858E0
8.978468333E0,1.372577156E0,2.214144101E0,1.710500028E0,3.116442282E0
8.988413041E0,2.023203274E0,9.755073595E-1,1.142507055E0,2.519977870E0
8.998356041E0,1.765622315E0,-2.678527629E-1,2.069223785E0,2.733286361E0
9.008300042E0,8.872190809E-1,-1.394065089E0,3.694846800E0,4.047526164E0
9.018244042E0,2.745893401E-1,-2.459774521E0,4.846137834E0,5.441593692E0
9.028187042E0,-9.883665562E-2,-3.378538746E0,5.077127411E0,6.099304508E0
9.038131041E0,-4.971975178E-1,-3.806671876E0,4.402334751E0,5.841104981E0
9.048074041E0,-1.058389887E0,-3.535410186E0,3.524027411E0,5.102752545E0
9.058018042E0,-1.625065191E0,-2.553251619E0,2.698553758E0,4.054888789E0
9.067962042E0,-1.746558638E0,-1.350061868E0,1.780304235E0,2.835950862E0
9.077905042E0,-9.009670544E-1,-4.028673112E-2,6.831505238E-1,1.131397053E0
9.087849042E0,5.155133361E-1,9.096115780E-1,-4.501790334E-1,1.138335796E0
9.097792041E0,1.731324302E0,1.381853179E0,-2.066470331E0,3.029406159E0
9.107736042E0,2.468596215E0,2.038399603E0,-3.411543939E0,4.678426259E0
9.117680042E0,2.990166682E0,2.911391823E0,-3.985956863E0,5.771061536E0
9.127623042E0,3.727619859E0,3.819960843E0,-3.829877136E0,6.569262480E0
9.137567042E0,4.595227379E0,4.594049749E0,-3.422437302E0,7.344010134E0
9.147510041E0,5.192453799E0,5.037617190E0,-3.002133594E0,7.832749806E0
9.157454042E0,5.502722265E0,5.132256129E0,-2.601216329E0,7.961553346E0
9.167397042E0,5.749226258E0,4.949798443E0,-1.875389171E0,7.814805931E0
9.177341042E0,5.876279823E0,4.798842630E0,-6.958443904E-1,7.618645192E0
9.187285042E0,5.835959178E0,4.874468179E0,3.673020606E-1,7.612737376E0
9.197228041E0,5.874112844E0,4.956546714E0,1.021113157E0,7.753401132E0
9.207172042E0,5.825332448E0,4.658593070E0,1.312824313E0,7.573671184E0
9.217116042E0,5.876542363E0,3.948123039E0,1.030703906E0,7.154283767E0
9.227059042E0,6.038849375E0,2.608568618E0,1.092995171E-1,6.579078840E0
9.237003042E0,6.135634827E0,1.081141403E0,-6.519237609E-1,6.264174810E0
9.246946041E0,5.314165932E0,8.116695464E-2,-9.600683713E-1,5.400803542E0
9.256890042E0,4.031801373E0,-6.205158806E-1,-9.595529392E-1,4.190609038E0
9.266833042E0,2.542296275E0,-1.219457290E0,-6.911626710E-1,2.903110792E0
9.276777042E0,5.882234627E-1,-1.911956196E0,-2.691281869E-1,2.018418519E0
9.286721042E0,-1.625696105E0,-2.866580809E0,-1.800826938E-1,3.300394391E0
9.296664041E0,-3.740325274E0,-4.155105995E0,-8.225782581E-1,5.650802949E0
9.306608042E0,-5.385675040E0,-5.468217260E0,-2.368848125E0,8.032330738E0
9.316551042E0,-5.600597638E0,-5.781370742E0,-4.305950418E0,9.128644508E0
9.326495042E0,-2.935816813E0,-5.143971611E0,-5.339101383E0,7.974049653E0
9.336439042E0,-6.427896792E-1,-5.221153688E0,-4.525487638E0,6.939284024E0
9.346382041E0,5.969714820E-2,-5.943563733E0,-2.814016387E0,6.576336505E0
9.356326042E0,-1.659942663E-1,-6.675560288E0,-9.682483336E-1,6.747456120E0
9.366269042E0,-1.337613146E0,-7.078845091E0,7.419988024E-1,7.242224725E0
9.376213042E0,-3.210062336E0,-7.170134161E0,2.069536465E0,8.123934100E0
9.386157042E0,-4.944535364E0,-7.410121433E0,2.722359527E0,9.315018573E0
9.396100041E0,-6.062336470E0,-7.075706306E0,2.904975674E0,9.759939901E0
9.406044042E0,-6.174945073E0,-5.705322440E0,3.102525024E0,8.961378930E0
9.415987042E0,-5.826300162E0,-3.715042206E0,3.091419992E0,7.569953087E0
9.425931042E0,-5.048176092E0,-1.869432027E0,2.368852072E0,5.881353424E0
9.435875042E0,-4.070010588E0,4.253264666E-3,1.719316460E0,4.418263615E0
9.445818041E0,-3.339747148E0,1.934424999E0,1.801423062E0,4.259229524E0
9.455762042E0,-3.037843709E0,3.402913449E0,3.338190034E0,5.652594718E0
9.465705042E0,-2.606539049E0,4.257267669E0,5.636844528E0,7.529434909E0
9.475649042E0,-2.382393054E0,4.911756458E0,7.170209590E0,9.011828545E0
9.485593042E0,-3.202849211E0,5.044066669E0,7.673704559E0,9.725563906E0
9.495536042E0,-3.837408350E0,4.912220727E0,6.918067710E0,9.312103745E0
9.505480042E0,-3.637674479E0,4.421952744E0,4.892957367E0,7.531757662E0
9.515423042E0,-3.480332923E0,3.577807762E0,2.619047705E0,5.636739884E0
9.525367042E0,-3.144420909E0,2.654770977E0,5.539994171E-1,4.152361635E0
9.535311042E0,-2.580350540E0,1.273676181E0,-1.557245675E0,3.271922068E0
9.545254042E0,-1.622737999E0,-4.488071305E-1,-3.189473998E0,3.606584372E0
9.555198042E0,-4.901030910E-1,-1.697380046E0,-4.521711506E0,4.854603485E0
9.565141042E0,8.063807398E-1,-2.244382392E0,-5.546220871E0,6.037223548E0
9.575085042E0,2.128959525E0,-2.053339239E0,-5.869164931E0,6.572348718E0
9.585029042E0,3.345540569E0,-1.310136495E0,-5.434602202E0,6.514906018E0
9.594972042E0,4.222497202E0,-5.037037146E-1,-4.190316465E0,5.970088117E0
9.604916042E0,4.801689640E0,1.483105320E-1,-2.586571977E0,5.456058468E0
9.614859042E0,5.433803473E0,6.145704317E-1,-1.105773969E0,5.579126550E0
9.624803042E0,5.974456328E0,1.072614993E0,-3.147980109E-2,6.070059498E0
9.634747042E0,6.024797346E0,1.545043121E0,8.562608515E-1,6.278417313E0
9.644690042E0,5.622881377E0,1.968351713E0,1.602935526E0,6.169327820E0
9.654634042E0,5.256926368E0,2.370508588E0,1.594905252E0,5.983168774E0
9.664577042E0,5.353108388E0,2.492303751E0,1.066754622E0,6.000442719E0
9.674521042E0,5.697703518E0,2.614041612E0,5.239143232E-1,6.290590206E0
9.684465042E0,5.982043675E0,3.081239405E0,1.423748772E-1,6.730464575E0
9.694408042E0,5.662975734E0,3.151633449E0,-4.007816094E-1,6.493282180E0
9.704352042E0,5.790091864E0,2.992145380E0,-1.319252304E0,6.649701077E0
9.714295042E0,5.450111357E0,2.711181990E0,-2.102323411E0,6.440029915E0
9.724239042E0,4.703416656E0,2.352514659E0,-2.785452738E0,5.951067166E0
9.734183042E0,3.727968353E0,2.091713053E0,-3.458456150E0,5.498538941E0
9.744126042E0,2.846170226E0,1.591472060E0,-4.099183517E0,5.238012388E0
9.754070042E0,2.404649895E0,9.669139990E-1,-3.990079735E0,4.757940741E0
9.764013042E0,2.168263339E0,4.500408930E-1,-2.985082528E0,3.716802444E0
9.773957042E0,1.478240436E0,-3.348291099E-2,-1.548637697E0,2.141166647E0
9.783901042E0,-2.136262697E-1,-7.306864867E-1,-5.449138673E-1,9.361997904E-1
9.793844042E0,-2.825786247E0,-1.863086044E0,-8.185710150E-1,3.482271677E0
9.803788042E0,-5.784794286E0,-3.408757156E0,-8.801971596E-1,6.771869559E0
9.813731042E0,-9.107131349E0,-5.326790655E0,-5.465224363E-1,1.056471613E1
9.823675042E0,-1.061857169E1,-6.622047740E0,-6.695001988E-1,1.253211122E1
9.833618042E0,-1.104848588E1,-7.765951402E0,-1.051756806E0,1.354567215E1
9.843562042E0,-1.110121023E1,-7.304413129E0,-1.171603530E0,1.334031388E1
9.853506042E0,-7.914005826E0,-3.377200610E0,-2.040307403E0,8.843066577E0
9.863449042E0,-4.125922834E0,1.272662567E0,-2.774280463E0,5.132206283E0
9.873393042E0,-2.334865716E0,2.317984512E0,-2.677751119E0,4.242051527E0
9.883336042E0,-1.554118000E0,5.198449534E-1,-8.754889085E-1,1.857956501E0
9.893280042E0,-1.897357745E0,2.517422220E-1,3.153529701E0,3.688914493E0
9.903224042E0,-4.736644628E0,-5.731119186E-2,6.595470976E0,8.120303215E0
9.913167042E0,-7.068429446E0,-2.893667158E-1,7.313698508E0,1.017529428E1
9.923111042E0,-6.528582922E0,7.812116924E-1,4.757008141E0,8.115529134E0
9.933054042E0,-2.725457967E0,2.626943201E0,1.558019262E0,4.093455231E0
9.942998042E0,-6.166111100E-1,3.372576047E0,9.560536730E-1,3.559286036E0
9.952942042E0,4.841137880E-1,2.949324465E0,1.723285550E0,3.450013630E0
9.962885042E0,1.568436077E0,1.864670347E0,2.253779306E0,3.319112591E0
9.972829042E0,2.337927318E0,8.142119157E-1,2.528896796E0,3.538949589E0
9.982772042E0,2.566299680E0,9.905943453E-2,3.111295847E0,4.034336212E0
9.992716917E0,2.285629821E0,-4.097146931E-1,3.887491506E0,4.528196110E0
1.000266092E1,1.085481791E0,-1.363263127E0,5.092889165E0,5.382775968E0
1.001260392E1,2.979302555E-1,-2.533717825E0,5.906837372E0,6.434222268E0
1.002254792E1,-8.223547482E-1,-3.250739661E0,5.466148515E0,6.412671461E0
1.003249092E1,-2.270197849E0,-3.324442645E0,4.409835559E0,5.970960294E0
1.004243492E1,-3.294252886E0,-2.825377527E0,3.074014000E0,5.318310100E0
1.005237892E1,-3.171332134E0,-2.108876678E0,1.637052275E0,4.145437070E0
1.006232192E1,-2.121273944E0,-1.440907719E0,3.523961923E-1,2.588474701E0
1.007226592E1,-8.001727509E-1,-8.900058639E-1,-2.805998392E-1,1.229277487E0
1.008220892E1,9.501509088E-1,-3.134896964E-1,-4.067096628E-1,1.080034856E0
1.009215292E1,2.130089207E0,7.503831249E-1,-1.926096225E0,2.968198364E0
1.010209692E1,2.879862467E0,2.038372121E0,-3.179955023E0,4.749808699E0
1.011203992E1,3.903114097E0,2.956274466E0,-3.594403329E0,6.074009686E0
1.012198392E1,4.951891746E0,3.567555254E0,-3.495354420E0,7.033220093E0
1.013192692E1,5.823452568E0,4.024833831E0,-3.156861445E0,7.750978090E0
1.014187092E1,6.307673360E0,4.369379843E0,-2.758709328E0,8.154060375E0
1.015181492E1,6.605510645E0,4.567036198E0,-2.603625966E0,8.442124062E0
1.016175792E1,6.723899220E0,4.608195918E0,-2.452434511E0,8.512386585E0
1.017170192E1,6.785815971E0,4.573320200E0,-2.310598601E0,8.503024283E0
1.018164492E1,6.729682701E0,4.436038687E0,-1.949631999E0,8.292655390E0
1.019158892E1,6.489734606E0,4.217417141E0,-7.296541607E-1,7.774037418E0
1.020153292E1,6.174414146E0,4.002213877E0,1.001988230E0,7.425973766E0
1.021147592E1,5.973487444E0,3.584175672E0,2.318137416E0,7.341840953E0
1.022141992E1,4.950550395E0,2.933774672E0,3.106644387E0,6.539588855E0
1.023136292E1,3.516694418E0,1.982299077E0,3.064726868E0,5.068451443E0
1.024130692E1,2.391954421E0,1.053431156E0,2.183385262E0,3.405632739E0
1.025125092E1,1.094740857E0,2.511955073E-1,8.679991369E-1,1.419499641E0
1.026119392E1,-5.024144036E-1,-7.197621337E-1,-5.052836323E-1,1.012812574E0
1.027113792E1,-2.281966540E0,-2.111821336E0,-1.856854082E0,3.621473143E0
1.028108092E1,-3.644018124E0,-3.942738338E0,-3.461211358E0,6.387803829E0
1.029102492E1,-4.872122861E0,-5.776888851E0,-5.014615413E0,9.069531063E0
1.030096892E1,-5.314546586E0,-6.663678162E0,-5.845308875E0,1.033521397E1
1.031091192E1,-2.833154324E0,-6.104358655E0,-5.783062341E0,8.873205061E0
1.032085592E1,4.008851051E-2,-5.889966985E0,-4.637169456E0,7.496443073E0
1.033079892E1,1.398947514E0,-6.165271440E0,-2.695928943E0,6.872820304E0
1.034074292E1,1.210236230E0,-6.592688870E0,-4.581457186E-1,6.718490588E0
1.035068592E1,-5.827194786E-1,-6.831709013E0,1.758617643E0,7.078456473E0
1.036062992E1,-2.904081050E0,-6.545161532E0,3.092088329E0,7.799604891E0
1.037057392E1,-4.647721342E0,-5.890916573E0,3.450743380E0,8.259046048E0
1.038051692E1,-5.747825850E0,-5.129985071E0,3.266001771E0,8.367856141E0
1.039046092E1,-5.808921068E0,-4.639634643E0,2.786555523E0,7.939437340E0
1.040040392E1,-5.096575835E0,-3.770260094E0,2.308402679E0,6.746752504E0
1.041034792E1,-4.236614719E0,-1.924266339E0,1.836445399E0,5.002423105E0
1.042029192E1,-3.118410155E0,3.845506158E-1,1.404082539E0,3.441483524E0
1.043023492E1,-2.513178896E0,2.611478777E0,2.056279657E0,4.167034388E0
1.044017892E1,-2.968136712E0,3.934791387E0,4.097264460E0,6.409367743E0
1.045012192E1,-3.267581397E0,4.722629729E0,7.017492011E0,9.067828509E0
1.046006592E1,-3.639849644E0,5.140894806E0,8.989978876E0,1.097711369E1
1.047000992E1,-4.853441591E0,4.994761192E0,9.864660941E0,1.207539110E1
1.047995292E1,-5.678877822E0,4.482736013E0,8.642687595E0,1.127122994E1
1.048989692E1,-5.036860560E0,3.508791906E0,5.215916921E0,8.055269969E0
1.049983992E1,-4.203541113E0,2.544408875E0,1.572384701E0,5.159085971E0
1.050978392E1,-3.423876886E0,1.120904224E0,-1.143286196E0,3.779743713E0
1.051972792E1,-2.319307444E0,-7.816534495E-1,-3.335650588E0,4.137237482E0
1.052967092E1,-1.057616301E0,-2.635612575E0,-5.067570137E0,5.809068168E0
1.053961492E1,3.124781281E-1,-3.762396759E0,-6.157419214E0,7.222678404E0
1.054955792E1,1.711899852E0,-3.579198230E0,-6.253325830E0,7.405764309E0
1.055950192E1,2.799149256E0,-2.461324033E0,-5.260817106E0,6.447445167E0
1.056944592E1,3.217185999E0,-1.147181026E0,-3.534533396E0,4.915204613E0
1.057938892E1,3.836293285E0,-2.448767138E-1,-1.940336680E0,4.306044265E0
1.058933292E1,4.609553642E0,3.408108115E-1,-7.124693401E-1,4.676724211E0
1.059927592E1,5.257751411E0,7.412234616E-1,1.662274240E-1,5.312343520E0
1.060921992E1,5.733673834E0,1.365221944E0,3.833778106E-1,5.906422364E0
1.061916392E1,6.203856631E0,1.973281501E0,2.162164401E-1,6.513710657E0
1.062910692E1,6.457949141E0,2.313631552E0,-4.663154483E-3,6.859884825E0
1.063905092E1,6.391570380E0,2.527275363E0,-2.201909387E-1,6.876610846E0
1.064899392E1,6.538920214E0,2.906196572E0,-4.489237824E-1,7.169727237E0
1.065893792E1,6.755472431E0,3.317831199E0,-5.728113717E-1,7.548014606E0
1.066888192E1,6.699230987E0,3.476845059E0,-4.548686466E-1,7.561418707E0
1.067882492E1,6.825368877E0,3.494634628E0,-5.771400654E-1,7.689682838E0
1.068876892E1,7.118397996E0,3.512929396E0,-9.664564544E-1,7.996643112E0
1.069871192E1,7.144063765E0,3.569937117E0,-1.457727965E0,8.118316877E0
1.070865592E1,6.556315096E0,3.377169328E0,-2.257777194E0,7.712852790E0
1.071859992E1,5.491401470E0,3.069296759E0,-3.258358583E0,7.084699949E0
1.072854292E1,4.333458644E0,2.500224974E0,-4.115624717E0,6.478298816E0
1.073848692E1,3.484264591E0,1.834564496E0,-4.404080729E0,5.907762157E0
1.074842992E1,2.553750386E0,1.358861927E0,-3.453883043E0,4.505269675E0
1.075837392E1,9.745121634E-1,9.196401376E-1,-1.314992169E0,1.877396160E0
1.076831792E1,-9.890845942E-1,-2.496088654E-1,1.536162955E-1,1.031596281E0
1.077826092E1,-3.701755285E0,-2.286430305E0,4.768521309E-1,4.377001677E0
1.078820492E1,-6.793967575E0,-4.254933461E0,1.781193450E-2,8.016406391E0
1.079814792E1,-1.083073206E1,-5.788129538E0,-4.365601373E-1,1.228811561E1
1.080809192E1,-1.260810202E1,-6.467660782E0,-7.095005625E-1,1.418796192E1
1.081803592E1,-1.218271240E1,-6.590345891E0,-1.546767611E0,1.393713136E1
1.082797892E1,-1.197353645E1,-5.914759179E0,-1.432908143E0,1.343142498E1
1.083792292E1,-8.074882609E0,-2.560453050E0,-2.757850957E0,8.908725547E0
1.084786592E1,-4.398680241E0,3.776824763E-1,-5.219460919E0,6.836212709E0
1.085780992E1,-4.563764681E0,1.134690204E-1,-2.192174358E0,5.064232587E0
1.086775292E1,-4.574850417E0,-8.506178498E-2,2.003213836E0,4.994933184E0
1.087769692E1,-4.260656131E0,1.120663611E0,7.277458634E0,8.507084211E0
1.088764092E1,-5.989711713E0,5.252194217E-1,1.094447210E1,1.248735246E1
1.089758392E1,-7.520787005E0,-9.721419945E-1,8.599807039E0,1.146577421E1
1.090752792E1,-4.440328789E0,3.195830798E-1,2.373074931E0,5.044812952E0
1.091747092E1,-7.793508160E-1,3.074235902E0,8.280505210E-1,3.277801358E0
1.092741492E1,1.403896598E0,4.139455337E0,1.792947815E0,4.724476480E0
1.093735892E1,2.517842050E0,3.625109105E0,2.848757034E0,5.253223892E0
1.094730192E1,2.903926098E0,2.269252939E0,2.450017565E0,4.425480963E0
1.095724592E1,2.885357096E0,9.047171661E-1,1.713486932E0,3.475605873E0
1.096718892E1,2.479555067E0,-1.807485455E-1,2.056277465E0,3.226319943E0
1.097713292E1,1.106727065E0,-1.545627843E0,3.479156463E0,3.964636165E0
1.098707692E1,-4.008874440E-1,-2.997314318E0,5.202625616E0,6.017633851E0
1.099701846E1,-2.130696148E0,-4.000394223E0,5.776783601E0,7.342632279E0
1.100696246E1,-3.598037959E0,-4.401022051E0,4.886968356E0,7.496487975E0
1.101690546E1,-4.411321921E0,-4.005569594E0,3.514951363E0,6.918036712E0
1.102684946E1,-4.060380224E0,-2.848519052E0,1.919314624E0,5.318319000E0
1.103679346E1,-2.867600271E0,-1.376848547E0,5.622548085E-1,3.230320991E0
1.104673646E1,-1.423033365E0,-1.471001583E-1,-4.181813152E-1,1.490482481E0
1.105668046E1,2.404182118E-1,8.041190368E-1,-9.097824629E-1,1.237785309E0
1.106662346E1,2.237233002E0,1.409850817E0,-1.797366849E0,3.197408078E0
1.107656746E1,3.106653743E0,2.249872343E0,-3.059978929E0,4.906800799E0
1.108651146E1,3.742592239E0,2.962226347E0,-3.810226398E0,6.107340404E0
1.109645446E1,4.593089637E0,3.483363535E0,-3.925560973E0,6.974261457E0
1.110639846E1,5.500116745E0,3.912281946E0,-3.589492838E0,7.644716677E0
1.111634146E1,6.167860587E0,4.152380315E0,-3.157815126E0,8.078153432E0
1.112628546E1,6.540816466E0,4.311286002E0,-2.751734185E0,8.303102315E0
1.113622946E1,6.770934808E0,4.347549264E0,-2.411759379E0,8.400197978E0
1.114617246E1,6.912439765E0,4.302230419E0,-2.034150577E0,8.392185571E0
1.115611646E1,6.995786562E0,4.273521175E0,-1.286348998E0,8.298114641E0
1.116605946E1,7.015191132E0,4.228480657E0,3.220973825E-1,8.197359453E0
1.117600346E1,7.074259120E0,4.188103294E0,2.158724191E0,8.499731845E0
1.118594746E1,6.894796377E0,3.859783890E0,3.358486889E0,8.585777946E0
1.119589046E1,5.959436585E0,2.970072725E0,3.445812131E0,7.497322032E0
1.120583446E1,4.948042524E0,1.851638658E0,2.395021870E0,5.800674124E0
1.121577746E1,3.892168109E0,9.070431885E-1,1.280199335E0,4.196499764E0
1.122572146E1,2.278569893E0,2.088856396E-1,1.832701573E-1,2.295452443E0
1.123566546E1,1.159619808E-2,-4.086309117E-1,-1.047390982E0,1.124340502E0
1.124560846E1,-2.179365447E0,-9.684588334E-1,-2.478605479E0,3.439626635E0
1.125555246E1,-3.294985542E0,-1.850518916E0,-4.193427184E0,5.645013865E0
1.126549546E1,-3.659921966E0,-3.683370762E0,-6.035816424E0,7.961992770E0
1.127543946E1,-4.453241780E0,-5.798159852E0,-6.805901742E0,9.988509325E0
1.128538246E1,-4.110405493E0,-6.307389185E0,-6.087412255E0,9.681693014E0
1.129532646E1,-1.947050307E0,-6.065369421E0,-4.336214729E0,7.706002160E0
1.130527046E1,-1.443361795E-1,-6.317068081E0,-2.490762425E0,6.791912804E0
1.131521346E1,5.841614020E-1,-6.960916107E0,-5.975725758E-1,7.010897986E0
1.132515746E1,-1.947701687E-1,-7.597716483E0,1.360941636E0,7.721100524E0
1.133510046E1,-2.073614459E0,-7.885504743E0,2.964222586E0,8.675694642E0
1.134504446E1,-4.071771185E0,-7.534672973E0,3.588515183E0,9.285906451E0
1.135498846E1,-5.380523059E0,-6.874897133E0,3.521752844E0,9.413659335E0
1.136493146E1,-5.914794263E0,-6.084654708E0,3.172066544E0,9.059239496E0
1.137487546E1,-5.815675771E0,-4.538639487E0,3.160456313E0,8.025572701E0
1.138481846E1,-5.336188885E0,-2.232414896E0,3.185000585E0,6.603242901E0
1.139476246E1,-4.564650534E0,7.510339200E-2,2.660925756E0,5.284146184E0
1.140470646E1,-3.620350349E0,2.625393981E0,2.355525683E0,5.054515946E0
1.141464946E1,-3.172665299E0,4.751054506E0,2.586508242E0,6.271231850E0
1.142459346E1,-3.248212495E0,5.838624923E0,4.222589003E0,7.903839782E0
1.143453646E1,-3.123060445E0,6.279064103E0,6.330814301E0,9.447717305E0
1.144448046E1,-3.818963892E0,6.305257875E0,7.767221417E0,1.070843082E1
1.145442446E1,-5.380789692E0,5.605774763E0,8.065010755E0,1.119919671E1
1.146436746E1,-5.637252079E0,4.038864225E0,6.082156777E0,9.224080783E0
1.147431146E1,-4.941988317E0,2.575087461E0,3.054014184E0,6.354630327E0
1.148425446E1,-4.246037507E0,1.313864679E0,4.744056559E-1,4.469914500E0
1.149419846E1,-3.178906032E0,-1.417341685E-1,-1.609723266E0,3.566054000E0
1.150414246E1,-1.973067493E0,-1.622512296E0,-3.240667248E0,4.126434986E0
1.151408546E1,-7.397838771E-1,-3.003977805E0,-4.338964967E0,5.328956729E0
1.152402946E1,8.707059592E-1,-3.752642434E0,-5.095667177E0,6.387979186E0
1.153397246E1,2.886957479E0,-3.414048886E0,-5.564196382E0,7.137964321E0
1.154391646E1,4.285648885E0,-2.236899126E0,-5.295016885E0,7.169916867E0
1.155386046E1,4.280574671E0,-1.046700718E0,-4.164602750E0,6.063234943E0
1.156380346E1,4.226016641E0,-2.451269746E-1,-2.125602053E0,4.736822561E0
1.157374746E1,5.181707202E0,3.875060910E-1,-3.233238360E-1,5.206225965E0
1.158369046E1,5.869654927E0,6.398573005E-1,8.709717152E-1,5.968321209E0
1.159363446E1,6.006334178E0,1.144203624E0,9.631878608E-1,6.189748221E0
1.160357846E1,6.222397567E0,1.952102301E0,3.851058090E-1,6.532782054E0
1.161352146E1,6.399183455E0,2.635509079E0,-2.837095347E-1,6.926467216E0
1.162346546E1,6.269786326E0,3.152791198E0,-6.757149120E-1,7.050312302E0
1.163340846E1,5.842295220E0,3.425362664E0,-9.622961605E-1,6.840433957E0
1.164335246E1,5.759693359E0,3.776624789E0,-1.253470689E0,7.000582201E0
1.165329646E1,6.219243579E0,4.209017615E0,-1.447513464E0,7.647883054E0
1.166323946E1,6.460872164E0,4.403590148E0,-1.555208067E0,7.972022795E0
1.167318346E1,6.640280528E0,4.378735389E0,-1.969753291E0,8.194301503E0
1.168312646E1,6.426484689E0,4.013678513E0,-2.372456880E0,7.939639306E0
1.169307046E1,5.795105851E0,3.472760779E0,-2.642947322E0,7.254549593E0
1.170301446E1,4.906129682E0,2.804315271E0,-2.978835948E0,6.388094880E0
1.171295746E1,3.701382818E0,2.071224117E0,-3.293676935E0,5.370150078E0
1.172290146E1,1.920761810E0,1.253076441E0,-2.670723351E0,3.520268415E0
1.173284446E1,1.108333880E-1,4.857860917E-1,-1.214282065E0,1.312536895E0
1.174278846E1,-1.774472660E0,-3.606966072E-1,-2.237437069E-2,1.810899190E0
1.175273146E1,-3.953888394E0,-1.600456014E0,4.543399121E-1,4.289652391E0
1.176267546E1,-6.486027471E0,-3.054208896E0,7.087222981E-1,7.204098252E0
1.177261946E1,-8.879454221E0,-4.777803179E0,-5.536459529E-1,1.009844712E1
1.178256246E1,-1.047688430E1,-5.605303477E0,-1.101617329E0,1.193306719E1
1.179250646E1,-1.100422363E1,-5.737385062E0,-7.769353312E-1,1.243439398E1
1.180244946E1,-1.182218361E1,-5.455910041E0,-4.832443070E-1,1.302937085E1
1.181239346E1,-8.760372165E0,-2.043580821E0,-1.967466445E0,9.208217377E0
1.182233746E1,-5.012634376E0,1.818470619E0,-6.090910059E0,8.095216126E0
1.183228046E1,-4.603329281E0,4.860486317E-1,-5.157314957E0,6.929991436E0
1.184222446E1,-5.210379024E0,-1.356494682E0,-6.465185217E-1,5.422740413E0
1.185216746E1,-5.181490270E0,-8.748300004E-1,4.793594754E0,7.112785644E0
1.186211146E1,-5.716634463E0,-3.958687788E-1,1.038672959E1,1.186257869E1
1.187205546E1,-5.595678960E0,-7.478811014E-1,1.084575473E1,1.222707426E1
1.188199846E1,-2.940282916E0,6.012691855E-3,4.857943363E0,5.678460486E0
1.189194246E1,-1.120015447E0,2.334743509E0,2.998525277E-1,2.606793699E0
1.190188546E1,1.957098162E-1,3.561181789E0,-2.265187955E-1,3.573741573E0
1.191182946E1,1.924751950E0,2.997559024E0,7.152534918E-1,3.633403051E0
1.192177346E1,2.646282574E0,1.563516814E0,1.379013771E0,3.368838861E0
1.193171646E1,2.255728329E0,3.784703887E-1,2.665530438E0,3.512350018E0
1.194166046E1,1.418166727E0,-8.063076496E-1,4.575591844E0,4.857712385E0
1.195160346E1,8.263682771E-1,-1.711118079E0,6.069004050E0,6.359529839E0
1.196154746E1,1.301601899E-1,-2.365349005E0,6.678268134E0,7.085977904E0
1.197149146E1,-4.990697962E-1,-2.856502841E0,5.934209358E0,6.604810356E0
1.198143446E1,-1.300045370E0,-3.082000127E0,4.580994379E0,5.672244022E0
1.199137842E1,-2.075657476E0,-2.992896162E0,3.197007258E0,4.846301353E0
1.200132142E1,-2.470017673E0,-2.478940524E0,1.861798926E0,3.963890598E0
1.201126542E1,-2.407073566E0,-1.752832115E0,6.439291553E-1,3.046484586E0
1.202120942E1,-1.780202932E0,-1.099188250E0,-4.413088073E-1,2.138244783E0
1.203115242E1,-2.685304552E-1,-4.509641683E-1,-8.310345013E-1,9.829016375E-1
1.204109642E1,1.017003295E0,-1.779839820E-1,-1.191467399E0,1.576568604E0
1.205103942E1,1.781654795E0,7.460538465E-1,-2.725793597E0,3.340784472E0
1.206098342E1,2.863071018E0,1.905618691E0,-3.723634397E0,5.068926057E0
1.207092642E1,3.972558553E0,2.774092183E0,-3.808141281E0,6.162690071E0
1.208087042E1,4.946461437E0,3.658142658E0,-3.342280746E0,7.001451923E0
1.209081442E1,5.461757841E0,4.188613756E0,-2.748945063E0,7.411611355E0
1.210075742E1,5.623377221E0,4.399621058E0,-2.479825793E0,7.558344580E0
1.211070142E1,5.674847921E0,4.521202798E0,-2.443931344E0,7.656237593E0
1.212064442E1,5.693542054E0,4.481301983E0,-2.363992012E0,7.621479307E0
1.213058842E1,5.756091474E0,4.380376117E0,-1.932141953E0,7.486885635E0
1.214053242E1,5.682896029E0,4.289088217E0,-7.274749035E-1,7.156871156E0
1.215047542E1,5.894288662E0,4.249821240E0,8.973971830E-1,7.321812693E0
1.216041942E1,6.381972760E0,4.045447605E0,1.994231490E0,7.814869280E0
1.217036242E1,6.222851311E0,3.167782289E0,2.237922388E0,7.332599790E0
1.218030642E1,5.414805284E0,1.971034124E0,1.572480596E0,5.973088565E0
1.219025042E1,4.639952731E0,1.184510236E0,4.860492164E-1,4.813363656E0
1.220019342E1,3.573703017E0,7.111407065E-1,-1.337076956E-1,3.646224363E0
1.221013742E1,2.088924224E0,4.335961837E-1,-8.630538543E-1,2.301406530E0
1.222008042E1,1.986217296E-1,2.253233323E-1,-1.476697941E0,1.506936629E0
1.223002442E1,-1.557466700E0,-6.746806857E-1,-2.258053767E0,2.824836874E0
1.223996842E1,-2.582138618E0,-2.483038546E0,-3.473439640E0,4.989759834E0
1.224991142E1,-3.133352129E0,-4.720687284E0,-4.624097421E0,7.313348136E0
1.225985542E1,-3.054065055E0,-6.088560648E0,-4.751172620E0,8.304909716E0
1.226979842E1,-2.012697582E0,-6.278876992E0,-3.782239870E0,7.601354240E0
1.227974242E1,-9.894330883E-1,-6.446466379E0,-2.527791380E0,6.994686260E0
1.228968642E1,-3.114934570E-1,-7.217412407E0,-1.127714622E0,7.311621592E0
1.229962942E1,-6.939124703E-1,-7.923473638E0,4.618663019E-1,7.967199601E0
1.230957342E1,-2.070385627E0,-8.217250031E0,1.953002772E0,8.696201156E0
1.231951642E1,-3.758122444E0,-8.182516401E0,2.821022521E0,9.435847976E0
1.232946042E1,-5.279558017E0,-7.445023463E0,2.627463310E0,9.497666590E0
1.233940442E1,-6.042774611E0,-6.269008062E0,2.097691539E0,8.956332780E0
1.234934742E1,-6.459022690E0,-4.816494205E0,2.154662130E0,8.340273343E0
1.235929142E1,-6.869295500E0,-2.681895041E0,2.675455210E0,7.844605934E0
1.236923442E1,-6.018275946E0,-4.090647751E-1,2.433363671E0,6.504478312E0
1.237917842E1,-4.363850716E0,1.372850221E0,1.860022542E0,4.938379761E0
1.238912142E1,-2.972957157E0,3.244342808E0,2.082744302E0,4.868475977E0
1.239906542E1,-2.179753702E0,4.640545639E0,3.445257815E0,6.177037432E0
1.240900942E1,-2.452108237E0,5.407762898E0,5.937014852E0,8.396718389E0
1.241895242E1,-3.247388622E0,5.767441505E0,7.814588542E0,1.024093299E1
1.242889642E1,-4.031420134E0,5.482431257E0,7.957982150E0,1.047085864E1
1.243883942E1,-4.549124422E0,4.586568237E0,6.615259123E0,9.246231365E0
1.244878342E1,-4.365865667E0,3.450575273E0,4.106773202E0,6.916128894E0
1.245872742E1,-4.070484797E0,2.361601524E0,1.582861742E0,4.965023619E0
1.246867042E1,-3.701202139E0,8.757982993E-1,-5.986089948E-1,3.850227612E0
1.247861442E1,-2.873115950E0,-5.945817250E-1,-2.236031106E0,3.688923664E0
1.248855742E1,-1.589173227E0,-1.770722256E0,-3.539358226E0,4.264737449E0
1.249850142E1,1.575807077E-1,-2.478536482E0,-4.612103612E0,5.238270182E0
1.250844542E1,2.051892053E0,-2.373870152E0,-5.148506126E0,6.029314706E0
1.251838842E1,3.494211874E0,-1.629697940E0,-4.769045219E0,6.132635999E0
1.252833242E1,4.275413918E0,-7.731545216E-1,-3.504054200E0,5.581695793E0
1.253827542E1,4.732031760E0,-5.537956417E-2,-1.812790049E0,5.067681840E0
1.254821942E1,5.433712256E0,5.055327237E-1,-3.566620284E-1,5.468820715E0
1.255816342E1,6.049947975E0,8.821401894E-1,6.038296813E-1,6.143667642E0
1.256810642E1,6.388880076E0,1.215839033E0,1.009273568E0,6.581389391E0
1.257805042E1,6.766345913E0,1.573247166E0,9.272795248E-1,7.008451396E0
1.258799342E1,6.721993028E0,1.938004079E0,6.703043371E-1,7.027827401E0
1.259793742E1,6.174791876E0,2.233982534E0,3.683336556E-1,6.576807916E0
1.260788142E1,6.128677810E0,2.897355582E0,-2.591693553E-1,6.783990700E0
1.261782442E1,6.025893699E0,3.526077738E0,-8.128489298E-1,7.028893403E0
1.262776842E1,5.900958581E0,3.917224013E0,-1.144410323E0,7.174651986E0
1.263771142E1,6.039618284E0,4.192671724E0,-1.636479540E0,7.532167715E0
1.264765542E1,5.976428593E0,4.268990460E0,-2.388535261E0,7.723152140E0
1.265759942E1,5.689748381E0,3.963860820E0,-3.148625641E0,7.615725354E0
1.266754242E1,4.965832677E0,3.212071732E0,-3.813229528E0,7.036875615E0
1.267748642E1,3.793686379E0,2.214458097E0,-4.256277736E0,6.116517078E0
1.268742942E1,2.554677170E0,9.641815951E-1,-4.551099612E0,5.307403251E0
1.269737342E1,1.557129900E0,-1.550544181E-1,-4.191224830E0,4.473819507E0
1.270731742E1,1.097617103E0,-8.776559597E-1,-2.446719589E0,2.821609476E0
1.271726042E1,5.830568630E-1,-1.408888950E0,2.335415938E-1,1.542551476E0
1.272720442E1,-8.663141155E-1,-2.251296725E0,1.844130394E0,3.036388315E0
1.273714742E1,-2.929976614E0,-3.032982334E0,1.388545318E0,4.439797618E0
1.274709142E1,-4.854214008E0,-3.735418290E0,2.992942648E-1,6.132399245E0
1.275703442E1,-7.503070527E0,-4.718788401E0,-5.436175396E-1,8.880233743E0
1.276697842E1,-1.066483369E1,-5.019647527E0,-6.459816742E-1,1.180478002E1
1.277692242E1,-1.303890733E1,-5.564373552E0,-8.161847663E-1,1.420005334E1
1.278686542E1,-1.475191815E1,-5.805700421E0,-4.998416287E-1,1.586111875E1
1.279680942E1,-9.533108611E0,-2.333106581E0,-5.703549564E-1,9.831014743E0
1.280675242E1,-4.612822235E0,2.352489516E0,-4.191428021E0,6.661861958E0
1.281669642E1,-2.507940960E0,2.516662374E0,-5.267117481E0,6.353415138E0
1.282664042E1,-1.208457507E0,7.760383683E-1,-1.795106900E0,2.298915805E0
1.283658342E1,-1.228623970E0,4.602261579E-1,2.864738059E0,3.150880690E0
1.284652742E1,-2.933486697E0,-2.915430495E-1,6.440517422E0,7.083121220E0
1.285647042E1,-4.345305687E0,-8.407038957E-1,7.333783693E0,8.565795224E0
1.286641442E1,-4.612252716E0,-1.106547555E0,4.305434693E0,6.405785706E0
1.287635842E1,-2.786172531E0,8.564212114E-2,1.203884254E0,3.036351304E0
1.288630142E1,-1.571992353E0,1.534091286E0,1.607955068E0,2.722152739E0
1.289624542E1,-2.403802049E-1,1.979169062E0,2.664901863E0,3.328151853E0
1.290618842E1,5.948372483E-1,1.445304825E0,3.948961237E0,4.247002736E0
1.291613242E1,8.676595598E-1,4.990335435E-1,4.986516033E0,5.085981689E0
1.292607642E1,1.037873762E0,-3.193439287E-1,5.431709585E0,5.539190510E0
1.293601942E1,1.030216248E0,-9.953487164E-1,5.472232543E0,5.656623869E0
1.294596342E1,8.216121519E-1,-1.589103060E0,5.263615583E0,5.559311475E0
1.295590642E1,6.070041347E-1,-2.082118649E0,4.584015927E0,5.071180741E0
1.296585042E1,-4.653623521E-2,-2.304088311E0,3.518401805E0,4.205964792E0
1.297579442E1,-1.010978909E0,-2.273690976E0,2.404908342E0,3.460539429E0
1.298573742E1,-1.583512537E0,-2.027202770E0,1.239527857E0,2.855432075E0
1.299568146E1,-1.508056558E0,-1.583984993E0,1.941787228E-1,2.195665825E0
1.300562446E1,-1.091075823E0,-8.750457627E-1,-6.071913917E-1,1.524740281E0
1.301556846E1,-1.919746149E-1,4.319747508E-2,-9.788461196E-1,9.984287659E-1
1.302551246E1,1.145273080E0,9.815101111E-1,-1.578042467E0,2.182940804E0
1.303545546E1,2.365113362E0,2.049942006E0,-2.933507162E0,4.289695527E0
1.304539946E1,3.580833696E0,2.940037333E0,-3.817399178E0,6.003226296E0
1.305534246E1,4.702853569E0,3.521553454E0,-4.006495208E0,7.111270932E0
1.306528646E1,5.656520993E0,3.888217145E0,-3.705882250E0,7.800514442E0
1.307522946E1,6.269776386E0,4.254386162E0,-3.258218250E0,8.247780532E0
1.308517346E1,6.669237109E0,4.554054210E0,-2.838289933E0,8.560024714E0
1.309511746E1,7.001161323E0,4.613173653E0,-2.385701408E0,8.717178570E0
1.310506046E1,7.247071239E0,4.605739503E0,-1.545941253E0,8.724838811E0
1.311500446E1,7.203804767E0,4.714143957E0,-3.006831247E-1,8.614427823E0
1.312494846E1,6.671764861E0,4.873473567E0,1.061212777E0,8.330027823E0
1.313489146E1,5.983171018E0,4.832860562E0,2.465919945E0,8.076858164E0
1.314483546E1,5.096679915E0,4.554710852E0,3.633245798E0,7.740930960E0
1.315477846E1,4.060975471E0,3.619710371E0,3.730311917E0,6.596139169E0
1.316472246E1,3.312399720E0,2.342815590E0,2.767678957E0,4.911295512E0
1.317466546E1,2.422699665E0,1.019498594E0,1.720711459E0,3.141607706E0
1.318460946E1,1.366183226E0,-3.649817392E-1,3.449424541E-1,1.455559540E0
1.319455346E1,2.247628766E-1,-1.734012559E0,-1.581711010E0,2.357780233E0
1.320449646E1,-5.633114004E-1,-3.137019211E0,-3.571978673E0,4.787195515E0
1.321444046E1,-1.597354066E0,-4.734397543E0,-4.996588447E0,7.066254752E0
1.322438346E1,-3.162277721E0,-6.629305304E0,-5.888259013E0,9.413781568E0
1.323432746E1,-4.650060813E0,-7.501534463E0,-5.819719706E0,1.057190722E1
1.324427146E1,-3.689113020E0,-6.233840568E0,-4.985586326E0,8.793542751E0
1.325421446E1,-1.961280091E0,-5.184549533E0,-3.560791780E0,6.588278345E0
1.326415846E1,-1.141603367E0,-5.469373255E0,-1.875811047E0,5.893722859E0
1.327410146E1,-1.156213805E0,-6.312503745E0,3.930790722E-3,6.417518940E0
1.328404546E1,-2.294124656E0,-6.852523347E0,1.785599327E0,7.443685183E0
1.329398946E1,-3.849507408E0,-6.792708085E0,2.500181120E0,8.198200781E0
1.330393246E1,-5.187386602E0,-6.804852167E0,2.458578473E0,8.902786130E0
1.331387646E1,-6.101312256E0,-7.139794128E0,2.344456903E0,9.679832106E0
1.332381946E1,-6.398060204E0,-6.770416160E0,2.378297518E0,9.614052654E0
1.333376346E1,-5.768134400E0,-5.014152313E0,2.713277632E0,8.110177149E0
1.334370746E1,-4.069345760E0,-2.518248432E0,2.458739856E0,5.380199974E0
1.335365046E1,-2.550600491E0,-9.121021995E-1,1.644298876E0,3.168787162E0
1.336359446E1,-2.072797018E0,7.735597336E-1,2.123892328E0,3.066887797E0
1.337353746E1,-1.912713118E0,2.418252566E0,4.099494588E0,5.129548988E0
1.338348146E1,-1.243827900E0,3.758251668E0,5.715165642E0,6.952314849E0
1.339342446E1,-1.884986790E0,4.552429561E0,7.480772755E0,8.957664378E0
1.340336846E1,-3.172131448E0,4.691559087E0,8.312000653E0,1.005795702E1
1.341331246E1,-4.348291276E0,4.217323585E0,7.580734414E0,9.703658563E0
1.342325546E1,-4.712718991E0,3.232482900E0,5.681266994E0,8.058254194E0
1.343319946E1,-4.343331082E0,2.258622116E0,3.271192345E0,5.887834756E0
1.344314246E1,-3.719263603E0,1.208673854E0,1.041280642E0,4.046984014E0
1.345308646E1,-2.580307270E0,-1.310518903E-1,-8.595330995E-1,2.722858306E0
1.346303046E1,-1.338819426E0,-1.313275280E0,-2.514561177E0,3.136900912E0
1.347297346E1,-2.614377826E-1,-1.883306885E0,-4.230516658E0,4.638153267E0
1.348291746E1,1.087461074E0,-1.903727117E0,-5.591191807E0,6.005678508E0
1.349286046E1,2.782961825E0,-1.525650246E0,-6.311654729E0,7.064663517E0
1.350280446E1,4.057126248E0,-8.368383014E-1,-6.230748560E0,7.482165419E0
1.351274846E1,4.637273537E0,-2.387915164E-1,-4.857669421E0,6.719991030E0
1.352269146E1,4.863727428E0,3.746644360E-1,-2.694442581E0,5.572812464E0
1.353263546E1,5.544920450E0,9.628703570E-1,-1.206111312E0,5.755689935E0
1.354257846E1,6.022779472E0,1.532873896E0,-2.456777823E-1,6.219640867E0
1.355252246E1,6.071607231E0,2.055567613E0,4.229092276E-1,6.424066064E0
1.356246646E1,6.039111330E0,2.539299870E0,7.055447750E-1,6.589135217E0
1.357240946E1,5.792129619E0,3.036101823E0,8.135907952E-1,6.590038678E0
1.358235346E1,5.620713229E0,3.178828264E0,4.965742046E-1,6.476415079E0
1.359229646E1,5.896535747E0,3.374441017E0,-1.672199889E-1,6.795877318E0
1.360224046E1,6.388792952E0,3.871853420E0,-7.199356498E-1,7.505080388E0
1.361218446E1,6.857560723E0,4.055092295E0,-1.341161821E0,8.078900149E0
1.362212746E1,7.381180639E0,4.101479133E0,-2.152449690E0,8.714183747E0
1.363207146E1,7.514376118E0,3.804010808E0,-2.930343819E0,8.917581599E0
1.364201446E1,7.420686182E0,3.183577958E0,-3.246653042E0,8.703017178E0
1.365195846E1,6.522496555E0,2.019826215E0,-3.134780604E0,7.513288806E0
1.366190246E1,4.902258825E0,6.692869216E-1,-2.957748549E0,5.764404831E0
1.367184546E1,2.970407771E0,-5.223613027E-1,-2.851751393E0,4.150743266E0
1.368178946E1,8.111982608E-1,-1.333701358E0,-2.410421243E0,2.871747291E0
1.369173246E1,-1.172197169E0,-1.904148116E0,-1.446421643E0,2.663073754E0
1.370167646E1,-3.011290333E0,-2.395401939E0,-2.695695055E-1,3.857264269E0
1.371161946E1,-4.879728919E0,-2.832073174E0,8.323767297E-1,5.703090723E0
1.372156346E1,-5.688216995E0,-2.893444964E0,1.580034614E0,6.574522471E0
1.373150746E1,-6.326983790E0,-2.987189280E0,6.845361677E-1,7.030121865E0
1.374145046E1,-8.788523000E0,-2.978489792E0,-1.018536142E0,9.335253282E0
1.375139446E1,-1.016283035E1,-2.389816094E0,-1.017974079E0,1.048954779E1
1.376133746E1,-1.149558387E1,-1.837898578E0,-9.846395409E-1,1.168314319E1
1.377128146E1,-1.176012010E1,-1.358955483E0,-1.688016315E0,1.195811790E1
1.378122546E1,-9.016762047E0,-6.486871809E-1,-4.335165446E0,1.002578936E1
1.379116846E1,-7.942678818E0,-4.500338763E-1,-4.148387836E0,8.972056561E0
1.380111246E1,-7.454495367E0,-9.087280637E-1,-1.275986709E-1,7.510763563E0
1.381105546E1,-5.382202964E0,-3.552411550E-1,4.537391399E0,7.048561962E0
1.382099946E1,-4.480181072E0,5.289338654E-1,9.787563064E0,1.077720670E1
1.383094346E1,-4.452317335E0,-5.002167276E-1,1.234158710E1,1.312966559E1
1.384088646E1,-2.523058936E0,-1.316570478E0,7.945069159E0,8.439390272E0
1.385083046E1,-1.686400729E0,1.670777553E-1,2.824367128E0,3.293768673E0
1.386077346E1,-2.416952437E-1,1.891952871E0,1.332114716E0,2.326463383E0
1.387071746E1,2.086539145E0,2.427942864E0,1.533972588E0,3.549876625E0
1.388066146E1,3.530142429E0,2.065899058E0,1.693332311E0,4.426874609E0
1.389060446E1,4.264699481E0,9.324309218E-1,1.257474570E0,4.542943030E0
1.390054846E1,3.545828755E0,-5.470666659E-1,1.801023551E0,4.014457538E0
1.391049146E1,2.238690712E0,-1.988370241E0,3.304954168E0,4.459604733E0
1.392043546E1,8.330621696E-1,-3.138776007E0,4.866879955E0,5.850848476E0
1.393037946E1,-2.965280932E-1,-3.779205750E0,5.674502935E0,6.824244176E0
1.394032246E1,-1.043703436E0,-4.025896854E0,5.517953092E0,6.909773417E0
1.395026646E1,-1.718583219E0,-3.621787010E0,4.894023899E0,6.326321155E0
1.396020946E1,-2.211062618E0,-2.351623836E0,3.872505092E0,5.041351828E0
1.397015346E1,-2.294885963E0,-9.763797641E-1,2.276613414E0,3.376801396E0
1.398009646E1,-1.247267232E0,3.538150191E-1,5.207433781E-1,1.397152204E0
1.399004046E1,-2.634965873E-1,1.285234373E0,-7.679054761E-1,1.520176524E0
1.399998421E1,8.119449502E-1,1.560376275E0,-2.029832409E0,2.685935280E0
1.400992721E1,1.846740153E0,1.752236869E0,-3.020113489E0,3.949920091E0
1.401987121E1,2.567530519E0,2.196173853E0,-3.706993806E0,5.015694931E0
1.402981421E1,3.290957980E0,2.882869105E0,-4.001177458E0,5.928807617E0
1.403975821E1,4.084597052E0,3.550684283E0,-3.905031399E0,6.673871603E0
1.404970221E1,4.778292591E0,4.007613780E0,-3.679216608E0,7.240834423E0
1.405964521E1,5.357880886E0,4.286418963E0,-3.487545756E0,7.696963720E0
1.406958921E1,5.818259071E0,4.375972871E0,-3.288848305E0,7.988604406E0
1.407953221E1,6.389953625E0,4.358852516E0,-2.700124028E0,8.192787825E0
1.408947621E1,6.918813230E0,4.355966038E0,-1.771645678E0,8.365592929E0
1.409942021E1,7.168019223E0,4.420673958E0,-9.945742527E-1,8.480096448E0
1.410936321E1,7.254586081E0,4.280535202E0,-6.857629135E-2,8.423580209E0
1.411930721E1,6.980987844E0,3.821786051E0,9.244664294E-1,8.012170622E0
1.412925021E1,6.351065547E0,3.007923799E0,1.442363091E0,7.173844886E0
1.413919421E1,5.611046612E0,1.798767841E0,1.482339919E0,6.075914867E0
1.414913821E1,4.834813532E0,6.594030806E-1,1.406670809E0,5.078282886E0
1.415908121E1,3.663166001E0,-2.936310902E-1,1.282415138E0,3.892247802E0
1.416902521E1,1.969273819E0,-1.113604268E0,7.957450931E-1,2.398200178E0
1.417896821E1,-8.587162435E-2,-2.063694658E0,1.260699163E-1,2.069324334E0
1.418891221E1,-2.167278083E0,-3.356837389E0,-9.857541664E-1,4.115478444E0
1.419885621E1,-4.017837637E0,-5.079124235E0,-2.922593919E0,7.105074066E0
1.420879921E1,-5.747503669E0,-6.483913118E0,-5.326266160E0,1.017074427E1
1.421874321E1,-5.666960027E0,-6.203560177E0,-6.907807016E0,1.087733389E1
1.422868621E1,-2.588696855E0,-5.682154017E0,-6.745308216E0,9.191703248E0
1.423863021E1,2.964713752E-2,-5.929362016E0,-4.878707410E0,7.678541454E0
1.424857421E1,8.132874709E-1,-6.285334657E0,-2.434919761E0,6.789381600E0
1.425851721E1,6.430452025E-1,-6.790695473E0,2.172965670E-1,6.824534412E0
1.426846121E1,-6.489234084E-1,-7.165601399E0,2.514778109E0,7.621748745E0
1.427840421E1,-2.615903365E0,-7.023827469E0,3.931162021E0,8.463518037E0
1.428834821E1,-4.369274594E0,-6.290755026E0,4.293084204E0,8.780360543E0
1.429829221E1,-5.497610044E0,-5.426850548E0,4.061274263E0,8.727449324E0
1.430823521E1,-6.315345492E0,-4.217207518E0,3.832242334E0,8.506145381E0
1.431817921E1,-6.482261864E0,-2.755608257E0,3.662278394E0,7.938852485E0
1.432812221E1,-5.608627619E0,-9.522687703E-1,3.329190584E0,6.591436075E0
1.433806621E1,-4.293078357E0,1.330351781E0,2.983349413E0,5.394509372E0
1.434800921E1,-3.627048919E0,3.420267400E0,3.067296719E0,5.853376984E0
1.435795321E1,-4.222654492E0,4.800205616E0,4.591407977E0,7.871074395E0
1.436789721E1,-4.755279704E0,5.488304200E0,6.706516618E0,9.884914426E0
1.437784021E1,-5.697452087E0,5.602182233E0,7.124664457E0,1.070543085E1
1.438778421E1,-6.808763369E0,5.068693972E0,6.455265269E0,1.066402208E1
1.439772721E1,-6.707384929E0,3.758664481E0,4.346424260E0,8.832212357E0
1.440767121E1,-5.665954306E0,2.422887361E0,1.531821982E0,6.349795268E0
1.441761521E1,-4.498429062E0,9.095373183E-1,-7.059536415E-1,4.643435442E0
1.442755821E1,-3.093609774E0,-6.146821135E-1,-2.427481518E0,3.980065585E0
1.443750221E1,-1.550845313E0,-2.034689544E0,-3.539418745E0,4.367215106E0
1.444744521E1,3.557282281E-1,-2.889153693E0,-4.070184250E0,5.004013536E0
1.445738921E1,2.433988885E0,-2.772019930E0,-4.087741100E0,5.506180499E0
1.446733321E1,3.906930574E0,-1.915780567E0,-3.585895046E0,5.638525071E0
1.447727621E1,4.490357566E0,-8.057697058E-1,-2.588269424E0,5.245161056E0
1.448722021E1,4.640265557E0,1.929347277E-1,-1.430420445E0,4.859566946E0
1.449716321E1,5.181978512E0,9.790536958E-1,-5.672443838E-1,5.304075191E0
1.450710721E1,5.856767664E0,1.608518155E0,-1.000809431E-2,6.073644564E0
1.451705121E1,6.455854669E0,1.980951294E0,3.284889740E-1,6.760926899E0
1.452699421E1,6.867990986E0,2.109224587E0,3.951817310E-1,7.195435855E0
1.453693821E1,7.206028463E0,2.222588065E0,3.477152038E-1,7.549016478E0
1.454688121E1,7.344367154E0,2.404197906E0,1.043646133E-1,7.728569624E0
1.455682521E1,7.035863378E0,2.545675966E0,-3.806858987E-1,7.491913064E0
1.456676921E1,7.448774452E0,3.269838714E0,-9.499089803E-1,8.190141215E0
1.457671221E1,7.489061183E0,3.713127535E0,-1.188926638E0,8.443156995E0
1.458665621E1,7.460775277E0,3.838943244E0,-1.282776934E0,8.488001509E0
1.459659921E1,7.567984561E0,4.043076851E0,-1.598192849E0,8.727833701E0
1.460654321E1,7.453883749E0,4.160505314E0,-1.952526809E0,8.756857218E0
1.461648721E1,6.991701697E0,4.007054787E0,-2.150635445E0,8.340600308E0
1.462643021E1,6.333401694E0,3.172310958E0,-2.317149822E0,7.452832825E0
1.463637421E1,4.929054860E0,1.943544901E0,-2.326400409E0,5.786630061E0
1.464631721E1,3.116884031E0,9.429649732E-1,-2.550860692E0,4.136549199E0
1.465626121E1,1.088642796E0,1.335176611E-1,-2.475048033E0,2.707181721E0
1.466620421E1,-1.340314559E0,-5.183603454E-1,-1.286044504E0,1.928484128E0
1.467614821E1,-4.262178161E0,-1.371441042E0,-2.310866404E-1,4.483348553E0
1.468609221E1,-7.765718683E0,-2.506653988E0,-1.052305859E-1,8.160929748E0
1.469603521E1,-1.024508313E1,-3.864583869E0,-3.801859617E-1,1.095633507E1
1.470597921E1,-1.170345590E1,-5.142218031E0,-5.839894938E-1,1.279665308E1
1.471592221E1,-1.123113536E1,-5.209872070E0,-1.316005053E-1,1.238137662E1
1.472586621E1,-1.038117474E1,-5.373869512E0,1.359755382E-2,1.168962991E1
1.473581021E1,-9.665984248E0,-4.882199367E0,-1.097124767E0,1.088442947E1
1.474575321E1,-5.460921105E0,-1.960147777E0,-5.156389343E0,7.762228396E0
1.475569721E1,-2.040422155E0,-2.154511857E-1,-8.115183958E0,8.370540751E0
1.476564021E1,-2.431802026E0,-8.972295141E-1,-5.308489455E0,5.907515737E0
1.477558421E1,-3.804985539E0,-1.177526321E0,-2.208206838E-1,3.989140880E0
1.478552821E1,-3.201637668E0,2.035406998E-1,4.677874264E0,5.672250012E0
1.479547121E1,-3.854284583E0,1.069891653E0,9.029604287E0,9.875926861E0
1.480541521E1,-6.905221378E0,-1.559920192E-1,1.030081294E1,1.240214349E1
1.481535821E1,-8.767720946E0,-2.101210978E0,6.798844153E0,1.129213443E1
1.482530221E1,-5.617977317E0,-2.107460774E0,2.438561115E0,6.476854203E0
1.483524621E1,-2.379802737E0,1.899965018E-1,2.478485026E0,3.441285772E0
1.484518921E1,2.691350573E-1,1.952538796E0,3.181729361E0,3.742758762E0
1.485513321E1,2.699381724E0,2.458740149E0,2.294123779E0,4.312199986E0
1.486507621E1,4.036586734E0,2.313751420E0,9.586238167E-1,4.750414478E0
1.487502021E1,4.581507472E0,1.921304139E0,1.056381369E0,5.079130034E0
1.488496421E1,3.892231259E0,1.236829075E0,2.354087706E0,4.713909127E0
1.489490721E1,2.515147069E0,2.241822481E-1,3.818408407E0,4.577823197E0
1.490485121E1,1.201304609E0,-9.547333717E-1,4.910063689E0,5.144256409E0
1.491479421E1,-1.769975567E-1,-2.144735312E0,5.383384101E0,5.797589333E0
1.492473821E1,-1.246350973E0,-3.187036586E0,4.766368364E0,5.867611126E0
1.493468221E1,-2.025885392E0,-3.641889737E0,3.519885828E0,5.455013174E0
1.494462521E1,-2.561463448E0,-3.116371815E0,2.109975223E0,4.552456890E0
1.495456921E1,-2.296854721E0,-1.989432095E0,8.218400471E-1,3.147825080E0
1.496451221E1,-1.258202695E0,-9.277882326E-1,-6.944854975E-2,1.564828465E0
1.497445621E1,7.517817789E-1,-4.375746292E-1,-8.467945017E-1,1.213963890E0
1.498439921E1,2.187994768E0,4.332009119E-1,-2.928907158E0,3.681505300E0
1.499434404E1,2.975172667E0,1.740914320E0,-3.991583639E0,5.274009387E0
1.500428804E1,3.837834027E0,2.616272324E0,-4.143360400E0,6.224249858E0
1.501423104E1,4.585409319E0,3.533790507E0,-3.905009764E0,6.983033383E0
1.502417504E1,5.208538320E0,4.571363137E0,-3.511552961E0,7.768991992E0
1.503411804E1,5.800747830E0,5.173840942E0,-3.225300765E0,8.415454266E0
1.504406204E1,6.440185300E0,5.326608807E0,-2.759220960E0,8.801252660E0
1.505400604E1,6.971558039E0,5.329565159E0,-1.593106210E0,8.918793286E0
1.506394904E1,6.971796606E0,5.333278726E0,-5.650275582E-1,8.795968737E0
1.507389304E1,6.518935016E0,5.217579285E0,5.616067909E-1,8.368694613E0
1.508383604E1,5.774312568E0,4.968189690E0,1.780144752E0,7.822691977E0
1.509378004E1,4.838223043E0,4.301513258E0,2.804362634E0,7.055201507E0
1.510372404E1,3.878881481E0,3.309466757E0,3.050705829E0,5.941809304E0
1.511366704E1,3.099366943E0,2.084251129E0,2.342866461E0,4.408990981E0
1.512361104E1,2.472182897E0,9.602610371E-1,1.188880445E0,2.906411232E0
1.513355404E1,1.719920477E0,-9.662728518E-2,-3.004311097E-1,1.748634362E0
1.514349804E1,6.602284151E-1,-1.218196630E0,-2.099133608E0,2.515207048E0
1.515344204E1,-4.002091670E-1,-2.273955855E0,-3.796048654E0,4.443087664E0
1.516338504E1,-1.822005261E0,-3.248677348E0,-5.025650278E0,6.255459088E0
1.517332904E1,-3.351507652E0,-4.799943369E0,-5.577118728E0,8.085562021E0
1.518327204E1,-4.607545708E0,-6.656342829E0,-5.753196518E0,9.931548091E0
1.519321604E1,-4.039589864E0,-7.079321054E0,-4.947175382E0,9.534653487E0
1.520316004E1,-1.350318561E0,-6.630790497E0,-3.253354244E0,7.508332482E0
1.521310304E1,7.339711601E-1,-6.608877472E0,-1.262462391E0,6.768292723E0
1.522304704E1,1.578509660E0,-6.997014477E0,7.033405209E-1,7.207259689E0
1.523299004E1,1.157159300E0,-7.656097423E0,2.073415654E0,8.015852909E0
1.524293404E1,-6.878325355E-1,-7.906948237E0,2.555096123E0,8.337952999E0
1.525287804E1,-3.052058875E0,-7.514736307E0,1.842365120E0,8.317489668E0
1.526282104E1,-5.041983306E0,-6.686437864E0,1.154890580E0,8.453627577E0
1.527276504E1,-6.280659224E0,-5.607196221E0,1.446809606E0,8.542867655E0
1.528270804E1,-6.997605046E0,-4.002364735E0,2.436142707E0,8.421412657E0
1.529265204E1,-6.304078492E0,-1.899151963E0,3.393880378E0,7.407199729E0
1.530259604E1,-4.120099007E0,1.710687724E-1,3.455622297E0,5.380130650E0
1.531253904E1,-1.969270311E0,1.681185012E0,2.925308197E0,3.906640072E0
1.532248304E1,-1.274332239E0,3.063336400E0,2.437162169E0,4.116759890E0
1.533242604E1,-1.197784000E0,4.184711325E0,2.679186026E0,5.111216405E0
1.534237004E1,-2.037390958E0,4.956448481E0,4.456724381E0,6.969916475E0
1.535231404E1,-3.107924927E0,5.364413395E0,6.338421528E0,8.866324825E0
1.536225704E1,-4.231048170E0,5.483790150E0,6.637078593E0,9.592941951E0
1.537220104E1,-5.255549934E0,4.900806085E0,6.076814761E0,9.410971418E0
1.538214404E1,-5.443884072E0,3.793154867E0,4.577795075E0,8.061023842E0
1.539208804E1,-5.345729202E0,2.765743529E0,2.582343271E0,6.549401097E0
1.540203204E1,-4.927265612E0,1.828956139E0,6.611207002E-1,5.297179207E0
1.541197504E1,-4.103529167E0,4.863465473E-1,-1.339812430E0,4.344028308E0
1.542191904E1,-2.922055975E0,-9.478190392E-1,-3.260248988E0,4.479508401E0
1.543186204E1,-1.253563514E0,-2.280887437E0,-4.773643177E0,5.437052342E0
1.544180604E1,9.975770903E-1,-3.320458353E0,-5.396877136E0,6.414583895E0
1.545174904E1,2.901231701E0,-2.980747987E0,-5.220813380E0,6.675245036E0
1.546169304E1,3.974699804E0,-1.779890690E0,-4.374949901E0,6.173041069E0
1.547163704E1,4.490568650E0,-5.905924621E-1,-2.872418962E0,5.363282293E0
1.548158004E1,5.132015809E0,3.513220587E-1,-1.436291927E0,5.340781586E0
1.549152404E1,6.020781478E0,1.128153310E0,-3.221051301E-1,6.134027324E0
1.550146704E1,6.753204296E0,1.743768054E0,2.571383250E-1,6.979442342E0
1.551141104E1,7.205333229E0,2.101909136E0,4.500905943E-1,7.519137617E0
1.552135504E1,7.217669685E0,2.237839650E0,5.091123891E-1,7.573762434E0
1.553129804E1,6.945896364E0,2.182328231E0,3.880552907E-1,7.290995797E0
1.554124204E1,6.769795185E0,2.040832337E0,-1.424381733E-3,7.070723125E0
1.555118504E1,6.460371643E0,1.907404431E0,-5.591728874E-1,6.759235736E0
1.556112904E1,6.638168514E0,2.155650310E0,-1.255301891E0,7.091395653E0
1.557107304E1,6.956726577E0,2.707931230E0,-1.688556743E0,7.653767705E0
1.558101604E1,6.745491818E0,3.014401929E0,-1.937973089E0,7.638325638E0
1.559096004E1,6.567539996E0,3.395418195E0,-2.157320275E0,7.701654179E0
1.560090304E1,6.142014724E0,3.649277694E0,-2.332165471E0,7.515355504E0
1.561084704E1,5.191952108E0,3.513368814E0,-2.522585896E0,6.757482277E0
1.562079104E1,3.887642949E0,2.795416686E0,-2.622870907E0,5.459631301E0
1.563073404E1,2.392699356E0,1.599296219E0,-2.269195929E0,3.664970500E0
1.564067804E1,4.134747452E-1,4.450140417E-1,-1.607866191E0,1.718788105E0
1.565062104E1,-1.694357035E0,-6.697810113E-1,-7.357048595E-1,1.964869972E0
1.566056504E1,-3.780088094E0,-1.686811496E0,1.651607457E-1,4.142665458E0
1.567050904E1,-6.135564076E0,-2.446427082E0,7.683522034E-1,6.649850908E0
1.568045204E1,-8.046487361E0,-2.875699834E0,4.723988914E-1,8.557965243E0
1.569039604E1,-9.280726411E0,-3.123804211E0,-1.155270649E0,9.860257894E0
1.570033904E1,-1.093934409E1,-3.019889249E0,-1.577722625E0,1.145766944E1
1.571028304E1,-1.160387431E1,-2.838437283E0,-1.170738873E0,1.200321851E1
1.572022704E1,-1.183856985E1,-2.926139378E0,-1.209128329E0,1.225463255E1
1.573017004E1,-9.070647647E0,-2.388621800E0,-3.726065669E0,1.009285531E1
1.574011404E1,-6.273205778E0,-1.456696370E0,-6.257113656E0,8.979228606E0
1.575005704E1,-6.089451179E0,-1.004902482E0,-4.406767525E0,7.583590487E0
1.576000104E1,-5.503575958E0,-6.163260582E-1,2.248336279E-1,5.542540599E0
1.576994504E1,-3.672703979E0,4.379658079E-1,5.278076917E0,6.445049612E0
1.577988804E1,-4.035458806E0,6.687176952E-1,9.695625538E0,1.052317755E1
1.578983204E1,-5.215933878E0,-8.759795630E-1,9.935200582E0,1.125528840E1
1.579977504E1,-3.568055776E0,-1.828077302E0,5.997521254E0,7.214093834E0
1.580971904E1,-1.331084729E0,3.327065706E-2,3.797609861E0,4.024268151E0
1.581966204E1,1.361745774E0,2.212278839E0,2.976440928E0,3.950661946E0
1.582960604E1,3.190977609E0,2.854671493E0,2.175636678E0,4.802591216E0
1.583955004E1,3.567210853E0,2.300881990E0,1.868595876E0,4.637963104E0
1.584949304E1,3.356250329E0,1.330048603E0,1.401412116E0,3.872647864E0
1.585943704E1,2.994290138E0,2.751676297E-1,1.272108543E0,3.264927381E0
1.586938004E1,2.030806993E0,-7.438678649E-1,2.128815683E0,3.034694821E0
1.587932404E1,8.039196467E-1,-1.771972099E0,3.274299263E0,3.808832837E0
1.588926804E1,-3.228885108E-1,-2.681308273E0,3.992488788E0,4.820128397E0
1.589921104E1,-1.170124916E0,-3.269278259E0,3.879113030E0,5.206235737E0
1.590915504E1,-1.628426170E0,-3.229253483E0,3.189285425E0,4.821969657E0
1.591909804E1,-2.016736253E0,-2.364122259E0,2.429368123E0,3.944379374E0
1.592904204E1,-1.732327684E0,-9.156347948E-1,1.437907366E0,2.430416400E0
1.593898604E1,-7.804723120E-1,5.153133613E-1,1.747887710E-1,9.514389127E-1
1.594892904E1,4.724018151E-1,1.529362058E0,-1.032141444E0,1.904580725E0
1.595887304E1,1.807573748E0,1.839008380E0,-2.154312028E0,3.360109372E0
1.596881604E1,2.807536502E0,2.180069744E0,-3.033278203E0,4.672872988E0
1.597876004E1,3.203307048E0,2.760284568E0,-3.430503536E0,5.445062116E0
1.598870404E1,3.750133393E0,3.410137976E0,-3.443356885E0,6.127744130E0
1.599864708E1,4.500934594E0,4.032937194E0,-3.224932390E0,6.850049895E0
1.600859108E1,5.145621695E0,4.573730090E0,-2.821457554E0,7.440232005E0
1.601853408E1,5.750117959E0,4.740150619E0,-2.052649267E0,7.729570068E0
1.602847808E1,6.171888149E0,4.672006875E0,-1.240082320E0,7.839493333E0
1.603842208E1,6.259107556E0,4.399355302E0,-6.420450363E-1,7.677432924E0
1.604836508E1,6.077777798E0,3.984425185E0,-4.186723351E-2,7.267515385E0
1.605830908E1,5.758449656E0,3.413248110E0,4.926640253E-1,6.712132519E0
1.606825208E1,5.242335227E0,2.776794181E0,6.537093544E-1,5.968249364E0
1.607819608E1,4.778438771E0,1.936536721E0,3.325714999E-1,5.166648369E0
1.608814008E1,4.496691855E0,1.003385422E0,3.679418921E-2,4.607425936E0
1.609808308E1,3.940608782E0,4.424821973E-2,-2.737118192E-1,3.950351078E0
1.610802708E1,3.012179695E0,-9.155210665E-1,-5.024999191E-1,3.188089005E0
1.611797008E1,2.058333346E0,-1.728460043E0,-5.267417443E-1,2.738935404E0
1.612791408E1,9.655039430E-1,-2.366322859E0,-4.904208872E-1,2.602344017E0
1.613785808E1,-4.325980639E-1,-3.023182985E0,-7.937492922E-1,3.155442027E0
1.614780108E1,-1.855026827E0,-3.683508172E0,-1.635686950E0,4.436758815E0
1.615774508E1,-3.099937046E0,-4.125480492E0,-2.987418491E0,5.962706451E0
1.616768808E1,-3.407382476E0,-4.371365850E0,-4.652269306E0,7.236207876E0
1.617763208E1,-2.236176994E0,-4.211418482E0,-5.672802565E0,7.410615502E0
1.618757608E1,-9.099741054E-1,-4.565394884E0,-4.850254859E0,6.722786291E0
1.619751908E1,-5.177498960E-1,-5.405360861E0,-3.059267907E0,6.232584626E0
1.620746308E1,-9.385582191E-1,-6.094579772E0,-1.094768193E0,6.262851708E0
1.621740608E1,-1.860651264E0,-6.312285644E0,9.754621898E-1,6.652706191E0
1.622735008E1,-3.332216519E0,-5.982389830E0,2.880082615E0,7.428831057E0
1.623729408E1,-4.646036759E0,-5.427179747E0,3.901552305E0,8.140150365E0
1.624723708E1,-5.389248859E0,-4.798591785E0,4.058553554E0,8.279030337E0
1.625718108E1,-5.562153949E0,-4.096107589E0,3.896393892E0,7.930796889E0
1.626712408E1,-5.094629881E0,-2.932131312E0,3.386033707E0,6.783647391E0
1.627706808E1,-4.034715040E0,-1.542577643E0,2.454826607E0,4.968364410E0
1.628701208E1,-3.110883619E0,1.786236674E-2,1.403508343E0,3.412880253E0
1.629695508E1,-3.270397416E0,2.085496586E0,9.098827426E-1,3.984053447E0
1.630689908E1,-4.176005990E0,4.018611516E0,1.957513168E0,6.117198897E0
1.631684208E1,-4.642355352E0,5.014269258E0,4.426873761E0,8.141963565E0
1.632678608E1,-5.280008837E0,5.440914856E0,6.662664839E0,1.009322300E1
1.633672908E1,-6.521177423E0,5.291300980E0,8.382092981E0,1.186520559E1
1.634667308E1,-7.088886514E0,4.614848880E0,8.488504704E0,1.198348256E1
1.635661708E1,-5.679753150E0,3.560806690E0,5.697199488E0,8.797557737E0
1.636656008E1,-3.983897474E0,2.415379536E0,1.635548664E0,4.937663093E0
1.637650408E1,-2.891785524E0,9.282045543E-1,-1.399979109E0,3.344238138E0
1.638644808E1,-1.718103747E0,-8.692570192E-1,-3.280106717E0,3.803496855E0
1.639639108E1,-8.332001638E-1,-2.267940239E0,-4.016094582E0,4.686874346E0
1.640633508E1,7.511333227E-3,-3.118543471E0,-4.410630780E0,5.401762091E0
1.641627808E1,1.213921731E0,-3.093459208E0,-4.698525460E0,5.754931567E0
1.642622208E1,2.639312693E0,-2.097984192E0,-4.314458116E0,5.475587457E0
1.643616508E1,3.402418774E0,-9.554470244E-1,-2.883745018E0,4.561284672E0
1.644610908E1,3.757342426E0,-1.418774253E-1,-1.309693276E0,3.981588600E0
1.645605308E1,4.506509914E0,4.945270944E-1,-2.057092859E-1,4.538227073E0
1.646599608E1,5.473167513E0,1.024562575E0,2.911087476E-1,5.575843918E0
1.647594008E1,6.336371495E0,1.565085037E0,3.970727205E-1,6.538865470E0
1.648588308E1,6.659344790E0,2.143016523E0,3.381947672E-1,7.003839558E0
1.649582708E1,6.737624974E0,2.593679852E0,2.792615578E-2,7.219663797E0
1.650577108E1,6.620264339E0,2.844831506E0,-3.870286658E-1,7.216007027E0
1.651571408E1,6.848154892E0,3.251619083E0,-9.523260731E-1,7.640495863E0
