"Time (s)","Linear Acceleration x (m/s^2)","Linear Acceleration y (m/s^2)","Linear Acceleration z (m/s^2)","Absolute acceleration (m/s^2)"
5.424416653E-3,-3.275917187E0,6.866610458E-1,-2.476457212E0,4.163649497E0
1.536341666E-2,-3.276254572E0,1.132165377E0,-2.987363527E0,4.576022651E0
2.530141667E-2,-2.342338896E0,1.546507556E0,-3.392017747E0,4.402728872E0
3.524041665E-2,-1.207188662E0,2.441653415E0,-3.463885290E0,4.406526656E0
4.517841665E-2,3.380874708E-2,2.730794721E0,-2.869457347E0,3.961334157E0
5.511641665E-2,4.949121335E-1,-2.939316371E-1,-2.089465676E0,2.167302618E0
6.505541666E-2,3.965262982E-1,4.345197514E-1,-8.515265071E-1,1.034957928E0
7.499341664E-2,2.407372798E0,1.406554742E0,-1.184323125E0,3.029267451E0
8.493241665E-2,2.951163122E0,4.866520643E-2,-1.031290382E0,3.126546326E0
9.487041665E-2,2.356816455E0,-5.320147634E-2,2.756190932E0,3.626844725E0
1.048084167E-1,2.852405989E0,1.306541919E0,7.275954731E0,7.923559109E0
1.147474167E-1,5.254162536E-1,1.168683139E0,7.321013959E0,7.432303002E0
1.246854166E-1,-5.668881422E-1,8.639261127E-2,3.739693190E0,3.783402041E0
1.346244166E-1,1.347413079E0,-1.699254955E-1,-1.199694870E0,1.812088425E0
1.445624167E-1,1.206140475E0,-1.620114207E0,-4.080899858E0,4.553382099E0
1.545004167E-1,-9.212166931E-1,-2.852568834E0,-1.930065315E0,3.565240702E0
1.644394167E-1,3.660169888E-1,-2.609628133E0,-1.015668960E0,2.824130108E0
1.743774166E-1,-1.683926187E0,-1.001444585E0,-7.095859319E-1,2.083749230E0
1.843164166E-1,-3.211970283E0,-1.185459824E0,3.584389973E-1,3.442462288E0
1.942544167E-1,-1.549917945E0,-2.462163401E0,5.766091383E-1,2.965969040E0
2.041924167E-1,-4.457480134E-1,-2.826556910E0,6.824601138E-1,2.941745581E0
2.141314167E-1,-8.458909607E-1,-2.575278665E0,1.287915906E0,3.001052998E0
2.240694166E-1,-1.708637836E0,-2.372072133E0,4.202890903E-1,2.953440770E0
2.340084166E-1,-2.133833471E0,-2.127237812E0,-8.836400002E-1,3.139937203E0
2.439464167E-1,-2.064726253E0,-2.193680162E0,-2.572228172E0,3.961273144E0
2.538854167E-1,-2.192960077E0,-1.745435095E0,-4.785603949E0,5.545955529E0
2.638234167E-1,-1.544309003E0,7.918182492E-2,-3.883538788E0,4.180075786E0
2.737614166E-1,6.893896490E-2,1.001086004E0,-4.715767729E-1,1.108742721E0
2.837004167E-1,4.498385793E-1,-2.374325504E-1,1.287767971E0,1.384584888E0
2.936384167E-1,7.622108728E-2,-1.809196058E0,-6.008750832E-1,1.907891741E0
3.035774167E-1,1.419662445E0,-2.144942889E0,-2.782855405E0,3.789525783E0
3.135154167E-1,9.273543692E-1,-1.550108856E0,-4.413562574E0,4.768894860E0
3.234534166E-1,-1.102170330E0,-2.317033900E0,-7.048273509E0,7.500772292E0
3.333924167E-1,-3.597057965E0,-4.836324160E0,-7.801931659E0,9.858955066E0
3.433304167E-1,-6.157958912E0,-6.130736614E0,-7.355915989E0,1.138489743E1
3.532694167E-1,-7.412797703E0,-7.529739093E0,-8.028738137E0,1.327053792E1
3.632074166E-1,-9.838521549E0,-9.308738667E0,-9.433190221E0,1.650558086E1
3.731454166E-1,-1.272608363E1,-1.187353620E1,-9.843974662E0,1.999594718E1
3.830844167E-1,-1.305616129E1,-1.361157427E1,-9.934386649E0,2.131737179E1
3.930224167E-1,-1.032987945E1,-1.418513233E1,-9.319583498E0,1.986904692E1
4.029612917E-1,-8.136625698E0,-1.343254539E1,-7.751643265E0,1.751359263E1
4.128992917E-1,-5.776113510E0,-1.322103757E1,-6.076037666E0,1.565495306E1
4.228372916E-1,-2.740640262E0,-1.316922773E1,-3.905161207E0,1.400678236E1
4.327762917E-1,-7.049344718E-1,-1.323077669E1,-1.988261483E0,1.339789417E1
4.427142917E-1,1.743754313E0,-1.278578604E1,-9.158330154E-1,1.293660519E1
4.526532917E-1,4.408679565E0,-1.084402395E1,-9.876619667E-1,1.174754388E1
4.625912916E-1,6.889839692E0,-9.177463413E0,-2.183393594E0,1.168173503E1
4.725292916E-1,1.010639068E1,-8.264897822E0,-2.777952515E0,1.334783461E1
4.824682917E-1,1.422607805E1,-7.893192662E0,1.493320405E-1,1.626979063E1
4.924062917E-1,1.763680338E1,-7.077502570E0,5.042220118E0,1.966143076E1
5.023452917E-1,2.174578098E1,-5.153734122E0,6.614465071E0,2.330646078E1
5.122832916E-1,2.566516963E1,-2.344434684E0,2.369314002E0,2.588070623E1
5.222212916E-1,2.643608057E1,-5.387823308E-1,-2.714920115E0,2.658058377E1
5.321602917E-1,2.564171528E1,-6.159456968E-3,-1.168162122E1,2.817725811E1
5.420982917E-1,2.426123444E1,1.380094922E0,-9.293230682E0,2.601684637E1
5.520372917E-1,2.333967115E1,-2.578726183E0,8.171124271E0,2.486277036E1
5.619752916E-1,2.151807169E1,-5.169864251E0,1.735657323E1,2.812482071E1
5.719132916E-1,1.384057463E1,-7.307572380E0,1.973706360E1,2.518955735E1
5.818522917E-1,7.495962651E0,-7.912520633E0,1.667650579E1,1.992243169E1
5.917902917E-1,2.618602440E0,-7.168760650E0,9.678195573E0,1.232540780E1
6.017292917E-1,2.131524113E0,-3.589845425E0,-2.525246379E0,4.879267824E0
6.116672916E-1,1.068131348E0,-2.765308496E0,3.110306498E0,4.296724586E0
6.216052916E-1,1.326738494E0,-3.501419152E0,8.099314030E0,8.922951242E0
6.315442917E-1,2.891018955E0,-4.166766804E0,8.574061748E0,9.961650017E0
6.414822917E-1,3.977230771E0,-1.691905298E0,5.521213499E0,7.011754891E0
6.514212917E-1,2.742003541E0,-1.377600499E0,4.776292843E0,5.677089032E0
6.613592916E-1,1.515484276E0,-2.901596568E0,9.527739113E0,1.007441154E1
6.712982917E-1,4.301837194E0,4.329553288E-1,4.567585251E0,6.289363130E0
6.812362917E-1,5.045602148E0,1.869833731E0,1.685895529E0,5.638849435E0
6.911742917E-1,3.930809141E0,1.963343573E0,1.273621802E0,4.574723050E0
7.011132917E-1,9.834069479E0,7.548627353E0,2.361408566E0,1.262010094E1
7.110512916E-1,1.599392172E1,1.533344947E1,-1.840805229E0,2.223305576E1
7.209902917E-1,1.597175259E1,1.537135697E1,-4.406736535E0,2.260077040E1
7.309282917E-1,1.126799621E1,7.912974377E0,1.385943307E0,1.383848766E1
7.408662917E-1,7.164280513E0,2.677612540E0,5.355099365E0,9.336681069E0
7.508052916E-1,5.887791821E0,5.891735183E0,4.143349290E0,9.303009155E0
7.607432916E-1,-6.768552652E-1,7.280330202E0,1.481848899E-1,7.313227718E0
7.706822917E-1,-4.128225175E0,7.488725553E0,-1.492361462E0,8.680460600E0
7.806202917E-1,-1.085005243E1,4.297928038E0,-1.842735980E0,1.181488464E1
7.905582917E-1,-9.645351763E0,5.018018492E0,-3.468929683E0,1.141257172E1
8.004972916E-1,-4.490047079E0,6.400221335E0,-3.695261952E0,8.647445681E0
8.104352916E-1,-2.113671541E0,7.501142700E0,-2.043348101E0,8.056675533E0
8.203742917E-1,-3.141582085E0,6.110878301E0,-1.692453182E0,7.076494145E0
8.303122917E-1,-1.575699196E0,4.267888552E0,-7.844454950E-1,4.616606479E0
8.402502917E-1,-5.164276944E-1,2.452491814E0,-3.751948150E-1,2.534202993E0
8.501892916E-1,-4.310447511E-1,8.968763423E-1,-2.543540636E-2,9.954063043E-1
8.601272916E-1,-1.608335137E-1,4.041940445E-1,7.496457911E-1,8.667231719E-1
8.700662917E-1,-3.341255437E-1,3.352208734E-3,8.584729993E-1,9.212095347E-1
8.800042917E-1,-4.996659198E-1,-5.772669500E-1,1.052968934E0,1.300633207E0
8.899422917E-1,-1.878591983E-1,-1.149335725E0,1.452591040E0,1.861796019E0
8.998812916E-1,1.149088973E-1,-1.869526752E0,1.345575299E0,2.306275616E0
9.098192916E-1,5.481244272E-1,-2.608631183E0,2.507004236E0,3.659298741E0
9.197582917E-1,1.994586124E0,-1.085553128E0,1.457229052E0,2.698206053E0
9.296962917E-1,6.786816430E-1,1.181231117E-1,1.247240335E0,1.424840445E0
9.396342917E-1,-6.337194782E-1,-9.215568548E-1,2.958774151E0,3.163101625E0
9.495732916E-1,-2.226158814E0,-7.362277175E0,2.110937938E1,2.246697145E1
9.595112916E-1,9.642223795E-1,-4.694706059E0,-2.417048331E0,5.367691535E0
9.694502917E-1,3.490026729E0,1.132812196E1,-1.691645564E1,2.065606703E1
9.793882917E-1,4.772210171E-1,8.692388343E0,1.257434371E0,8.795822656E0
9.893262917E-1,-8.281990988E0,2.040560734E0,2.559628007E0,8.905445433E0
9.992652916E-1,-1.345395059E0,6.908249066E0,-2.617920070E0,7.509160973E0
1.009203292E0,-4.937638865E-1,1.086383666E1,-5.461152070E0,1.216926176E1
1.019142292E0,-1.318939185E0,7.833216017E0,-9.272526276E-1,7.997416531E0
1.029080292E0,-2.536225111E0,6.107818453E0,-1.462500901E0,6.773240949E0
1.039018292E0,-1.481638546E0,6.539121358E0,-2.063191212E0,7.015134988E0
1.048957292E0,-2.342014814E0,6.189282446E0,-1.859945505E0,6.873983406E0
1.058895292E0,-3.629927503E0,5.722372336E0,-1.671518980E0,6.979677251E0
1.068834292E0,-4.689004146E0,6.808298516E0,-9.929368130E-1,8.326200338E0
1.078772292E0,-6.317318927E0,7.989240196E0,-1.789717229E-1,1.018668289E1
1.088711292E0,-4.914837356E0,1.085430102E1,5.054754210E-1,1.192589545E1
1.098649292E0,-4.616079427E0,1.116946711E1,3.795565674E0,1.266773475E1
1.108587292E0,-7.869982724E0,5.615737833E0,3.969542559E0,1.045133521E1
1.118526292E0,-6.561958244E0,4.447761769E0,3.138390090E0,8.525923593E0
1.128464292E0,1.614156333E0,8.980722148E0,2.631322765E0,9.496458838E0
1.138403292E0,7.073637561E0,2.021418119E0,-2.317501385E0,7.713189497E0
1.148341292E0,7.069771966E0,-7.369859260E0,-1.148216276E0,1.027691110E1
1.158279292E0,3.898317626E0,-2.214694675E1,1.745038800E0,2.255502807E1
1.168218292E0,6.435682944E0,-2.702560855E1,3.025333006E0,2.794555729E1
1.178156292E0,5.996760532E0,-1.745641794E1,-7.440067363E-1,1.847271529E1
1.188094292E0,4.750174500E0,-9.838270118E0,-3.545386705E0,1.148588192E1
1.198033292E0,5.092910800E0,-1.428923499E1,-1.449810104E0,1.523882956E1
1.207971292E0,-5.885181624E-1,-5.605606948E0,-2.678467988E0,6.240462614E0
1.217910292E0,-1.047961963E0,-3.097909232E0,-1.830945508E0,3.748016454E0
1.227848292E0,-6.149873382E-1,-3.082146308E0,-1.359755820E0,3.424437352E0
1.237787292E0,9.202768993E-1,-3.655994391E0,-1.002477057E0,3.901046630E0
1.247725292E0,2.226520025E0,-4.204882464E0,-5.651523963E-2,4.758321336E0
1.257663292E0,6.242013221E0,-2.866164780E0,7.204494739E-1,6.906278089E0
1.267602292E0,8.501935759E0,-1.818296372E0,1.436848143E0,8.812130612E0
1.277540292E0,3.495402367E0,-4.919665402E0,1.340052019E0,6.181964476E0
1.287479292E0,6.761942959E0,-4.449881385E0,-1.199626312E0,8.183179102E0
1.297417292E0,-7.904870575E-1,-6.363013748E0,-2.358074776E0,6.831788228E0
1.307355292E0,5.161264751E0,-1.765861466E0,-2.164018406E0,5.868551458E0
1.317294292E0,-4.411896995E0,-6.347522720E0,-2.027309043E0,7.991611960E0
1.327232292E0,-4.808369791E0,-4.996177973E0,-2.052753640E0,7.231598156E0
1.337171292E0,5.595601192E-1,-5.059981620E-1,-3.052527237E0,3.144370239E0
1.347109292E0,-2.379050201E0,3.414013803E-2,-3.394053748E0,4.144954312E0
1.357047292E0,-3.033690724E0,2.243924555E0,-4.042704091E0,5.530093416E0
1.366986292E0,-3.019986897E0,4.724132756E0,-4.243721425E0,7.031850588E0
1.376924292E0,-5.777143790E0,7.150979851E0,-2.677378651E0,9.574980921E0
1.386863292E0,-7.929834824E0,8.907035537E0,-1.593901286E0,1.203154536E1
1.396801917E0,-3.174168618E0,1.435536232E1,-4.940370977E-1,1.471039926E1
1.406739917E0,-1.604392067E0,1.880458005E1,1.501648595E0,1.893254482E1
1.416678917E0,-4.331889251E0,1.339372105E1,1.270676560E0,1.413405982E1
1.426616917E0,-3.830448701E0,1.297243150E1,-1.304756472E0,1.358891849E1
1.436555917E0,-1.143273332E0,1.418377812E1,-4.209516383E0,1.483936197E1
1.446493917E0,9.234569076E-1,1.510201083E1,-4.712465807E0,1.584710818E1
1.456431917E0,2.160977123E0,1.463773372E1,-4.519137561E0,1.547112391E1
1.466370917E0,2.181179253E0,1.319932101E1,-4.978902959E0,1.427477120E1
1.476308917E0,1.702627045E0,7.779321061E0,-2.263224460E0,8.278826002E0
1.486247917E0,4.729986404E0,-5.908090430E0,5.253352550E0,9.212818077E0
1.496185917E0,3.303855184E0,-1.826211514E1,5.642305827E0,1.939731743E1
1.506123917E0,2.426127303E0,-1.487171006E1,2.238971233E0,1.523374038E1
1.516062917E0,5.466551389E0,-9.894797491E0,4.869923723E-1,1.131491772E1
1.526000917E0,7.333712357E0,-4.015672413E0,-4.736126272E-1,8.374560931E0
1.535939917E0,4.089023395E0,-2.428727560E0,-4.212334156E-3,4.755927630E0
1.545877917E0,3.537041559E0,-7.083182555E-1,-2.715562724E0,4.515158762E0
1.555815917E0,5.053378360E0,1.820441131E0,-1.680097869E0,5.627909701E0
1.565754917E0,-5.470988256E-1,-2.543589095E0,2.910836338E0,3.904117159E0
1.575692917E0,-4.418439152E0,-8.556309602E0,1.332581470E0,9.721564273E0
1.585631917E0,-1.115913918E0,-4.510253302E0,-2.217848897E-2,4.646303972E0
1.595569917E0,8.390356851E-1,-1.229803938E0,4.615205853E-1,1.558653219E0
1.605507917E0,1.316337467E0,-1.227999487E0,9.874427692E-1,2.053234105E0
1.615446917E0,-8.452325642E-2,-1.969138749E0,1.089386635E0,2.251980203E0
1.625384917E0,-5.540552580E-1,-3.373927631E0,1.111485748E0,3.595242059E0
1.635323917E0,1.433587589E0,-5.069982698E0,1.022325869E0,5.367033456E0
1.645261917E0,2.810824099E0,-4.946636268E0,1.169329695E0,5.808379673E0
1.655199917E0,3.359849875E0,-4.439745821E0,1.210622731E0,5.697854117E0
1.665138917E0,3.747651250E0,-4.687039189E0,1.432158530E0,6.169627567E0
1.675076917E0,3.284500315E0,-3.717336361E0,1.974858641E0,5.339157105E0
1.685015917E0,2.609280224E0,-1.725770032E0,1.920110869E0,3.670620007E0
1.694953917E0,2.175263625E0,-5.457761854E-1,2.616488671E0,3.446107435E0
1.704891917E0,9.417259482E-1,-2.316362786E-1,2.030755684E0,2.250438130E0
1.714830917E0,2.410222292E-1,1.619765275E0,2.255478361E0,2.787277147E0
1.724768917E0,4.345346618E-1,2.912783461E0,1.845098109E0,3.475271916E0
1.734707917E0,-2.210277337E0,8.580835748E-1,-3.493937055E0,4.222467226E0
1.744645917E0,-3.625085717E0,1.264790753E0,-3.039152316E0,4.896671206E0
1.754583917E0,3.323397163E0,1.424621469E0,3.743290689E0,5.204492311E0
1.764522917E0,2.631841998E0,3.407527487E0,2.344589343E0,4.902543734E0
1.774460917E0,4.878535502E0,-1.617611160E0,-1.942167882E0,5.494432691E0
1.784399917E0,3.561982565E0,3.023384714E-1,-1.797107525E0,4.001090327E0
1.794337917E0,2.663924793E0,-1.926620135E0,-2.095844111E0,3.898836107E0
1.804275917E0,1.998870671E-3,2.473802576E0,-2.314396660E0,3.387644474E0
1.814214917E0,-2.824621482E0,4.995786794E0,-1.120938138E0,5.847467359E0
1.824152917E0,-4.172024328E0,5.613003091E0,-6.177162337E-1,7.020909061E0
1.834091917E0,-3.846357513E0,6.491742539E0,2.923973277E-2,7.545730069E0
1.844029917E0,-5.556916598E0,6.699254960E0,5.360113353E-2,8.704149136E0
1.853967917E0,-4.865642976E0,5.134697342E0,-3.213746667E-1,7.081163749E0
1.863906917E0,-5.016594695E0,3.962573848E0,-5.802855751E-1,6.419107819E0
1.873844917E0,-3.741078980E0,2.336796466E0,-1.638341586E-1,4.413970015E0
1.883783917E0,-3.576452085E0,-3.718095914E0,-1.871514806E0,5.487969972E0
1.893721917E0,-3.597845001E0,-1.218778896E1,-1.272427655E0,1.277128656E1
1.903659917E0,-1.813301096E0,-1.513509906E1,1.891037782E-1,1.524450867E1
1.913598917E0,1.992235835E0,-1.794290161E1,-7.396996041E-1,1.806831141E1
1.923536917E0,7.262447662E0,-1.931519868E1,-1.023176127E0,2.066075835E1
1.933475917E0,3.112041952E0,-1.596963589E1,-2.400237586E0,1.644613073E1
1.943413917E0,-1.474232755E0,-1.097326262E1,-3.908992302E0,1.174163854E1
1.953351917E0,-3.045917252E0,-5.984581951E0,-3.104632945E0,7.398079396E0
1.963290917E0,-1.979402074E0,-2.566973280E0,-1.019352414E0,3.398008789E0
1.973228917E0,-3.481778939E0,-7.373865187E-2,7.269235110E-1,3.557617147E0
1.983167917E0,-4.845971481E0,1.454959162E0,2.341482717E0,5.575202873E0
1.993105917E0,-5.143548272E0,2.632281416E0,2.690716735E0,6.373770535E0
2.003043917E0,-5.750176431E0,3.797469528E0,3.070571744E0,7.544117883E0
2.012982917E0,-6.969727861E0,7.808194027E0,2.610937325E0,1.078712168E1
2.022920917E0,-6.479074547E0,1.439781896E1,2.110137337E0,1.592885047E1
2.032859917E0,-4.869705329E0,1.849439228E1,1.815429629E0,1.921073555E1
2.042797917E0,-4.246908450E0,1.630849724E1,2.478163429E0,1.703363166E1
2.052735917E0,-5.579862826E0,1.039472157E1,3.192181258E0,1.222191175E1
2.062674917E0,-5.475299993E0,8.347054710E0,3.431594919E0,1.055594979E1
2.072612917E0,-5.327663645E0,7.244007883E0,4.019917199E0,9.849841847E0
2.082551917E0,-1.548211727E0,6.813742273E0,4.989182364E0,8.585801301E0
2.092489917E0,1.539953997E0,4.289122131E0,5.964321349E0,7.506074614E0
2.102427917E0,3.210030469E0,7.037316996E-1,6.153854166E0,6.976349691E0
2.112366917E0,7.650388786E0,-8.717602122E-1,4.499518106E0,8.918188024E0
2.122304917E0,1.204342354E1,-5.093991365E0,2.118605421E0,1.324693502E1
2.132243917E0,1.425856985E1,-1.073922548E1,-1.753897770E0,1.793638580E1
2.142181917E0,1.017540303E1,-1.180514015E1,-4.459187229E0,1.621062958E1
2.152119917E0,4.498906780E0,-7.524804627E0,-3.179307736E0,9.325816027E0
2.162058917E0,3.577323028E0,2.265110772E0,-4.766919172E-1,4.260892164E0
2.171996917E0,4.777031931E0,7.559742910E0,2.126273314E0,9.191886920E0
2.181935917E0,2.585237350E0,2.765638863E0,2.583056631E0,4.583054881E0
2.191873917E0,1.860702719E0,-9.245646626E0,3.661407158E0,1.011682255E1
2.201811917E0,3.404225564E0,-5.980885341E0,5.304495807E0,8.688924958E0
2.211750917E0,1.369532657E0,-3.822442401E0,5.154508878E0,6.561680226E0
2.221688917E0,-4.910368913E-1,-4.035704389E0,2.803233536E0,4.938233025E0
2.231627917E0,-6.398096457E-1,-3.232681705E0,3.877474348E-1,3.318122280E0
2.241565917E0,8.364465380E-1,-3.597822781E0,-1.352431744E0,3.933578930E0
2.251504917E0,3.485618221E0,-3.832424183E0,-2.443718359E0,5.727893934E0
2.261442917E0,4.855703879E0,-4.575673705E0,-4.047315205E0,7.803551139E0
2.271380917E0,2.843733691E0,-5.019635248E0,-4.901216559E0,7.570038513E0
2.281319917E0,3.332537238E-1,-3.946611534E0,-4.118444245E0,5.713876411E0
2.291257917E0,1.405805129E-1,-1.859237992E0,-3.083428602E0,3.603340219E0
2.301196917E0,-2.329586264E-1,-7.074943829E-1,-2.121013012E0,2.248002274E0
2.311134917E0,-7.099347183E-1,-4.045296746E-1,-1.161773630E0,1.420341343E0
2.321072917E0,-9.416815093E-1,-3.598686415E-1,-7.232489745E-1,1.240708904E0
2.331011917E0,-1.242381591E0,-7.036866760E-1,-7.279594915E-1,1.602688983E0
2.340949917E0,-9.062628776E-1,-9.577265614E-1,-8.149894492E-1,1.550083989E0
2.350888917E0,-1.201672983E-1,-1.096173425E0,-9.449989271E-1,1.452260077E0
2.360826917E0,5.091272995E-1,-1.058599802E0,-1.073479943E0,1.591289834E0
2.370764917E0,1.036800798E0,-9.549158049E-1,-9.603151238E-1,1.705586475E0
2.380703917E0,1.777050113E0,-5.534401309E-1,-6.420266175E-1,1.968857857E0
2.390641917E0,2.766415958E0,-1.307297087E-1,-3.605007255E-1,2.792867395E0
2.400581042E0,2.970717381E0,1.171477962E-1,-1.751276171E-1,2.978179821E0
2.410519042E0,2.577930377E0,7.632528466E-1,4.905428016E-1,2.732931060E0
2.420457042E0,2.706677003E0,1.042873716E0,-5.918293675E-1,2.960396592E0
2.430396042E0,2.393445168E0,1.427200676E0,-1.929075966E0,3.389220504E0
2.440334042E0,2.052516828E0,1.963680373E0,-2.858741155E0,4.030045524E0
2.450273042E0,1.495109653E0,2.181336544E0,-2.328415067E0,3.523506594E0
2.460211042E0,-4.402821824E-1,2.781458505E0,-1.528877324E0,3.204344814E0
2.470149042E0,-2.667334012E0,4.329608837E0,-1.720741280E-1,5.088201344E0
2.480088042E0,-4.011853597E0,5.298995916E0,-2.080357468E-1,6.649632010E0
2.490026042E0,-4.341012369E0,5.616094514E0,-1.155070601E0,7.191598853E0
2.499965042E0,-4.693625493E0,6.056402131E0,-5.738387275E-1,7.683711208E0
2.509903042E0,-5.047958575E0,6.799683813E0,8.007457781E-1,8.506396390E0
2.519841042E0,-5.106300924E0,6.936495795E0,6.798476509E-1,8.640108557E0
2.529780042E0,-4.250519398E0,6.399686315E0,2.146490208E-1,7.685634280E0
2.539718042E0,-3.472439182E0,5.567997656E0,3.800690174E-1,6.573042236E0
2.549657042E0,-2.817595760E0,4.753820824E0,7.075646225E-1,5.571203280E0
2.559595042E0,-1.873256399E0,3.661388447E0,1.000400126E0,4.232688898E0
2.569533042E0,-4.022404897E-1,1.910274829E0,1.034272023E0,2.209222929E0
2.579472042E0,1.021293982E0,-4.985371149E-1,6.940224711E-1,1.331633524E0
2.589410042E0,2.313937946E0,-3.062349975E0,2.478400826E-1,3.846260637E0
2.599349042E0,3.429970855E0,-5.041803212E0,-3.324270737E-1,6.106962211E0
2.609287042E0,3.824465245E0,-5.964111434E0,-1.017354712E0,7.157665137E0
2.619225042E0,3.609027801E0,-6.249685353E0,-1.414124547E0,7.354141480E0
2.629164042E0,2.760528397E0,-6.259632052E0,-1.484812707E0,7.000584206E0
2.639102042E0,1.979376931E0,-5.710952139E0,-1.205606990E0,6.163310440E0
2.649041042E0,1.604997839E0,-4.836414499E0,-3.357811097E-1,5.106826042E0
2.658979042E0,2.405568201E0,-4.064967949E0,1.010748601E0,4.830355632E0
2.668917042E0,3.552111880E0,-3.073053887E0,1.870437748E0,5.055659836E0
2.678856042E0,3.965522891E0,-2.656650857E0,2.739104784E0,5.503259088E0
2.688794042E0,2.374091177E0,-2.198595185E0,3.733685760E0,4.940702284E0
2.698733042E0,1.208109598E0,-1.557038099E0,1.232547451E0,2.324450400E0
2.708671042E0,1.958501494E-1,-2.659430623E-1,8.034471917E-1,8.686831317E-1
2.718609042E0,-1.890498376E-1,3.413008082E-1,9.234262828E-1,1.002468046E0
2.728548042E0,-1.037409493E0,-4.529933860E0,-4.946559670E0,6.787118078E0
2.738486042E0,7.079922733E-1,-5.615381153E0,6.380620591E-1,5.695689752E0
2.748425042E0,3.622893595E0,-1.929946616E0,2.476833773E0,4.794242118E0
2.758363042E0,1.069528248E0,-4.813597494E-1,3.334971873E-1,1.219351572E0
2.768301042E0,-5.067126918E-1,-4.973419440E-1,5.116723732E-1,8.751659150E-1
2.778240042E0,-2.165721554E0,1.604873586E-1,1.141483207E-1,2.174657647E0
2.788178042E0,-3.173590913E0,7.344670039E-1,4.154682072E-1,3.283859756E0
2.798117042E0,-3.652727259E0,8.783547020E-1,-3.864717185E-1,3.776676290E0
2.808055042E0,-3.566859728E0,-2.893962443E-2,-1.517944054E0,3.876529372E0
2.817993042E0,-2.521589238E0,-7.930110812E-1,-2.776232264E0,3.833372464E0
2.827932042E0,-1.637299905E0,-1.494282272E0,-3.343415691E0,4.011490866E0
2.837870042E0,-8.096326688E-1,-2.395136476E0,-2.548048182E0,3.589531074E0
2.847809042E0,-5.188933191E-1,-2.471684130E0,-1.689803077E0,3.038734466E0
2.857747042E0,-1.093407692E0,-1.778867428E0,-4.385386889E-1,2.133594593E0
2.867685042E0,-2.058730079E0,-7.106904709E-1,8.747917011E-1,2.347064338E0
2.877624042E0,-2.869795901E0,-1.672432315E-1,1.385265030E0,3.191027736E0
2.887562042E0,-3.196571348E0,3.646738833E-1,8.847014160E-1,3.336727741E0
2.897501042E0,-3.096181964E0,1.073675678E0,6.972442138E-1,3.350413663E0
2.907439042E0,-3.230080571E0,1.559631339E0,7.835304058E-1,3.671483394E0
2.917378042E0,-3.290571187E0,2.301653531E0,7.553104274E-1,4.086069206E0
2.927316042E0,-3.161045420E0,2.984534644E0,5.315072250E-1,4.379743727E0
2.937254042E0,-2.601891390E0,3.623227764E0,2.574062736E-1,4.468095369E0
2.947193042E0,-1.732723248E0,4.008462796E0,-3.107612394E-1,4.377976290E0
2.957131042E0,-1.041958919E0,4.268647521E0,-5.271313150E-1,4.425482738E0
2.967070042E0,-7.276324859E-1,4.550713111E0,-4.058952919E-1,4.626358161E0
2.977008042E0,-6.815824467E-1,4.804819070E0,-2.286705709E-1,4.858305379E0
2.986946042E0,-1.105969850E0,4.843387889E0,2.933781981E-1,4.976710391E0
2.996885042E0,-1.010768409E0,4.899372640E0,4.237690607E-1,5.020466637E0
3.006823042E0,-9.832572591E-1,4.759491454E0,3.287936139E-1,4.871104492E0
3.016762042E0,-1.018166306E0,4.681097834E0,5.276422155E-1,4.819517181E0
3.026700042E0,-9.495091769E-1,4.429766378E0,1.194750757E0,4.685277710E0
3.036638042E0,-7.086173406E-1,4.080768880E0,1.419823536E0,4.378437171E0
3.046577042E0,-3.142738080E-1,3.517154009E0,9.366530500E-1,3.653280620E0
3.056515042E0,-1.103749663E-1,2.834338970E0,6.202112406E-1,2.903501681E0
3.066454042E0,2.929919896E-1,1.818237900E0,3.636174376E-1,1.877245591E0
3.076392042E0,8.406661811E-1,4.573317862E-1,-2.505002734E-1,9.892534446E-1
3.086330042E0,1.390840935E0,-8.743569607E-1,-5.443534116E-1,1.730681726E0
3.096269042E0,1.814029074E0,-2.029425296E0,-2.971736258E-1,2.738171046E0
3.106207042E0,2.006216820E0,-3.208975339E0,-1.585674253E-1,3.787818935E0
3.116146042E0,1.774761513E0,-4.028433961E0,3.383549809E-2,4.402181669E0
3.126084042E0,1.692101472E0,-4.824300238E0,7.598623386E-1,5.168604352E0
3.136022042E0,1.527138362E0,-4.480937701E0,1.474226907E0,4.958255665E0
3.145961042E0,1.389544753E0,-4.443749410E0,1.977301169E0,5.058405218E0
3.155899042E0,1.365405546E0,-4.325053856E0,2.222659109E0,5.050805547E0
3.165838042E0,1.144734551E0,-4.290595629E0,2.288952793E0,4.995891606E0
3.175776042E0,8.063917033E-1,-4.286641742E0,2.321290235E0,4.941047800E0
3.185714042E0,2.177599588E-1,-4.046917595E0,2.257767838E0,4.639232375E0
3.195653042E0,-4.664747849E-1,-3.751782308E0,2.158138300E0,4.353278091E0
3.205591042E0,-1.075395344E0,-3.624824054E0,2.027688381E0,4.290378158E0
3.215530042E0,-1.491934469E0,-3.332352174E0,2.167753754E0,4.246127154E0
3.225468042E0,-2.240403947E0,-3.071901401E0,2.353805724E0,4.471732265E0
3.235406042E0,-1.604109501E0,-2.874128687E0,7.608128035E-1,3.378256817E0
3.245345042E0,5.202929963E-1,-3.090329486E0,-8.185815400E-1,3.238968489E0
3.255283042E0,2.574364160E0,-3.531407182E0,-1.841503094E0,4.742290708E0
3.265222042E0,2.218887801E0,-2.780175042E0,-1.158861424E0,3.741095580E0
3.275160042E0,2.067449740E-1,-1.144503002E0,-7.334057343E-1,1.374959845E0
3.285098042E0,-2.993351953E-1,-8.216396338E-1,-9.005185729E-1,1.255239797E0
3.295037042E0,-1.035821974E0,1.524532258E0,-3.688528883E-1,1.879675030E0
3.304975042E0,-1.410927874E0,3.159892641E0,2.715657449E-1,3.471222684E0
3.314914042E0,-1.219570579E0,3.594511503E0,5.069787401E-1,3.829476829E0
3.324852042E0,-8.754715861E-1,3.670328255E0,7.041027054E-1,3.838426842E0
3.334790042E0,-4.706664345E-1,2.942237055E0,9.178564444E-1,3.117811129E0
3.344729042E0,3.621455473E-1,1.659267894E0,1.266106961E0,2.118335709E0
3.354667042E0,2.136248225E0,1.567158460E0,1.476008554E0,3.032844106E0
3.364606042E0,3.254228110E0,1.136901037E0,1.115505197E0,3.623105906E0
3.374544042E0,3.737645495E0,1.332893273E0,8.418525812E-1,4.056515018E0
3.384482042E0,3.019731959E0,1.154380118E0,1.733345684E-1,3.237502036E0
3.394421042E0,2.906587751E0,8.420633733E-2,-1.443488387E0,3.246382877E0
3.404358458E0,1.448388500E0,-1.032776159E-1,-7.062272912E-1,1.614698888E0
3.414297458E0,7.995451254E-1,-3.780037808E-1,-5.420196417E-1,1.037277474E0
3.424235458E0,1.063463662E0,3.543243116E-1,-3.879273829E-1,1.186165390E0
3.434173458E0,7.817252241E-1,1.769944577E0,-8.387696368E-1,2.108869990E0
3.444112458E0,6.139326467E-1,2.820717881E0,-1.211671137E0,3.130736272E0
3.454050458E0,4.913584151E-1,3.561146706E0,-1.064487802E0,3.749177674E0
3.463989458E0,3.164150584E-1,4.002124414E0,-1.177736821E0,4.183799988E0
3.473927458E0,6.817075771E-1,4.241840376E0,-1.087787933E0,4.431841331E0
3.483865458E0,9.229222528E-1,4.732546315E0,-1.559086964E-2,4.821724088E0
3.493804458E0,8.208062594E-1,4.959158081E0,7.650020412E-1,5.084505867E0
3.503742458E0,2.272568603E-1,4.330929138E0,1.388887672E0,4.553855712E0
3.513681458E0,-1.195058320E-1,3.865062171E0,1.870947333E0,4.295745704E0
3.523619458E0,1.319862753E-2,3.358038408E0,1.486731763E0,3.672460685E0
3.533557458E0,9.700960538E-1,1.675006844E0,8.496295242E-1,2.113907427E0
3.543496458E0,7.529871824E-1,1.401388727E0,5.113470487E-1,1.671034370E0
3.553434458E0,4.613029227E-1,1.387070650E-1,2.099280520E-1,5.254615336E-1
3.563373458E0,8.861573727E-1,-1.413080235E0,-1.561042857E-1,1.675243023E0
3.573311458E0,9.639700721E-1,-2.265767414E0,-2.277394748E-1,2.472813285E0
3.583249458E0,7.403162661E-1,-2.563418173E0,-8.642886400E-2,2.669578778E0
3.593188458E0,5.783203259E-1,-4.063134847E0,-2.321343883E-1,4.110645395E0
3.603126458E0,1.774513006E-1,-3.229027196E0,-2.695765221E-1,3.245115883E0
3.613065458E0,-2.065423679E-1,-2.391397766E0,-2.343259978E-1,2.411711363E0
3.623003458E0,-3.527341613E-1,-1.429341926E0,-8.002024256E-2,1.474395798E0
3.632941458E0,-9.010404369E-1,-1.243400468E0,-2.641386846E-1,1.558103924E0
3.642880458E0,-7.659852505E-1,-1.338142319E0,-2.387651309E-1,1.560245832E0
3.652818458E0,-7.322576335E-1,-1.528858028E0,-7.206810236E-2,1.696703251E0
3.662757458E0,-8.162794912E-1,-1.614822038E0,8.223524094E-3,1.809428100E0
3.672695458E0,-5.902714500E-1,-1.749959378E0,-1.559977933E-1,1.853405925E0
3.682633458E0,-2.712277758E-1,-2.305687525E0,-1.745159253E-1,2.328135579E0
3.692572458E0,-2.119413945E-1,-2.697950910E0,-2.548111331E-1,2.718232327E0
3.702510458E0,-4.260535678E-1,-3.692617257E0,-3.139650750E-1,3.730350910E0
3.712449458E0,1.094189465E-2,-2.646644517E0,-5.797255580E-1,2.709414816E0
3.722387458E0,-5.516795343E-1,-3.174076817E0,-2.097174060E-1,3.228481894E0
3.732325458E0,-1.833771321E0,-5.495677539E0,5.005906570E-1,5.815133694E0
3.742264458E0,-2.015930215E0,-2.682639391E0,6.811738725E-1,3.424109604E0
3.752202458E0,-2.828359899E0,-2.390937590E0,1.138893621E0,3.874697531E0
3.762141458E0,-3.449570721E0,-2.634575279E0,1.873784695E0,4.727747259E0
3.772079458E0,-4.161711594E0,-2.063419839E0,1.124930763E0,4.779436582E0
3.782017458E0,-4.689577466E0,2.796138525E-2,1.678299704E0,4.980924467E0
3.791956458E0,-3.736959617E0,1.033149796E0,4.016357707E0,5.582418374E0
3.801894458E0,-2.911866032E0,-3.373483828E0,-1.729167556E0,4.780102234E0
3.811833458E0,-5.353440510E0,-4.718722327E0,-4.723367648E0,8.557795723E0
3.821771458E0,-2.225337718E0,-8.315196741E-1,1.679409359E0,2.909290072E0
3.831709458E0,-5.736562943E-1,8.075303024E-1,4.094343191E0,4.212461620E0
3.841648458E0,-6.292852423E-1,2.682203189E0,1.012929613E0,2.935343296E0
3.851586458E0,-7.045997187E-1,5.305040767E0,5.450468037E0,7.638554846E0
3.861525458E0,-2.869232229E0,2.892489529E0,-1.616868564E0,4.383292508E0
3.871463458E0,-1.941077668E0,-4.757762432E-2,-5.802438844E0,6.118687988E0
3.881401458E0,-2.938252763E0,-2.400686068E0,-4.207783853E0,5.665868675E0
3.891340458E0,-1.155103126E0,-1.912198563E0,-3.681295878E0,4.306124234E0
3.901278458E0,-1.490723072E0,-3.450619127E0,-2.780297248E0,4.675369550E0
3.911217458E0,-4.367348521E0,-6.941799805E0,-2.183576027E0,8.487067921E0
3.921155458E0,-3.064478946E-1,-3.729363499E0,-7.038526639E-1,3.807554463E0
3.931093458E0,1.279031939E0,-2.948797631E-1,-1.276282285E0,1.830784872E0
3.941032458E0,8.617073867E-1,-3.882194513E-1,-2.478442926E0,2.652533374E0
3.950970458E0,-3.044904807E0,-3.986267935E0,-2.222809675E0,5.486589121E0
3.960909458E0,-5.049598719E0,-4.012534212E0,-2.724263381E0,7.001463347E0
3.970847458E0,-5.346350176E0,-2.202853712E0,-8.361131005E-1,5.842525978E0
3.980785458E0,-5.397169497E0,1.325733358E-1,-3.844567680E-1,5.412469055E0
3.990724458E0,-1.582398058E0,2.449455355E0,-3.404669952E-1,2.935938168E0
4.000662458E0,-2.568765159E0,3.047691590E0,-1.560387969E0,4.280395902E0
4.010601458E0,-2.257943547E0,1.899387313E0,-1.047113459E0,3.130882914E0
4.020539458E0,1.058315335E0,1.533791324E0,1.935393298E0,2.686688369E0
4.030477458E0,4.424112413E0,8.824997932E-1,3.902554518E0,5.965023746E0
4.040416458E0,3.317299687E0,3.659947693E-1,4.498624359E0,5.601432898E0
4.050354458E0,2.193206099E0,1.415260077E-1,4.774833963E0,5.256350633E0
4.060293458E0,2.283310815E0,1.912682712E-1,3.939933429E0,4.557759017E0
4.070231458E0,3.334700416E0,6.637425917E-1,2.079498951E0,3.985611243E0
4.080169458E0,3.923245475E0,7.064851534E-1,8.023479152E-1,4.066292969E0
4.090108458E0,3.909242856E0,7.372789299E-1,1.067622056E0,4.118929082E0
4.100046458E0,3.814284658E0,1.430452312E0,1.034298628E0,4.202943602E0
4.109985458E0,2.794981069E0,2.427155828E0,8.663011055E-1,3.801773559E0
4.119923458E0,1.290893016E0,3.502581578E0,4.971713515E-1,3.765854730E0
4.129861458E0,4.337581515E-2,4.354463596E0,5.454212594E-1,4.388703570E0
4.139800458E0,-1.296071894E0,5.027273465E0,3.786971144E-1,5.205448334E0
4.149738458E0,-2.713201618E0,5.406664206E0,2.873264761E-1,6.056074418E0
4.159677458E0,-3.851634040E0,5.121100811E0,5.409914088E-1,6.430663263E0
4.169615458E0,-4.792423265E0,4.739195184E0,1.144544809E0,6.836466526E0
4.179553458E0,-5.139732964E0,3.982955487E0,1.681172879E0,6.716184304E0
4.189492458E0,-4.673566035E0,2.413136544E0,1.872517164E0,5.583168276E0
4.199430458E0,-3.685125219E0,6.500805724E-1,1.862287022E0,4.179816453E0
4.209369458E0,-2.581684582E0,-8.305168766E-1,2.132190696E0,3.449795751E0
4.219307458E0,-1.131423073E0,-1.841269498E0,2.550378882E0,3.342876602E0
4.229245458E0,2.447947066E-1,-1.850239711E0,2.688769612E0,3.273040401E0
4.239184458E0,1.513886525E0,-1.285059541E0,2.955035733E0,3.560262156E0
4.249122458E0,2.863694623E0,-4.301129973E-1,3.365210602E0,4.439638103E0
4.259061458E0,4.181282225E0,1.632554305E-1,3.523402636E0,5.470296109E0
4.268999458E0,5.305772839E0,4.774274969E-1,3.255009006E0,6.242935692E0
4.278937458E0,6.347829114E0,3.282872450E-1,2.763117836E0,6.930910990E0
4.288876458E0,6.583478336E0,1.775623977E-2,2.449544817E0,7.024441053E0
4.298814458E0,6.389376504E0,-3.990818238E-1,2.337053744E0,6.815072899E0
4.308753458E0,5.475292391E0,-6.198270786E-1,2.216478017E0,5.939342319E0
4.318691458E0,4.465459537E0,-1.142114999E0,2.253794217E0,5.130725477E0
4.328629458E0,3.550998278E0,-1.859057897E0,2.358840761E0,4.650786469E0
4.338568458E0,3.264007578E0,-2.651554424E0,2.422458468E0,4.853121816E0
4.348506458E0,2.837049154E0,-3.220238246E0,2.013260669E0,4.740464195E0
4.358445458E0,2.016258244E0,-3.555979521E0,1.312903397E0,4.293483783E0
4.368383458E0,1.400323072E0,-3.755682986E0,7.040799013E-1,4.069617660E0
4.378321458E0,4.849701127E-1,-4.168170136E0,-2.200400805E-1,4.202053775E0
4.388260458E0,2.434270428E-1,-4.410355377E0,-1.335053527E0,4.614418619E0
4.398198458E0,1.709569005E0,-4.253516096E0,-2.583034412E0,5.261852538E0
4.408136083E0,2.723733915E0,-3.601084943E0,-3.910868089E0,5.973393375E0
4.418075083E0,1.538209188E0,-2.535664948E0,-4.583285025E0,5.459137831E0
4.428013083E0,-5.700310206E-1,-1.744824353E0,-4.189333549E0,4.573823671E0
4.437952083E0,-1.891482024E0,-1.336723199E0,-3.160526479E0,3.918349242E0
4.447890083E0,-2.436460795E0,-9.376384521E-1,-2.152847447E0,3.383823164E0
4.457828083E0,-2.568627165E0,-4.324349266E-1,-1.708112025E0,3.114882368E0
4.467767083E0,-2.498688911E0,1.361997789E-1,-1.537106549E0,2.936782797E0
4.477705083E0,-2.388078886E0,5.091381168E-1,-1.476853331E0,2.853635952E0
4.487644083E0,-1.862145227E0,5.646305323E-1,-1.115319110E0,2.242839540E0
4.497582083E0,-4.351410180E-1,7.532207787E-1,-1.188902664E-1,8.779659119E-1
4.507520083E0,1.479897245E0,1.072671127E0,2.701774697E-1,1.847624168E0
4.517459083E0,2.352819006E0,1.175119023E0,5.208208537E-1,2.681028973E0
4.527397083E0,2.742114053E0,9.819802272E-1,9.987184668E-1,3.079109161E0
4.537336083E0,3.770752138E0,2.210171503E-1,-2.218888240E-1,3.783735577E0
4.547274083E0,4.412075335E0,-1.274074377E0,-2.116694405E0,5.056685622E0
4.557212083E0,3.628600478E0,-1.893135470E0,-2.374140294E0,4.731516191E0
4.567151083E0,3.063475271E0,-2.135990801E0,-4.629503757E0,5.948078889E0
4.577089083E0,2.185660560E0,-1.882756662E0,-2.780602473E0,4.006698746E0
4.587028083E0,4.911775169E-1,-8.746820658E-1,-7.617775941E-1,1.259614692E0
4.596966083E0,2.376331830E-1,6.417500442E-1,-7.697332426E-1,1.029952384E0
4.606904083E0,2.250096291E-1,2.375233723E0,-6.264216415E-1,2.466732382E0
4.616843083E0,2.092581072E-1,4.024542055E0,1.184068479E-2,4.029996018E0
4.626781083E0,2.933957398E-1,5.151277122E0,5.950979611E-1,5.193830824E0
4.636720083E0,6.222931418E-1,5.974648116E0,5.897432271E-1,6.035848403E0
4.646658083E0,2.253818044E-1,6.734964491E0,1.612425849E0,6.928958131E0
4.656596083E0,1.177626309E-1,6.868067585E0,2.689851347E0,7.376958767E0
4.666535083E0,2.004568782E-1,6.180529164E0,2.643229158E0,6.725011828E0
4.676473083E0,1.282218379E-1,5.221627897E0,1.911246636E0,5.561897378E0
4.686412083E0,5.292209637E-1,4.024735597E0,1.453884444E0,4.311884905E0
4.696350083E0,5.734744459E-1,2.003284149E0,8.523977423E-1,2.251355643E0
4.706288083E0,7.244945776E-1,1.743376583E-1,5.077710744E-1,9.017302679E-1
4.716227083E0,1.105770753E0,-1.045652897E0,5.329409989E-1,1.612496526E0
4.726165083E0,9.823749143E-1,-1.623879960E0,8.370675854E-1,2.074301989E0
4.736104083E0,7.131179425E-1,-1.534839145E0,1.269720540E0,2.115764318E0
4.746042083E0,2.784043559E-1,-1.696911099E0,1.732450476E0,2.440983596E0
4.755980083E0,-1.547816455E-1,-2.410135753E0,2.199473437E0,3.266557072E0
4.765919083E0,-6.500358412E-1,-2.795469604E0,2.720617057E0,3.954611747E0
4.775857083E0,-9.070218462E-1,-2.783019712E0,2.988825331E0,4.183415376E0
4.785796083E0,-1.420185771E0,-2.263991615E0,3.589696906E0,4.475322282E0
4.795734083E0,-1.471615249E0,-1.302056812E0,4.767418524E0,5.156479687E0
4.805672083E0,-1.618842876E0,-6.353490973E-1,5.783255299E0,6.039069679E0
4.815611083E0,-1.929627943E0,2.942459249E-1,6.474144759E0,6.761996379E0
4.825549083E0,-2.247495157E0,1.397878059E0,5.623736240E0,6.215441001E0
4.835488083E0,-3.529508591E0,3.170426400E0,1.730088201E0,5.049974221E0
4.845426083E0,-2.383305219E0,6.032385862E0,3.042789576E0,7.164383530E0
4.855364083E0,9.922257185E-2,3.853813298E0,-1.121859805E0,4.015008278E0
4.865303083E0,-2.664895138E0,-6.713944336E0,-7.006707991E0,1.006343239E1
4.875241083E0,9.403959990E-1,-1.222261848E1,5.376408373E0,1.338590730E1
4.885180083E0,4.250560621E0,-8.589311872E0,1.268629450E0,9.667107359E0
4.895118083E0,3.752879246E0,-4.881040449E0,-2.831525874E0,6.776886990E0
4.905056083E0,3.282671598E0,-1.754153001E0,-1.121205867E0,3.887169687E0
4.914995083E0,2.345362929E0,-7.523413575E-1,-1.691778413E0,2.988119641E0
4.924933083E0,1.649241966E0,-5.004193336E-1,-2.096532913E0,2.714013417E0
4.934871083E0,8.612972045E-1,-7.727750373E-1,-3.417909218E0,3.608478565E0
4.944810083E0,2.788662860E-1,-1.887991675E0,-3.555870763E0,4.035653089E0
4.954748083E0,-2.425351962E-1,-2.783654135E0,-3.353876359E0,4.365322474E0
4.964687083E0,-1.168157620E0,-3.859188643E0,-3.099583290E0,5.085798441E0
4.974625083E0,-1.789410835E0,-4.473885375E0,-2.286217905E0,5.333332334E0
4.984563083E0,-2.037981819E0,-4.608267839E0,-2.002328568E0,5.422068062E0
4.994502083E0,-2.213698543E0,-4.337448199E0,-1.742724034E0,5.172137389E0
5.004440083E0,-2.592743421E0,-3.788289399E0,-1.821342333E0,4.938698504E0
5.014379083E0,-2.994950289E0,-2.776360903E0,-2.092581511E0,4.588769386E0
5.024317083E0,-2.948205893E0,-1.152162269E0,-2.145498959E0,3.823945824E0
5.034255083E0,-3.261043040E0,2.903043169E-1,-2.022735351E0,3.848394029E0
5.044194083E0,-3.622725780E0,9.726393002E-1,-1.441703378E0,4.018541765E0
5.054132083E0,-3.704355834E0,1.214564924E0,-6.935231920E-1,3.959595247E0
5.064071083E0,-3.630623907E0,1.413936852E0,-1.681916499E-1,3.899863562E0
5.074009083E0,-3.523155007E0,1.828568761E0,3.041826832E-1,3.981056646E0
5.083947083E0,-3.063838091E0,2.733737040E0,5.261324644E-3,4.106147797E0
5.093886083E0,-2.675213135E0,3.922808104E0,-2.259374361E-1,4.753549880E0
5.103824083E0,-2.388185598E0,4.683966478E0,-3.846039717E-1,5.271706804E0
5.113763083E0,-2.157973701E0,5.282086937E0,2.596719235E-2,5.705958921E0
5.123701083E0,-2.185221726E0,5.892517540E0,9.983009756E-1,6.363455177E0
5.133639083E0,-1.968886003E0,6.423014367E0,2.021794972E0,7.015645413E0
5.143578083E0,-1.416219312E0,6.793868172E0,2.652087397E0,7.429393612E0
5.153516083E0,-8.899769202E-1,6.756951191E0,3.032480643E0,7.459516551E0
5.163455083E0,-4.278821383E-1,6.463647253E0,3.120904577E0,7.190400845E0
5.173393083E0,8.819501549E-3,5.549494143E0,3.050422239E0,6.332617062E0
5.183331083E0,4.238019513E-1,3.966775072E0,3.047051904E0,5.019904170E0
5.193270083E0,7.541234426E-1,1.780966578E0,2.759721774E0,3.369956734E0
5.203208083E0,1.345462594E0,-8.172770262E-1,1.948407299E0,2.504895673E0
5.213147083E0,2.126194815E0,-3.500036870E0,1.460329684E0,4.347818449E0
5.223085083E0,2.876500903E0,-5.675063683E0,1.343184665E0,6.502672550E0
5.233023083E0,3.067098498E0,-6.217298210E0,9.239447115E-1,6.993966261E0
5.242962083E0,2.492235923E0,-4.995001513E0,1.110832980E0,5.691680764E0
5.252900083E0,1.837080553E0,-3.301928526E0,1.836026884E0,4.201022693E0
5.262838083E0,1.336980477E0,-1.935893819E0,2.174169173E0,3.203468943E0
5.272777083E0,9.955513955E-1,-1.099327413E0,2.025492020E0,2.510430494E0
5.282715083E0,8.228115620E-1,-6.796745002E-1,1.906216569E0,2.184636789E0
5.292654083E0,5.205396026E-1,-4.534363711E-1,2.014593834E0,2.129590180E0
5.302592083E0,-2.850384606E-1,-8.714245820E-1,1.846937496E0,2.061990747E0
5.312530083E0,-1.114285176E0,-1.347255204E0,1.515341020E0,2.313652187E0
5.322469083E0,-1.654773139E0,-9.989903623E-1,1.450741273E0,2.416796667E0
5.332407083E0,-4.602915005E-1,-2.974361658E-1,1.156179599E0,1.279487320E0
5.342346083E0,3.591773252E0,-3.455002785E-1,6.950146705E-3,3.608358885E0
5.352284083E0,6.645084600E0,-2.010447573E0,-2.037462294E0,7.235350813E0
5.362222083E0,5.187721648E0,-3.800351620E0,-3.790767742E0,7.464921192E0
5.372161083E0,3.246125624E0,-3.895086454E0,-4.268494323E0,6.627901164E0
5.382099083E0,1.449508242E0,-3.269005194E0,-4.246444181E0,5.551554492E0
5.392038083E0,4.437128900E-1,-3.393049781E0,-4.042390680E0,5.296280804E0
5.401976417E0,-3.963830414E-1,-4.246222279E0,-3.725753428E0,5.662928727E0
5.411914417E0,-1.316830095E0,-5.095602273E0,-3.071135416E0,6.093527449E0
5.421853417E0,-1.874102198E0,-5.182310634E0,-2.528132565E0,6.063007243E0
5.431791417E0,-2.000044646E0,-4.265469559E0,-2.663119047E0,5.411710654E0
5.441729417E0,-1.507098054E0,-2.731905107E0,-2.721390059E0,4.140122451E0
5.451668417E0,-3.461088274E-1,-7.689702541E-1,-2.258626209E0,2.410912468E0
5.461606417E0,4.030924290E-3,6.894843739E-1,-9.712542410E-1,1.191108623E0
5.471545417E0,3.150425707E-1,1.988848543E0,1.614989269E-1,2.020111941E0
5.481483417E0,3.276656860E-1,2.999666653E0,8.725846696E-1,3.141141327E0
5.491421417E0,4.939359409E-1,3.397632244E0,1.269408591E-1,3.435693752E0
5.501360417E0,1.825220060E-1,3.680318808E0,-4.776435515E-1,3.715670084E0
5.511298417E0,2.622388512E-2,3.624217113E0,-3.089585428E-1,3.637456907E0
5.521237417E0,-1.498960337E0,4.201788703E0,-1.222001340E0,4.625494316E0
5.531175417E0,-3.304851549E0,4.427412874E0,-3.328587444E-1,5.534873392E0
5.541113417E0,-4.045763647E0,5.002915719E0,-4.516831566E-1,6.449913709E0
5.551052417E0,-4.285634851E0,5.943762538E0,-9.240330045E-1,7.385717039E0
5.560990417E0,-4.748907701E0,6.689033443E0,-5.178024479E-1,8.219696596E0
5.570929417E0,-5.042558672E0,7.280624902E0,-2.068358982E-1,8.858762781E0
5.580867417E0,-4.941136962E0,7.716169378E0,4.321443200E-2,9.162749141E0
5.590805417E0,-4.720201673E0,7.741071500E0,4.750663912E-1,9.079106777E0
5.600744417E0,-4.272268409E0,7.444696019E0,5.971784735E-1,8.604208174E0
5.610682417E0,-3.352120148E0,6.799424196E0,5.522869869E-1,7.600914406E0
5.620621417E0,-2.326228793E0,5.889471141E0,9.650525379E-1,6.405352225E0
5.630559417E0,-1.558142053E0,3.829349717E0,5.183404648E-1,4.166581663E0
5.640497417E0,-5.741597396E-1,1.387894523E0,4.459781013E-2,1.502630885E0
5.650436417E0,4.271525520E-1,-1.439682142E0,-3.036798227E-1,1.532111421E0
5.660374417E0,1.806005233E0,-4.649025856E0,1.853450783E-1,4.990936696E0
5.670312417E0,3.262793989E0,-7.756475405E0,2.674891027E-1,8.419043041E0
5.680251417E0,4.376466961E0,-9.676870594E0,-4.815041757E-1,1.063142200E1
5.690189417E0,4.631020232E0,-9.745909839E0,-1.567104081E0,1.090343626E1
5.700128417E0,3.951633123E0,-8.762783557E0,-2.079072250E0,9.834852385E0
5.710066417E0,2.852210400E0,-7.917586661E0,-1.729726843E0,8.591579462E0
5.720004417E0,2.177313074E0,-7.102062045E0,-9.332062626E-1,7.486711658E0
5.729943417E0,1.668959946E0,-6.334412677E0,1.543072902E-2,6.550606794E0
5.739881417E0,1.462242747E0,-5.271150890E0,7.202810740E-1,5.517426065E0
5.749820417E0,1.652199195E0,-3.919904961E0,1.469875410E0,4.500661152E0
5.759758417E0,2.054360163E0,-2.547831835E0,2.485983496E0,4.109982564E0
5.769696417E0,2.689884092E0,-1.353221118E0,3.544273396E0,4.650651323E0
5.779635417E0,3.017393072E0,1.917652845E-1,5.087624917E0,5.918222890E0
5.789573417E0,2.201829573E0,2.339338835E0,5.411614459E0,6.293340186E0
5.799512417E0,1.678512543E0,4.374907801E0,1.497393576E0,4.919289598E0
5.809450417E0,5.260698992E-1,5.931679852E0,-1.753239812E0,6.207690814E0
5.819388417E0,6.700733721E-2,6.692232454E0,-1.082202819E0,6.779500583E0
5.829327417E0,-4.508615497E0,3.092056169E0,-4.252814430E0,6.926388354E0
5.839265417E0,-7.356052229E0,-2.190729511E0,1.407289152E0,7.803285395E0
5.849204417E0,-1.871861838E0,-3.718388275E0,5.974309562E0,7.281665527E0
5.859142417E0,7.068283850E-1,-2.278433653E0,1.552574919E0,2.846287961E0
5.869080417E0,6.495087147E-2,-1.661310911E-1,5.063736264E-1,5.368728012E-1
5.879019417E0,-3.034944659E-1,1.020409298E0,3.843948606E-1,1.131858399E0
5.888957417E0,3.874645758E-1,5.371287382E-1,-7.662062752E-1,1.012772499E0
5.898895417E0,1.498739897E0,-8.973324251E-1,-1.783980818E0,2.496800817E0
5.908834417E0,2.257952026E0,-2.752997768E0,-3.353738365E0,4.891309138E0
5.918772417E0,2.408247687E0,-4.038468953E0,-3.367009206E0,5.783220504E0
5.928711417E0,1.522614079E0,-4.848090219E0,-2.716878347E0,5.762270417E0
5.938649417E0,-4.466071156E-1,-5.118932079E0,-1.872160338E0,5.468812291E0
5.948587417E0,-2.138831379E0,-4.904854404E0,-9.785185294E-1,5.439641064E0
5.958526417E0,-3.247444463E0,-4.091078691E0,-1.919184085E-1,5.226820551E0
5.968464417E0,-3.840459427E0,-2.510441229E0,3.560229278E-1,4.601977412E0
5.978403417E0,-3.575070973E0,-5.806092185E-1,-6.846753314E-2,3.622558119E0
5.988341417E0,-3.202199878E0,1.085033895E0,-9.743368931E-1,3.518624020E0
5.998279417E0,-2.631412812E0,2.287244822E0,-1.634184362E0,3.850503966E0
6.008218417E0,-2.311167535E0,3.406031769E0,-1.223147394E0,4.294023444E0
6.018156417E0,-2.013284934E0,4.379908925E0,-7.032152443E-1,4.871491568E0
6.028095417E0,-1.733281365E0,4.819590890E0,-2.254040969E-1,5.126746302E0
6.038033417E0,-1.437490898E0,5.584637663E0,3.421838839E-1,5.776819862E0
6.047971417E0,-1.458801076E0,5.999516909E0,4.693137543E-1,6.192136878E0
6.057910417E0,-1.405211636E0,6.125760634E0,3.025608118E-1,6.292146385E0
6.067848417E0,-1.206635807E0,6.067066868E0,2.162477227E-1,6.189671512E0
6.077786417E0,-1.265350623E0,5.949249566E0,7.721613720E-2,6.082815543E0
6.087725417E0,-1.473640724E0,5.849587868E0,1.767016876E-1,6.034941482E0
6.097663417E0,-1.432921591E0,5.914768535E0,6.386565748E-1,6.119283727E0
6.107602417E0,-1.087248235E0,5.973417277E0,9.344259918E-1,6.143042783E0
6.117540417E0,-3.224786210E-1,5.639076995E0,1.085666564E0,5.751682684E0
6.127478417E0,1.491503383E-1,5.324903759E0,1.024386428E0,5.424593387E0
6.137417417E0,3.675507134E-1,4.631871294E0,6.784829839E-1,4.695707015E0
6.147355417E0,2.595891854E-1,3.517989576E0,3.711999607E-1,3.547030676E0
6.157294417E0,-9.940354317E-2,1.680510828E0,6.877246544E-2,1.684852326E0
6.167232417E0,-1.426311314E-2,-8.887498820E-1,4.338223247E-1,9.890811891E-1
6.177170417E0,6.059244463E-1,-4.016276430E0,1.041970175E0,4.193247267E0
6.187109417E0,1.795004281E0,-6.944757326E0,1.291842896E0,7.288384784E0
6.197047417E0,3.320187042E0,-8.660898748E0,1.317899258E0,9.368653456E0
6.206986417E0,4.178034389E0,-8.204904220E0,1.554985142E0,9.337794355E0
6.216924417E0,4.053240189E0,-5.764312660E0,1.535346683E0,7.212027863E0
6.226862417E0,3.541951759E0,-3.420618818E0,1.519824518E0,5.153243825E0
6.236801417E0,3.117946470E0,-2.342986329E0,1.725353125E0,4.264741321E0
6.246739417E0,2.750187888E0,-2.150519378E0,2.155852039E0,4.103165245E0
6.256677417E0,2.433348322E0,-2.640704915E0,2.534035914E0,4.394979467E0
6.266616417E0,2.267152035E0,-3.407836804E0,2.608465999E0,4.853599170E0
6.276554417E0,1.856721058E0,-3.968508772E0,2.257089561E0,4.928582782E0
6.286493417E0,1.327847565E0,-4.259001369E0,1.206867357E0,4.621558247E0
6.296431417E0,7.503316694E-1,-4.002779887E0,-5.083101511E-2,4.072815762E0
6.306369417E0,-2.671535821E-1,-2.904159402E0,-7.168660077E-1,3.003233215E0
6.316308417E0,-5.784337619E-1,-1.377388245E0,-1.621106333E0,2.204488544E0
6.326246417E0,7.552110247E-1,-2.007752591E-1,-2.052249610E0,2.195992454E0
6.336185417E0,1.717554986E0,7.123885024E-1,-1.739637873E0,2.546337063E0
6.346123417E0,1.551433689E0,7.193753403E-1,-1.585509069E0,2.332013375E0
6.356061417E0,7.991635215E-1,3.379345661E-1,-1.064463682E0,1.373297141E0
6.366000417E0,1.040060328E-1,3.239006639E-1,-2.755266488E-1,4.377714347E-1
6.375938417E0,-3.703002204E-1,1.843369818E-1,1.725326228E-1,4.481850979E-1
6.385877417E0,-8.385876422E-1,-4.229139054E-1,3.258056867E-1,9.940999700E-1
6.395815417E0,-1.191402057E0,-1.192874093E0,4.753786325E-1,1.751676998E0
6.405753542E0,-1.040698552E0,-1.881704748E0,3.319182198E-1,2.175783983E0
6.415692542E0,-4.997637145E-1,-2.579499185E0,-2.891823824E-1,2.643332417E0
6.425630542E0,4.041094060E-1,-3.047823737E0,-1.093796532E0,3.263269035E0
6.435568542E0,1.742908221E0,-2.959403311E0,-1.713456234E0,3.838193493E0
6.445507542E0,2.867796738E0,-2.471085375E0,-2.348445289E0,4.454853122E0
6.455445542E0,3.261523097E0,-1.946797707E0,-2.467121547E0,4.529265167E0
6.465384542E0,3.633847477E0,-6.607470632E-1,-2.405213567E0,4.407548805E0
6.475322542E0,2.940232337E0,1.014811758E0,-2.388187791E0,3.921511192E0
6.485260542E0,1.522580457E0,2.336158535E0,-1.909442185E0,3.379623856E0
6.495199542E0,1.222372127E-1,3.204221553E0,-1.180196160E0,3.416846597E0
6.505137542E0,-9.608793801E-1,3.356324589E0,-8.484719217E-1,3.592785623E0
6.515076542E0,-1.945045589E0,4.002408004E0,-1.806870767E-1,4.453663660E0
6.525014542E0,-3.002613065E0,4.420261145E0,3.098065352E-1,5.352604403E0
6.534952542E0,-3.668784590E0,4.646558915E0,8.299725008E-1,5.978239246E0
6.544891542E0,-4.340549270E0,4.929437853E0,2.099501983E-1,6.571438548E0
6.554829542E0,-4.468548036E0,5.560236647E0,2.199921334E-1,7.136704398E0
6.564767542E0,-5.167165761E0,6.385649489E0,4.958134087E-1,8.229334866E0
6.574706542E0,-5.451449200E0,6.571267011E0,1.195826498E-1,8.538978190E0
6.584644542E0,-5.252257367E0,6.780896124E0,-3.729868698E-1,8.585212805E0
6.594583542E0,-4.761355254E0,6.490384231E0,-6.396480433E-1,8.074945259E0
6.604521542E0,-4.284553117E0,5.784959178E0,-3.631810892E-1,7.207985058E0
6.614459542E0,-3.635739343E0,5.110096352E0,-5.491704941E-3,6.271500255E0
6.624398542E0,-2.890943525E0,4.046836318E0,1.153457208E-1,4.974710373E0
6.634336542E0,-2.115036719E0,2.349146955E0,-1.404886385E-1,3.164112640E0
6.644275542E0,-1.337467258E0,8.036307943E-1,2.444112754E-1,1.579359994E0
6.654213542E0,-1.361418915E-1,-1.944797375E0,5.034488491E-1,2.013512400E0
6.664151542E0,1.322627024E0,-5.434385270E0,4.720994775E-1,5.612910424E0
6.674090542E0,2.659339991E0,-8.221512651E0,-1.478281732E-1,8.642176383E0
6.684028542E0,3.601646276E0,-9.546388223E0,-1.206526172E0,1.027429265E1
6.693967542E0,3.722593008E0,-9.401868441E0,-1.986730682E0,1.030533491E1
6.703905542E0,3.058124776E0,-8.531455427E0,-1.811707145E0,9.242301749E0
6.713843542E0,2.450859271E0,-7.513078621E0,-1.047773098E0,7.971881208E0
6.723782542E0,2.195825652E0,-6.857909802E0,-2.276343711E-1,7.204470456E0
6.733720542E0,2.086617205E0,-6.455096285E0,7.884561002E-1,6.829634136E0
6.743659542E0,2.554435095E0,-5.611651799E0,1.708883858E0,6.398129305E0
6.753597542E0,3.357181206E0,-4.652666332E0,2.873939238E0,6.416969408E0
6.763535542E0,3.225061906E0,-2.932402623E0,4.732666183E0,6.434138531E0
6.773474542E0,2.528794762E0,-9.131684393E-1,5.433859606E0,6.062632247E0
6.783412542E0,1.488842900E0,1.168091839E0,2.967757813E0,3.519755412E0
6.793350542E0,6.077730435E-1,3.013606415E0,2.885859664E-1,3.087797526E0
6.803289542E0,9.936553627E-2,4.213729886E0,-5.059993315E-1,4.245165296E0
6.813227542E0,-2.214168075E0,1.796133671E0,-3.932111024E0,4.856967524E0
6.823166542E0,-3.781495812E0,-2.798842862E0,-2.340530352E0,5.254646921E0
6.833104542E0,-9.039260378E-1,-4.025656534E0,4.878250158E0,6.389077978E0
6.843042542E0,5.242560929E-1,-1.369121452E0,2.646366774E0,3.025325619E0
6.852981542E0,-4.144278413E-1,1.525770698E0,3.031171744E-1,1.609846788E0
6.862919542E0,-1.367844712E0,3.004216956E0,3.331544673E-1,3.317726718E0
6.872858542E0,-6.068143925E-1,2.956198452E0,-4.533814073E-1,3.051702426E0
6.882796542E0,2.607127279E-2,1.799682346E0,-1.696253872E0,2.473219249E0
6.892734542E0,3.948861542E-1,2.912375325E-1,-2.296588672E0,2.348419448E0
6.902673542E0,2.762134042E-1,-1.143333558E0,-3.045947950E0,3.265165292E0
6.912611542E0,-5.535787100E-1,-2.388389373E0,-2.705435346E0,3.651059244E0
6.922550542E0,-2.241502346E0,-3.124114113E0,-1.983201302E0,4.326373674E0
6.932488542E0,-4.363500760E0,-3.181105170E0,-1.108514120E0,5.512564970E0
6.942426542E0,-5.819074173E0,-2.606497534E0,3.153565662E-1,6.383956719E0
6.952365542E0,-5.525264450E0,-1.137572297E0,8.897475632E-1,5.710890360E0
6.962303542E0,-4.901734622E0,8.817127579E-1,7.852519722E-1,5.041928238E0
6.972241542E0,-4.191603145E0,2.640593818E0,2.426970179E-1,4.959957105E0
6.982180542E0,-3.434017420E0,3.982346207E0,-2.397462206E-1,5.263937234E0
6.992118542E0,-2.619425435E0,4.931469761E0,-2.596796711E-1,5.590010478E0
7.002057542E0,-1.800988906E0,5.204307860E0,-1.946364136E-1,5.510559379E0
7.011995542E0,-1.302271113E0,5.110698030E0,1.199718551E-1,5.275370854E0
7.021933542E0,-7.889691934E-1,4.829553376E0,4.151569891E-1,4.911151955E0
7.031872542E0,-2.313067880E-1,4.457544746E0,5.063570349E-1,4.492171573E0
7.041810542E0,-1.363231552E-1,4.067056575E0,1.128185177E-1,4.070904224E0
7.051749542E0,-2.736637259E-1,3.534955273E0,-2.836879000E-1,3.556863708E0
7.061687542E0,-5.185389778E-1,3.200410337E0,3.512203172E-2,3.242335972E0
7.071625542E0,-8.652855903E-1,3.202328809E0,6.719857040E-1,3.384552221E0
7.081564542E0,-1.053898933E0,3.211939877E0,1.092628551E0,3.552618455E0
7.091502542E0,-9.130257672E-1,2.973011536E0,9.418238890E-1,3.249530102E0
7.101440542E0,-6.898609346E-1,2.617435920E0,6.406852663E-1,2.781610418E0
7.111379542E0,-4.622197661E-1,2.220976573E0,4.820026508E-1,2.319204735E0
7.121317542E0,-1.111500147E-1,1.622217012E0,7.963860941E-1,1.810572609E0
7.131256542E0,4.410661478E-1,9.278426117E-1,1.395518999E0,1.732889072E0
7.141194542E0,9.686427283E-1,8.530853748E-2,1.559605904E0,1.837911004E0
7.151132542E0,1.578048753E0,-1.022954006E0,1.302350342E0,2.287529055E0
7.161071542E0,2.275414297E0,-2.432020127E0,1.128736131E0,3.516571821E0
7.171009542E0,2.823630086E0,-3.717428747E0,1.149553242E0,4.807664299E0
7.180948542E0,3.310176901E0,-4.413443876E0,9.483283317E-1,5.597774967E0
7.190886542E0,3.583540080E0,-4.282210722E0,9.574216291E-1,5.665310614E0
7.200824542E0,3.527042820E0,-3.571481075E0,1.268632666E0,5.177348449E0
7.210763542E0,3.273501703E0,-2.601251412E0,1.816196345E0,4.558606308E0
7.220701542E0,2.900288545E0,-1.652968689E0,2.326396608E0,4.068918814E0
7.230640542E0,2.638564834E0,-9.967795300E-1,2.713099584E0,3.913630433E0
7.240578542E0,2.325198075E0,-7.181690598E-1,3.039412809E0,3.893628528E0
7.250516542E0,2.176810360E0,-7.127919602E-1,3.118592588E0,3.869392129E0
7.260455542E0,1.897932526E0,-7.904178411E-1,2.859998306E0,3.522285983E0
7.270393542E0,1.254426270E0,-9.447843343E-1,2.391264742E0,2.860830259E0
7.280331542E0,5.556525712E-1,-1.027552257E0,1.824526581E0,2.166451168E0
7.290270542E0,-1.042839217E-1,-9.230642670E-1,9.084397960E-1,1.299301982E0
7.300208542E0,4.871217419E-1,-9.750658947E-1,-1.132453644E-1,1.095840136E0
7.310147542E0,1.680505274E0,-1.856635396E0,-3.651152019E-1,2.530711773E0
7.320085542E0,2.300802907E0,-2.677624819E0,-7.601663938E-1,3.611263163E0
7.330023542E0,2.281822553E0,-3.225742815E0,-1.871517437E0,4.372037098E0
7.339962542E0,1.667737001E0,-3.698168603E0,-2.342292703E0,4.684456514E0
7.349900542E0,1.066503337E0,-3.197421241E0,-1.929387038E0,3.883743851E0
7.359839542E0,6.523709267E-1,-2.375158294E0,-1.382824402E0,2.824742125E0
7.369777542E0,1.283887759E-1,-1.825460966E0,-1.173358426E0,2.173835645E0
7.379715542E0,-9.523550168E-2,-1.679153690E0,-1.102359195E0,2.010925834E0
7.389654542E0,-2.679622521E-1,-1.705881312E0,-1.193546230E0,2.099139687E0
7.399592542E0,-4.517025255E-1,-1.809452459E0,-1.489888967E0,2.387032154E0
7.409530542E0,-7.093027805E-1,-1.733752651E0,-1.899919264E0,2.668089559E0
7.419469542E0,-8.946969388E-1,-1.473446889E0,-2.327402622E0,2.896261610E0
7.429407542E0,-9.775587089E-1,-1.144454470E0,-2.700388030E0,3.091519460E0
7.439346542E0,-1.083759786E0,-7.961206305E-1,-2.589142413E0,2.917533508E0
7.449284542E0,-1.043972261E0,-3.436291695E-1,-1.969387986E0,2.255315528E0
7.459222542E0,-8.995438421E-1,2.400673789E-1,-1.255358463E0,1.562925571E0
7.469161542E0,-6.305416627E-1,6.338446087E-1,-5.140978713E-1,1.031328463E0
7.479099542E0,-3.498794045E-1,7.959101307E-1,-4.274748798E-1,9.688257360E-1
7.489038542E0,5.089514445E-1,1.355191045E0,-6.519433491E-1,1.587641166E0
7.498976542E0,3.728311877E-1,2.153996133E0,-1.212120934E0,2.499587885E0
7.508914542E0,2.442966700E-2,2.796410421E0,-1.756248643E0,3.302259430E0
7.518853542E0,-7.023119956E-1,3.572057610E0,-1.538495994E0,3.952190232E0
7.528791542E0,-1.620247377E0,4.410927819E0,-1.106697829E0,4.827656354E0
7.538730542E0,-1.777516429E0,4.705788871E0,-7.737176085E-1,5.089464853E0
7.548668542E0,-2.394635954E0,5.020421113E0,-1.187310029E-1,5.563542627E0
7.558606542E0,-3.042165678E0,5.188378875E0,-2.020039053E-1,6.017877777E0
7.568545542E0,-3.164216657E0,5.348166322E0,-3.399044931E-1,6.223398197E0
7.578483542E0,-3.189331326E0,5.241209638E0,-9.057090001E-1,6.201807927E0
7.588421542E0,-2.891410718E0,4.912322468E0,-1.005060138E0,5.788031950E0
7.598360542E0,-2.830736500E0,4.693016798E0,-3.499862623E-1,5.491809008E0
7.608298542E0,-2.745265995E0,4.249114897E0,-2.857790836E-1,5.066866139E0
7.618237542E0,-2.138459204E0,3.596225907E0,-5.191274270E-1,4.216081335E0
7.628175542E0,-1.261013744E0,2.578254313E0,-1.338579690E-1,2.873233182E0
7.638113542E0,-5.272890437E-1,1.210140336E0,2.511893678E-1,1.343714801E0
7.648052542E0,3.640798062E-2,-3.644493502E-1,1.652634374E-1,4.018219428E-1
7.657990542E0,9.544898352E-1,-2.117335845E0,-1.301145085E-1,2.326175339E0
7.667929542E0,2.069090761E0,-3.876511604E0,-2.435750505E-1,4.400887138E0
7.677867542E0,2.881502903E0,-5.469786068E0,-7.064219304E-1,6.222591949E0
7.687805542E0,3.155548160E0,-6.517499524E0,-1.351581559E0,7.366278365E0
7.697744542E0,2.827091638E0,-7.124345199E0,-1.389275050E0,7.789661534E0
7.707682542E0,2.002078746E0,-6.796969535E0,-8.106438717E-1,7.131918231E0
7.717621542E0,1.436772275E0,-6.187870343E0,-2.467792515E-1,6.357275671E0
7.727559542E0,6.625357264E-1,-5.041794441E0,3.585571110E-1,5.097764998E0
7.737497542E0,1.450724317E0,-4.272328928E0,4.383343287E-1,4.533159217E0
7.747436542E0,2.098578854E0,-3.570747834E0,1.440913273E0,4.385259897E0
7.757374542E0,2.741613239E0,-2.518072430E0,3.073094233E0,4.827115089E0
7.767312542E0,2.783807917E0,-9.000952345E-1,5.016891149E0,5.807663450E0
7.777251542E0,1.704065752E0,9.731825066E-1,4.277060494E0,4.705759317E0
7.787189542E0,3.480666214E-1,2.801744251E0,2.439115723E0,3.730979326E0
7.797128542E0,-4.610167015E-1,4.811927530E0,3.382954563E0,5.900132585E0
7.807066542E0,9.026551455E-2,4.388341779E0,-2.118561713E-1,4.394379873E0
7.817004542E0,-1.301554536E0,-1.159815105E0,-5.597833074E0,5.863015471E0
7.826943542E0,-4.798599386E-1,-5.892915151E0,1.750356843E0,6.166073598E0
7.836881542E0,4.939131367E-1,-4.236784873E0,2.286780407E0,4.839799673E0
7.846820542E0,-2.994704121E-1,-1.576752571E0,-2.504494026E-2,1.605135025E0
7.856758542E0,-6.404420221E-1,6.703996468E-1,3.233687134E-1,9.819210736E-1
7.866696542E0,-4.944034258E-1,1.599798787E0,-5.902483535E-1,1.775439108E0
7.876635542E0,-4.809679860E-1,1.466779309E0,-1.436377881E0,2.108542900E0
7.886573542E0,-7.589069036E-1,9.279151171E-1,-1.830456827E0,2.188044412E0
7.896512542E0,-8.303516927E-1,-2.449749470E-2,-2.258940936E0,2.406844036E0
7.906450542E0,-5.023585626E-1,-1.206326197E0,-2.561371647E0,2.875449832E0
7.916388542E0,-1.207480730E0,-2.276185398E0,-2.953920962E0,3.919780444E0
7.926327542E0,-2.266239869E0,-2.977921443E0,-2.349579503E0,4.418640414E0
7.936265542E0,-3.496869726E0,-3.077667925E0,-6.621829931E-1,4.705169928E0
7.946203542E0,-4.064023039E0,-2.400867332E0,4.727862695E-1,4.743835375E0
7.956142542E0,-3.729832738E0,-9.115464216E-1,7.776494224E-1,3.917564008E0
7.966080542E0,-3.368730626E0,7.604906219E-1,4.662043512E-1,3.484829768E0
7.976019542E0,-3.060995467E0,1.928680109E0,-6.507366300E-2,3.618526606E0
7.985957542E0,-2.481067157E0,2.665792978E0,-2.760528982E-1,3.652170812E0
7.995895542E0,-1.791516417E0,3.003227608E0,-4.490920360E-1,3.525704297E0
8.005834542E0,-1.556862098E0,3.190108713E0,-2.889685205E-1,3.561476660E0
8.015772542E0,-1.372346776E0,3.284357643E0,9.534469843E-3,3.559554987E0
8.025711542E0,-1.275421575E0,3.321054769E0,2.564388518E-1,3.566772470E0
8.035649542E0,-1.197238747E0,3.538108091E0,1.715350878E-1,3.739119384E0
8.045587542E0,-1.006640859E0,3.813697305E0,8.829047129E-2,3.945302037E0
8.055526542E0,-8.250710723E-1,3.852404119E0,-2.085678434E-1,3.945283300E0
8.065464542E0,-1.022358467E0,3.903867803E0,-2.329940021E-1,4.042237853E0
8.075402542E0,-1.279067899E0,4.052182428E0,-4.491129398E-2,4.249495751E0
8.085341542E0,-1.473195459E0,4.147034791E0,1.869998038E-1,4.404903102E0
8.095279542E0,-1.334252166E0,4.111912905E0,3.436247841E-1,4.336604037E0
8.105218542E0,-1.089422522E0,3.911365687E0,5.332546654E-1,4.095117033E0
8.115156542E0,-8.344698867E-1,3.713756111E0,1.227029141E0,3.999240547E0
8.125094542E0,-3.046919757E-1,3.396108459E0,2.079496758E0,3.993832324E0
8.135033542E0,1.731392714E-1,2.863880857E0,2.551265320E0,3.839367852E0
8.144971542E0,4.921218422E-1,1.873663073E0,2.526373723E0,3.183608236E0
8.154910542E0,9.782080422E-1,4.175280350E-1,1.928367283E0,2.202230917E0
8.164848542E0,1.455731141E0,-1.482941598E0,1.278161581E0,2.439665133E0
8.174786542E0,1.564646935E0,-3.120157303E0,9.154263416E-1,3.608532529E0
8.184725542E0,1.881882504E0,-4.213959097E0,1.273199633E0,4.787480583E0
8.194663542E0,2.207210765E0,-4.879988535E0,1.882356713E0,5.677088537E0
8.204602542E0,2.714493853E0,-4.752896379E0,2.583346361E0,6.052452337E0
8.214540542E0,3.349897914E0,-3.965817883E0,3.076215769E0,6.034287943E0
8.224478542E0,3.785744106E0,-3.256548285E0,3.178068419E0,5.919213127E0
8.234417542E0,3.849568219E0,-2.772200024E0,2.926622651E0,5.573992159E0
8.244355542E0,3.579945504E0,-2.523101036E0,2.780111599E0,5.187587990E0
8.254293542E0,2.776318803E0,-2.468934184E0,2.588741587E0,4.528262923E0
8.264232542E0,1.699767610E0,-2.659094993E0,2.062389121E0,3.770072280E0
8.274170542E0,7.085750945E-1,-3.175721054E0,1.522450064E0,3.592372068E0
8.284109542E0,-4.449352504E-1,-3.689239905E0,1.007201315E0,3.850053628E0
8.294047542E0,-1.473555501E0,-3.906468059E0,2.558393660E-1,4.182978878E0
8.303985542E0,-1.283394692E0,-4.019783590E0,-7.563990328E-1,4.286945480E0
8.313924542E0,5.061189070E-2,-4.081753551E0,-1.374224025E0,4.307176022E0
8.323862542E0,1.312595395E0,-3.347937927E0,-1.912320185E0,4.072906029E0
8.333801542E0,1.764153787E0,-2.020341647E0,-2.496227818E0,3.664037700E0
8.343739542E0,1.622270222E0,-8.523702604E-1,-2.475727479E0,3.080182184E0
8.353677542E0,1.323713876E0,9.897815824E-2,-2.142084331E0,2.520027853E0
8.363616542E0,8.621278015E-1,6.843546116E-1,-1.816891433E0,2.124311667E0
8.373554542E0,2.328412436E-1,8.818910980E-1,-1.346909488E0,1.626687469E0
8.383493542E0,-1.508450076E-1,7.996558571E-1,-9.297267307E-1,1.235554734E0
8.393431542E0,-1.547999181E-1,4.151388627E-1,-8.813484764E-1,9.864473766E-1
8.403369792E0,9.013979942E-2,-1.386415762E-1,-1.251795316E0,1.262671051E0
8.413308792E0,4.401592447E-1,-7.934396821E-1,-1.629256329E0,1.864876102E0
8.423246792E0,8.724969614E-1,-1.298873588E0,-1.729636649E0,2.332373573E0
8.433184792E0,1.452915561E0,-1.406940073E0,-1.792841542E0,2.702725438E0
8.443123792E0,2.088279276E0,-1.095063624E0,-1.716016145E0,2.916296639E0
8.453061792E0,2.070517774E0,-4.753295159E-1,-1.611303038E0,2.666323214E0
8.463000792E0,1.531262842E0,-9.550842047E-3,-1.412109597E0,2.083005190E0
8.472938792E0,1.497214359E0,7.092959100E-1,-1.445504215E0,2.198689146E0
8.482876792E0,9.171578483E-1,1.431401900E0,-1.675875010E0,2.387183899E0
8.492815792E0,4.538067922E-1,1.783815926E0,-1.475109691E0,2.358789618E0
8.502753792E0,-6.148268321E-1,2.344668573E0,-1.119545185E0,2.669993290E0
8.512692792E0,-1.183649233E0,3.102741371E0,-8.905997948E-1,3.438196841E0
8.522630792E0,-1.516077184E0,3.473494020E0,-4.567494035E-1,3.817364372E0
8.532568792E0,-2.632132312E0,3.825224506E0,2.228081524E-1,4.648667175E0
8.542507792E0,-3.494396646E0,4.222335234E0,2.911166413E-1,5.488503589E0
8.552445792E0,-3.319011167E0,4.602073883E0,-4.209749687E-1,5.689651929E0
8.562384792E0,-3.309020906E0,5.301182774E0,-2.025707929E-1,6.252454965E0
8.572322792E0,-3.582896301E0,5.764254772E0,1.710591976E-1,6.789185535E0
8.582260792E0,-3.588920103E0,5.773812046E0,-1.811082955E-1,6.800739170E0
8.592199792E0,-3.224613717E0,5.691142357E0,-3.715916511E-1,6.551741395E0
8.602137792E0,-2.783407675E0,5.362511880E0,-1.404850571E-1,6.043478138E0
8.612075792E0,-2.440431932E0,4.997183109E0,2.355129826E-1,5.566238712E0
8.622014792E0,-1.986350028E0,4.471733015E0,4.347334671E-1,4.912328956E0
8.631952792E0,-1.743995803E0,3.700755996E0,4.539975576E-1,4.116215505E0
8.641891792E0,-1.194699009E0,2.808549240E0,6.830964370E-1,3.127598967E0
8.651829792E0,-7.244729429E-1,1.457908498E0,8.143487406E-1,1.820308245E0
8.661767792E0,-2.833209872E-1,-3.471550405E-1,7.406727270E-1,8.656693898E-1
8.671706792E0,3.582521787E-1,-2.415650847E0,5.250449554E-1,2.497876267E0
8.681644792E0,1.259880846E0,-4.522438899E0,3.459143344E-1,4.707378259E0
8.691582792E0,2.179350829E0,-6.101666597E0,5.854473509E-2,6.479454667E0
8.701521792E0,2.982531095E0,-6.976601847E0,-2.281302881E-1,7.590817380E0
8.711459792E0,3.390134359E0,-7.401991464E0,-5.741731882E-1,8.161627500E0
8.721398792E0,3.578059485E0,-7.738893412E0,-4.788366759E-1,8.539453465E0
8.731336792E0,3.467746791E0,-7.527593749E0,3.063484919E-1,8.293599029E0
8.741274792E0,3.323363249E0,-6.878943406E0,1.101926574E0,7.718733565E0
8.751213792E0,3.355658591E0,-6.128163255E0,2.282969338E0,7.350291045E0
8.761151792E0,2.783712022E0,-4.707911995E0,3.500188898E0,6.493443639E0
8.771090792E0,1.403535824E0,-2.646234627E0,4.039598050E0,5.028998202E0
8.781028792E0,1.175818642E0,-1.004676195E0,3.084693940E0,3.450689849E0
8.790966792E0,1.030791906E0,1.245967981E0,2.870940785E0,3.295037049E0
8.800905792E0,1.469458795E0,3.402232833E0,1.687451327E0,4.072098892E0
8.810843792E0,2.649344176E-1,3.443776131E-2,-4.136079447E0,4.144698952E0
8.820782792E0,-2.578363071E0,-4.675703777E0,-3.251288130E0,6.251482740E0
8.830720792E0,-4.499110848E-2,-5.459049996E0,2.740386493E0,6.108434266E0
8.840658792E0,2.087256890E0,-2.999811664E0,1.745843085E0,4.050120915E0
8.850597792E0,8.291389802E-1,5.520122409E-2,1.666580422E0,1.862259092E0
8.860535792E0,-5.585216537E-1,2.160484203E0,2.397047346E0,3.274977009E0
8.870473792E0,-5.767828006E-1,3.515540763E0,1.615820743E0,3.911851470E0
8.880412792E0,2.981787622E-3,3.729120839E0,5.149024482E-1,3.764502046E0
8.890350792E0,1.135622835E-1,3.285785533E0,-7.377946544E-1,3.369513899E0
8.900289792E0,3.516632438E-1,2.052430581E0,-1.741592159E0,2.714642072E0
8.910227792E0,7.016503832E-1,1.703720766E-1,-1.676588516E0,1.825455822E0
8.920165792E0,2.491720784E-1,-1.921453536E0,-1.494468652E0,2.446938284E0
8.930104792E0,-1.271444007E0,-3.313993671E0,-1.005768747E0,3.689267500E0
8.940042792E0,-2.644684530E0,-3.694832182E0,1.163804953E-1,4.545292679E0
8.949981792E0,-3.947455872E0,-3.306655415E0,5.736003073E-1,5.181254212E0
8.959919792E0,-4.456964994E0,-2.241859903E0,6.410105176E-1,5.030046448E0
8.969857792E0,-4.031002351E0,-7.137210828E-1,3.640629955E-1,4.109856397E0
8.979796792E0,-3.541981287E0,6.513926876E-1,-4.174561143E-2,3.601622769E0
8.989734792E0,-3.304146083E0,1.505736383E0,-5.001543085E-1,3.665348240E0
8.999673792E0,-2.976317844E0,1.871130059E0,-8.996058226E-1,3.628896009E0
9.009611792E0,-2.651243644E0,1.926548215E0,-9.098419583E-1,3.401248781E0
9.019549792E0,-2.452878607E0,1.866245295E0,-4.752977948E-1,3.118556229E0
9.029488792E0,-2.251789353E0,1.856037226E0,-1.559217064E-1,2.922283534E0
9.039426792E0,-1.841343904E0,2.129150144E0,1.207973358E-1,2.817520134E0
9.049364792E0,-1.459153663E0,2.631039467E0,2.917820545E-1,3.022686695E0
9.059303792E0,-1.240004990E0,3.057857559E0,3.276418586E-1,3.315939446E0
9.069241792E0,-9.978343678E-1,3.393586555E0,2.683547464E-1,3.547409957E0
9.079180792E0,-9.498991862E-1,3.697648786E0,1.890197244E-1,3.822387142E0
9.089118792E0,-1.081687972E0,4.066432677E0,2.478514847E-1,4.215133918E0
9.099056792E0,-1.263969657E0,4.672976636E0,4.698777182E-1,4.863652434E0
9.108995792E0,-1.078057143E0,5.117420574E0,7.892245705E-1,5.288957927E0
9.118933792E0,-1.224437948E0,5.277327304E0,1.448705419E0,5.607867612E0
9.128872792E0,-1.404728072E0,5.557769707E0,1.900747083E0,6.039445715E0
9.138810792E0,-1.304552988E0,5.493852038E0,2.039792117E0,6.003750544E0
9.148748792E0,-1.230842842E0,5.431024291E0,1.944208560E0,5.898385023E0
9.158687792E0,-1.133613732E0,5.380023707E0,1.352146108E0,5.661981479E0
9.168625792E0,-1.153184216E0,5.360254270E0,5.747193182E-1,5.512935876E0
9.178564792E0,-1.262013764E0,5.255848142E0,7.194133472E-1,5.452905097E0
9.188502792E0,-1.619146931E0,4.718538140E0,1.903537521E0,5.339446980E0
9.198440792E0,-1.337701877E0,5.278617784E0,3.133153324E0,6.282507603E0
9.208379792E0,-3.586310783E-1,5.610364242E0,3.640941904E0,6.697854965E0
9.218317792E0,8.739856625E-1,5.230800424E0,3.430355601E0,6.316048097E0
9.228255792E0,1.739145830E0,3.942197471E0,2.783963453E0,5.129912438E0
9.238194792E0,2.490082102E0,1.828729559E0,2.487948160E0,3.966692164E0
9.248132792E0,2.894167680E0,-1.311992401E-1,2.174282316E0,3.622281518E0
9.258071792E0,2.869857589E0,-1.872257402E0,1.711913885E0,3.830415057E0
9.268009792E0,2.480988804E0,-3.688276284E0,1.770615252E0,4.784743020E0
9.277947792E0,2.365089242E0,-5.386075575E0,2.404534267E0,6.354938415E0
9.287886792E0,2.562415375E0,-7.180210083E0,2.316139423E0,7.967803412E0
9.297824792E0,2.824134409E0,-9.027224470E0,1.960564392E0,9.659727197E0
9.307763792E0,3.313871756E0,-1.031103621E1,2.618241667E0,1.114245948E1
9.317701792E0,3.737346117E0,-1.125124276E1,2.906918703E0,1.220689953E1
9.327639792E0,3.899112847E0,-1.222159054E1,2.725285766E0,1.311478322E1
9.337578792E0,4.253397982E0,-1.274562268E1,2.729232345E0,1.371098104E1
9.347516792E0,4.755466231E0,-1.214737066E1,3.815039241E0,1.359145310E1
9.357454792E0,4.796299676E0,-1.071612898E1,4.726746461E0,1.265630447E1
9.367393792E0,4.527351730E0,-9.079147160E0,5.219080850E0,1.140905920E1
9.377331792E0,4.089818324E0,-7.569272702E0,5.167385032E0,1.003605357E1
9.387270792E0,3.587072675E0,-5.983187390E0,4.919078926E0,8.535980272E0
9.397208792E0,3.984112651E0,-3.844966460E0,4.957999163E0,7.432272627E0
9.407146667E0,4.527672742E0,-2.678005473E0,3.029338349E0,6.070290323E0
9.417085667E0,3.457863535E0,-2.848635997E0,8.027830942E-1,4.551484150E0
9.427023667E0,3.171137714E0,-2.308730416E0,2.370040226E-1,3.929697373E0
9.436962667E0,3.738587481E0,7.296623468E-1,8.833561179E-1,3.910212466E0
9.446900667E0,2.853731845E0,3.348430848E0,7.830564889E-1,4.468663340E0
9.456838667E0,2.105117210E0,4.286573914E0,-3.234434116E-1,4.786527973E0
9.466777667E0,1.400350554E0,4.759774459E0,-4.439200276E-1,4.981315044E0
9.476715667E0,6.030937361E-1,4.988617523E0,6.901439399E-2,5.025414394E0
9.486653667E0,3.513439858E-1,4.818446006E0,2.865697002E-1,4.839730023E0
9.496592667E0,2.349608593E-1,4.210789906E0,9.924011350E-2,4.218507656E0
9.506530667E0,3.961597509E-1,3.211023619E0,-3.248885509E-1,3.251640785E0
9.516469667E0,4.203474163E-1,2.005809562E0,-7.012282142E-1,2.166029768E0
9.526407667E0,2.731135029E-1,5.832574224E-1,-9.267614615E-1,1.128568568E0
9.536345667E0,2.330203146E-1,-8.706942648E-1,-1.101889079E0,1.423575257E0
9.546284667E0,2.134169394E-1,-2.191023626E0,-9.780976760E-1,2.408901489E0
9.556222667E0,-4.265631527E-2,-3.237840119E0,-8.238764861E-1,3.341287276E0
9.566161667E0,-1.629844120E-1,-3.862447296E0,-1.085052898E0,4.015271202E0
9.576099667E0,-1.215535270E-1,-3.666863780E0,-1.883518262E0,4.124112788E0
9.586037667E0,-2.619782116E-1,-2.782458964E0,-2.531276613E0,3.770685847E0
9.595976667E0,-1.174320585E0,-1.597766295E0,-2.655257758E0,3.313952282E0
9.605914667E0,-2.349515037E0,-4.156446469E-1,-2.471685884E0,3.435434833E0
9.615853667E0,-3.102801012E0,7.277561545E-1,-2.237607808E0,3.894084211E0
9.625791667E0,-3.398127795E0,1.917559290E0,-2.145279981E0,4.452699444E0
9.635729667E0,-3.869007580E0,3.109623544E0,-1.127242606E0,5.090152663E0
9.645668667E0,-3.901944653E0,4.394793012E0,-2.065236568E-3,5.877021521E0
9.655606667E0,-3.784916725E0,6.110827430E0,1.349393677E0,7.313594861E0
9.665544667E0,-3.659823732E0,7.788595914E0,2.767868114E0,9.039780416E0
9.675483667E0,-2.988727682E0,8.969095545E0,3.305638000E0,1.001520897E1
9.685421667E0,-2.803825567E0,9.894178855E0,3.757971586E0,1.094890695E1
9.695360667E0,-2.935401075E0,1.022315724E1,2.869222873E0,1.101644059E1
9.705298667E0,-2.700023748E0,9.769036161E0,1.835152433E0,1.030009613E1
9.715236667E0,-3.705009261E0,8.794881263E0,1.308094647E0,9.632660155E0
9.725175667E0,-4.430025995E0,8.056244025E0,1.161479077E0,9.266996911E0
9.735113667E0,-4.620907180E0,7.774329293E0,1.340488222E0,9.142750560E0
9.745052667E0,-4.499984422E0,6.757628299E0,9.523779671E-1,8.174498383E0
9.754990667E0,-4.093153575E0,5.704436586E0,6.741653267E-1,7.053297232E0
9.764928667E0,-3.208100011E0,5.045917897E0,7.356827132E-1,6.024485219E0
9.774867667E0,-1.813446692E0,4.644824631E0,4.776298837E-1,5.009103220E0
9.784805667E0,1.712386340E-1,3.883953940E0,-1.478526219E-1,3.890537402E0
9.794744667E0,1.858391607E0,2.722530266E0,-5.902611443E-1,3.348760761E0
9.804682667E0,3.786567102E0,1.500824137E0,-5.825135835E-1,4.114594218E0
9.814620667E0,5.352664000E0,-6.641355246E-1,-3.792316961E-1,5.407023633E0
9.824559667E0,5.842001106E0,-3.425080828E0,1.917559655E-1,6.774727002E0
9.834497667E0,5.540523344E0,-5.993933403E0,9.442083836E-1,8.216822137E0
9.844436667E0,4.776094623E0,-7.298762380E0,1.892509818E0,8.925503097E0
9.854374667E0,3.576015298E0,-7.131410975E0,3.134133317E0,8.571330093E0
9.864312667E0,2.674469369E0,-5.795972993E0,4.339408185E0,7.718584893E0
9.874251667E0,2.090916663E0,-3.989606695E0,5.189489261E0,6.871658669E0
9.884189667E0,1.942338620E0,-2.105508682E0,5.833539015E0,6.498924801E0
9.894127667E0,2.603297353E0,1.611726522E-2,6.149351810E0,6.677720012E0
9.904066667E0,3.909776706E0,2.286104030E0,6.746263651E0,8.125558367E0
9.914004667E0,4.718083811E0,4.653356888E0,7.905309262E0,1.031542339E1
9.923943667E0,5.189551241E0,5.308392391E0,7.579387801E0,1.060931625E1
9.933881667E0,5.476992761E0,4.186022270E0,6.122047652E0,9.219528166E0
9.943819667E0,4.501354132E0,3.751608061E0,4.702088753E0,7.513081306E0
9.953758667E0,2.178196589E0,3.570703395E0,3.104033021E0,5.208597134E0
9.963696667E0,1.332209149E-1,3.086175624E0,-4.320133424E-1,3.119112586E0
9.973635667E0,-1.222623557E-1,-7.682171327E-1,-8.943392354E0,8.977158373E0
9.983573667E0,-3.016833494E0,-7.923584150E0,-1.406150348E1,1.641981578E1
9.993511667E0,-4.171842188E0,-1.567550340E1,-3.830769421E0,1.666734738E1
1.000345067E1,-3.299942519E0,-1.268314986E1,3.821225595E0,1.365114194E1
1.001338867E1,3.802336165E-1,-5.358695403E0,-3.471767921E0,6.396355722E0
1.002332767E1,3.044038542E0,-1.124086863E0,-5.092385720E0,6.038388381E0
1.003326567E1,5.483363303E0,-1.591012761E0,-2.819608079E0,6.367792745E0
1.004320367E1,5.400522290E0,-4.293670095E0,-4.793977747E0,8.401396701E0
1.005314267E1,4.014466717E0,-8.097554018E0,-7.386526748E0,1.167249337E1
1.006308067E1,1.630327393E0,-1.238932143E1,-5.939259013E0,1.383575262E1
1.007301867E1,-1.559622276E0,-1.389352584E1,-4.807441546E0,1.478424757E1
1.008295767E1,-4.364419358E0,-1.220250991E1,-4.579411830E0,1.374483238E1
1.009289567E1,-6.374671926E0,-8.259049437E0,-3.858309807E0,1.112361876E1
1.010283467E1,-7.617908088E0,-4.731958669E0,-3.137757422E0,9.501025109E0
1.011277267E1,-8.187924491E0,-2.600348602E0,-1.651295800E0,8.748182562E0
1.012271067E1,-8.223124144E0,-1.222080351E0,-2.429540762E-1,8.316987300E0
1.013264967E1,-8.004969206E0,8.841633260E-2,2.674575642E-1,8.009924031E0
1.014258767E1,-6.635559486E0,1.704308411E0,-6.081641492E-1,6.877876161E0
1.015252567E1,-5.128436143E0,2.841363814E0,-1.708128397E0,6.106710098E0
1.016246467E1,-3.857262863E0,3.321330757E0,-1.692733848E0,5.364239244E0
1.017240267E1,-3.238753746E0,3.360125864E0,-1.556745154E0,4.919697869E0
1.018234167E1,-3.439232552E0,3.204708041E0,-1.551931726E0,4.950451116E0
1.019227967E1,-3.431174796E0,2.904288041E0,-9.958193441E-1,4.604292093E0
1.020221767E1,-3.295760591E0,2.507528147E0,8.328905538E-2,4.142061364E0
1.021215667E1,-3.344311192E0,2.366055933E0,9.570851950E-1,4.206976360E0
1.022209467E1,-3.294337086E0,2.872473341E0,1.295353856E0,4.558695158E0
1.023203367E1,-2.810660962E0,3.682259499E0,1.557662143E0,4.887244767E0
1.024197167E1,-2.043900371E0,4.601189200E0,1.423441501E0,5.232079556E0
1.025190967E1,-1.130207729E0,5.355042647E0,1.335142697E0,5.633511985E0
1.026184867E1,-5.268393928E-1,5.924949707E0,1.206389347E0,6.069428641E0
1.027178667E1,3.353144288E-2,6.546682393E0,1.385890828E0,6.691850872E0
1.028172567E1,8.224412870E-1,7.103627345E0,1.893885083E0,7.397616632E0
1.029166367E1,1.219761345E0,7.736980788E0,2.603630644E0,8.253943420E0
1.030160167E1,1.253422011E0,8.369052520E0,3.044901298E0,8.993527158E0
1.031154067E1,9.602265385E-1,8.523475147E0,3.234972060E0,9.167153747E0
1.032147867E1,4.894569737E-1,8.465608762E0,3.402514961E0,9.136914572E0
1.033141667E1,1.622462010E-1,8.202188773E0,4.005572225E0,9.129448688E0
1.034135567E1,1.967412651E-1,7.340488111E0,4.949358147E0,8.855372319E0
1.035129367E1,7.749452314E-1,5.302927583E0,5.693395289E0,7.818972502E0
1.036123267E1,1.564494761E0,2.292872767E0,5.989521679E0,6.601460393E0
1.037117067E1,2.829184064E0,-1.717206784E0,6.031273137E0,6.879632059E0
1.038110867E1,4.149039508E0,-7.497379432E0,5.374320917E0,1.011476903E1
1.039104767E1,4.712584505E0,-1.494567149E1,3.780931263E0,1.612070067E1
1.040098567E1,4.121827736E0,-1.886700492E1,1.789421067E0,1.939472522E1
1.041092454E1,2.742782390E0,-1.472307384E1,6.301846902E-1,1.498962612E1
1.042086254E1,1.695086475E0,-8.564736024E0,1.388795725E0,8.840632041E0
1.043080054E1,2.313251190E0,-5.958932555E0,3.318947432E0,7.202459324E0
1.044073954E1,3.727139803E0,-5.033862108E0,5.390721188E0,8.263849814E0
1.045067754E1,5.356334882E0,-4.254022465E0,6.369987137E0,9.346858650E0
1.046061654E1,6.568953853E0,-3.174277961E0,5.705934058E0,9.262012674E0
1.047055454E1,7.232091842E0,-1.523089165E0,4.692758936E0,8.754709558E0
1.048049254E1,8.383151911E0,-3.259694088E-1,1.611550960E0,8.542867699E0
1.049043154E1,9.247010196E0,-1.684248369E0,-3.162636155E0,9.916963123E0
1.050036954E1,6.764564266E0,-3.326516653E0,-6.200493897E0,9.760695022E0
1.051030754E1,3.271682049E0,-3.372776315E0,-8.165925511E0,9.421351440E0
1.052024654E1,-6.428045896E-1,-3.374471422E0,-8.619420354E0,9.278720945E0
1.053018454E1,-2.734110092E0,-4.087685552E0,-9.474519510E0,1.067478576E1
1.054012354E1,-3.669689739E0,-4.628402141E0,-9.678618912E0,1.133862396E1
1.055006154E1,-4.316194739E0,-5.025881828E0,-9.501320808E0,1.158292374E1
1.055999954E1,-4.486099039E0,-5.115506780E0,-9.459315580E0,1.165213051E1
1.056993854E1,-3.461285618E0,-4.849297085E0,-9.467135646E0,1.118583201E1
1.057987654E1,-2.032499762E0,-4.194372094E0,-8.596473541E0,9.778710032E0
1.058981554E1,-3.053725916E-1,-2.979731156E0,-7.475592706E0,8.053355604E0
1.059975354E1,1.253088281E0,-1.775885932E0,-5.753215814E0,6.150080754E0
1.060969154E1,2.423030179E0,-9.826491487E-1,-3.885405804E0,4.683273733E0
1.061963054E1,2.925120793E0,-1.895491898E-1,-2.427408574E0,3.805860341E0
1.062956854E1,2.354699032E0,8.094207072E-1,-5.101042230E-1,2.541648232E0
1.063950754E1,1.688802765E0,2.260469252E0,9.531898530E-1,2.978312763E0
1.064944554E1,2.225438729E0,3.698694268E0,1.308003430E0,4.510409050E0
1.065938354E1,2.326473499E0,5.587470639E0,9.515105326E-1,6.126800093E0
1.066932254E1,9.294033797E-1,7.113853540E0,7.196473821E-1,7.210311726E0
1.067926054E1,-6.130872855E-1,7.491883049E0,3.847269825E-1,7.526765739E0
1.068919854E1,-2.710791104E0,7.312391655E0,6.500618613E-1,7.825729394E0
1.069913754E1,-3.532934183E0,6.720213135E0,1.337492108E-1,7.593469390E0
1.070907554E1,-4.552937099E0,6.144702689E0,5.519807390E-1,7.667547854E0
1.071901454E1,-5.878762550E0,5.865284134E0,1.166100862E0,8.385773567E0
1.072895254E1,-6.097925549E0,6.454321529E0,1.813901020E0,9.062736855E0
1.073889054E1,-6.328632120E0,6.205635354E0,1.380672626E0,8.970381907E0
1.074882954E1,-6.338836096E0,6.080031899E0,1.045900819E0,8.845424776E0
1.075876754E1,-5.589037693E0,5.926984538E0,4.113275014E-2,8.146666800E0
1.076870654E1,-4.284396704E0,4.883781624E0,-4.640758916E-1,6.513274483E0
1.077864454E1,-2.621905532E0,3.325421469E0,-4.818994474E-1,4.262046884E0
1.078858254E1,-8.789335763E-1,1.198965138E0,-7.589931500E-1,1.669165131E0
1.079852154E1,7.919068345E-1,-9.820807993E-1,-9.682135427E-1,1.590294500E0
1.080845954E1,2.356555670E0,-3.198473740E0,-9.712657893E-1,4.089858936E0
1.081839854E1,3.718013761E0,-5.466606352E0,-7.891636133E-1,6.658092110E0
1.082833654E1,4.356510414E0,-7.523901232E0,-8.212718439E-1,8.732855214E0
1.083827454E1,4.390559628E0,-8.342947626E0,-9.151325190E-1,9.472024940E0
1.084821354E1,3.429615636E0,-7.828475094E0,-1.037835170E0,8.609552111E0
1.085815154E1,2.425237065E0,-6.901819468E0,-7.064851534E-1,7.349558358E0
1.086808954E1,1.797822639E0,-5.788851085E0,-1.093126003E-1,6.062582978E0
1.087802854E1,1.395638575E0,-4.572366520E0,6.671906948E-1,4.826954117E0
1.088796654E1,1.310747821E0,-3.147139279E0,1.772489870E0,3.842429678E0
1.089790554E1,1.740294515E0,-1.995892099E0,3.018491764E0,4.015408174E0
1.090784354E1,1.866338558E0,-6.634964240E-1,4.009611189E0,4.472183919E0
1.091778154E1,1.691032601E0,8.482801330E-1,4.462354081E0,4.846831375E0
1.092772054E1,1.471119112E0,2.562891923E0,4.541843469E0,5.418574402E0
1.093765854E1,9.438493645E-1,3.933931847E0,2.986571814E0,5.028546768E0
1.094759754E1,-6.566920191E-1,4.997146856E0,5.422708527E-1,5.069199028E0
1.095753554E1,-8.926239547E-1,5.581570798E0,2.443189625E-1,5.657773578E0
1.096747354E1,-2.588208613E-1,4.521741911E0,-1.449762157E0,4.755517686E0
1.097741254E1,-2.880543668E0,-2.117680246E-1,-7.715102845E0,8.238033105E0
1.098735054E1,-2.453732885E0,-6.937260026E0,-3.335471663E0,8.079093573E0
1.099728954E1,-1.218419409E-1,-8.384066416E0,3.519614518E-1,8.392335312E0
1.100722754E1,-1.319023385E0,-5.278264028E0,-2.890022589E0,6.160529555E0
1.101716554E1,-1.765382579E0,-3.307412045E0,-1.290655911E0,3.965014851E0
1.102710454E1,-1.308663873E0,-5.325275642E-1,-6.626566907E-1,1.560544978E0
1.103704254E1,-8.284276664E-1,5.414065611E-1,-2.345898242E0,2.546105266E0
1.104698154E1,-2.674171454E-1,1.313115066E-1,-2.340413554E0,2.359298676E0
1.105691954E1,-7.743973473E-1,-1.173694641E0,-2.737883885E0,3.077865905E0
1.106685754E1,-1.189559891E0,-2.588164174E0,-3.333205283E0,4.384507268E0
1.107679654E1,-1.768492713E0,-3.374535157E0,-3.169222459E0,4.955706306E0
1.108673454E1,-3.083627408E0,-3.283236147E0,-2.640677433E0,5.221261810E0
1.109667254E1,-4.756011191E0,-2.820733083E0,-1.743347347E0,5.797882161E0
1.110661154E1,-5.692243388E0,-1.998461366E0,-9.970483558E-1,6.114702612E0
1.111654954E1,-5.779354622E0,-9.619663775E-1,-7.158417948E-1,5.902435822E0
1.112648854E1,-5.681462291E0,4.033643246E-2,-7.238842745E-1,5.727534307E0
1.113642654E1,-5.086109319E0,1.226506108E0,-8.923658001E-1,5.307460971E0
1.114636454E1,-4.190937440E0,2.371487412E0,-1.073299849E0,4.933546568E0
1.115630354E1,-3.489822077E0,3.188991895E0,-7.419135793E-1,4.785286114E0
1.116624154E1,-2.803974671E0,3.638047532E0,-1.204840712E-1,4.594799257E0
1.117617954E1,-2.141128457E0,4.046252766E0,1.458413990E-1,4.580159630E0
1.118611854E1,-1.580333114E0,4.350174079E0,2.700081928E-1,4.636202292E0
1.119605654E1,-1.194209305E0,4.571146206E0,5.034793277E-1,4.751316126E0
1.120599554E1,-8.885142392E-1,4.864291100E0,5.424722162E-1,4.974440829E0
1.121593354E1,-8.021429703E-1,5.228865581E0,5.042874129E-1,5.314016786E0
1.122587254E1,-1.001972735E0,5.705271569E0,7.050046384E-1,5.835332431E0
1.123581054E1,-1.162739444E0,5.745401595E0,1.436937898E0,6.035428155E0
1.124574854E1,-9.404705510E-1,5.527497502E0,2.224922712E0,6.032246229E0
1.125568754E1,-6.015290943E-1,5.069702616E0,2.462370100E0,5.668067429E0
1.126562554E1,-2.321214513E-1,4.121256171E0,2.209657971E0,4.682010374E0
1.127556354E1,4.102216467E-2,2.570603816E0,1.415158627E0,2.934682391E0
1.128550254E1,5.225595233E-1,9.811949462E-1,1.129801201E0,1.585011903E0
1.129544054E1,1.279403822E0,-7.255108237E-1,9.380768470E-1,1.744485100E0
1.130537954E1,2.050736497E0,-2.630082278E0,1.081060127E0,3.505929829E0
1.131531754E1,2.811283106E0,-4.586524383E0,1.505757579E0,5.586306875E0
1.132525554E1,3.260136722E0,-5.780516464E0,2.020029552E0,6.937101803E0
1.133519454E1,3.668232028E0,-5.688850248E0,2.562180902E0,7.237659452E0
1.134513254E1,3.982337144E0,-4.785547816E0,2.673673271E0,6.775618480E0
1.135507154E1,3.826389856E0,-3.498928823E0,2.620820289E0,5.809686844E0
1.136500954E1,3.412320449E0,-2.210515319E0,2.600915197E0,4.826496523E0
1.137494754E1,2.888940269E0,-1.460853156E0,2.755703859E0,4.251349384E0
1.138488654E1,2.267048685E0,-1.343408321E0,2.929550936E0,3.940371092E0
1.139482454E1,1.337608760E0,-1.706864229E0,2.480153822E0,3.294502341E0
1.140476354E1,1.198465785E-1,-2.313688855E0,1.502694808E0,2.761450887E0
1.141470142E1,-1.146771721E0,-2.645177450E0,6.962073563E-1,2.965932199E0
1.142463942E1,-2.134674155E0,-2.584902012E0,1.193804093E-1,3.354519912E0
1.143457842E1,-1.593856408E0,-2.459042450E0,-8.379350929E-1,3.047852234E0
1.144451642E1,2.849301410E-1,-2.535704709E0,-2.157394681E0,3.341457072E0
1.145445442E1,1.461595460E0,-2.670546765E0,-3.665460448E0,4.764838046E0
1.146439342E1,1.173232419E0,-2.628497683E0,-4.613495250E0,5.437813237E0
1.147433142E1,1.915192629E-1,-2.019472166E0,-4.617438612E0,5.043380492E0
1.148427042E1,-7.382659400E-1,-1.202344828E0,-4.283463196E0,4.509847739E0
1.149420842E1,-1.298192387E0,-8.110298610E-1,-3.833309451E0,4.127630587E0
1.150414642E1,-1.334294851E0,-7.152618241E-1,-3.129255570E0,3.476231098E0
1.151408542E1,-9.020860653E-1,-6.223881590E-1,-2.444648359E0,2.679072953E0
1.152402342E1,-3.177435458E-2,-5.412042475E-1,-2.114992719E0,2.183370296E0
1.153396242E1,1.201373460E0,-3.976188505E-1,-1.463485719E0,1.934732381E0
1.154390042E1,2.536084194E0,6.750844359E-2,-5.534260976E-1,2.596644156E0
1.155383842E1,3.165204252E0,8.848965669E-1,-1.002948050E-1,3.288102635E0
1.156377742E1,3.789177591E0,1.506160306E0,-1.375989445E-1,4.079867541E0
1.157371542E1,4.393702506E0,2.164752086E0,-8.313512743E-1,4.968090000E0
1.158365442E1,4.360002079E0,2.531504070E0,-1.713355808E0,5.324821040E0
1.159359242E1,2.657178276E0,2.717405182E0,-1.889538263E0,4.244436612E0
1.160353042E1,1.388042603E0,2.782582340E0,-2.359473138E0,3.903401111E0
1.161346942E1,2.051606709E-1,2.325838199E0,-2.664874381E0,3.543045257E0
1.162340742E1,-1.411601181E0,2.149976172E0,-1.793758532E0,3.135695314E0
1.163334542E1,-3.335440089E0,1.918848016E0,-1.823325562E-1,3.852321826E0
1.164328442E1,-3.784094314E0,2.545630943E0,7.189809456E-3,4.560664246E0
1.165322242E1,-3.750182510E0,3.406064513E0,-1.465323937E-1,5.068196530E0
1.166316142E1,-3.408508649E0,3.870971952E0,-7.158402599E-2,5.158243823E0
1.167309942E1,-3.000675298E0,4.395561336E0,4.401164138E-1,5.340291580E0
1.168303742E1,-2.654018733E0,4.951119329E0,1.117475417E0,5.727665261E0
1.169297642E1,-1.537652533E0,4.420291550E0,1.139758059E0,4.816887079E0
1.170291442E1,-3.506192234E-1,3.468301692E0,8.970166755E-1,3.599540163E0
1.171285342E1,7.735375142E-1,1.939472900E0,2.580247629E-1,2.103923049E0
1.172279142E1,2.140882582E0,4.485048294E-2,1.283101308E-1,2.145193065E0
1.173272942E1,2.989034661E0,-2.371803746E0,1.100213194E-1,3.817313965E0
1.174266842E1,3.656218632E0,-4.754443552E0,1.903796041E-1,6.000742668E0
1.175260642E1,3.887325445E0,-6.417824963E0,1.205122840E-1,7.504285414E0
1.176254542E1,3.041362856E0,-7.021103252E0,-1.791844884E-1,7.653619142E0
1.177248342E1,1.243582901E0,-5.797389189E0,1.180810118E-1,5.930443741E0
1.178242142E1,2.997341216E-1,-4.864776419E0,1.036161697E-1,4.875102713E0
1.179236042E1,-8.348859161E-1,-3.899910992E0,6.173629888E-1,4.035774684E0
1.180229842E1,-1.504168160E0,-2.743088492E0,1.131105130E0,3.326628194E0
1.181223642E1,-1.695557176E0,-1.463634676E0,1.626150288E0,2.767942442E0
1.182217542E1,-1.512580257E0,9.824550211E-2,2.800135682E0,3.184071458E0
1.183211342E1,-1.000990110E0,1.517683414E0,4.474957169E0,4.830174512E0
1.184205242E1,-7.658259138E-1,2.820922533E0,5.832273678E0,6.523764980E0
1.185199042E1,-1.569637679E0,3.902926401E0,4.294638394E0,6.011698252E0
1.186192842E1,-2.459969526E0,4.692210467E0,1.907373440E0,5.630840308E0
1.187186742E1,-1.786818179E0,6.316127849E0,1.775778344E0,6.799969040E0
1.188180542E1,-1.084081968E0,6.764228636E0,-1.171036058E0,6.949917136E0
1.189174442E1,-1.675296866E0,8.548874867E-1,-5.976837898E0,6.265783548E0
1.190168242E1,2.478517771E-1,-6.224368663E0,2.203948750E0,6.607691416E0
1.191162042E1,8.257359007E-1,-5.703641950E0,2.232000036E0,6.180226163E0
1.192155942E1,6.450736016E-1,-2.839206777E0,-5.691621244E-1,2.966675007E0
1.193149742E1,1.615062359E-1,-4.991914183E-1,-2.872268542E-1,5.981434628E-1
1.194143642E1,7.546372667E-1,-3.528063744E-1,-2.214230640E0,2.365748733E0
1.195137442E1,8.982761657E-1,-9.074685735E-1,-2.944753697E0,3.209668771E0
1.196131242E1,8.992432952E-2,-1.940892604E0,-2.996576400E0,3.571361170E0
1.197125142E1,-5.722298661E-1,-3.264736726E0,-2.946924183E0,4.435122891E0
1.198118942E1,-9.754389471E-1,-4.211124952E0,-3.131980373E0,5.338010449E0
1.199112842E1,-2.039174359E0,-4.685582648E0,-3.267317687E0,6.065334425E0
1.200106642E1,-2.795882417E0,-4.947703970E0,-2.682204359E0,6.284182786E0
1.201100442E1,-2.912089396E0,-4.810316037E0,-1.708278086E0,5.876871536E0
1.202094342E1,-2.513591124E0,-4.386001139E0,-1.134078001E0,5.180856999E0
1.203088142E1,-1.803085425E0,-3.317624792E0,-1.207607907E0,3.964349653E0
1.204081942E1,-1.220773790E0,-2.008970566E0,-1.347377411E0,2.709552965E0
1.205075842E1,-1.033346847E0,-9.146314126E-1,-1.377632074E0,1.949929860E0
1.206069642E1,-1.113167481E0,-1.621175623E-1,-1.281341004E0,1.705068536E0
1.207063542E1,-1.202542172E0,3.522064501E-1,-8.678482787E-1,1.524243318E0
1.208057342E1,-1.238949275E0,8.158964986E-1,-3.678859051E-1,1.528405196E0
1.209051142E1,-1.693567661E0,1.362595375E0,1.784478123E-1,2.180981705E0
1.210045042E1,-2.037033693E0,2.156575339E0,2.608407819E-1,2.977979412E0
1.211038842E1,-2.159788092E0,2.994355043E0,1.757639404E-1,3.696179066E0
1.212032742E1,-2.126342896E0,3.708224060E0,1.183710337E-1,4.276245022E0
1.213026542E1,-2.087698355E0,4.398721756E0,-5.986379385E-2,4.869375852E0
1.214020342E1,-2.299297687E0,4.940457516E0,2.314129150E-1,5.454213257E0
1.215014242E1,-2.398186968E0,5.336705779E0,4.332938826E-1,5.866811135E0
1.216008042E1,-2.395618578E0,5.473821816E0,5.102901645E-1,5.996841644E0
1.217001942E1,-2.238428465E0,5.513802153E0,8.309317365E-1,6.008579177E0
1.217995742E1,-1.997029967E0,5.468927697E0,1.313348663E0,5.968432253E0
1.218989542E1,-1.672513592E0,5.291474057E0,1.621322973E0,5.781495273E0
1.219983442E1,-1.340359583E0,4.949241203E0,1.653754262E0,5.387620575E0
1.220977242E1,-1.060192730E0,4.439380955E0,1.654483410E0,4.854835450E0
1.221971142E1,-9.526757365E-1,3.772111908E0,1.945413086E0,4.349833489E0
1.222964942E1,-8.452262785E-1,2.875253692E0,1.976955599E0,3.590242985E0
1.223958742E1,-4.931293175E-1,1.997176732E0,1.972462452E0,2.849999921E0
1.224952642E1,2.069643907E-1,9.140145314E-1,1.835808198E0,2.061176500E0
1.225946442E1,1.112816209E0,-5.885064679E-1,1.676616583E0,2.096602715E0
1.226940242E1,2.002517725E0,-2.499071903E0,1.800180821E0,3.673702302E0
1.227934142E1,2.846035155E0,-4.190024689E0,1.974300378E0,5.436366892E0
1.228927942E1,3.661389617E0,-4.940915937E0,2.419278460E0,6.608428897E0
1.229921842E1,4.479204294E0,-4.983226390E0,2.576559205E0,7.178751542E0
1.230915642E1,5.160229209E0,-4.511087115E0,2.659153173E0,7.351800327E0
1.231909442E1,5.265088497E0,-3.700578241E0,2.486656803E0,6.899195478E0
1.232903342E1,4.480575759E0,-3.038397440E0,1.778053349E0,5.698148107E0
1.233897142E1,3.084068288E0,-2.626201481E0,1.116771704E0,4.201855597E0
1.234891042E1,1.151499926E0,-2.585766231E0,1.104018635E0,3.038255458E0
1.235884842E1,6.188181415E-2,-2.662082335E0,3.689783111E-1,2.688244169E0
1.236878642E1,4.838557796E-1,-2.996585171E0,-5.295868532E-1,3.081249963E0
1.237872542E1,1.349462090E0,-4.269103603E0,-1.080892458E0,4.605933349E0
1.238866342E1,1.870372698E0,-5.095380664E0,-1.911991571E0,5.754729351E0
1.239860242E1,1.412637746E0,-4.621303037E0,-2.771229386E0,5.570610332E0
1.240854071E1,6.909863774E-1,-3.455224394E0,-2.992358511E0,4.622796475E0
1.241847871E1,3.418108316E-1,-2.166048998E0,-3.059488932E0,3.764183236E0
1.242841771E1,2.309825599E-1,-1.231805440E0,-3.110000981E0,3.353029032E0
1.243835571E1,-1.959621236E-2,-6.334382272E-1,-2.702065011E0,2.775388860E0
1.244829371E1,-9.051913753E-2,-3.250625056E-1,-2.169609660E0,2.195692470E0
1.245823271E1,6.161678910E-2,-1.721560621E-1,-1.900125232E0,1.908902888E0
1.246817071E1,1.906136754E-1,-1.513259411E-1,-1.777138406E0,1.793726297E0
1.247810971E1,4.128742361E-1,-1.559534276E-1,-1.619672889E0,1.678727754E0
1.248804771E1,6.257568862E-1,-4.051184893E-2,-1.315713423E0,1.457502899E0
1.249798571E1,8.847598882E-1,2.510320777E-1,-4.367965110E-1,1.018139654E0
1.250792471E1,1.534657589E0,8.923622918E-1,3.193548922E-1,1.803738319E0
1.251786271E1,1.766620142E0,1.450493644E0,5.095848441E-2,2.286367273E0
1.252780171E1,2.144913653E0,2.041900331E0,-7.284668836E-1,3.049700893E0
1.253773971E1,2.214819601E0,2.691434773E0,-1.337396068E0,3.733346387E0
1.254767771E1,1.473616020E0,3.260896860E0,-1.602632786E0,3.920895861E0
1.255761671E1,9.300255235E-1,3.103191606E0,-1.775208825E0,3.694064427E0
1.256755471E1,-5.907117453E-1,2.875118036E0,-1.403433498E0,3.253439668E0
1.257749371E1,-2.483836106E0,3.525202117E0,-7.275327909E-1,4.373304898E0
1.258743171E1,-3.380998962E0,3.693960362E0,2.835526101E-1,5.015665381E0
1.259736971E1,-3.281725227E0,4.330192389E0,-2.821163877E-1,5.440576830E0
1.260730871E1,-3.134927369E0,4.686825766E0,-8.144995987E-1,5.697149723E0
1.261724671E1,-3.160731424E0,5.159393057E0,-2.188894947E-1,6.054541475E0
1.262718571E1,-3.468724738E0,5.704012079E0,2.017734519E-1,6.678960819E0
1.263712371E1,-3.318231148E0,5.762645618E0,-2.100305244E-2,6.649750642E0
1.264706171E1,-2.984220064E0,5.499862976E0,3.526210177E-1,6.267248497E0
1.265700071E1,-2.436266668E0,4.872584206E0,7.255132357E-1,5.495802177E0
1.266693871E1,-1.832868511E0,3.694375514E0,6.261608557E-1,4.171318117E0
1.267687771E1,-1.120204897E0,2.194785724E0,1.615585685E-2,2.464184327E0
1.268681571E1,2.631878543E-1,1.422396603E0,2.856423318E-1,1.474473291E0
1.269675371E1,9.986333898E-1,2.601771230E-1,4.364081097E-1,1.120452061E0
1.270669271E1,1.615113522E0,-1.850960673E0,-1.568902246E-1,2.461556752E0
1.271663071E1,2.045424155E0,-3.913753105E0,-4.628293383E-1,4.440206565E0
1.272656871E1,2.270668550E0,-5.798332345E0,-7.709951448E-1,6.274633628E0
1.273650771E1,2.351170676E0,-6.947731805E0,-1.002833737E0,7.403016702E0
1.274644571E1,2.163006107E0,-7.205757152E0,-9.861317503E-1,7.587752460E0
1.275638471E1,1.792915948E0,-6.838459039E0,-8.220273042E-1,7.117218453E0
1.276632271E1,1.557986518E0,-6.303459272E0,-5.880181523E-1,6.519715188E0
1.277626071E1,1.308180309E0,-5.794336942E0,7.379069209E-2,5.940633080E0
1.278619971E1,1.172347735E0,-4.514942184E0,9.374841587E-1,4.757938491E0
1.279613771E1,2.047964770E0,-3.887791468E0,1.735767016E0,4.724613141E0
1.280607671E1,2.297859272E0,-3.080305604E0,3.170145149E0,4.981792862E0
1.281601471E1,1.968714533E0,-1.639350523E0,4.647416117E0,5.306767718E0
1.282595271E1,9.888024661E-1,5.802624786E-1,3.958398936E0,4.121086871E0
1.283589171E1,1.011651923E0,2.056068134E0,1.342671572E0,2.655865723E0
1.284582971E1,1.318564671E0,3.299381479E0,1.170624268E-1,3.555029472E0
1.285576871E1,1.316359686E0,2.613453966E0,-2.431424442E0,3.804572154E0
1.286570671E1,-1.703747956E0,-2.241962814E0,-6.553164032E0,7.132539042E0
1.287564471E1,-1.746554545E0,-6.649201625E0,-9.396077943E-1,6.938674069E0
1.288558371E1,1.258474883E0,-6.044022406E0,2.363056312E0,6.610446355E0
1.289552171E1,2.445191565E-1,-2.159550987E0,1.162213487E0,2.464587242E0
1.290546071E1,-1.543733345E0,6.580286926E-1,1.763136663E0,2.434084077E0
1.291539871E1,-1.421111678E0,2.571894881E0,6.896475112E-1,3.018247069E0
1.292533671E1,-2.680848974E-1,3.100170350E0,-7.818966937E-1,3.208471311E0
1.293527571E1,2.618026489E-1,2.587481804E0,-1.855068927E0,3.194508325E0
1.294521371E1,3.101714015E-2,1.426833470E0,-2.322698975E0,2.726122951E0
1.295515271E1,-1.039886373E-1,-1.977937639E-1,-2.168708897E0,2.180191342E0
1.296509071E1,-3.676398835E-1,-1.788384941E0,-2.253868769E0,2.900586873E0
1.297502871E1,-1.763111228E0,-2.940593403E0,-2.057628025E0,3.998685266E0
1.298496771E1,-3.717485757E0,-3.296052074E0,-7.743466227E-1,5.028247441E0
1.299490571E1,-5.123803979E0,-3.018181277E0,3.633366251E-1,5.957751165E0
1.300484371E1,-5.110950630E0,-1.721535478E0,6.367079902E-1,5.430552256E0
1.301478271E1,-4.407873234E0,1.684278774E-1,6.281219387E-1,4.455586557E0
1.302472071E1,-3.664037528E0,1.854170210E0,2.483989303E-1,4.113978634E0
1.303465971E1,-2.998692507E0,2.999155022E0,-3.741259074E-1,4.257588260E0
1.304459771E1,-2.640743214E0,3.724717301E0,-5.467323513E-1,4.598473656E0
1.305453571E1,-2.493788652E0,4.072539509E0,-2.132080476E-1,4.780169198E0
1.306447471E1,-2.224493673E0,4.017539429E0,1.899514782E-1,4.596202425E0
1.307441271E1,-1.781283790E0,3.764696469E0,3.326669557E-1,4.178107077E0
1.308435171E1,-1.453717214E0,3.776123098E0,4.536984725E-1,4.071638698E0
1.309428971E1,-1.025995728E0,3.856912907E0,5.787736313E-1,4.032793488E0
1.310422771E1,-6.796867794E-1,3.877679293E0,6.163446231E-1,3.984752378E0
1.311416671E1,-5.464392596E-1,3.864600241E0,2.774971604E-1,3.912893503E0
1.312410471E1,-7.939501441E-1,3.996793508E0,7.647821859E-2,4.075605979E0
1.313404371E1,-7.432591698E-1,3.795618884E0,3.484048828E-1,3.883367465E0
1.314398171E1,-6.169574113E-1,3.328282512E0,8.629247770E-1,3.493242061E0
1.315391971E1,-6.576053542E-1,3.101835052E0,1.366916613E0,3.452866421E0
1.316385871E1,-5.696035892E-1,3.051375920E0,1.502962610E0,3.448802671E0
1.317379671E1,-2.355856343E-1,2.827516438E0,1.305430655E0,3.123219332E0
1.318373571E1,1.874864383E-1,2.203406274E0,1.437032476E0,2.637273727E0
1.319367371E1,5.329523644E-1,1.498037354E0,1.290491897E0,2.047809433E0
1.320361171E1,7.540478674E-1,6.396883160E-1,1.183043754E0,1.541876082E0
1.321355071E1,1.076575897E0,-4.034198731E-1,1.173268671E0,1.642657186E0
1.322348871E1,1.551722688E0,-1.472611907E0,1.056357980E0,2.385858610E0
1.323342771E1,1.982229203E0,-2.504935491E0,1.141468589E0,3.392179973E0
1.324336571E1,2.378383910E0,-3.433715411E0,1.373019791E0,4.396850566E0
1.325330371E1,2.914769760E0,-3.873644714E0,1.493963892E0,5.072763964E0
1.326324271E1,3.353476410E0,-3.643862003E0,1.515027317E0,5.178691157E0
1.327318071E1,3.521754599E0,-3.220181528E0,1.806191759E0,5.102416407E0
1.328311871E1,3.501052532E0,-2.634928451E0,2.363508886E0,4.978593278E0
1.329305771E1,3.347537101E0,-2.067062069E0,3.002735272E0,4.949259475E0
1.330299571E1,3.120946092E0,-1.553667179E0,3.568532909E0,4.988848899E0
1.331293471E1,3.096484850E0,-1.346884491E0,3.717834836E0,5.022410987E0
1.332287271E1,2.902241516E0,-1.194272162E0,3.282783573E0,4.541581200E0
1.333281071E1,2.165770671E0,-1.255392523E0,2.709638910E0,3.688999323E0
1.334274971E1,9.922320043E-1,-1.805854082E0,1.461038366E0,2.525918927E0
1.335268771E1,3.786072135E-2,-2.098335902E0,3.631775808E-1,2.129869702E0
1.336262671E1,-1.199715628E-1,-2.891508951E0,-4.660640180E-1,2.931285189E0
1.337256471E1,6.375900427E-1,-3.930844517E0,-1.273288219E0,4.180827976E0
1.338250271E1,1.350781368E0,-4.334433959E0,-2.619920110E0,5.241746792E0
1.339244171E1,9.300834109E-1,-3.961343594E0,-3.843906945E0,5.597581515E0
1.340237971E1,4.992162690E-2,-3.198714645E0,-3.772735513E0,4.946493789E0
1.341231871E1,-3.864195322E-1,-2.278042474E0,-3.059431337E0,3.833916753E0
1.342225671E1,-6.620702881E-1,-1.736570424E0,-2.517626288E0,3.129290020E0
1.343219471E1,-6.067382325E-1,-1.553388852E0,-2.131976396E0,2.706745566E0
1.344213371E1,-5.027304456E-1,-1.446853167E0,-1.805186184E0,2.367449925E0
1.345207171E1,-3.408036487E-1,-1.398692576E0,-1.768866935E0,2.280653038E0
1.346201071E1,-1.761052716E-1,-1.477214835E0,-1.916217939E0,2.425915894E0
1.347194871E1,8.523807853E-2,-1.451423936E0,-2.066259977E0,2.526524741E0
1.348188671E1,2.532437870E-1,-1.258014414E0,-2.178090023E0,2.528004911E0
1.349182571E1,2.672949386E-1,-7.994102740E-1,-2.202767612E0,2.358535250E0
1.350176371E1,3.337136073E-1,-1.638857603E-1,-1.912061738E0,1.947871506E0
1.351170271E1,4.731445576E-1,3.857671291E-1,-7.838286138E-1,9.935136366E-1
1.352164071E1,6.785364859E-1,1.079670829E0,-3.096812586E-1,1.312251250E0
1.353157871E1,8.490041645E-1,1.824509039E0,-6.273746645E-1,2.107899493E0
1.354151771E1,1.114812010E0,2.437871436E0,-1.217924734E0,2.944378307E0
1.355145571E1,1.060240239E0,2.915026453E0,-1.443436639E0,3.421256774E0
1.356139471E1,1.653440559E-1,3.296312860E0,-1.433847206E0,3.598462858E0
1.357133271E1,-4.559500891E-1,3.629092521E0,-1.403730391E0,3.917736849E0
1.358127071E1,-1.295303278E0,3.588290650E0,-1.288487763E0,4.026641416E0
1.359120971E1,-2.553715303E0,3.959388285E0,-4.936745703E-1,4.737291633E0
1.360114771E1,-3.432185780E0,4.466052445E0,1.424976687E-1,5.634343728E0
1.361108571E1,-3.409486304E0,4.573640043E0,-1.251046872E-1,5.705999587E0
1.362102471E1,-3.008020863E0,5.032621329E0,-2.399381554E-1,5.867967047E0
1.363096271E1,-3.161718727E0,5.477175195E0,3.607908205E-1,6.334515249E0
1.364090171E1,-3.291419910E0,5.461905191E0,4.297317588E-1,6.391441365E0
1.365083971E1,-3.293168228E0,5.195394364E0,2.164091058E-1,6.154990859E0
1.366077771E1,-2.879508711E0,4.978402437E0,-1.207040727E-1,5.752445629E0
1.367071671E1,-2.404115752E0,4.294203946E0,-9.236137591E-2,4.922244478E0
1.368065471E1,-2.009507341E0,3.299096720E0,-1.789599553E-1,3.867064207E0
1.369059371E1,-1.517040805E0,2.784037127E0,-1.110935891E-1,3.172478104E0
1.370053171E1,-1.207360570E0,2.147916198E0,7.113722563E-2,2.465020090E0
1.371046971E1,-9.074560019E-1,6.076063979E-1,-1.451596136E-1,1.101695622E0
1.372040871E1,-3.764785346E-1,-1.602701930E0,-3.448324534E-1,1.682052016E0
1.373034671E1,5.044831485E-1,-4.322600949E0,-3.449599957E-1,4.365590408E0
1.374028571E1,1.546193268E0,-6.962643959E0,-2.933266696E-1,7.138288664E0
1.375022371E1,2.265071011E0,-8.324821842E0,-6.395064676E-1,8.651137146E0
1.376016171E1,2.543877947E0,-8.238797606E0,-1.192915024E0,8.704719826E0
1.377010071E1,2.581479345E0,-7.513316603E0,-1.493011672E0,8.083504551E0
1.378003871E1,2.361602401E0,-6.834299914E0,-1.238433259E0,7.336111924E0
1.378997771E1,2.378756378E0,-6.314598802E0,-3.671547838E-1,6.757769053E0
1.379991571E1,3.074479731E0,-5.957051505E0,8.670824397E-1,6.759491121E0
1.380985371E1,3.196298283E0,-4.833221335E0,3.422491096E0,6.729769423E0
1.381979271E1,3.376327621E0,-3.423641244E0,5.546382254E0,7.340522031E0
1.382973071E1,2.148149502E0,-1.248686351E0,5.852938907E0,6.358510654E0
1.383966971E1,6.099014300E-1,1.144970779E0,4.353873028E0,4.543032927E0
1.384960771E1,3.840746525E-1,3.251886885E0,2.780793092E0,4.295938998E0
1.385954571E1,6.031461418E-1,5.414046900E0,1.056705304E0,5.549082375E0
1.386948471E1,1.559774011E-1,4.782463410E0,-2.339370557E0,5.326250071E0
1.387942271E1,-1.717399450E0,-7.455316901E-1,-3.030346117E0,3.562060634E0
1.388936171E1,1.089948187E0,-5.679987624E0,2.371215370E0,6.250832648E0
1.389929971E1,4.669923804E0,-7.097661431E0,1.257959743E0,8.588797869E0
1.390923771E1,2.865672152E0,-3.972197780E0,8.958973722E-1,4.979263418E0
1.391917671E1,9.211963740E-1,-6.756808519E-1,1.724465664E0,2.068557275E0
1.392911471E1,7.577172875E-2,1.404520496E0,3.551880915E-1,1.450716291E0
1.393905371E1,-3.044142330E-1,1.886912279E0,-2.562106642E-1,1.928406046E0
1.394899171E1,-2.023619011E-1,1.603322904E0,-1.363731050E0,2.114558358E0
1.395892971E1,-2.226587561E-1,1.045095073E0,-2.474186153E0,2.695069156E0
1.396886871E1,-3.076380953E-1,-4.402953386E-2,-2.461958456E0,2.481495363E0
1.397880671E1,-4.836234990E-1,-1.242284235E0,-2.198253562E0,2.570890999E0
1.398874571E1,-1.762567729E0,-2.049188300E0,-1.553713957E0,3.117666556E0
1.399868371E1,-3.455972838E0,-2.304032178E0,-6.456833200E-1,4.203477071E0
1.400862171E1,-4.627954245E0,-2.024433528E0,1.162050788E-1,5.052701774E0
1.401856071E1,-5.049267182E0,-1.197174135E0,4.962717573E-1,5.212927263E0
1.402849871E1,-4.578639120E0,4.056505859E-2,1.707715876E-1,4.582002254E0
1.403843671E1,-4.159103736E0,1.385884250E0,-2.207068093E-1,4.389479529E0
1.404837571E1,-3.806364312E0,2.660226429E0,-6.865287526E-1,4.694308859E0
1.405831371E1,-3.466488763E0,3.536192544E0,-1.075805527E0,5.067401659E0
1.406825271E1,-3.138449732E0,4.021394498E0,-9.659799063E-1,5.191781738E0
1.407819071E1,-2.817707442E0,4.172246230E0,-4.282271241E-1,5.052770755E0
1.408812871E1,-2.486931622E0,4.206444256E0,-1.026605885E-1,4.887692847E0
1.409806771E1,-2.066279712E0,4.124959213E0,-4.678708076E-2,4.613782546E0
1.410800571E1,-1.763317635E0,4.023165035E0,1.983287841E-2,4.392668816E0
1.411794471E1,-1.460986619E0,3.976428241E0,-9.482283443E-2,4.237387736E0
1.412788271E1,-1.301284249E0,3.777821129E0,-1.437454645E-1,3.998241606E0
1.413782071E1,-1.320452445E0,3.573428782E0,-1.084048931E-1,3.811133629E0
1.414775971E1,-1.189008206E0,3.361156143E0,-4.965894073E-2,3.565610346E0
1.415769771E1,-1.264142442E0,3.172542508E0,7.121452582E-1,3.488586096E0
1.416763671E1,-1.344850829E0,3.076038306E0,1.606255867E0,3.721651962E0
1.417757471E1,-9.589595930E-1,3.113070477E0,2.087952709E0,3.869154664E0
1.418751271E1,-5.876728012E-1,3.104237089E0,2.083002895E0,3.784250029E0
1.419745171E1,-2.354793611E-1,2.725043399E0,1.989594648E0,3.382277180E0
1.420738971E1,2.285806699E-1,1.911460644E0,2.020748759E0,2.790941860E0
1.421732871E1,7.959514998E-1,8.623157895E-1,2.199989454E0,2.493407489E0
1.422726671E1,1.430195766E0,-4.338569695E-1,2.173595122E0,2.637841457E0
1.423720471E1,2.119318197E0,-1.857010787E0,2.044579671E0,3.481422800E0
1.424714371E1,2.915614682E0,-3.093649535E0,1.643366683E0,4.557645278E0
1.425708171E1,3.239470907E0,-4.401829551E0,1.343535790E0,5.628087027E0
1.426702071E1,3.752688627E0,-5.213300292E0,1.512938253E0,6.599254051E0
1.427695871E1,4.285712619E0,-5.288924671E0,1.560460474E0,6.983916790E0
1.428689671E1,4.493494012E0,-4.751973689E0,1.709284100E0,6.759762903E0
1.429683571E1,4.011734606E0,-4.116586000E0,1.894656185E0,6.052273697E0
1.430677371E1,3.082264129E0,-3.567025496E0,2.017985219E0,5.127990581E0
1.431671271E1,2.128979113E0,-3.004904589E0,2.202654907E0,4.291117837E0
1.432665071E1,1.252537327E0,-2.415712827E0,2.233876115E0,3.520613685E0
1.433658871E1,1.458624490E-2,-1.890118892E0,1.550965912E0,2.445047534E0
1.434652771E1,-1.387208790E0,-1.273150517E0,6.572454581E-1,1.994299892E0
1.435646571E1,-2.336071119E0,-3.174523544E-1,4.843751585E-1,2.406786979E0
1.436640471E1,-2.206197735E0,4.342639357E-1,1.956595302E-2,2.248616561E0
1.437634271E1,-4.132765245E-1,1.649938077E-1,-6.324675894E-1,7.733276756E-1
1.438628071E1,1.876244618E0,-4.406865174E-1,-1.146066255E0,2.242312720E0
1.439621971E1,2.248989998E0,-9.369309390E-1,-1.904852413E0,3.092613508E0
1.440615771E1,1.613620436E0,-1.129407245E0,-1.907088389E0,2.741590370E0
1.441609654E1,8.553106789E-1,-9.175567746E-1,-1.899582318E0,2.276374261E0
1.442603454E1,2.955660801E-1,-8.351619047E-1,-2.165347771E0,2.339569551E0
1.443597254E1,-6.943656296E-2,-9.760020339E-1,-2.310911281E0,2.509524328E0
1.444591154E1,-1.480808826E-1,-1.307742060E0,-2.308469922E0,2.657282564E0
1.445584954E1,6.751195192E-3,-1.657076942E0,-2.436781515E0,2.946837919E0
1.446578754E1,3.187323099E-1,-1.875305555E0,-2.557697257E0,3.187503172E0
1.447572654E1,7.900655463E-1,-2.044132213E0,-2.385007929E0,3.238972505E0
1.448566454E1,1.414604457E0,-1.834539937E0,-1.849036793E0,2.964047843E0
1.449560354E1,2.084665843E0,-1.179349483E0,-1.551269821E0,2.853617868E0
1.450554154E1,2.230206549E0,-2.375109762E-1,-1.394729479E0,2.641117762E0
1.451547954E1,1.919325588E0,2.893132138E-1,-1.151556498E0,2.256899469E0
1.452541854E1,1.656747598E0,1.456045575E0,-8.791290195E-1,2.374394481E0
1.453535654E1,1.131798902E0,2.460861518E0,-1.287916929E0,2.999256272E0
1.454529554E1,4.164289047E-1,3.127477432E0,-1.310592431E0,3.416457323E0
1.455523354E1,-3.184972519E-1,3.406901835E0,-1.273275647E0,3.650979524E0
1.456517154E1,-1.031538157E0,3.862549038E0,-1.242813115E0,4.186638327E0
1.457511054E1,-1.709492553E0,3.777791893E0,-4.357883048E-1,4.169410968E0
1.458504854E1,-3.130690477E0,3.812312100E0,4.641812146E-1,4.954837092E0
1.459498754E1,-3.749314198E0,4.179026077E0,4.981817503E-1,5.636470613E0
1.460492554E1,-3.643117068E0,4.471916032E0,-4.722328305E-2,5.768237600E0
1.461486354E1,-3.259774779E0,4.221030720E0,-7.953007778E-1,5.392192066E0
1.462480254E1,-2.786713398E0,4.075898734E0,-5.949951231E-1,4.973202314E0
1.463474054E1,-2.327450861E0,3.573491932E0,-8.325476146E-1,4.345113075E0
1.464467954E1,-1.611175130E0,2.605276051E0,-1.369275234E0,3.355333555E0
1.465461754E1,-7.722987816E-1,1.481723623E0,-1.362491294E0,2.155999265E0
1.466455554E1,-1.059983253E-1,1.605265349E-1,-1.013111900E0,1.031212943E0
1.467449454E1,4.040437710E-1,-1.091017935E0,-6.024374592E-1,1.310153577E0
1.468443254E1,9.595476767E-1,-2.148840643E0,-3.267014802E-1,2.375917025E0
1.469437154E1,1.343386979E0,-3.156283740E0,-2.728837804E-1,3.441116269E0
1.470430954E1,1.504780071E0,-4.223237459E0,-2.719048103E-1,4.491550949E0
1.471424754E1,1.588781171E0,-5.504809136E0,-3.778201052E-1,5.741941942E0
1.472418654E1,1.597049719E0,-6.301647804E0,-2.525797626E-1,6.505776617E0
1.473412454E1,1.532051193E0,-6.697996055E0,-1.201637169E-1,6.872028181E0
1.474406354E1,1.290308002E0,-6.320143132E0,1.937635705E-2,6.450541016E0
1.475400154E1,3.005816755E-1,-4.568220259E0,3.566124002E-1,4.591966690E0
1.476393954E1,5.018355292E-1,-3.436612122E0,3.171110963E-1,3.487506448E0
1.477387854E1,5.773479339E-1,-2.565148948E0,7.182039969E-1,2.725644281E0
1.478381654E1,9.783827278E-1,-1.796571627E0,1.723262161E0,2.674796226E0
1.479375554E1,1.686706538E0,-1.008914841E0,3.499505943E0,4.013655435E0
1.480369354E1,1.884950538E0,9.014535427E-2,5.186890758E0,5.519510889E0
1.481363154E1,7.972684389E-1,1.771571272E0,5.705827639E0,6.027484615E0
1.482357054E1,-7.771706817E-1,3.661769686E0,3.435671890E0,5.080983451E0
1.483350854E1,-9.841656241E-1,5.486385729E0,1.616991502E0,5.803763594E0
1.484344754E1,-1.005616427E0,6.905573380E0,-3.437880675E-1,6.986873288E0
1.485338554E1,-1.880940225E0,2.989867305E0,-5.256435202E0,6.333036686E0
1.486332354E1,-7.441406375E-1,-3.126124971E0,7.128482397E-1,3.291588558E0
1.487326254E1,1.011557783E0,-3.773225217E0,1.997761162E0,4.387656248E0
1.488320054E1,4.219426829E-1,-2.176566385E0,-3.018297637E-1,2.237538393E0
1.489313954E1,-8.422387898E-1,-6.038109702E-1,1.317159001E0,1.675965901E0
1.490307754E1,-5.733270961E-1,1.017544747E0,8.398575112E-2,1.170963226E0
1.491301554E1,5.474300703E-1,1.038345632E0,-1.321707111E0,1.767696530E0
1.492295454E1,8.731778696E-1,-2.143770522E-1,-1.810441808E0,2.021409570E0
1.493289254E1,3.863606215E-1,-2.013096946E0,-2.844422493E0,3.506076606E0
1.494283154E1,8.113859564E-2,-3.247893237E0,-2.787654215E0,4.280935642E0
1.495276954E1,-8.532119671E-1,-3.943156414E0,-2.459106184E0,4.724791677E0
1.496270754E1,-2.323393478E0,-4.230666931E0,-1.947687653E0,5.204823449E0
1.497264654E1,-3.812408579E0,-3.710220884E0,-7.584245083E-1,5.373584085E0
1.498258454E1,-4.418433890E0,-2.373640941E0,2.128386497E-3,5.015648900E0
1.499252354E1,-4.262039290E0,-7.447697979E-1,-9.242445275E-2,4.327609414E0
1.500246154E1,-3.643270557E0,6.893282533E-1,-3.550196917E-1,3.724866813E0
1.501239954E1,-2.976578630E0,1.813928502E0,-8.500274272E-1,3.587882882E0
1.502233854E1,-2.540597367E0,2.594987290E0,-1.077442016E0,3.788070131E0
1.503227654E1,-1.954684432E0,2.961159230E0,-1.129397743E0,3.723545954E0
1.504221554E1,-1.544419515E0,3.082636304E0,-9.296847770E-1,3.571021144E0
1.505215354E1,-1.191287451E0,3.251388118E0,-7.155952616E-1,3.535925206E0
1.506209154E1,-1.129802517E0,3.446171150E0,-5.730353200E-1,3.671637074E0
1.507203054E1,-1.115580042E0,3.826523173E0,-4.216355579E-1,4.008063743E0
1.508196854E1,-1.051632552E0,4.191228046E0,-2.639270885E-1,4.329200974E0
1.509190754E1,-1.071031567E0,4.443612585E0,-3.528794646E-2,4.571000620E0
1.510184554E1,-1.119654089E0,4.708527707E0,1.238756025E-1,4.841405128E0
1.511178354E1,-1.227038789E0,4.934296305E0,3.724606204E-1,5.098198812E0
1.512172254E1,-1.155160429E0,5.282996179E0,7.548183842E-1,5.460237636E0
1.513166054E1,-1.063016204E0,5.475875359E0,1.480558273E0,5.771244856E0
1.514159954E1,-1.017180319E0,5.730297652E0,1.904743655E0,6.123643962E0
1.515153754E1,-9.730098675E-1,5.811107342E0,1.995485425E0,6.220745841E0
1.516147554E1,-1.027369531E0,5.389635944E0,1.618133609E0,5.720316437E0
1.517141454E1,-1.043370729E0,4.130544473E0,1.233797586E0,4.435344023E0
1.518135254E1,-8.385733165E-1,2.426862883E0,1.337853466E0,2.895292828E0
1.519129154E1,-3.788207830E-1,5.741012675E-1,1.626303631E0,1.765774887E0
1.520122954E1,4.166522683E-1,-1.427007133E0,1.539858395E0,2.140353323E0
1.521116754E1,1.492826462E0,-3.509802305E0,1.191669713E0,3.995912883E0
1.522110654E1,2.586129343E0,-5.543194352E0,8.550526705E-1,6.176259683E0
1.523104454E1,3.437576913E0,-6.927992774E0,8.653646739E-1,7.782215297E0
1.524098354E1,4.102506489E0,-7.183353546E0,1.135710397E0,8.349908129E0
1.525092154E1,4.763119651E0,-6.648606963E0,1.287393457E0,8.279412133E0
1.526085954E1,5.120068778E0,-5.732710798E0,1.482733437E0,7.827999478E0
1.527079854E1,4.703217266E0,-4.754264628E0,1.831634456E0,6.933842339E0
1.528073654E1,3.900134355E0,-3.946961782E0,2.115400709E0,5.938389972E0
1.529067554E1,2.994269089E0,-3.350548709E0,2.172140335E0,4.990993655E0
1.530061354E1,1.975776800E0,-2.922583394E0,1.927245056E0,4.019883228E0
1.531055154E1,7.726972693E-1,-2.708958294E0,1.326691132E0,3.113779932E0
1.532049054E1,-6.728164472E-1,-2.369242081E0,9.595728198E-1,2.643249895E0
1.533042854E1,-1.252726339E0,-1.554053096E0,3.670765042E-1,2.029568788E0
1.534036754E1,-4.618759498E-1,-1.026360009E0,-9.326615945E-2,1.129355054E0
1.535030554E1,1.116298957E0,-1.237723991E0,-3.975299728E-1,1.713509299E0
1.536024354E1,2.069864786E0,-1.123128505E0,-9.366650368E-1,2.534383408E0
1.537018254E1,1.499120697E0,-6.915484411E-1,-1.186356494E0,2.032988894E0
1.538012054E1,7.893565714E-1,-3.639090675E-1,-9.795919320E-1,1.309623595E0
1.539005954E1,2.441696392E-1,6.063796520E-2,-7.573889664E-1,7.980813379E-1
1.539999754E1,-1.789440948E-1,3.487975234E-1,-7.106936869E-1,8.116441449E-1
1.540993508E1,-2.727232012E-1,4.697354847E-1,-8.038363239E-1,9.701454560E-1
1.541987408E1,-2.663944674E-1,1.359506875E-1,-1.109401581E0,1.149008473E0
1.542981208E1,-1.704995459E-1,-4.075784129E-1,-1.557327390E0,1.618783141E0
1.543975108E1,1.209772839E-1,-1.052154416E0,-2.045389803E0,2.303320183E0
1.544968908E1,5.763316879E-1,-1.610570528E0,-2.398401415E0,2.945916663E0
1.545962708E1,1.251360721E0,-1.772612661E0,-2.559906335E0,3.355768130E0
1.546956608E1,1.757508572E0,-1.576254973E0,-2.465651557E0,3.413627649E0
1.547950408E1,1.928063374E0,-1.120874988E0,-2.072411102E0,3.044450179E0
1.548944308E1,1.956301041E0,-4.791763991E-1,-1.641819803E0,2.598518048E0
1.549938108E1,1.663437982E0,5.026968241E-1,-1.403156486E0,2.233512512E0
1.550931908E1,1.416122395E0,1.592337740E0,-1.512889867E0,2.613384370E0
1.551925808E1,1.010665205E0,2.494729176E0,-1.714812934E0,3.191504539E0
1.552919608E1,1.310147604E-1,3.188546337E0,-1.513777474E0,3.532069486E0
1.553913508E1,-5.561780897E-1,3.380620939E0,-1.257148003E0,3.649431888E0
1.554907308E1,-1.692663974E0,3.513656205E0,-7.706187303E-1,3.975518140E0
1.555901108E1,-3.050804062E0,4.022083300E0,5.528378677E-1,5.078404199E0
1.556895008E1,-3.602597910E0,4.402833518E0,1.059955041E0,5.786809084E0
1.557888808E1,-3.317884116E0,4.822733769E0,2.705647746E-1,5.860061545E0
1.558882708E1,-2.904389783E0,4.953310280E0,-5.013039442E-1,5.763858811E0
1.559876508E1,-2.969672776E0,5.166459417E0,-2.217252481E-1,5.963255939E0
1.560870308E1,-2.992346232E0,5.098361574E0,-6.665475011E-2,5.912010620E0
1.561864208E1,-2.690380520E0,4.786489803E0,-3.550640575E-1,5.502245220E0
1.562858008E1,-2.321382036E0,4.333190841E0,-6.051517367E-1,4.952935094E0
1.563851908E1,-1.972237188E0,3.484872701E0,-6.134876005E-1,4.050978191E0
1.564845708E1,-1.417753037E0,2.534248168E0,-3.114731379E-1,2.920522721E0
1.565839508E1,-7.850144291E-1,1.701557881E0,5.461416364E-2,1.874707866E0
1.566833408E1,1.611492634E-2,4.051874864E-1,3.958323799E-2,4.074351761E-1
1.567827208E1,7.314515948E-1,-1.261782360E0,-2.824914135E-2,1.458737185E0
1.568821108E1,1.071263702E0,-2.846703492E0,-8.509452939E-2,3.042789472E0
1.569814908E1,1.548844396E0,-4.386713914E0,-1.617865368E-1,4.654927799E0
1.570808708E1,1.618359019E0,-5.736544817E0,-6.577486110E-1,5.996637857E0
1.571802608E1,1.740281359E0,-6.477695773E0,-9.788099400E-1,6.778435707E0
1.572796408E1,1.883241981E0,-6.578446807E0,-8.341181767E-1,6.893353022E0
1.573790308E1,2.023472538E0,-6.163504996E0,-4.213597886E-1,6.500829102E0
1.574784108E1,1.786705620E0,-5.740858893E0,-1.079500528E-1,6.013437537E0
1.575777908E1,2.344532625E0,-5.406054341E0,-1.186902186E-1,5.893754672E0
1.576771808E1,2.692122990E0,-4.316430382E0,-1.676968293E-1,5.089913522E0
1.577765608E1,2.751763421E0,-3.832989024E0,2.194843612E0,5.203973987E0
1.578759508E1,2.358579391E0,-1.561607698E0,4.720349607E0,5.503018786E0
1.579753308E1,7.877778232E-1,5.929328102E-1,4.657877955E0,4.761091289E0
1.580747108E1,-2.544541606E-1,1.570542828E0,2.248401768E0,2.754389625E0
1.581741008E1,-6.481369579E-1,3.780195683E0,1.302235737E0,4.050404774E0
1.582734808E1,-7.971941793E-1,4.754493254E0,-2.257187502E-1,4.826144798E0
1.583728708E1,-2.496734186E0,1.850999265E0,-6.473563546E0,7.181010017E0
1.584722508E1,-3.565728292E0,-4.216451181E0,-1.347499179E0,5.684068336E0
1.585716308E1,1.094061411E0,-4.725039659E0,2.132865465E0,5.298309659E0
1.586710208E1,3.755099434E-1,-3.011132458E0,1.728952964E-1,3.039378092E0
1.587704008E1,-9.927911443E-1,-1.857641702E0,9.411762368E-1,2.307006644E0
1.588697908E1,-1.402183948E0,-1.734488815E-1,5.329631817E-1,1.510051023E0
1.589691708E1,-5.372290179E-1,1.732962692E0,-4.911028187E-1,1.879616101E0
1.590685508E1,1.798913437E-1,2.008757143E0,-1.005220571E0,2.253427290E0
1.591679408E1,1.420244828E-1,9.552122587E-1,-1.809063034E0,2.050685367E0
1.592673208E1,8.045476377E-3,-2.333422623E0,-2.692387869E0,3.562846938E0
1.593667108E1,3.619017184E-1,-3.817236625E0,-2.362001474E0,4.503478574E0
1.594660908E1,3.527832779E-1,-4.019190098E0,-2.433793442E0,4.711867528E0
1.595654808E1,-8.362515333E-1,-2.548328848E0,-9.858673100E-1,2.857486815E0
1.596648608E1,-2.158482701E0,-2.300355449E0,2.873953271E-1,3.167535136E0
1.597642408E1,-3.254083976E0,-2.457229228E0,2.060209425E-1,4.082827774E0
1.598636308E1,-3.256574890E0,-8.447881758E-1,6.226324265E-1,3.421493565E0
1.599630108E1,-3.234492880E0,3.111660129E-1,5.946209013E-1,3.303383492E0
1.600624008E1,-2.562684639E0,1.566903521E0,1.866093560E-1,3.009545191E0
1.601617808E1,-2.489323718E0,2.734136404E0,-3.461366017E-1,3.713764262E0
1.602611608E1,-2.105519499E0,3.277665505E0,-2.972338521E-1,3.907000318E0
1.603605508E1,-1.716356307E0,3.857827411E0,1.882512541E-1,4.226600270E0
1.604599308E1,-1.125858277E0,4.650191206E0,6.368483233E-1,4.826739158E0
1.605593208E1,-6.996076584E-1,4.565275601E0,7.123651135E-1,4.673184807E0
1.606587008E1,-2.592015150E-1,5.374102231E0,1.129829268E0,5.497697190E0
1.607580808E1,-3.231168446E-1,6.076635252E0,1.063715093E0,6.177490613E0
1.608574708E1,-2.898032105E-1,6.169331746E0,1.008228086E0,6.257888140E0
1.609568508E1,-4.604938142E-1,6.145448209E0,9.682553503E-1,6.238277540E0
1.610562408E1,-6.338277979E-1,6.129226863E0,1.054579403E0,6.251503606E0
1.611556208E1,-6.936078304E-1,6.087965986E0,1.528383527E0,6.315091280E0
1.612550008E1,-4.509824409E-1,5.943021111E0,2.274776658E0,6.379458749E0
1.613543908E1,-1.974677816E-1,5.659361570E0,2.364630528E0,6.136680246E0
1.614537708E1,-9.074396297E-2,4.888213813E0,2.345429441E0,5.422537046E0
1.615531608E1,3.693727058E-1,3.394857740E0,1.998664556E0,3.956785978E0
1.616525408E1,7.984592244E-1,1.866241202E0,1.210211818E0,2.363261729E0
1.617519208E1,9.765253597E-1,7.909399974E-1,5.562783694E-1,1.374275621E0
1.618513108E1,1.845114627E0,-2.393987498E0,-4.480997635E-1,3.055555191E0
1.619506908E1,8.426977962E-1,-4.437363081E0,-1.080116094E0,4.644026428E0
1.620500808E1,-1.343669692E-1,-4.842287443E0,-4.792008112E-1,4.867795762E0
1.621494608E1,-1.074317703E-1,-5.046300305E0,2.554423401E-1,5.053903357E0
1.622488408E1,3.075517027E-1,-5.273553511E0,9.735236916E-1,5.371471219E0
1.623482308E1,8.711542945E-1,-5.137037982E0,1.523239585E0,5.428473807E0
1.624476108E1,1.765051042E0,-4.254422999E0,2.092046198E0,5.058871172E0
1.625470008E1,2.337090143E0,-3.381372891E0,2.655524683E0,4.893616690E0
1.626463808E1,2.441527700E0,-2.802547073E0,3.189328694E0,4.897667315E0
1.627457608E1,2.122829011E0,-1.946381970E0,3.761922842E0,4.737812708E0
1.628451508E1,1.732964884E0,-1.319669795E0,4.251764562E0,4.777258372E0
1.629445308E1,1.536825152E0,-1.388156478E0,4.587364043E0,5.033161910E0
1.630439208E1,1.458556808E0,-1.369104495E0,4.542556245E0,4.963532242E0
1.631433008E1,1.388730236E0,-1.583419567E0,3.767994006E0,4.316661676E0
1.632426908E1,9.168957469E-1,-2.311001474E0,2.460702766E0,3.498068571E0
1.633420708E1,-4.247569478E-1,-3.588376020E0,8.365988579E-1,3.709010457E0
1.634414508E1,-9.419854183E-1,-4.348288937E0,-1.001735630E0,4.560529298E0
1.635408408E1,-5.489993168E-1,-5.010848052E0,-3.067895766E0,5.901015411E0
1.636402208E1,3.368832368E-1,-5.205218271E0,-4.617499423E0,6.966282257E0
1.637396008E1,3.679826765E-1,-4.236746281E0,-5.898548359E0,7.271746904E0
1.638389908E1,-2.858559014E-1,-3.701606181E0,-6.067950382E0,7.113622408E0
1.639383708E1,-1.566023515E0,-2.016062654E0,-5.010995986E0,5.623790452E0
1.640377608E1,-1.670249257E0,-9.770603800E-1,-3.760029806E0,4.228735474E0
1.641371429E1,-1.198420469E0,-6.678970385E-1,-2.519292744E0,2.868646721E0
1.642365329E1,-4.147076306E-1,-3.506084061E-1,-1.509435186E0,1.604151880E0
1.643359129E1,1.908433248E-1,4.569014311E-3,-1.045265519E0,1.062554496E0
