"Time (s)","Linear Acceleration x (m/s^2)","Linear Acceleration y (m/s^2)","Linear Acceleration z (m/s^2)","Absolute acceleration (m/s^2)"
1.658333349E-4,-1.504868364E0,-3.087047444E0,-1.506695911E0,3.750283094E0
1.010183334E-2,-6.671652594E-1,-2.550533248E0,-2.269454083E0,3.478613398E0
2.003783334E-2,5.440103628E-1,-1.156892667E0,4.497670971E-2,1.279207107E0
2.997483333E-2,7.826868718E-1,-1.121542740E-1,-5.777457639E-1,9.792688539E-1
3.991083334E-2,4.374943031E-1,2.797459996E-1,-8.053218821E-1,9.582287949E-1
4.984683334E-2,4.593531686E-1,7.850196916E-1,4.142810762E-1,9.994448758E-1
5.978283334E-2,-2.560978860E-1,9.381921834E-1,4.766774453E-2,9.736852233E-1
6.971983334E-2,-8.619768702E-1,1.645364969E0,-1.603868596E-1,1.864391041E0
7.965583334E-2,-1.403718842E0,8.712608600E-1,-3.709287230E-1,1.693254320E0
8.959183334E-2,-1.487072656E-1,2.565718467E0,2.880923152E-3,2.570025954E0
9.952783334E-2,-5.647770781E-1,3.046844328E0,5.877435525E-1,3.153993657E0
1.094638333E-1,-1.491689325E0,3.348058380E0,4.526512362E-1,3.693172769E0
1.194008333E-1,-7.564996049E-1,4.444336470E0,-3.493693811E-1,4.521778110E0
1.293368333E-1,1.716591073E0,6.630770617E0,-1.364922420E0,6.984040170E0
1.392728333E-1,1.179461969E0,6.280580871E0,-2.424839600E0,6.834959671E0
1.492088333E-1,-2.685243157E-1,5.325058125E0,-1.975683537E0,5.686094862E0
1.591458333E-1,2.902735313E0,7.966842436E0,-4.669470060E0,9.679896763E0
1.690818333E-1,9.622543529E-1,7.761175396E0,-5.741989160E0,9.702175863E0
1.790178333E-1,-6.218384477E-1,5.342595679E0,-4.864107205E-1,5.400611728E0
1.889538333E-1,4.295502759E-1,4.073503130E0,2.994509701E0,5.073956005E0
1.988908333E-1,-6.699100886E-1,1.444759279E-1,4.374790272E0,4.428142132E0
2.088268333E-1,1.637290842E0,4.550104415E-1,1.159427786E1,1.171814980E1
2.187628333E-1,4.426702730E0,2.900862742E0,6.325372297E0,8.247486672E0
2.286988333E-1,3.760117806E0,5.409517062E0,-1.311600170E1,1.467756319E1
2.386358333E-1,4.916121404E0,5.679053823E0,-8.222482120E0,1.113683592E1
2.485718333E-1,3.370392405E0,1.868314624E0,7.516888082E-1,3.926217080E0
2.585078333E-1,2.775799862E0,6.978341979E-1,9.424831626E-1,3.013355597E0
2.684438333E-1,2.828696406E0,2.792296904E-1,1.215777344E0,3.091537988E0
2.783798333E-1,2.676768495E0,4.419278812E-1,1.679085277E0,3.190566908E0
2.883168333E-1,3.076701673E0,9.547859967E-1,1.859995791E0,3.719851318E0
2.982528333E-1,2.668162855E0,3.225639904E-1,2.384041969E0,3.592603047E0
3.081888333E-1,2.194783970E0,-3.112952363E-1,3.021151078E0,3.747176969E0
3.181248333E-1,2.127798852E0,-2.134993851E-1,2.915330508E0,3.615558313E0
3.280618333E-1,6.120605875E-1,-8.423229897E-1,2.595568211E0,2.796623056E0
3.379978333E-1,-1.064735870E0,-9.094911253E-1,1.580227572E0,2.111387165E0
3.479338333E-1,-2.318751082E0,-6.131150597E-1,-1.080376295E0,2.630537891E0
3.578698333E-1,-1.543826315E0,-1.413613501E0,-1.619921103E0,2.646856097E0
3.678068333E-1,-5.359682120E-1,-2.597816758E0,-3.285575911E0,4.222667746E0
3.777428333E-1,-9.354347827E-1,-3.475697835E0,-6.402495317E0,7.344893462E0
3.876788333E-1,-1.622037064E0,-4.578198532E0,-6.770386924E0,8.332409323E0
3.976148333E-1,-3.279420547E0,-5.015210075E0,-4.762544870E0,7.654329811E0
4.075508333E-1,-3.677753050E0,-4.189556327E0,-2.621950555E0,6.160590429E0
4.174878333E-1,-3.727154421E0,-3.579754885E0,-1.099997651E0,5.283589683E0
4.274238333E-1,-3.411193983E0,-2.810499287E0,-5.695769843E-1,4.456407586E0
4.373598333E-1,-1.897239923E0,-1.693125612E0,2.122086123E-1,2.551710438E0
4.472958333E-1,-1.524987464E0,-1.027170433E0,9.457578957E-3,1.838683037E0
4.572328333E-1,-5.374895114E-1,4.808551347E-1,-6.863034886E-1,9.955546765E-1
4.671688333E-1,1.563738424E-1,1.743919789E0,-1.387367688E0,2.233942280E0
4.771048333E-1,1.769659817E-3,2.690023840E0,-2.014083518E0,3.360470772E0
4.870408333E-1,7.419093400E-1,2.190457615E0,-1.087164766E0,2.555476719E0
4.969778333E-1,-9.293389142E-2,2.347410917E0,-1.757758979E0,2.934057148E0
5.069138333E-1,-1.270464598E0,1.125505398E0,-9.843414791E-1,1.962083292E0
5.168498333E-1,7.900377721E-2,1.941941010E0,-3.195224150E-1,1.969637290E0
5.267858333E-1,7.163824430E-1,4.527844065E0,-9.730258012E-1,4.686294367E0
5.367218333E-1,1.297191052E0,5.127902293E0,-1.111086822E0,5.404868220E0
5.466588333E-1,1.133423113E0,5.157368751E0,-7.832169950E-2,5.281025911E0
5.565948333E-1,2.749276015E0,5.174675925E0,1.518285093E0,6.053179260E0
5.665308333E-1,1.748800168E0,2.073421501E0,1.108913924E0,2.930370085E0
5.764668333E-1,3.295864964E-1,1.760179726E0,-1.394462115E0,2.269666169E0
5.864038333E-1,1.416224575E0,2.338126708E0,-4.935675663E-1,2.777793637E0
5.963398333E-1,3.319989406E0,4.824855723E0,-1.010196551E0,5.943236448E0
6.062758333E-1,5.595735678E0,8.118884661E0,-2.862541260E0,1.026755513E1
6.162118333E-1,4.431897981E0,4.041969681E0,1.517752411E0,6.187310482E0
6.261488333E-1,4.587511100E0,4.793217024E0,1.165392764E0,6.736343803E0
6.360848333E-1,4.667625556E0,4.391806254E0,-6.483094507E-1,6.441660939E0
6.460208333E-1,4.523099050E0,4.317781089E0,1.763711445E0,6.497102170E0
6.559568333E-1,1.781321796E0,4.606939352E-1,2.887731650E0,3.424082406E0
6.658928333E-1,1.147014673E-1,-9.180736685E-1,9.951575124E-1,1.358806153E0
6.758298333E-1,-1.558025694E-1,-2.682677398E0,-1.235199748E0,2.957490639E0
6.857658333E-1,2.660828692E0,-4.302911035E0,-3.898174588E-1,5.074151195E0
6.957018333E-1,3.053667444E0,-6.564335137E0,6.031227894E-1,7.264925172E0
7.056378333E-1,3.771487425E0,-6.593873516E0,7.560297811E-1,7.633797638E0
7.155748333E-1,3.602441497E0,-6.500782920E0,1.579815928E0,7.598261753E0
7.255108333E-1,3.754783099E0,-5.486352400E0,2.310117960E0,7.038117913E0
7.354468333E-1,3.285797812E0,-4.659047399E0,3.005378798E0,6.444803461E0
7.453828333E-1,3.148929112E0,-3.127976199E0,3.048999027E0,5.384829127E0
7.553198333E-1,2.740407836E0,-2.343949365E0,3.094499720E0,4.751827254E0
7.652558333E-1,2.780304265E0,-3.046116350E0,2.826436458E0,4.999765962E0
7.751918333E-1,2.688950876E0,-3.112655325E0,2.699427917E0,4.919958441E0
7.851278333E-1,2.908303909E0,-3.082022347E0,2.125890906E0,4.740939307E0
7.950648333E-1,3.436524414E0,-3.160169799E0,1.400795234E0,4.874279485E0
8.050008333E-1,3.678735090E0,-3.239470323E0,1.182661346E0,5.042414867E0
8.149368333E-1,3.372912847E0,-3.312506139E0,2.716457348E0,5.452373659E0
8.248728333E-1,3.174823799E0,-2.769182276E0,5.959983884E0,7.298580994E0
8.348088333E-1,2.984051956E0,-2.368600057E0,5.427403110E0,6.631103741E0
8.447458333E-1,1.841106945E0,-3.320789305E0,1.910519242E-2,3.797062207E0
8.546818333E-1,-7.690775505E-1,-5.303402377E0,-4.306749147E0,6.875001474E0
8.646178333E-1,-4.134690734E0,-5.317532759E0,-4.423587041E0,8.058532398E0
8.745538333E-1,-3.399046393E0,-3.994238859E0,-1.977323681E0,5.605111006E0
8.844908333E-1,-1.521585554E0,-2.946380977E0,-9.592790703E-1,3.452042844E0
8.944268333E-1,-9.502584976E-1,-3.842343984E0,-2.608909510E0,4.740570360E0
9.043620000E-1,-4.866909483E-1,-3.034975650E0,-1.508196892E0,3.423828725E0
9.142980000E-1,-1.485957884E0,-2.181929451E0,-1.566995323E0,3.069912263E0
9.242350000E-1,-2.506176270E0,-5.525174403E-1,-1.501975454E0,2.973571133E0
9.341710000E-1,-2.392587090E0,-2.781169653E-2,-3.184344528E0,3.983126478E0
9.441070000E-1,-2.188624806E0,1.775723380E-1,-3.221558547E0,3.898724143E0
9.540430000E-1,-8.415768850E-1,-1.154813397E0,-2.259647133E0,2.673546484E0
9.639790000E-1,-2.005144733E-1,-5.038504797E-1,-1.302086048E0,1.410496167E0
9.739160000E-1,-2.183221686E-1,-2.653396297E-1,-9.171426456E-1,9.793979379E-1
9.838520000E-1,-2.740826789E-1,5.843122602E-2,-6.375945742E-1,6.964641873E-1
9.937880000E-1,-2.944032333E-1,7.091421282E-1,-7.921692283E-1,1.103217072E0
1.003724000E0,1.718587495E-1,2.785929286E-1,-7.952797278E-1,8.600112180E-1
1.013661000E0,7.430422381E-1,1.148506590E0,8.245427763E-1,1.597200659E0
1.023597000E0,-9.045493510E-1,1.173248498E0,1.172887141E0,1.889546457E0
1.033533000E0,-8.531260130E-1,1.583231871E0,1.222817246E-1,1.802609212E0
1.043469000E0,-3.194117199E-1,2.638183011E0,2.136188145E-1,2.666020713E0
1.053406000E0,-6.830255395E-1,2.984130017E0,2.555011046E-1,3.071943466E0
1.063342000E0,-9.475433430E-1,4.126480073E0,1.974650042E-1,4.238474798E0
1.073278000E0,-1.317687589E0,4.648399619E0,2.307779074E-1,4.837062956E0
1.083214000E0,-1.428646984E0,5.121573266E0,4.208685493E-1,5.333729958E0
1.093151000E0,-1.597371316E0,5.391778364E0,8.877043998E-1,5.693056134E0
1.103087000E0,-1.443425237E0,5.439996843E0,1.344977714E0,5.786709525E0
1.113023000E0,-8.451579391E-1,5.399837582E0,1.626176308E0,5.702366810E0
1.122959000E0,-6.075567696E-2,5.034207678E0,1.863974529E0,5.368550945E0
1.132895000E0,2.102029442E-1,4.486467998E0,1.566136805E0,4.756612752E0
1.142832000E0,2.376899010E-1,3.709744921E0,1.226763386E0,3.914543686E0
1.152768000E0,3.244301292E-1,3.008839765E0,1.187615107E0,3.250969284E0
1.162704000E0,5.127826864E-1,2.269111437E0,1.269079685E0,2.649976612E0
1.172640000E0,9.043353429E-1,1.628187604E0,1.805281055E0,2.593811283E0
1.182577000E0,5.363585868E-1,8.660322797E-1,1.645948960E0,1.935675702E0
1.192513000E0,-6.034271005E-1,-2.820141345E-1,1.191405272E0,1.364955223E0
1.202449000E0,-1.798606458E0,-1.035521427E0,5.895257838E-1,2.157505612E0
1.212385000E0,-1.399220579E0,-1.018432354E0,4.785959168E-1,1.795571425E0
1.222322000E0,-1.841498124E0,-1.506824550E0,6.510069175E-1,2.466869590E0
1.232258000E0,-2.304567344E0,-1.949642962E0,4.817763636E-1,3.056836075E0
1.242194000E0,-2.130741171E0,-1.807210636E0,1.779478462E0,3.312493293E0
1.252130000E0,1.012123793E0,-6.430048567E-1,2.182624100E0,2.490320819E0
1.262067000E0,4.826411960E0,-8.460149217E-1,5.385494946E0,7.281040411E0
1.272003000E0,4.983267320E0,-1.316354424E-1,8.385938694E0,9.755729028E0
1.281939000E0,6.298984398E0,-1.514908326E-1,7.230153490E0,9.590373997E0
1.291875000E0,6.402580687E0,-1.338815918E0,5.991177610E0,8.870156519E0
1.301811000E0,5.124890392E0,-2.726874747E0,4.734023906E0,7.490749613E0
1.311748000E0,3.108406738E0,-3.613598569E0,3.434289608E0,5.874915504E0
1.321684000E0,8.904028898E-1,-3.806909857E0,1.800165034E0,4.304181004E0
1.331620000E0,2.684466939E-1,-3.706659930E0,-1.679440203E-1,3.720160837E0
1.341556000E0,2.167790884E-1,-3.759194239E0,-2.270078858E0,4.396793436E0
1.351493000E0,-5.480346724E-1,-3.665341165E0,-4.320482795E0,5.692243797E0
1.361429000E0,-1.498691950E0,-4.165495035E0,-6.499189553E0,7.863643640E0
1.371365000E0,-2.439806426E0,-3.243324807E0,-7.005455518E0,8.096185411E0
1.381301000E0,-3.435674229E0,-4.088895925E0,-5.925501684E0,7.977123385E0
1.391238000E0,-3.963338079E0,-5.091570033E0,-5.065953966E0,8.203415369E0
1.401174000E0,-4.086403257E0,-5.634210357E0,-3.960581117E0,8.008072222E0
1.411110000E0,-2.403144384E0,-4.962193955E0,-4.253623685E0,6.963604399E0
1.421046000E0,-5.942524098E0,-3.343932000E0,-2.793627731E0,7.368841820E0
1.430983000E0,-3.237675228E0,-4.316161995E0,-3.928911427E0,6.674439321E0
1.440919000E0,-2.082648553E0,-3.448100147E0,-4.175442903E0,5.801822391E0
1.450855000E0,-1.949467107E0,-2.672940030E0,-4.014513495E0,5.202052384E0
1.460791000E0,-8.408157237E-1,-1.590120476E0,-3.257760998E0,3.721352030E0
1.470728000E0,-1.723341098E-1,-6.316864014E-2,-2.230381673E0,2.237921296E0
1.480664000E0,6.096355279E-1,9.642766124E-1,-1.201076421E0,1.656523296E0
1.490600000E0,1.588282696E0,1.418208827E0,-1.611771838E-1,2.135400732E0
1.500536000E0,2.232838527E0,1.799888168E0,9.137516990E-1,3.010001241E0
1.510472000E0,2.475883892E0,2.511942210E0,1.476709635E0,3.823679649E0
1.520409000E0,2.812793734E0,2.756576849E0,1.008903147E0,4.065514737E0
1.530345000E0,1.366635508E0,2.243828076E0,3.923401304E-1,2.656386234E0
1.540281000E0,1.419011212E0,2.371464608E0,-5.904563682E-1,2.825964601E0
1.550217000E0,6.412509844E0,8.855284170E0,1.411908453E0,1.102405668E1
1.560154000E0,3.102749849E0,6.029197376E0,-1.761600892E-1,6.783016291E0
1.570090000E0,3.197161624E0,6.724345363E0,-7.017057855E-1,7.478706708E0
1.580026000E0,2.664588160E0,6.583291225E0,-3.694175832E-1,7.111696195E0
1.589962000E0,1.250290242E0,6.808843476E0,4.072223175E-1,6.934652492E0
1.599899000E0,5.054340519E-1,6.505477064E0,5.277185217E-1,6.546386962E0
1.609835000E0,1.835373750E-1,6.613582141E0,5.624401653E-1,6.639991992E0
1.619771000E0,-5.768775985E-1,6.739753945E0,4.969874565E-1,6.782629840E0
1.629707000E0,-1.334389576E0,6.692770983E0,4.252152233E-1,6.837732589E0
1.639644000E0,-1.387794535E0,5.742854548E0,7.080194628E-1,5.950432218E0
1.649580000E0,-8.882884636E-1,4.241783073E0,8.719872303E-1,4.420649473E0
1.659516000E0,-6.180211660E-1,2.123635635E0,1.126891773E0,2.482269836E0
1.669452000E0,-1.362936998E-1,1.005399495E0,1.204956633E0,1.575222081E0
1.679389000E0,1.614088798E-1,4.970221013E-1,1.478323467E0,1.567968134E0
1.689325000E0,7.973136818E-1,-1.113595204E0,2.215093543E0,2.604312345E0
1.699261000E0,1.424436989E0,-1.861243587E0,3.275577464E0,4.027735859E0
1.709197000E0,1.992957674E0,-1.449399630E0,3.573576132E0,4.340862351E0
1.719134000E0,1.905697628E0,-1.346276965E0,3.256828952E0,4.006379904E0
1.729070000E0,1.294033263E0,-2.788872190E0,3.027678909E0,4.314993599E0
1.739006000E0,1.076530655E0,-2.555226808E0,2.546196953E0,3.764468251E0
1.748942000E0,2.034390167E0,-2.742109668E0,2.487565752E0,4.224439863E0
1.758879000E0,2.876826885E0,-3.448559153E0,2.052377372E0,4.937706556E0
1.768815000E0,3.655471650E0,-2.315376946E0,2.061527095E0,4.793050943E0
1.778751000E0,4.253501770E0,1.299771720E-1,4.320519340E0,6.064326734E0
1.788687000E0,3.705787525E0,1.279086610E0,6.954065509E0,7.982978820E0
1.798624000E0,2.549862865E0,-2.221995158E0,3.615871382E0,4.951119970E0
1.808560000E0,1.564893249E-1,-3.916433469E0,-4.418540894E0,5.906474723E0
1.818496000E0,-5.811952849E0,-4.282339945E0,-7.318737638E0,1.028013385E1
1.828432000E0,-7.703830583E0,-4.272180993E0,-5.494998093E0,1.038246311E1
1.838369000E0,-3.441640435E0,-3.905576944E0,-1.247136254E0,5.352921537E0
1.848305000E0,8.247062060E-1,-3.361943763E0,-5.073347990E-1,3.498598975E0
1.858241000E0,1.136704278E0,-6.605521170E0,-2.326550975E0,7.094916911E0
1.868177000E0,7.215446573E-1,-6.737386408E0,-6.751429081E-1,6.809465489E0
1.878114000E0,-4.049100360E-1,-5.438381842E0,-2.327616338E0,5.929396851E0
1.888050000E0,-3.466929350E0,-3.816730256E0,-5.239747249E0,7.351325064E0
1.897986000E0,-1.999236999E0,-2.606371819E0,-5.529749265E0,6.431815418E0
1.907922833E0,-2.205030046E0,-3.221406519E-2,-4.252267131E0,4.790090918E0
1.917859833E0,-2.164956446E0,1.015328652E0,-3.274337854E0,4.054530438E0
1.927795833E0,-1.231863327E0,9.453392351E-1,-2.395158695E0,2.854459441E0
1.937731833E0,-1.411880678E0,7.947266543E-1,-1.280733186E0,2.065254221E0
1.947667833E0,-2.959650648E0,-8.438719171E-1,-1.665615485E0,3.499418054E0
1.957603833E0,-1.600810063E0,-7.140210450E-2,-1.619122081E0,2.277991974E0
1.967540833E0,-8.551845253E-3,-4.219520384E-1,-8.685781574E-1,9.656835260E-1
1.977476833E0,-3.140843582E-1,-1.741494949E0,-2.523248971E-1,1.787490278E0
1.987412833E0,-7.750589597E-1,-1.739933742E0,3.267107626E-1,1.932569725E0
1.997348833E0,-6.448730421E-1,-7.764453346E-1,-3.205221426E-1,1.058991521E0
2.007285833E0,-1.515353884E0,1.331381768E-1,-8.331242231E-1,1.734393017E0
2.017221833E0,-1.301973489E0,2.702583075E0,-4.505641457E-1,3.033496051E0
2.027157833E0,-1.121540036E0,4.256642017E0,6.514454587E-1,4.449857807E0
2.037093833E0,-1.749790101E0,4.558171234E0,1.607373855E0,5.140266638E0
2.047030833E0,-1.931983202E0,4.932103014E0,1.643264065E0,5.546036064E0
2.056966833E0,-1.150841968E0,4.731527145E0,1.354755428E0,5.054418723E0
2.066902833E0,-1.232769645E0,3.353174694E0,4.871597488E-1,3.605665839E0
2.076838833E0,-1.579579116E0,4.029894596E0,7.240585215E-1,4.388551171E0
2.086775833E0,-1.038388609E0,3.462875476E0,7.682528007E-1,3.695939641E0
2.096711833E0,-8.244516329E-1,2.773330876E0,5.529815631E-1,2.945653281E0
2.106647833E0,-1.603337961E-1,2.445052401E0,4.695724936E-1,2.494892082E0
2.116583833E0,1.094814240E0,2.587464847E0,8.634372854E-1,2.939237401E0
2.126520833E0,1.729032486E0,1.721119156E0,1.609274346E0,2.922596176E0
2.136456833E0,1.693598213E0,8.152766937E-1,1.590148250E0,2.462015932E0
2.146392833E0,1.049754719E0,-2.559413999E-1,1.483899372E0,1.835605708E0
2.156328833E0,5.323557291E-1,-7.813400388E-1,1.755589370E0,1.993988193E0
2.166265833E0,1.063698063E0,-3.451517844E-1,2.336405141E0,2.590245607E0
2.176201833E0,1.556701738E0,-6.980429435E-1,3.760463669E0,4.129366932E0
2.186137833E0,1.683428443E0,7.370298386E-1,4.252562123E0,4.632648153E0
2.196073833E0,3.364746918E0,2.589496170E0,4.932317022E0,6.508053737E0
2.206010833E0,3.559876983E0,1.213608320E0,5.402233186E0,6.582529353E0
2.215946833E0,3.184947376E0,-4.121187758E-1,5.347286900E0,6.237564338E0
2.225882833E0,3.191940938E0,-6.276155698E-1,4.810758964E0,5.807390986E0
2.235818833E0,2.906378128E0,-2.449809696E0,4.342385588E0,5.771040977E0
2.245755833E0,2.158082167E0,-3.696625523E0,3.799022841E0,5.723192591E0
2.255691833E0,1.427336331E0,-4.218741535E0,3.204642552E0,5.486784398E0
2.265627833E0,1.277505377E0,-3.677260129E0,2.312270612E0,4.527787256E0
2.275563833E0,2.037690189E0,-2.674593623E0,1.090793402E0,3.534892162E0
2.285499833E0,1.550346838E0,-2.729811219E0,-1.624777508E-1,3.143539984E0
2.295436833E0,-3.268739730E-3,-3.062460487E0,-2.199541265E0,3.770498202E0
2.305372833E0,-3.818177003E-1,-3.176156672E0,-3.940590363E0,5.075628865E0
2.315308833E0,-1.011381489E0,-3.238839993E0,-3.921896523E0,5.185966578E0
2.325244833E0,-2.628829805E0,-3.499543365E0,-4.116383394E0,6.008507481E0
2.335181833E0,-2.786038922E0,-3.328104172E0,-4.679797997E0,6.382695320E0
2.345117833E0,-2.863645214E0,-3.809779671E0,-4.856956937E0,6.804771542E0
2.355053833E0,-2.697449804E0,-4.428749548E0,-4.859670045E0,7.106789075E0
2.364989833E0,-3.116602488E0,-5.713745939E0,-5.075676717E0,8.253641490E0
2.374926833E0,-3.555513791E0,-6.130455948E0,-4.866182674E0,8.596737885E0
2.384862833E0,-2.719223666E0,-6.163042481E0,-5.108859665E0,8.454449541E0
2.394798833E0,-1.221173740E0,-4.810338841E0,-5.153478599E0,7.154646514E0
2.404734833E0,3.580650678E-1,-3.894056759E0,-5.397133244E0,6.664903292E0
2.414671833E0,1.083731135E0,-2.449692167E0,-4.964155111E0,5.640771300E0
2.424607833E0,1.136066054E0,-5.604737467E-1,-4.085674109E0,4.277558863E0
2.434543833E0,2.169307213E0,1.138031888E0,-2.509499828E0,3.506935949E0
2.444479833E0,4.189121002E0,2.084882628E0,4.943037307E-1,4.705295583E0
2.454415833E0,4.279272788E0,2.421354221E0,2.096622229E0,5.345180692E0
2.464352833E0,4.547316171E0,3.539361150E0,2.098662761E0,6.132662317E0
2.474288833E0,5.288914731E0,4.584153337E0,1.780223397E0,7.221930226E0
2.484224833E0,4.503655596E0,4.918607056E0,1.250712558E0,6.785270149E0
2.494160833E0,3.669783880E0,4.363174778E0,7.210037899E-1,5.746690729E0
2.504097833E0,2.972839336E0,5.846815703E0,-3.383737651E-1,6.567916289E0
2.514033833E0,1.845674205E0,6.565557790E0,-1.159836155E0,6.917968074E0
2.523969833E0,2.298412200E-1,7.000050936E0,-1.008748707E0,7.076094548E0
2.533905833E0,-6.224608107E-1,7.557187092E0,-1.980393469E-1,7.585364447E0
2.543842833E0,-9.203890197E-1,7.654039203E0,3.014918677E-1,7.715071575E0
2.553778833E0,-1.203938487E0,7.290043597E0,7.285736684E-1,7.424622759E0
2.563714833E0,-1.572777342E0,6.688614197E0,1.333661013E0,6.999274258E0
2.573650833E0,-2.403101260E0,5.165804529E0,1.705956742E0,5.947328855E0
2.583587833E0,-2.464417210E0,4.554233134E0,1.860393401E0,5.502313626E0
2.593523833E0,-1.699267527E0,3.936065496E0,1.538753271E0,4.554984450E0
2.603459833E0,-1.570251929E0,2.641774371E0,1.301469752E0,3.337437110E0
2.613395833E0,-1.898513739E0,2.545674212E0,1.146325579E0,3.376221845E0
2.623331833E0,5.836811263E-2,1.811545177E0,1.260451534E0,2.207677702E0
2.633268833E0,1.432198876E0,-1.933914537E0,1.316149771E0,2.742894324E0
2.643204833E0,1.920774674E0,-3.688811889E0,1.425176954E0,4.396343691E0
2.653140833E0,2.401409369E0,-4.127560639E0,2.125613748E0,5.227021866E0
2.663076833E0,3.792777137E0,-3.630386510E0,3.251543069E0,6.175548312E0
2.673013833E0,4.972342967E0,-4.500674978E0,3.694406505E0,7.656951695E0
2.682949833E0,4.604284716E0,-4.753488702E0,3.352188853E0,7.418373318E0
2.692885833E0,3.049734314E0,-4.710526870E0,2.186724753E0,6.022599765E0
2.702821833E0,1.991017568E0,-4.309197961E0,1.850244389E0,5.094775984E0
2.712758833E0,1.301755680E0,-3.843154993E0,2.291278231E0,4.659867389E0
2.722694833E0,9.949128065E-1,-3.650317329E0,2.922413825E0,4.780708176E0
2.732630833E0,6.372903728E-1,-3.499017701E0,4.292196597E0,5.574245735E0
2.742566833E0,1.230956716E0,-2.982381114E0,5.518805031E0,6.392734980E0
2.752503833E0,1.629875110E0,-1.749612054E0,3.455966991E0,4.202540072E0
2.762439833E0,1.040669608E0,-1.843541726E0,-2.302154052E-1,2.129469056E0
2.772375833E0,-1.099730871E0,-2.379394017E0,-1.838679766E0,3.201822475E0
2.782311833E0,-4.860480177E0,-2.998847458E0,-6.561354226E0,8.698777093E0
2.792247833E0,-6.947038325E0,-7.092732813E0,-6.580440123E0,1.191093583E1
2.802184833E0,-1.478457076E0,-7.737947917E0,-5.022289299E0,9.342647542E0
2.812120833E0,4.219443493E0,-1.168972430E0,-3.472390065E0,5.588174362E0
2.822056833E0,5.242526211E-1,2.360240293E-1,1.588758294E-1,5.964810829E-1
2.831992833E0,-5.929219928E0,-1.872711731E0,-1.013011401E0,6.299911927E0
2.841929833E0,-4.896080365E0,-3.444623977E0,-1.904300144E0,6.281989838E0
2.851865833E0,-1.751656240E0,-3.546832137E0,-3.002428293E0,4.966174931E0
2.861801833E0,-9.391317578E-1,-3.530114363E0,-3.991338640E0,5.410587770E0
2.871737833E0,-9.162162273E-1,-3.168917819E0,-3.639522200E0,4.911986783E0
2.881674833E0,-1.754098330E0,-1.165005679E0,-3.202390205E0,3.832675593E0
2.891610833E0,-2.476274779E0,-1.253686890E0,-2.606443155E0,3.807520652E0
2.901546833E0,-2.653643049E0,-1.892451346E-2,-1.235603206E0,2.927267472E0
2.911481958E0,-2.344731138E0,1.222013692E0,-1.262202629E-1,2.647076336E0
2.921417958E0,-1.986925394E0,2.114909835E0,5.876358175E-1,2.960748551E0
2.931354958E0,-1.154666632E0,2.926599262E0,7.054841832E-1,3.224274523E0
2.941290958E0,-1.428641521E-1,3.592066782E0,7.096017925E-1,3.664271911E0
2.951226958E0,3.155701357E-1,4.205846086E0,6.035110811E-1,4.260628056E0
2.961162958E0,-1.420808993E-1,4.845822669E0,3.460079630E-1,4.860237220E0
2.971099958E0,-5.062069076E-1,5.240466456E0,2.362742901E-2,5.264911430E0
2.981035958E0,-1.283715851E0,5.491637113E0,-5.333026126E-2,5.639933394E0
2.990971958E0,-2.128601090E0,5.602570488E0,6.230816388E-1,6.025609464E0
3.000907958E0,-2.843291057E0,5.252551482E0,6.737734902E-1,6.010621583E0
3.010844958E0,-2.842591145E0,4.706969424E0,1.101846979E0,5.608025708E0
3.020780958E0,-2.127908195E0,4.186488878E0,1.096605388E0,4.822574602E0
3.030716958E0,-1.159335341E0,4.176908215E0,9.952813272E-1,4.447606726E0
3.040652958E0,2.006053610E-1,4.542271485E0,8.592283134E-1,4.627174738E0
3.050588958E0,5.941285658E-1,3.613195111E0,8.281972861E-1,3.754208093E0
3.060525958E0,5.389536176E-1,2.190038370E0,9.634876768E-1,2.452559391E0
3.070461958E0,2.938731832E-1,1.549400466E0,1.023015110E0,1.879777425E0
3.080397958E0,2.558001714E-1,8.798626989E-1,7.597377929E-1,1.190291397E0
3.090333958E0,1.380385090E-2,1.319055837E-1,7.133186482E-1,7.255433296E-1
3.100270958E0,2.408310435E-1,-1.052243294E0,9.784182496E-1,1.456886342E0
3.110206958E0,2.672478685E-1,-2.761665680E0,1.442524620E0,3.127154622E0
3.120142958E0,2.635755430E-1,-1.708436546E0,1.923804555E0,2.586358727E0
3.130078958E0,8.290325609E-1,-5.599849194E-1,2.751944977E0,2.928152874E0
3.140015958E0,1.629012061E0,8.009516001E-1,4.117023079E0,4.499453611E0
3.149951958E0,2.064274263E0,1.940485638E0,5.403752292E0,6.101413900E0
3.159887958E0,2.340673901E0,1.722692642E0,5.766167396E0,6.457175133E0
3.169823958E0,3.052801471E0,7.854430300E-1,5.800662460E0,6.601833272E0
3.179759958E0,3.210351774E0,5.331023455E-2,5.538663930E0,6.402030820E0
3.189696958E0,3.245058799E0,-1.815181561E0,4.851108845E0,6.112163915E0
3.199632958E0,2.640382149E0,-2.721634473E0,4.360259064E0,5.778474816E0
3.209568958E0,1.724308813E0,-3.401201969E0,3.624714418E0,5.261175755E0
3.219504958E0,1.154979896E0,-3.357614484E0,2.370028239E0,4.269026522E0
3.229441958E0,1.721987176E0,-2.897422825E0,8.558604634E-1,3.477469769E0
3.239377958E0,1.988402401E0,-2.773318596E0,-2.394630691E-1,3.420874553E0
3.249313958E0,4.256448109E-1,-3.046874734E0,-1.724045980E0,3.526606540E0
3.259249958E0,-3.183830119E-1,-3.447714815E0,-3.846773835E0,5.175497476E0
3.269185958E0,-7.587769492E-1,-3.077626995E0,-3.993060061E0,5.098240778E0
3.279122958E0,-2.183744719E0,-1.844772565E0,-3.459748385E0,4.487960082E0
3.289058958E0,-3.528783537E0,-1.410316256E0,-4.279874175E0,5.723515366E0
3.298994958E0,-3.413220043E0,-2.765219618E0,-5.123870637E0,6.749115565E0
3.308930958E0,-3.623770385E0,-4.461739538E0,-5.368035160E0,7.864771643E0
3.318867958E0,-3.514700810E0,-5.849917651E0,-5.464568013E0,8.742777698E0
3.328803958E0,-4.077799079E0,-6.419269810E0,-5.188682345E0,9.206405091E0
3.338739958E0,-2.938789537E0,-7.413977087E0,-5.649134206E0,9.773241911E0
3.348675958E0,-2.051366388E0,-7.491088412E0,-6.185923805E0,9.929257927E0
3.358611958E0,-5.004604103E-1,-5.485376499E0,-6.504032217E0,8.523042358E0
3.368548958E0,1.272630407E0,-3.539010317E0,-6.230314697E0,7.277431099E0
3.378484958E0,1.418641083E0,-1.027224813E0,-4.943182318E0,5.244309751E0
3.388420958E0,1.888413697E0,3.702749312E-1,-3.945812219E0,4.390061946E0
3.398356958E0,3.869045295E0,1.292191390E0,-8.933039859E-2,4.080104165E0
3.408293958E0,4.331426151E0,1.892880532E0,3.356674837E0,5.797543891E0
3.418229958E0,4.899304227E0,2.876590365E0,3.293800896E0,6.567121012E0
3.428165958E0,4.556197214E0,4.425952824E0,1.939354202E0,6.641467170E0
3.438101958E0,4.245662993E0,5.534984862E0,1.068062790E0,7.057086494E0
3.448037958E0,4.811565879E0,6.115283593E0,1.111273714E0,7.860202854E0
3.457974958E0,4.318189225E0,6.432413181E0,4.201446640E-1,7.758815570E0
3.467910958E0,2.889482891E0,6.894747845E0,-3.263505741E-1,7.482858005E0
3.477846958E0,3.622968805E-1,7.101993048E0,-6.653592738E-1,7.142287256E0
3.487782958E0,-3.672074088E-1,7.008736390E0,-4.509511583E-1,7.032821910E0
3.497719958E0,-7.844851099E-1,7.052189389E0,-2.774457049E-1,7.101110349E0
3.507655958E0,-1.945830139E0,6.817589157E0,2.801775241E-1,7.095370060E0
3.517591958E0,-2.392927397E0,6.427872818E0,1.239748882E0,6.969980472E0
3.527527958E0,-2.581506534E0,6.092169549E0,1.930189276E0,6.892338968E0
3.537464958E0,-2.436993476E0,5.637806395E0,2.240998024E0,6.538032601E0
3.547400958E0,-1.676207278E0,4.797732244E0,2.093818928E0,5.496542843E0
3.557336958E0,-8.525676039E-1,3.609727712E0,1.756742148E0,4.104040528E0
3.567272958E0,-5.761882849E-4,2.334652877E0,1.273709511E0,2.659500010E0
3.577208958E0,8.102355167E-1,9.322128206E-1,1.027085649E0,1.606364612E0
3.587145958E0,1.522756751E0,-5.771739793E-1,1.194629427E0,2.019667644E0
3.597081958E0,1.960780446E0,-2.131244617E0,1.558742563E0,3.288851160E0
3.607017958E0,2.472399537E0,-3.586693191E0,2.141096005E0,4.854010674E0
3.616953958E0,3.396755161E0,-3.868361755E0,3.038391008E0,5.977791249E0
3.626890958E0,4.172679801E0,-3.717404189E0,3.319538001E0,6.499975628E0
3.636826958E0,4.220502424E0,-3.282635638E0,3.216548068E0,6.239753113E0
3.646762958E0,3.006209980E0,-3.092760174E0,2.502815291E0,4.986636974E0
3.656698958E0,1.744972288E0,-3.171671273E0,1.694597356E0,3.997009775E0
3.666635958E0,1.001307906E0,-3.258312975E0,1.939774032E0,3.921982185E0
3.676571958E0,5.950959876E-1,-3.867713299E0,1.995764630E0,4.392769269E0
3.686507958E0,1.072072372E0,-3.358344217E0,2.912350182E0,4.572701459E0
3.696443958E0,1.569543539E0,-2.411215149E0,4.401178172E0,5.258117031E0
3.706379958E0,1.650884449E0,-1.305851070E0,4.468239888E0,4.939213923E0
3.716316958E0,1.585771902E0,-2.259746536E0,2.027936595E0,3.425442127E0
3.726252958E0,-3.421998541E-1,-5.403804333E0,-1.799680592E0,5.705878744E0
3.736188958E0,-5.625151266E0,-8.326036894E0,-6.442623004E0,1.193618902E1
3.746124958E0,-7.271696788E0,-7.850593357E0,-5.231245982E0,1.191114288E1
3.756060958E0,-6.492101412E-2,-5.464924108E0,-3.073430448E0,6.270214109E0
3.765997958E0,4.544247259E0,-1.759357023E-1,-3.452021874E0,5.709430054E0
3.775933958E0,3.839932008E0,7.469484705E-1,-2.860048592E-1,3.922347336E0
3.785869958E0,-3.080222866E0,-3.139333831E0,-1.795802718E0,4.750589144E0
3.795805958E0,-5.912210963E0,-4.631599984E0,-2.542563493E0,7.929097426E0
3.805742958E0,-4.051560284E0,-3.936042691E0,-3.442082777E0,6.614794528E0
3.815678958E0,-2.893222770E0,-3.650067653E0,-4.028694162E0,6.158255315E0
3.825614958E0,-2.408817206E0,-3.506039037E0,-3.309797709E0,5.389756111E0
3.835550958E0,-2.084368366E0,-2.321716497E0,-2.612900820E0,4.069669479E0
3.845487958E0,-2.491155358E0,-8.460827494E-1,-1.964311287E0,3.283326038E0
3.855423958E0,-3.402979522E0,2.596432722E-1,-7.436254978E-1,3.492944766E0
3.865359958E0,-3.971411037E0,1.242026373E0,4.507106915E-3,4.161100269E0
3.875295958E0,-2.429207616E0,1.366625276E0,4.521885753E-2,2.787608120E0
3.885231958E0,-9.091803458E-1,1.415094016E0,3.325311542E-1,1.714548612E0
3.895168958E0,1.591170636E-1,2.204976252E0,6.840447092E-1,2.314120929E0
3.905104958E0,2.834516725E-1,3.216785465E0,5.237175643E-1,3.271442138E0
3.915041125E0,-4.468091369E-1,4.022242929E0,1.188120599E-1,4.048727318E0
3.924977125E0,-1.215205194E0,4.596483361E0,-3.343717115E-1,4.766150164E0
3.934914125E0,-2.196148710E0,5.028770353E0,-4.865959311E-1,5.508936015E0
3.944850125E0,-2.701541978E0,5.211398778E0,3.989189789E-2,5.870144602E0
3.954786125E0,-2.483239105E0,5.364782354E0,1.015297516E0,5.998182659E0
3.964722125E0,-2.359181947E0,5.651944962E0,1.662894483E0,6.346293357E0
3.974658125E0,-2.125930375E0,5.742289706E0,1.435615404E0,6.289233866E0
3.984595125E0,-1.603065334E0,5.386477278E0,9.749789174E-1,5.703905664E0
3.994531125E0,-1.239456521E0,4.774653284E0,4.717733856E-1,4.955414874E0
4.004467125E0,-3.945177431E-1,4.334373733E0,2.974865980E-1,4.362446353E0
4.014403125E0,-1.810166038E-1,3.397748019E0,5.433549996E-1,3.445677475E0
4.024340125E0,-2.406272498E-1,2.312141681E0,5.946688485E-1,2.399485709E0
4.034276125E0,-8.251532257E-2,1.176637545E0,7.320901108E-1,1.388250921E0
4.044212125E0,4.493675861E-1,2.125889736E-1,1.202636750E0,1.301330263E0
4.054148125E0,7.455884081E-1,-6.991164923E-1,1.545600361E0,1.852983113E0
4.064084125E0,1.290682516E0,-1.274153314E0,1.486658234E0,2.345097169E0
4.074021125E0,1.887076293E0,-1.490757571E0,1.987536720E0,3.119890589E0
4.083957125E0,1.829602841E0,-9.250850648E-1,3.186786617E0,3.789305725E0
4.093893125E0,1.647793610E0,5.011590064E-2,4.280980175E0,4.587431378E0
4.103829125E0,2.424755254E0,9.940237373E-1,5.842550744E0,6.403352280E0
4.113766125E0,3.856869930E0,2.411682926E0,6.111301054E0,7.618376518E0
4.123702125E0,3.776109357E0,1.655602275E0,6.149776318E0,7.404037380E0
4.133638125E0,2.945048397E0,1.200836831E-1,5.963247215E0,6.651920587E0
4.143574125E0,3.032694066E0,-1.345382926E0,5.080776658E0,6.068078771E0
4.153510125E0,2.567056310E0,-2.613264517E0,4.257114472E0,5.616222321E0
4.163447125E0,1.703461150E0,-3.646067573E0,3.552556269E0,5.368076441E0
4.173383125E0,9.502766240E-1,-3.984955235E0,3.090654591E0,5.131767697E0
4.183319125E0,4.118204217E-1,-3.438660402E0,2.380914585E0,4.202705757E0
4.193255125E0,8.477288868E-1,-2.816039523E0,1.093866699E0,3.137716880E0
4.203192125E0,9.204401828E-1,-2.728883266E0,-4.171242848E-1,2.909983965E0
4.213128125E0,-8.460137522E-1,-2.948060297E0,-2.202846403E0,3.776152945E0
4.223064125E0,-7.324110498E-1,-3.070775228E0,-4.131234152E0,5.199344388E0
4.233000125E0,-3.430339960E-1,-2.596088321E0,-4.452523449E0,5.165492422E0
4.242936125E0,-1.387532580E0,-2.058454968E0,-4.075705484E0,4.772196424E0
4.252873125E0,-2.705586789E0,-2.700241265E0,-5.097445900E0,6.371456464E0
4.262809125E0,-3.913401103E0,-2.789149348E0,-6.441850587E0,8.036883803E0
4.272745125E0,-4.636145609E0,-2.605931523E0,-6.316307359E0,8.257146230E0
4.282681125E0,-4.113140236E0,-4.851728357E0,-5.646125228E0,8.505052660E0
4.292618125E0,-4.503243367E0,-6.058342822E0,-5.534967320E0,9.360479785E0
4.302554125E0,-3.865499835E0,-6.852643799E0,-5.075157484E0,9.362587223E0
4.312490125E0,-2.059704079E0,-8.713020828E0,-4.865744133E0,1.018992536E1
4.322426125E0,3.087806413E-1,-6.346532786E0,-5.051917140E0,8.117616071E0
4.332362125E0,1.380112902E0,-3.374465575E0,-4.499930627E0,5.791468310E0
4.342299125E0,1.995048784E0,-1.067376473E0,-3.172985434E0,3.897094912E0
4.352235125E0,2.922253026E0,8.292831141E-1,9.229844525E-2,3.039044626E0
4.362171125E0,5.090297095E0,1.371244576E0,1.564399159E0,5.498979990E0
4.372107125E0,5.914227667E0,1.992831082E0,7.702350068E-1,6.288300771E0
4.382044125E0,6.574786450E0,4.109419652E0,2.685930935E-1,7.758046725E0
4.391980125E0,6.427075258E0,5.988450469E0,7.708035024E-1,8.818331669E0
4.401916125E0,4.971041377E0,5.866645365E0,5.039949790E-1,7.706023044E0
4.411852125E0,4.146737460E0,5.484004743E0,3.057521490E-1,6.882094445E0
4.421788125E0,2.874048873E0,6.103813695E0,-3.003198664E-1,6.753287390E0
4.431725125E0,3.836488656E-1,6.697936998E0,-6.645570358E-1,6.741749219E0
4.441661125E0,-9.776329686E-1,6.479074547E0,-6.021461948E-1,6.580026842E0
4.451597125E0,-1.103435082E0,6.552685145E0,-2.274636324E-1,6.648833829E0
4.461533125E0,-1.644872195E0,6.596302450E0,-5.616601467E-2,6.798526691E0
4.471470125E0,-2.309790516E0,6.029250001E0,4.748535526E-1,6.473984376E0
4.481406125E0,-2.435006885E0,5.614398236E0,1.613242121E0,6.328765774E0
4.491342125E0,-2.525319470E0,5.340326375E0,2.535167935E0,6.428327984E0
4.501278125E0,-1.645469342E0,4.584086679E0,2.551252456E0,5.498209629E0
4.511214125E0,-8.980273667E-1,3.401738158E0,2.092454188E0,4.093487532E0
4.521151125E0,-5.264572772E-1,2.529244121E0,1.646579436E0,3.063569311E0
4.531087125E0,1.750755952E-1,1.855437886E0,1.293805221E0,2.268751455E0
4.541023125E0,3.300768219E-1,6.449782920E-1,1.340352566E0,1.523644548E0
4.550959125E0,3.762952610E-1,-7.426156837E-1,1.660643159E0,1.857636100E0
4.560896125E0,1.212365275E0,-1.546310797E0,1.953529022E0,2.770772867E0
4.570832125E0,2.488981948E0,-1.523750485E0,2.738275648E0,4.001874586E0
4.580768125E0,4.123490684E0,-1.601705564E0,3.911635244E0,5.905042457E0
4.590704125E0,4.743287650E0,-2.435114474E0,4.248526082E0,6.817516711E0
4.600640125E0,3.700473283E0,-4.004380855E0,2.477036086E0,5.988679013E0
4.610577125E0,2.287972215E0,-3.841654598E0,1.219071958E0,4.634572617E0
4.620513125E0,1.343981056E0,-3.145607309E0,2.847687578E-1,3.432524387E0
4.630449125E0,6.838537976E-1,-2.966108898E0,5.842935491E-1,3.099493017E0
4.640385125E0,5.054163641E-1,-2.627366247E0,1.909666718E0,3.287145581E0
4.650322125E0,7.028218728E-1,-2.430864717E0,3.014768257E0,3.935973768E0
4.660258125E0,9.334334269E-1,-2.538920678E0,2.949651909E0,4.002232197E0
4.670194125E0,8.322444364E-1,-2.913387478E0,3.862916243E-1,3.054452262E0
4.680130125E0,-9.740511104E-1,-5.220535052E0,-2.571632926E0,5.900513342E0
4.690066125E0,-4.854517479E0,-7.645481803E0,-4.689235404E0,1.019846364E1
4.700003125E0,-7.392860452E0,-6.588961855E0,-4.374610178E0,1.082617283E1
4.709939125E0,-1.267748274E0,-3.386762270E0,-1.739658923E0,4.012948732E0
4.719875125E0,5.912439004E0,1.058164769E-1,-1.393432420E0,6.075342461E0
4.729811125E0,3.751165427E0,-2.268304521E0,-2.718582226E0,5.158210618E0
4.739748125E0,-3.034093305E0,-5.877924060E0,-1.257698665E0,6.733314144E0
4.749684125E0,-5.504616762E0,-5.524089160E0,-3.003784847E0,8.356978530E0
4.759620125E0,-3.765948650E0,-4.455976523E0,-3.917815751E0,7.027615261E0
4.769556125E0,-2.275785156E0,-3.904004043E0,-3.504301829E0,5.718441829E0
4.779492125E0,-1.906419175E0,-3.263868999E0,-3.285896630E0,5.008432048E0
4.789429125E0,-1.996125403E0,-2.702874851E0,-3.087667834E0,4.563303818E0
4.799365125E0,-2.479256859E0,-2.342655961E0,-2.364067880E0,4.150128729E0
4.809301125E0,-3.425626081E0,-1.555547644E0,-8.839341883E-1,3.864709843E0
4.819237125E0,-4.194942198E0,-4.522856390E-1,-8.950793467E-2,4.220203077E0
4.829174125E0,-3.923008078E0,2.215235192E-1,5.627258018E-2,3.929660501E0
4.839110125E0,-2.461095407E0,1.049410318E0,-2.475102266E-1,2.686915319E0
4.849046125E0,-1.121476666E0,1.666636555E0,-2.353106689E-1,2.022562343E0
4.858982125E0,1.400361736E-1,2.257936238E0,-2.439330462E-1,2.275387773E0
4.868918125E0,3.814314187E-1,3.028777601E0,-4.075040802E-1,3.079779742E0
4.878855125E0,-2.801629061E-1,3.882787421E0,-6.580899422E-1,3.948114965E0
4.888791125E0,-1.151529893E0,4.454835146E0,-7.262510812E-1,4.658220466E0
4.898727125E0,-1.570223570E0,4.829946894E0,-4.477436681E-1,5.098476582E0
4.908663208E0,-1.480736320E0,5.047791930E0,4.459520812E-1,5.279361389E0
4.918600208E0,-1.698642752E0,5.028397885E0,1.373734467E0,5.482455551E0
4.928536208E0,-2.266850318E0,4.741781407E0,1.438338013E0,5.449029044E0
4.938472208E0,-2.234409966E0,4.686945634E0,1.304189876E0,5.353593046E0
4.948408208E0,-1.019547418E0,5.060275151E0,8.074420094E-1,5.224731968E0
4.958344208E0,-8.069295010E-1,4.865664611E0,4.627008457E-1,4.953778295E0
4.968281208E0,-5.349374941E-1,4.383830652E0,3.365834208E-1,4.429155417E0
4.978217208E0,-9.969970465E-2,3.825012252E0,7.641410387E-1,3.901867539E0
4.988153208E0,-8.453056544E-2,3.019260088E0,8.584519494E-1,3.140066344E0
4.998089208E0,5.774128380E-1,2.496581574E0,1.334256405E0,2.889042280E0
5.008025208E0,8.366681474E-1,1.897679926E0,1.601256644E0,2.620157540E0
5.017962208E0,9.509493461E-1,1.373032655E0,1.666749260E0,2.359571238E0
5.027898208E0,2.670911631E-1,6.393813372E-1,1.367432191E0,1.532976510E0
5.037834208E0,-1.627268422E-1,1.014240485E-1,1.320178503E0,1.334030788E0
5.047770208E0,-3.036649123E-1,4.738583565E-3,1.383613484E0,1.416552542E0
5.057707208E0,-1.244164882E-1,3.289251763E-1,1.961164462E0,1.992445051E0
5.067643208E0,4.692574383E-1,1.055265135E0,3.149141366E0,3.354232907E0
5.077579208E0,1.495415755E0,2.584846464E0,4.678799585E0,5.550573401E0
5.087515208E0,2.037013374E0,2.189838395E0,5.800468333E0,6.526120483E0
5.097451208E0,2.330460569E0,8.339643949E-1,6.467352633E0,6.924824414E0
5.107388208E0,3.099577735E0,-5.052988350E-2,6.078020457E0,6.822922254E0
5.117324208E0,2.929779562E0,-1.170244199E0,5.550810935E0,6.384714701E0
5.127260208E0,2.525534647E0,-2.278958732E0,4.683686396E0,5.788686933E0
5.137196208E0,1.770367330E0,-3.168584527E0,4.039807673E0,5.430853931E0
5.147133208E0,9.465519476E-1,-3.295006592E0,3.568326209E0,4.948331130E0
5.157069208E0,4.274713714E-1,-2.425116320E0,2.704549786E0,3.657664621E0
5.167005208E0,9.767821987E-1,-1.397235450E0,1.229922051E0,2.102160464E0
5.176941208E0,2.370442405E-1,-1.392828988E0,-2.055603281E-1,1.427731631E0
5.186877208E0,-1.280447842E0,-1.874239608E0,-2.092700940E0,3.087348055E0
5.196814208E0,-7.050506853E-1,-2.488049317E0,-3.871899905E0,4.656081480E0
5.206750208E0,-5.599872583E-1,-2.175599256E0,-4.043291152E0,4.625475239E0
5.216686208E0,-2.211890584E0,-1.486389701E0,-3.958658260E0,4.772084400E0
5.226622208E0,-3.159587124E0,-2.068491129E0,-4.499458172E0,5.874246351E0
5.236559208E0,-2.733229501E0,-3.844227372E0,-5.438580648E0,7.199082376E0
5.246495208E0,-2.961833706E0,-6.437216084E0,-6.107100999E0,9.354511876E0
5.256431208E0,-3.433838788E0,-7.672468457E0,-5.816251137E0,1.022187842E1
5.266367208E0,-2.927807589E0,-7.282878419E0,-5.762048618E0,9.737226484E0
5.276303208E0,-3.194067570E0,-7.712099715E0,-5.720032865E0,1.011915637E1
5.286240208E0,-2.357709179E0,-8.507559611E0,-5.289249777E0,1.029142975E1
5.296176208E0,-1.645534392E-1,-7.950100104E0,-5.387163742E0,9.604827051E0
5.306112208E0,2.532021256E0,-5.137703980E0,-5.763812138E0,8.125802372E0
5.316048208E0,3.987563093E0,-2.686671047E0,-4.952323855E0,6.902490297E0
5.325985208E0,5.771067948E0,-1.194486170E0,-2.243946190E0,6.306133282E0
5.335921208E0,7.309098503E0,1.873366034E-1,3.039137844E-1,7.317812482E0
5.345857208E0,6.876361860E0,1.804175346E0,1.254255824E0,7.218902879E0
5.355793208E0,6.367358814E0,3.681773010E0,1.496443988E0,7.505868063E0
5.365729208E0,5.768884013E0,4.673894064E0,9.682966463E-1,7.487516736E0
5.375666208E0,4.107539188E0,5.135931104E0,3.348524988E-1,6.584967174E0
5.385602208E0,2.505660546E0,5.358978408E0,1.072496295E-1,5.916797008E0
5.395538208E0,9.587056777E-1,5.891160986E0,-4.605384723E-1,5.986400423E0
5.405474208E0,-3.362758572E-1,6.241116843E0,-8.764531875E-1,6.311322452E0
5.415410208E0,-1.362358124E0,6.124359056E0,-9.195588613E-1,6.341086816E0
5.425347208E0,-2.299971579E0,6.154215524E0,-1.246587785E0,6.687168241E0
5.435283208E0,-2.729130603E0,6.360583645E0,-1.156182815E0,7.017259925E0
5.445219208E0,-2.351487303E0,6.597381261E0,-2.410748541E-1,7.008070285E0
5.455155208E0,-2.130833996E0,6.752108527E0,7.434582675E-1,7.119280391E0
5.465092208E0,-2.504336444E0,6.948314188E0,1.747891803E0,7.589854862E0
5.475028208E0,-1.883354833E0,6.723090550E0,2.393884002E0,7.380897817E0
5.484964208E0,-5.175142533E-1,6.029100897E0,2.929522870E0,6.723093252E0
5.494900208E0,-2.599397991E-3,5.629106907E0,3.157662513E0,6.454276402E0
5.504836208E0,3.946338469E-1,4.758980407E0,2.854275051E0,5.563318835E0
5.514773208E0,2.517924204E0,9.313994730E-1,3.781432954E0,4.637529780E0
5.524709208E0,2.275360064E0,-3.414240675E0,3.376855917E0,5.313892988E0
5.534645208E0,2.266862305E0,-2.922350090E0,1.664888238E0,4.055939793E0
5.544581208E0,3.672837588E0,-1.769597837E0,1.364073551E0,4.299059095E0
5.554518208E0,4.723676673E0,-3.905103904E-1,2.000296222E0,5.144589843E0
5.564454208E0,5.087889211E0,-4.200908697E-1,2.071903564E0,5.509616805E0
5.574390208E0,3.512647268E0,-2.684104119E0,2.183045100E0,4.930394676E0
5.584326208E0,9.766990221E-1,-3.806447343E0,1.999423817E0,4.409158418E0
5.594262208E0,3.352489765E-1,-3.158982815E0,1.555011454E0,3.536894813E0
5.604199208E0,-9.441575128E-1,-3.770397504E0,1.304046620E0,4.099740032E0
5.614135208E0,-4.767772500E-1,-4.013733476E0,2.170107551E0,4.587672585E0
5.624071208E0,9.073416889E-1,-3.142577866E0,4.252264792E0,5.364775899E0
5.634007208E0,2.203468547E0,-2.235577655E0,6.381735363E0,7.111935555E0
5.643944208E0,3.995725514E0,-1.538683105E0,6.207471964E0,7.540959904E0
5.653880208E0,3.655148299E0,-1.729326893E0,2.573245588E0,4.792939958E0
5.663816208E0,-7.162020564E-2,-5.390919993E0,-2.073211586E0,5.776275106E0
5.673752208E0,-4.829378252E0,-1.125897161E1,-2.920043948E0,1.259420473E1
5.683688208E0,-6.267334589E0,-8.465340959E0,-4.844205914E0,1.159343829E1
5.693625208E0,9.682755232E-2,-6.924073970E-1,-5.310493296E0,5.356318010E0
5.703561208E0,4.050228581E0,-2.109090686E-2,-1.726605599E0,4.402949384E0
5.713497208E0,3.290196088E0,-3.577272742E0,-4.231389062E0,6.444138729E0
5.723433208E0,-1.218996821E0,-6.400555211E0,-5.154959114E0,8.308228676E0
5.733370208E0,-3.412707535E0,-5.556304395E0,-3.794255898E0,7.544234160E0
5.743306208E0,-4.894556580E0,-3.962740493E0,-4.520353782E0,7.752005847E0
5.753242208E0,-5.577806361E0,-3.406077962E0,-4.292125261E0,7.818927684E0
5.763178208E0,-4.333696041E0,-3.142277904E0,-4.855932505E0,7.227372434E0
5.773114208E0,-4.405231754E0,-3.019201031E0,-4.275341413E0,6.841066136E0
5.783051208E0,-4.396050164E0,-2.563894136E0,-2.518205162E0,5.678042569E0
5.792987208E0,-3.527417627E0,-1.729971841E0,-4.832676228E-1,3.958411965E0
5.802923208E0,-1.496689279E0,-2.957262061E0,1.023837009E0,3.468965251E0
5.812859208E0,-3.063043747E0,-3.792265506E0,4.873420358E-1,4.899083273E0
5.822795208E0,-2.804147749E0,2.476606901E0,-5.296532191E-2,3.741608165E0
5.832732208E0,-1.770112976E0,5.208299169E0,-7.000426181E-1,5.545244796E0
5.842668208E0,-3.252841151E-1,5.959058270E0,8.700423002E-2,5.968563894E0
5.852604208E0,2.955621332E-1,8.299982870E0,1.214458505E0,8.393567899E0
5.862540208E0,-1.835031688E0,8.348808290E0,1.716869985E0,8.718806324E0
5.872477208E0,-4.629589126E0,6.901245271E0,1.878911387E0,8.520011137E0
5.882413208E0,-5.437508853E0,6.242696761E0,2.654725953E0,8.693982704E0
5.892349208E0,-4.802525207E0,5.294801123E0,3.275065248E0,7.862901479E0
5.902285208E0,-3.635988142E0,4.616916456E0,3.263857305E0,6.722283231E0
5.912220833E0,-2.648282322E0,3.514865409E0,2.400532140E0,5.013006349E0
5.922157833E0,-8.946301344E-1,3.416531614E0,1.376876614E0,3.790625352E0
5.932093833E0,2.649107729E-1,3.002396718E0,8.455215628E-1,3.130410594E0
5.942029833E0,1.949827150E-1,3.354746425E-1,2.290810454E-1,4.505991792E-1
5.951965833E0,1.101877823E0,1.009130019E0,3.469648598E-1,1.533904412E0
5.961902833E0,2.208923707E0,2.698475990E0,9.094959493E-1,3.603928342E0
5.971838833E0,1.932415018E0,1.683216920E0,1.182109369E0,2.822202963E0
5.981774833E0,1.361421546E0,1.447641957E-1,1.208679117E0,1.826288725E0
5.991710833E0,8.606689212E-1,-3.743603808E-1,1.449316599E0,1.726677530E0
6.001646833E0,5.170862371E-1,-7.749045932E-1,1.939168260E0,2.151331877E0
6.011583833E0,7.101678760E-1,-9.608840579E-1,2.454300065E0,2.729693279E0
6.021519833E0,9.728645642E-1,-1.346506761E0,3.496231210E0,3.870811102E0
6.031455833E0,1.844694358E0,1.017860497E0,5.955358737E0,6.317059043E0
6.041391833E0,3.177376401E0,1.361860380E0,8.093147557E0,8.800535317E0
6.051327833E0,5.158813013E0,2.230523906E0,7.729762985E0,9.557082421E0
6.061264833E0,6.189492946E0,2.452302364E0,6.813161645E0,9.525900556E0
6.071200833E0,7.231272647E0,2.272458968E0,5.964191540E0,9.645048190E0
6.081136833E0,7.082789038E0,2.747191483E-1,4.261157530E0,8.270358799E0
6.091072833E0,5.675177119E0,-2.415688269E0,2.923284768E0,6.825597335E0
6.101009833E0,4.126628008E0,-3.680049836E0,2.231779596E0,5.962605611E0
6.110945833E0,2.330359120E0,-3.725414289E0,2.220564929E0,4.923433137E0
6.120881833E0,3.422221832E-1,-2.692638715E0,2.388061345E0,3.615280938E0
6.130817833E0,2.004498616E-5,-1.275872980E0,1.360646205E0,1.865264045E0
6.140753833E0,-6.203274541E-1,-1.168187149E0,-9.944505841E-2,1.326407435E0
6.150690833E0,-2.266434727E0,-1.826208825E0,-1.756708819E0,3.399675120E0
6.160626833E0,-1.233679472E0,-1.967438963E0,-3.514490018E0,4.212412753E0
6.170562833E0,-1.024522303E0,-2.645897827E0,-3.775301271E0,4.722639193E0
6.180498833E0,-1.653808349E0,-2.575994949E0,-4.499862800E0,5.442388928E0
6.190434833E0,-1.917889219E0,-3.963150383E0,-7.276326613E0,8.504692176E0
6.200371833E0,-3.902951544E0,-5.330548661E0,-8.963849423E0,1.113545582E1
6.210307833E0,-4.174811404E0,-6.771668049E0,-9.136260424E0,1.211428054E1
6.220243833E0,-3.718180114E0,-6.775732448E0,-7.710986406E0,1.091763367E1
6.230179833E0,-3.677756266E0,-7.042221640E0,-7.559702564E0,1.096667131E1
6.240116833E0,-3.044959770E0,-7.586362944E0,-6.483383360E0,1.043354889E1
6.250052833E0,-1.394744828E0,-6.149019104E0,-5.852900316E0,8.603033836E0
6.259988833E0,7.801686222E-1,-4.345455961E0,-4.990472260E0,6.663067158E0
6.269924833E0,1.714999314E0,-2.105488216E0,-3.886936605E0,4.741579847E0
6.279860833E0,2.551152468E0,-6.990872562E-1,-8.393349163E-1,2.775172969E0
6.289797833E0,3.223640448E0,7.378560501E-1,3.056926682E0,4.503453123E0
6.299733833E0,4.547590990E0,1.463557493E0,2.584399152E0,5.431547047E0
6.309669833E0,5.227785600E0,2.865945509E0,1.338006517E0,6.110126625E0
6.319605833E0,6.516857500E0,3.587584891E0,6.837944484E-1,7.470459951E0
6.329542833E0,6.346664348E0,4.074366179E0,2.820709987E-1,7.547196311E0
6.339478833E0,3.890469785E0,5.031603329E0,-3.524314948E-1,6.370007470E0
6.349414833E0,2.045631731E0,5.676259439E0,-8.187166838E-1,6.088910199E0
6.359350833E0,1.265297998E0,5.567522863E0,-1.206498179E0,5.835574325E0
6.369286833E0,5.779380642E-1,5.764296287E0,-8.941667426E-1,5.861796504E0
6.379223833E0,-4.167272589E-1,6.162313918E0,-6.176858282E-1,6.207198258E0
6.389159833E0,-8.553903472E-1,6.643211153E0,2.314048385E-1,6.702051571E0
6.399095833E0,-4.096117821E-1,7.013918778E0,1.372094907E0,7.158595034E0
6.409031833E0,-5.168026471E-1,6.964695162E0,1.839960891E0,7.222154786E0
6.418967833E0,-1.384520971E0,6.368472124E0,2.263631426E0,6.899156669E0
6.428904833E0,-1.694475441E0,5.977426713E0,2.490394635E0,6.693500024E0
6.438840833E0,-1.312717017E0,5.309412730E0,2.098870922E0,5.858186465E0
6.448776833E0,-9.673303208E-1,4.458840489E0,1.812101247E0,4.909246112E0
6.458712833E0,-3.331072511E-1,3.012005448E0,1.362162681E0,3.322442539E0
6.468649833E0,7.879658112E-1,1.467877416E0,1.011432652E0,1.948986978E0
6.478585833E0,1.763006563E0,2.446650445E-2,1.106396112E0,2.081562660E0
6.488521833E0,2.342177805E0,-1.085223345E0,1.582446005E0,3.027811410E0
6.498457833E0,2.981520989E0,-1.476826580E0,2.441997231E0,4.127206638E0
6.508393833E0,3.753562785E0,-1.345703353E0,3.714674124E0,5.449674756E0
6.518330833E0,4.847583851E0,-2.350201793E0,4.199543957E0,6.830716441E0
6.528266833E0,5.187514656E0,-3.614308421E0,4.398598380E0,7.702025797E0
6.538202833E0,3.966466339E0,-5.164619299E0,2.522115780E0,6.983352757E0
6.548138833E0,2.594781760E0,-5.505799654E0,6.844072366E-1,6.124960039E0
6.558074833E0,1.707225587E0,-4.997649717E0,-1.057410479E-1,5.282263063E0
6.568011833E0,8.077057189E-1,-4.455459044E0,4.044162387E-1,4.546103421E0
6.577947833E0,5.369182384E-1,-3.451643559E0,2.173351586E0,4.114071167E0
6.587883833E0,1.012613351E0,-2.689182426E0,4.649338682E0,5.465659896E0
6.597819833E0,1.898935323E0,-2.114344994E0,6.598402770E0,7.184380921E0
6.607756833E0,2.090212658E0,-1.589361507E0,3.697100902E0,4.534712122E0
6.617692833E0,8.884499198E-1,-3.141535308E0,-1.862604818E0,3.758707765E0
6.627628833E0,-2.702280774E0,-5.740539050E0,-6.026676641E0,8.750825178E0
6.637564833E0,-9.221895820E0,-9.147612793E0,-7.790688633E0,1.514651814E1
6.647500833E0,-4.080038563E0,-8.141209331E0,-6.169817065E0,1.099966575E1
6.657437833E0,1.668494947E0,-1.387101640E0,-3.285438209E0,3.937261811E0
6.667373833E0,2.289791138E0,4.160054201E-1,-2.846542693E0,3.676820538E0
6.677309833E0,-1.081394588E0,-1.897827276E0,-2.026956017E0,2.979884783E0
6.687245833E0,-4.371720192E0,-3.847714652E0,-6.380855942E-1,5.858668680E0
6.697182833E0,-4.585470130E0,-3.706030769E0,-1.097199612E0,5.997086573E0
6.707118833E0,-4.044362946E0,-3.409130793E0,-2.719202031E0,5.947529242E0
6.717054833E0,-3.632628332E0,-3.202628186E0,-3.659788649E0,6.070162177E0
6.726990833E0,-3.536801823E0,-2.285857862E0,-3.939853907E0,5.766850276E0
6.736926833E0,-3.634296543E0,-1.689349480E0,-3.636596253E0,5.411732193E0
6.746863833E0,-3.488374599E0,-1.000187287E0,-2.362512374E0,4.330195916E0
6.756799833E0,-2.382644338E0,-1.325926316E-1,-1.374773809E0,2.754011233E0
6.766735833E0,-1.599028270E0,2.700635952E-1,-5.814820616E-1,1.722773097E0
6.776671833E0,-1.005344532E0,9.298803663E-1,2.672925997E-1,1.395292248E0
6.786608833E0,-2.283839111E-1,1.697309879E0,3.829727447E-1,1.754904031E0
6.796544833E0,-3.361991856E-2,2.678422964E0,-9.087596387E-3,2.678649372E0
6.806480833E0,-2.331802542E-1,3.749638134E0,-5.816856178E-1,3.801646660E0
6.816416833E0,-1.228578654E0,4.450052124E0,-1.097117678E0,4.745106596E0
6.826352833E0,-2.503888547E0,4.881760826E0,-9.888939750E-1,5.574850484E0
6.836289833E0,-3.050519595E0,5.243064374E0,-1.087944639E-1,6.066896247E0
6.846225833E0,-2.915695374E0,5.314870521E0,9.513563123E-1,6.136302389E0
6.856161833E0,-2.381570058E0,5.276195868E0,1.591776992E0,6.003654951E0
6.866097833E0,-1.726920618E0,5.219767313E0,1.614524123E0,5.730175718E0
6.876033833E0,-1.028121922E0,5.189663508E0,1.183846284E0,5.421359058E0
6.885970833E0,-1.385273910E-1,5.011048611E0,8.665668614E-1,5.087311289E0
6.895906833E0,7.085119446E-1,4.482920492E0,6.629235430E-1,4.586723552E0
6.905842833E0,1.341545544E0,3.594933672E0,4.136457762E-1,3.859325768E0
6.915778875E0,1.806910674E0,2.649471645E0,5.736048388E-1,3.257859527E0
6.925715875E0,1.556012936E0,2.116610205E0,1.233798755E0,2.902322240E0
6.935651875E0,1.400969628E0,1.776064857E0,1.463017941E0,2.693982882E0
6.945587875E0,1.202451540E0,1.314110847E0,1.567035084E0,2.372419857E0
6.955523875E0,9.611094680E-1,6.732425630E-1,1.533091705E0,1.930636458E0
6.965459875E0,9.493282056E-1,9.148319721E-2,1.312035378E0,1.622045021E0
6.975396875E0,8.471146367E-1,-2.571780860E-1,1.286788855E0,1.561912076E0
6.985332875E0,5.945051265E-1,-1.603505337E-1,1.540135553E0,1.658663968E0
6.995268875E0,-2.452924691E-1,1.600587577E-1,3.345546708E0,3.358343339E0
7.005204875E0,1.452598057E0,6.346070856E-1,4.939490386E0,5.187613376E0
7.015140875E0,2.804267032E0,1.336910310E0,5.576414139E0,6.383387612E0
7.025077875E0,3.059778077E0,6.909531945E-1,5.837492902E0,6.626913428E0
7.035013875E0,3.520677249E0,-4.484106892E-1,5.292360495E0,6.372230383E0
7.044949875E0,3.524802460E0,-1.378922555E0,4.743992532E0,6.068865210E0
7.054885875E0,2.556948228E0,-2.450012010E0,4.459505610E0,5.694535396E0
7.064822875E0,1.655390167E0,-3.346307724E0,3.946846007E0,5.432834011E0
7.074758875E0,1.215926741E0,-3.564273797E0,3.543806495E0,5.171178784E0
7.084694875E0,7.516522631E-1,-3.120014046E0,3.401620922E0,4.676589961E0
7.094630875E0,3.748144171E-1,-1.995278726E0,2.709702352E0,3.385869147E0
7.104566875E0,1.781488734E-1,-1.130461498E0,8.080574289E-1,1.400941479E0
7.114503875E0,1.142254035E-2,-7.963995427E-1,-7.686021718E-1,1.106856813E0
7.124439875E0,-7.084502564E-1,-8.867986661E-1,-1.923305933E0,2.233253088E0
7.134375875E0,6.349339815E-2,-2.124924946E0,-3.138945284E0,3.791083609E0
7.144311875E0,4.568375503E-1,-2.825882726E0,-3.691433780E0,4.671295011E0
7.154247875E0,-4.133769139E-1,-3.237301590E0,-5.272751858E0,6.201041381E0
7.164184875E0,-2.120250682E0,-4.042964292E0,-6.800122354E0,8.190402142E0
7.174120875E0,-4.983677210E0,-4.245253980E0,-7.981746404E0,1.032315337E1
7.184056875E0,-4.818882208E0,-5.308021678E0,-8.039563673E0,1.077178276E1
7.193992875E0,-3.911509529E0,-6.190067727E0,-6.657402345E0,9.896355452E0
7.203929875E0,-3.737922653E0,-5.875161250E0,-5.849379122E0,9.094219130E0
7.213865875E0,-2.522902815E0,-4.769489608E0,-4.667999486E0,7.134654086E0
7.223801875E0,-1.105701171E-1,-5.422786149E0,-3.994197929E0,6.735907694E0
7.233737875E0,1.293824809E0,-4.402822409E0,-4.286072223E0,6.279270889E0
7.243673875E0,2.034621278E0,-2.316383252E0,-2.975776684E0,4.284922635E0
7.253610875E0,1.940852551E0,-5.008988053E-1,-9.332144487E-1,2.211039901E0
7.263546875E0,2.551146036E0,1.196401718E0,1.601010915E0,3.240826919E0
7.273482875E0,3.857203513E0,2.011974281E0,1.783510702E0,4.701804959E0
7.283418875E0,4.482442190E0,3.139456623E0,5.966382638E-1,5.504948055E0
7.293354875E0,5.754844263E0,3.412325127E0,-4.757176980E-1,6.707346912E0
7.303291875E0,6.186089866E0,3.656015441E0,-5.938291883E-1,7.210186533E0
7.313227875E0,4.685302566E0,4.602944534E0,-3.373855126E-1,6.576700351E0
7.323163875E0,1.844778851E0,5.304565389E0,-5.168329795E-1,5.639923696E0
7.333099875E0,1.038159983E0,5.726292309E0,-6.289768016E-1,5.853529839E0
7.343036875E0,4.862654172E-1,6.182999028E0,-4.265274847E-1,6.216740040E0
7.352972875E0,-8.310412256E-1,5.822638636E0,-2.896020663E-1,5.888770632E0
7.362908875E0,-1.615396381E0,5.668188527E0,-2.759184122E-2,5.893948418E0
7.372844875E0,-1.984844224E0,5.807222452E0,8.661900815E-1,6.197880642E0
7.382780875E0,-2.468881852E0,5.800260757E0,1.628192282E0,6.510715210E0
7.392717875E0,-2.833307228E0,5.650305403E0,2.170072467E0,6.683022932E0
7.402653875E0,-2.798700775E0,5.136251532E0,2.369532688E0,6.310981777E0
7.412589875E0,-2.100884996E0,4.283928634E0,2.139138358E0,5.228926775E0
7.422525875E0,-1.342279809E0,3.349365817E0,1.827575319E0,4.044749437E0
7.432462875E0,-4.706021883E-1,2.617556958E0,1.618249676E0,3.113166051E0
7.442398875E0,6.117805789E-1,1.687221093E0,1.489410957E0,2.332238301E0
7.452334875E0,1.359745588E0,7.261867619E-1,1.508779274E0,2.157004908E0
7.462270875E0,2.235945152E0,-1.402630091E-2,2.004892133E0,3.003204943E0
7.472206875E0,3.174979627E0,-7.777685595E-1,2.792633704E0,4.299328153E0
7.482143875E0,4.001698152E0,-1.681364522E0,3.315270703E0,5.461830700E0
7.492079875E0,4.331865277E0,-2.990564877E0,3.350763302E0,6.239883795E0
7.502015875E0,3.673723733E0,-4.611889604E0,2.200708369E0,6.293559336E0
7.511951875E0,2.722542838E0,-4.911087536E0,1.866720089E0,5.917403500E0
7.521887875E0,1.662314878E0,-4.585749042E0,1.285688117E0,5.044341281E0
7.531824875E0,4.745255238E-1,-4.359802689E0,4.042326361E-1,4.404141004E0
7.541760875E0,-2.189979971E-1,-3.609674503E0,5.536646640E-1,3.658449767E0
7.551696875E0,2.311342952E-1,-2.590186141E0,2.147878776E0,3.372813446E0
7.561632875E0,9.688598062E-1,-1.914857876E0,4.069359793E0,4.600549873E0
7.571569875E0,1.341605040E0,-2.453443156E0,4.158557898E0,5.011276404E0
7.581505875E0,1.266142629E0,-3.275175760E0,9.099121249E-1,3.627372809E0
7.591441875E0,-9.682003865E-1,-5.346182361E0,-2.523056012E0,5.990399775E0
7.601377875E0,-3.446664070E0,-7.261879898E0,-3.435754336E0,8.741784756E0
7.611313875E0,-4.475384601E0,-4.851917222E0,-5.551700882E0,8.625053666E0
7.621250875E0,-7.649684928E-1,-1.585324590E0,-2.616124974E0,3.153179464E0
7.631186875E0,2.602939503E0,-2.621897346E-1,-2.162288654E-1,2.625031892E0
7.641122875E0,8.726886769E-1,-1.357935144E0,-3.783773010E0,4.113698041E0
7.651058875E0,-2.621117912E0,-3.474414956E0,-1.859717463E0,4.732902644E0
7.660994875E0,-3.848331241E0,-3.055404652E0,-1.802943338E0,5.234095491E0
7.670931875E0,-3.340077515E0,-2.800673041E0,-2.932860460E0,5.253718471E0
7.680867875E0,-2.396522850E0,-3.325189335E0,-3.514519254E0,5.399263975E0
7.690803875E0,-2.279232528E0,-3.089257692E0,-3.892380363E0,5.467086874E0
7.700739875E0,-2.937359893E0,-2.540771322E0,-3.527760859E0,5.246779843E0
7.710676875E0,-3.882068506E0,-2.064733123E0,-2.490685827E0,5.053424051E0
7.720612875E0,-3.994516310E0,-1.067548381E0,-1.419438497E0,4.371570169E0
7.730548875E0,-2.408753033E0,-3.060923839E-1,-1.192371233E0,2.705093876E0
7.740484875E0,-1.435280943E0,3.780809641E-2,-6.712673736E-1,1.584948177E0
7.750420875E0,-9.449134116E-1,7.885964334E-1,-8.406658888E-2,1.233617802E0
7.760357875E0,-5.395914392E-1,1.666474587E0,1.608732748E-1,1.759027198E0
7.770293875E0,-5.308934136E-1,2.425679407E0,-3.373469210E-1,2.505907290E0
7.780229875E0,-1.334748156E0,2.969728324E0,-1.204312562E0,3.471484943E0
7.790165875E0,-2.372477345E0,3.336184439E0,-1.637427228E0,4.409075106E0
7.800102875E0,-3.280054092E0,3.361606963E0,-1.380781385E0,4.895478879E0
7.810038875E0,-3.457465924E0,3.404900917E0,-5.621523361E-1,4.885021609E0
7.819974875E0,-2.929887736E0,3.915658713E0,6.794862199E-1,4.937441324E0
7.829910875E0,-2.288291473E0,4.376505845E0,1.316811822E0,5.111171554E0
7.839846875E0,-1.777056106E0,4.658180841E0,1.241356720E0,5.137853994E0
7.849783875E0,-1.268505489E0,4.807204733E0,9.669446969E-1,5.064909236E0
7.859719875E0,-5.433033979E-1,4.592537659E0,9.126848745E-1,4.713764357E0
7.869655875E0,5.874127463E-2,4.036242333E0,8.740581679E-1,4.130215538E0
7.879591875E0,9.912654595E-1,3.558764550E0,7.005796118E-1,3.760082995E0
7.889527875E0,1.933415038E0,2.848892105E0,6.020293236E-1,3.495242372E0
7.899464875E0,2.082505589E0,2.009620192E0,1.079002784E0,3.088632360E0
7.909400875E0,1.967959511E0,1.406869907E0,9.985809110E-1,2.617118914E0
7.919337250E0,1.853722313E0,8.964547580E-1,1.178883022E0,2.372695245E0
7.929273250E0,1.521272289E0,9.426571172E-1,1.290229941E0,2.206255905E0
7.939210250E0,1.413267638E0,8.817045718E-1,1.492120264E0,2.236325390E0
7.949146250E0,1.566261059E0,9.549567354E-1,1.757957200E0,2.540773423E0
7.959082250E0,1.918020343E0,8.634904951E-1,2.256503963E0,3.084838408E0
7.969018250E0,1.073340414E0,8.256508237E-1,3.014010166E0,3.304242153E0
7.978954250E0,-1.093337599E-1,7.406983817E-1,5.106590946E0,5.161187756E0
7.988891250E0,9.981410542E-1,1.249303232E0,5.636206012E0,5.858657042E0
7.998827250E0,1.487076456E0,1.533372663E0,5.046754049E0,5.480178331E0
8.008763250E0,1.450867866E0,5.849174470E-1,5.174202300E0,5.405507879E0
8.018699250E0,1.671893202E0,-8.694833064E-1,5.204120164E0,5.534807565E0
8.028635250E0,1.465047510E0,-1.528148761E0,5.095302311E0,5.517581760E0
8.038572250E0,1.277737365E0,-1.713213136E0,4.929799796E0,5.373140427E0
8.048508250E0,1.073956929E0,-2.123524538E0,4.273719395E0,4.891565948E0
8.058444250E0,8.622111974E-1,-2.147350772E0,3.380560713E0,4.096671114E0
8.068380250E0,8.982648367E-1,-1.729160247E0,2.195656082E0,2.935605646E0
8.078316250E0,1.599814136E0,-1.569794385E0,8.035471791E-1,2.381039216E0
8.088253250E0,1.522229332E0,-1.801960421E0,-2.971005356E-1,2.377501257E0
8.098189250E0,4.384354855E-1,-2.044028717E0,-1.366797476E0,2.497681808E0
8.108125250E0,5.865442155E-1,-2.979367459E0,-2.892724295E0,4.193866762E0
8.118061250E0,3.120273077E-1,-3.164480951E0,-3.394408089E0,4.651161899E0
8.127998250E0,-8.624869667E-1,-2.727878714E0,-4.342716540E0,5.200422386E0
8.137934250E0,-2.924589281E0,-2.586246287E0,-6.277341514E0,7.392354754E0
8.147870250E0,-4.760565587E0,-2.736060138E0,-7.054392035E0,8.939432688E0
8.157806250E0,-4.990869870E0,-4.172066136E0,-7.340304508E0,9.807904372E0
8.167742250E0,-4.597439380E0,-5.276444374E0,-6.265203863E0,9.393087540E0
8.177679250E0,-3.911262776E0,-5.896052767E0,-5.253803955E0,8.812710749E0
8.187615250E0,-2.745651619E0,-6.456688482E0,-4.658690718E0,8.422044180E0
8.197551250E0,-6.027910696E-1,-6.022599378E0,-4.074564400E0,7.296378237E0
8.207487250E0,1.272057380E0,-5.010331158E0,-4.159518596E0,6.634993839E0
8.217423250E0,1.842604710E0,-3.633528804E0,-4.585218115E0,6.133673356E0
8.227360250E0,2.003068533E0,-1.948379379E0,-4.139566727E0,4.994444758E0
8.237296250E0,1.936520641E0,-1.654966682E-1,-1.264580691E0,2.318763822E0
8.247232250E0,2.400447502E0,1.338111328E0,1.060169341E0,2.945615244E0
8.257168250E0,2.968077071E0,2.104725739E0,1.695958003E0,4.014427167E0
8.267105250E0,3.360807649E0,2.892246285E0,8.345507245E-1,4.511827960E0
8.277041250E0,4.457419615E0,3.215555211E0,-3.196205020E-2,5.496308444E0
8.286977250E0,4.885963512E0,3.536738673E0,3.323922828E-2,6.031771277E0
8.296913250E0,4.191970058E0,3.979923706E0,-1.335211694E-1,5.781888409E0
8.306849250E0,2.234866633E0,4.569103189E0,-6.062392458E-1,5.122388002E0
8.316786250E0,5.662127888E-1,4.772403860E0,-7.497826159E-1,4.864011667E0
8.326722250E0,4.144715858E-1,4.878177068E0,-3.762892310E-1,4.910192642E0
8.336658250E0,1.555233648E-1,5.435272293E0,2.790724003E-1,5.444653692E0
8.346594250E0,-6.349123102E-1,5.610246128E0,2.844110544E-1,5.653217218E0
8.356530250E0,-9.690340532E-1,5.313485901E0,5.948782519E-1,5.433786852E0
8.366467250E0,-1.510813374E0,5.399110773E0,1.332873977E0,5.762769059E0
8.376403250E0,-2.537286966E0,5.284576682E0,1.866452286E0,6.152090701E0
8.386339250E0,-2.961576429E0,4.915149597E0,2.174259074E0,6.136532655E0
8.396275250E0,-2.711459148E0,4.276189259E0,1.948542516E0,5.425368488E0
8.406211250E0,-2.078718640E0,3.417233865E0,1.455498276E0,4.256410894E0
8.416148250E0,-1.063706176E0,2.627221820E0,9.611489367E-1,2.992920413E0
8.426084250E0,-1.520061184E-1,1.793101305E0,6.584502769E-1,1.916213693E0
8.436020250E0,7.923855753E-1,9.119282448E-1,7.680925870E-1,1.431591508E0
8.445956250E0,1.691784845E0,2.819059610E-1,1.368712732E0,2.194306604E0
8.455893250E0,2.226521487E0,1.861075187E-1,2.526042770E0,3.372376909E0
8.465829250E0,3.027358190E0,-2.130707842E-1,3.321032549E0,4.498839179E0
8.475765250E0,3.972652401E0,-1.239921960E0,3.528771257E0,5.456335781E0
8.485701250E0,4.086933015E0,-2.506749882E0,3.217024616E0,5.773739154E0
8.495637250E0,3.286452116E0,-3.864251162E0,1.936746343E0,5.429934710E0
8.505574250E0,2.513643457E0,-4.099674683E0,1.025356042E0,4.917020535E0
8.515510250E0,1.626854439E0,-3.969802760E0,4.834898901E-1,4.317377884E0
8.525446250E0,2.194148670E-1,-3.598899254E0,6.950199330E-1,3.671957438E0
8.535382250E0,-5.407490417E-2,-3.350034739E0,1.837445419E0,3.821238348E0
8.545318250E0,1.024338627E0,-3.383424679E0,4.051149809E0,5.376676200E0
8.555255250E0,1.998002359E0,-3.248887264E0,5.389276925E0,6.602392571E0
8.565191250E0,1.998445578E0,-3.229571571E0,2.752293763E0,4.690313233E0
8.575127250E0,3.637920501E-1,-4.165546491E0,-1.235800842E0,4.360197925E0
8.585063250E0,-1.730876698E0,-6.416893501E0,-4.064665064E0,7.790632736E0
8.595000250E0,-3.915247654E0,-7.859497497E0,-4.906969342E0,1.005878786E1
8.604936250E0,-1.040644172E0,-5.014024844E0,-4.015259600E0,6.507356997E0
8.614872250E0,2.275928413E0,-1.043042700E0,-1.396260134E0,2.866588666E0
8.624808250E0,1.418614039E0,-1.080811620E0,-8.003540146E-1,1.954785436E0
8.634744250E0,-1.572280913E0,-2.683681365E0,-9.996119213E-1,3.267022641E0
8.644681250E0,-2.755476987E0,-2.681817273E0,-1.922371548E0,4.298873071E0
8.654617250E0,-3.136676272E0,-2.142555470E0,-2.448263108E0,4.519211681E0
8.664553250E0,-3.094889437E0,-1.950061038E0,-3.311486385E0,4.934270033E0
8.674489250E0,-2.660177605E0,-1.835567878E0,-3.570113411E0,4.815762047E0
8.684425250E0,-2.827899139E0,-1.334135222E0,-3.406189059E0,4.623748937E0
8.694362250E0,-3.297502769E0,-5.981689918E-1,-2.261215357E0,4.042823956E0
8.704298250E0,-3.371258377E0,-2.626341230E-1,-6.873786454E-1,3.450630251E0
8.714234250E0,-2.280721522E0,3.019905621E-1,-2.821959829E-1,2.317870474E0
8.724170250E0,-1.501321882E0,4.362975973E-1,2.137274265E-2,1.563579157E0
8.734106250E0,-9.437349784E-1,1.074089661E0,4.070013658E-1,1.486591545E0
8.744043250E0,-2.924341652E-1,1.848827609E0,4.907427764E-1,1.935073575E0
8.753979250E0,-2.832604320E-1,2.229514677E0,1.994978618E-1,2.256273823E0
8.763915250E0,-9.973967037E-1,2.565337813E0,-5.927182174E-1,2.815505846E0
8.773851250E0,-1.833900544E0,2.866971695E0,-1.260754420E0,3.629355262E0
8.783788250E0,-2.649432469E0,3.159080463E0,-1.389997766E0,4.351020061E0
8.793724250E0,-3.126358567E0,3.565398216E0,-6.089171974E-1,4.780895573E0
8.803660250E0,-2.754269245E0,4.239494473E0,3.877766709E-1,5.070471694E0
8.813596250E0,-2.368077754E0,4.430876180E0,1.151965657E0,5.154365222E0
8.823532250E0,-1.787430529E0,4.391736088E0,1.615393896E0,5.009166717E0
8.833469250E0,-1.106098489E0,4.242007021E0,1.313178216E0,4.576299211E0
8.843405250E0,-2.166824631E-1,3.870671405E0,8.033410648E-1,3.959091472E0
8.853341250E0,5.421520811E-1,3.403684112E0,3.959699357E-1,3.469263121E0
8.863277250E0,1.095323679E0,2.845251628E0,-1.081135556E-2,3.048820702E0
8.873213250E0,1.724724550E0,2.129453614E0,-1.355630171E-1,2.743651727E0
8.883150250E0,1.866600075E0,1.437283614E0,4.030076444E-1,2.390061754E0
8.893086250E0,1.670470428E0,9.700840670E-1,9.903841379E-1,2.170805217E0
8.903022250E0,1.402930491E0,5.996191013E-1,1.271647782E0,1.986163415E0
8.912958250E0,1.091247146E0,5.764536023E-2,1.469230754E0,1.831060439E0
8.922894250E0,6.918171206E-1,-3.624297220E-1,1.556172273E0,1.741160066E0
8.932831250E0,9.662832306E-1,-3.995279664E-1,1.653316306E0,1.956215909E0
8.942767250E0,9.115747806E-1,8.270477235E-2,1.696291586E0,1.927488990E0
8.952703250E0,-2.404451273E-1,9.699583519E-1,3.267936615E0,3.417315143E0
8.962639250E0,-3.864478911E-1,9.676112795E-1,4.719960183E0,4.833594696E0
8.972576250E0,3.243860558E-1,9.552871031E-1,4.573540056E0,4.683488914E0
8.982512250E0,9.370081222E-1,1.121222312E0,4.560379435E0,4.788756027E0
8.992448250E0,1.158343507E0,4.455385369E-1,5.132112873E0,5.280042311E0
9.002384250E0,1.579067192E0,-4.400579417E-1,5.452760146E0,5.693829765E0
9.012320250E0,1.949852000E0,-5.823230374E-1,5.294559048E0,5.672158184E0
9.022257250E0,1.539711776E0,-1.131377172E0,4.814568425E0,5.179845149E0
9.032193250E0,8.586579175E-1,-2.194331980E0,3.674216361E0,4.364888559E0
9.042129250E0,7.881226628E-1,-2.731881718E0,2.127613203E0,3.551204443E0
9.052065250E0,1.730828166E0,-2.913358242E0,5.582082430E-1,3.434387693E0
9.062001250E0,1.838190500E0,-3.260248404E0,-7.498796797E-1,3.817130271E0
9.071938250E0,9.601837807E-1,-3.424290285E0,-1.629519307E0,3.911911300E0
9.081874250E0,6.637336016E-1,-3.435888821E0,-2.192779837E0,4.129667989E0
9.091810250E0,3.840906592E-1,-3.718548489E0,-3.031981583E0,4.813319106E0
9.101746250E0,-5.770326228E-1,-3.734002680E0,-4.261726756E0,5.695441827E0
9.111682250E0,-2.398062715E0,-2.514743611E0,-6.076001998E0,6.999460014E0
9.121619250E0,-4.758090461E0,-1.589669071E0,-6.306084087E0,8.058112006E0
9.131555250E0,-5.339514781E0,-1.989610435E0,-6.025038836E0,8.292771597E0
9.141491250E0,-5.225964777E0,-3.051333820E0,-4.953807878E0,7.820585555E0
9.151427250E0,-4.571164040E0,-3.798486943E0,-3.971834668E0,7.148392432E0
9.161363250E0,-3.092701409E0,-4.942820376E0,-3.687572279E0,6.898874153E0
9.171300250E0,-1.084629048E0,-6.112305606E0,-3.602885885E0,7.177568300E0
9.181236250E0,1.546819797E0,-5.432858562E0,-3.715605000E0,6.761236881E0
9.191172250E0,2.172732950E0,-3.899627402E0,-4.669115134E0,6.459759940E0
9.201108250E0,2.686326353E0,-2.511084423E0,-5.255484445E0,6.414203848E0
9.211045250E0,2.902773612E0,-8.057492405E-1,-1.843547573E0,3.531854207E0
9.220981250E0,3.031227877E0,7.535546547E-1,9.569180377E-1,3.266784228E0
9.230917250E0,3.547461882E0,1.488349687E0,9.136262763E-1,3.954033835E0
9.240853250E0,3.840765528E0,2.280098355E0,-8.937110983E-2,4.467473061E0
9.250789250E0,4.648348748E0,2.884126841E0,-1.076010618E0,5.575224890E0
9.260726250E0,4.730177608E0,3.344606768E0,-7.086206297E-1,5.836361695E0
9.270662250E0,3.700881127E0,3.661366813E0,-4.359029102E-1,5.224187917E0
9.280598250E0,9.519101898E-1,4.409124538E0,-1.108405508E-2,4.510724449E0
9.290534250E0,-7.126967237E-1,5.164331031E0,2.683450254E-1,5.220178222E0
9.300470250E0,-7.713550410E-1,5.551600310E0,1.749159479E-1,5.607659956E0
9.310407250E0,-4.635400674E-1,5.306642320E0,-9.820749521E-2,5.327754388E0
9.320343250E0,-8.047658850E-1,5.376265116E0,7.646886304E-2,5.436701410E0
9.330279250E0,-1.238219981E0,5.524521269E0,6.854867788E-1,5.702930484E0
9.340215250E0,-1.944983608E0,5.511410058E0,1.155795802E0,5.957723223E0
9.350151250E0,-2.645659845E0,5.286011589E0,1.669342647E0,6.142323616E0
9.360088250E0,-2.453005784E0,4.908598377E0,1.866946961E0,5.796297642E0
9.370024250E0,-2.003662172E0,4.242802827E0,1.720802822E0,4.997719508E0
9.379960250E0,-1.333780442E0,3.420104263E0,1.340909221E0,3.908211992E0
9.389896250E0,-5.602294792E-1,2.536237975E0,8.223722899E-1,2.724455234E0
9.399833250E0,3.639345029E-1,1.619425551E0,5.319925439E-1,1.742986949E0
9.409769250E0,1.296568469E0,6.228886807E-1,6.209345412E-1,1.566729016E0
9.419705250E0,1.967293952E0,-1.255847436E-1,1.036701980E0,2.227278163E0
9.429641250E0,2.385993769E0,-4.624194485E-1,1.915473003E0,3.094484584E0
9.439577250E0,2.899895320E0,-5.664449233E-1,3.112264731E0,4.291438509E0
9.449514250E0,3.390120910E0,-1.423349699E0,3.374174384E0,4.990380439E0
9.459450250E0,3.393805241E0,-2.870047331E0,2.759702185E0,5.231734115E0
9.469386250E0,2.630955560E0,-3.711024876E0,2.340578445E0,5.115851860E0
9.479322250E0,2.181589582E0,-4.109030228E0,1.756932768E0,4.972954380E0
9.489258250E0,1.971923777E0,-4.512302751E0,1.281299196E0,5.088328520E0
9.499195250E0,1.478182403E0,-4.494316716E0,1.446221083E0,4.947268072E0
9.509131250E0,1.066378353E0,-3.851000202E0,2.333455367E0,4.627351219E0
9.519067250E0,1.432291554E0,-3.116891633E0,3.772743992E0,5.099026355E0
9.529003250E0,2.032974410E0,-3.453653247E0,3.371953611E0,5.237439915E0
9.538940250E0,1.213280218E0,-4.687483578E0,1.236804224E0,4.997422923E0
9.548876250E0,-3.083559872E0,-6.269055424E0,-2.500394543E0,7.420334916E0
9.558812250E0,-6.134955965E0,-8.385725271E0,-2.983400284E0,1.081012258E1
9.568748250E0,-4.146149230E0,-3.733460058E0,-8.581373692E-1,5.644969192E0
9.578684250E0,-6.126160730E-1,1.313934846E0,-3.164647597E0,3.480907589E0
9.588621250E0,2.976471626E0,-4.147237104E-1,-5.221914045E-1,3.050256212E0
9.598557250E0,9.864040113E-1,-2.873832234E0,-1.922739923E0,3.595668699E0
9.608493250E0,-1.941788836E0,-4.206097516E0,-3.407158527E0,5.750698169E0
9.618429250E0,-2.326845090E0,-3.509181331E0,-2.952480208E0,5.142538387E0
9.628365250E0,-2.886099400E0,-2.141065600E0,-3.665538801E0,5.133215985E0
9.638302250E0,-2.932085412E0,-1.918031745E0,-3.075347750E0,4.661945347E0
9.648238250E0,-2.695950285E0,-2.070864514E0,-3.156843903E0,4.639212347E0
9.658174250E0,-3.204577648E0,-1.777672257E0,-3.127454628E0,4.817718236E0
9.668110250E0,-3.075941535E0,-1.329917040E0,-1.867933825E0,3.836570400E0
9.678046250E0,-2.526926284E0,-4.068820095E-1,-5.442389524E-1,2.616697433E0
9.687983250E0,-1.195797701E0,2.840717697E-1,-7.449469686E-2,1.231331950E0
9.697919250E0,-3.265148078E-1,9.669511288E-1,4.420237756E-1,1.112201161E0
9.707855250E0,-5.824842744E-2,1.819774548E0,9.546174507E-1,2.055788599E0
9.717791250E0,2.568557583E-1,2.178503568E0,8.542980874E-1,2.354076867E0
9.727727250E0,6.115176735E-1,2.421757094E0,8.883798994E-2,2.499350611E0
9.737664250E0,1.067431144E-1,2.854268035E0,-4.874110329E-1,2.897552350E0
9.747600250E0,-3.583730699E-1,3.321509682E0,-6.153902113E-1,3.396993220E0
9.757536250E0,-6.620227794E-1,3.636031412E0,-3.930498362E-1,3.716649938E0
9.767472250E0,-8.947673978E-1,3.843605229E0,-2.765630677E-2,3.946476241E0
9.777409250E0,-9.424872556E-1,4.120999478E0,5.683142781E-1,4.265430816E0
9.787345250E0,-1.153606678E0,4.398915299E0,1.183785327E0,4.699213964E0
9.797281250E0,-1.305905011E0,4.702898008E0,1.416243871E0,5.082163345E0
9.807217250E0,-1.344499119E0,4.872256762E0,1.521810379E0,5.278491325E0
9.817153250E0,-1.117692933E0,4.579982518E0,1.307018613E0,4.892215757E0
9.827090250E0,-5.686298816E-1,4.193102079E0,9.077100635E-1,4.327745666E0
9.837026250E0,-6.183108042E-2,3.742082362E0,7.591577491E-1,3.818811854E0
9.846962250E0,9.848157431E-2,3.377303229E0,9.978228195E-1,3.522999588E0
9.856898250E0,5.713618469E-1,2.934070249E0,1.169739877E0,3.209908716E0
9.866834250E0,1.077595944E0,2.079318418E0,1.420313240E0,2.738990289E0
9.876771250E0,1.283996517E0,1.144077909E0,1.590641901E0,2.342584679E0
9.886707250E0,1.300017157E0,4.389703596E-1,1.175130132E0,1.806563150E0
9.896643250E0,1.133174167E0,-3.232639021E-1,8.049350157E-1,1.427061184E0
9.906579250E0,6.535728950E-1,-8.624216241E-1,5.357166356E-1,1.207443953E0
9.916515500E0,-1.857302271E-2,-8.868010050E-1,3.415189093E-1,9.504715383E-1
9.926452500E0,-1.716260705E0,-9.050969428E-1,1.648043871E0,2.545741520E0
9.936388500E0,-1.135822079E0,-1.001036888E0,3.877201576E0,4.162314104E0
9.946324500E0,-2.827807045E-1,2.154500163E-1,5.433633319E0,5.445250653E0
9.956260500E0,-3.288647307E-1,1.400013462E0,6.788190526E0,6.938855836E0
9.966197500E0,-1.403851428E-1,1.167551556E0,7.447570510E0,7.539840259E0
9.976133500E0,9.944555542E-1,7.634832269E-1,7.135066069E0,7.244378255E0
9.986069500E0,2.298817631E0,-3.941251391E-1,6.199996884E0,6.624187383E0
9.996005500E0,2.499843736E0,-1.426904806E0,5.194743569E0,5.938908719E0
1.000594150E1,1.925695983E0,-2.136131135E0,4.246980371E0,5.129152319E0
1.001587850E1,1.129955202E0,-2.860613433E0,3.445013986E0,4.618227943E0
1.002581450E1,1.110280052E0,-2.850000152E0,2.272867103E0,3.810662348E0
1.003575050E1,2.093046218E0,-2.477316168E0,7.681136370E-1,3.332857097E0
1.004568650E1,1.300455260E0,-2.571369801E0,-5.462503946E-1,2.932834129E0
1.005562250E1,5.132614271E-1,-2.851362553E0,-2.268569692E0,3.679689410E0
1.006555950E1,4.024520858E-1,-3.319264351E0,-3.157344132E0,4.598728681E0
1.007549550E1,-3.979702681E-2,-2.800020491E0,-3.329018676E0,4.350179755E0
1.008543150E1,-1.126318307E0,-2.086135687E0,-5.232216035E0,5.744270160E0
1.009536750E1,-2.693936504E0,-1.354451373E0,-7.365402512E0,7.958705081E0
1.010530350E1,-5.442127569E0,-1.187715679E0,-7.455468929E0,9.306526632E0
1.011524050E1,-5.569512085E0,-2.762644504E0,-7.065728617E0,9.411492465E0
1.012517650E1,-5.155878881E0,-3.879567359E0,-5.450680876E0,8.446540827E0
1.013511250E1,-4.301297203E0,-5.480413383E0,-4.360205562E0,8.218727457E0
1.014504850E1,-2.001801880E0,-6.759160854E0,-3.608082891E0,7.919073706E0
1.015498450E1,2.304621577E-1,-7.074458510E0,-3.764321662E0,8.016931682E0
1.016492150E1,1.876290519E0,-5.934488270E0,-4.426116546E0,7.637350641E0
1.017485750E1,2.374028319E0,-3.957422451E0,-5.221427922E0,6.968537326E0
1.018479350E1,2.944131261E0,-2.334507866E0,-5.206867186E0,6.421004730E0
1.019472950E1,3.223405098E0,-9.326308966E-3,-1.296436322E0,3.474359587E0
1.020466650E1,3.317271912E0,1.189065802E0,2.214362787E0,4.161919386E0
1.021460250E1,3.613008877E0,1.775754370E0,9.740269907E-1,4.141963943E0
1.022453850E1,4.222832247E0,2.622161055E0,-3.332421756E-1,4.981876266E0
1.023447450E1,4.931487302E0,3.300410004E0,-9.101436015E-1,6.003385260E0
1.024441050E1,4.893099454E0,3.746439707E0,-9.164222686E-1,6.230414314E0
1.025434750E1,3.716332394E0,3.996794677E0,-2.942306491E-1,5.465534359E0
1.026428350E1,9.204675186E-1,4.679809107E0,-9.058038712E-2,4.770333169E0
1.027421950E1,-1.040073484E-4,5.261141626E0,-1.057550812E-1,5.262204420E0
1.028415550E1,9.985143989E-2,5.566461593E0,7.513227725E-1,5.617824391E0
1.029409150E1,-4.955322307E-1,5.951051093E0,1.028639766E0,6.059592484E0
1.030402850E1,-1.063657498E0,6.240741452E0,9.980741036E-1,6.408929166E0
1.031396450E1,-1.119547524E0,6.153397499E0,1.259098488E0,6.379891569E0
1.032390050E1,-1.600026536E0,6.336972004E0,1.633388118E0,6.736858009E0
1.033383650E1,-2.365393444E0,6.414816570E0,1.786916120E0,7.066684300E0
1.034377250E1,-1.860510784E0,5.791472391E0,1.499925420E0,6.265175904E0
1.035370950E1,-1.160174270E0,4.688074731E0,1.034622710E0,4.939078171E0
1.036364550E1,-7.316565397E-1,3.582853324E0,7.333881927E-1,3.729613583E0
1.037358150E1,-1.988367610E-1,2.253339742E0,3.507112805E-1,2.289120891E0
1.038351750E1,8.098881921E-1,9.692566860E-1,2.246745837E-1,1.282909223E0
1.039345450E1,1.668668463E0,-2.102875096E-1,4.591701508E-1,1.743419772E0
1.040339050E1,2.062758665E0,-9.618891943E-1,1.200820459E0,2.573358488E0
1.041332650E1,2.432655720E0,-1.332305628E0,2.123157917E0,3.492943125E0
1.042326250E1,3.381942410E0,-1.215297580E0,3.201749350E0,4.813074025E0
1.043319850E1,3.823872045E0,-1.926763977E0,3.322845186E0,5.419936990E0
1.044313550E1,4.029700468E0,-3.417078913E0,2.129247208E0,5.696367951E0
1.045307150E1,3.566548656E0,-4.084615179E0,1.403853328E0,5.601352929E0
1.046300750E1,3.341360102E0,-4.443278124E0,7.058103848E-1,5.604067819E0
1.047294350E1,2.768720054E0,-4.789343244E0,1.514107257E-1,5.534125464E0
1.048287950E1,1.766576580E0,-4.349870608E0,1.251221119E0,4.858777770E0
1.049281650E1,1.392196904E0,-3.733021517E0,3.879609459E0,5.561027910E0
1.050275250E1,1.602362353E0,-3.505039748E0,6.333898707E0,7.414252597E0
1.051268850E1,1.403387744E0,-2.329157664E0,5.560452409E0,6.189757958E0
1.052262450E1,2.087043467E0,-2.056846399E0,1.463011948E0,3.275175034E0
1.053256050E1,9.250588985E-1,-3.171622741E0,-1.933590016E0,3.828014515E0
1.054249750E1,-3.867835506E0,-3.942854698E0,-7.305511236E0,9.158425033E0
1.055243350E1,-4.869591601E0,-7.821522170E0,-8.071322240E0,1.224889277E1
1.056236950E1,-1.029142845E-1,-5.998152169E0,-6.294552208E0,8.695390060E0
1.057230550E1,1.781765893E0,2.666230935E-1,-3.905936548E0,4.301408825E0
1.058224150E1,2.642977143E0,-7.111693579E-1,-1.925016683E-2,2.737053270E0
1.059217850E1,-1.884380142E0,-3.440405211E0,-4.883325541E-1,3.952941337E0
1.060211450E1,-3.295430515E0,-3.236100572E0,-5.908365834E-1,4.656317973E0
1.061205050E1,-3.321851159E0,-3.666539260E0,-8.639810765E-1,5.022416606E0
1.062198650E1,-3.868857014E0,-4.678122770E0,-2.847163668E0,6.705164293E0
1.063192350E1,-4.371550915E0,-3.862801638E0,-4.040478641E0,7.096278006E0
1.064185950E1,-4.355562581E0,-2.192290717E0,-4.070239799E0,6.351686076E0
1.065179550E1,-4.166361592E0,-9.758119994E-1,-3.034247671E0,5.245706521E0
1.066173150E1,-3.226319935E0,2.178193080E-1,-1.359089384E0,3.507664398E0
1.067166750E1,-2.037054451E0,5.232661593E-1,-5.428355476E-1,2.172111586E0
1.068160450E1,-1.245084320E0,9.972315198E-1,-1.066684163E-1,1.598775725E0
1.069154050E1,-8.932833745E-1,1.730978732E0,1.670444262E-1,1.955031047E0
1.070147650E1,-9.809096020E-1,2.355792316E0,-1.081441073E-1,2.554140996E0
1.071141250E1,-9.006488197E-1,2.733456958E0,-8.808455428E-1,3.009791373E0
1.072134850E1,-1.247844060E0,3.086947457E0,-1.442052019E0,3.628480870E0
1.073128550E1,-2.474815314E0,3.680727528E0,-1.692087000E0,4.747170146E0
1.074122150E1,-3.860339375E0,4.232854375E0,-9.811345737E-1,5.812219998E0
1.075115750E1,-4.040679493E0,4.871456863E0,5.511702418E-2,6.329393384E0
1.076109350E1,-3.443221815E0,5.162966875E0,1.013979700E0,6.288096552E0
1.077102950E1,-2.735065527E0,5.103325276E0,1.711016922E0,6.037556726E0
1.078096650E1,-1.812881997E0,4.995856376E0,1.697540406E0,5.579136626E0
1.079090250E1,-6.910192680E-1,4.617251501E0,1.319431375E0,4.851537716E0
1.080083850E1,7.135890819E-1,4.065484843E0,1.070481344E0,4.264188867E0
1.081077450E1,1.862909751E0,3.502054744E0,8.651392637E-1,4.059961344E0
1.082071150E1,2.697960558E0,2.999725710E0,8.397382280E-1,4.120983596E0
1.083064750E1,2.424774258E0,2.525059268E0,1.175429802E0,3.692843042E0
1.084058350E1,2.330880838E0,1.865212092E0,1.473139033E0,3.328987870E0
1.085051950E1,2.321636244E0,1.411453539E0,1.550111195E0,3.128104963E0
1.086045550E1,2.126521528E0,7.128317213E-1,1.639762898E0,2.778316979E0
1.087039250E1,1.923751784E0,-3.062514281E-1,1.715614588E0,2.595755049E0
1.088032850E1,1.949034121E0,-1.103901106E0,1.765175003E0,2.851872095E0
1.089026450E1,1.142906346E0,-8.850626278E-1,2.238391335E0,2.664576240E0
1.090020050E1,-2.237120589E-1,-3.909682274E-1,3.764167003E0,3.791023143E0
1.091013650E1,-2.255282041E-1,7.696596408E-1,4.715902215E0,4.783615018E0
1.092007358E1,2.401020967E-1,1.923296578E0,4.573671326E0,4.967412620E0
1.093000958E1,4.880978980E-1,1.798969570E0,4.180895139E0,4.577599288E0
1.093994558E1,1.291857514E0,1.108656646E0,4.306094844E0,4.630385319E0
1.094988158E1,1.461657879E0,4.887371814E-1,4.731271622E0,4.975966132E0
1.095981758E1,1.308784180E0,-1.050084502E0,5.171113801E0,5.436544071E0
1.096975458E1,9.578590009E-1,-3.015358826E0,5.167990218E0,6.059538399E0
1.097969058E1,8.475603408E-1,-4.066277141E0,4.803744936E0,6.350506573E0
1.098962658E1,1.320622014E0,-3.783709860E0,4.210832299E0,5.813055260E0
1.099956258E1,2.177556611E0,-2.239445003E0,3.218416253E0,4.484982709E0
1.100949958E1,3.164002649E0,-1.135516416E0,1.796335400E0,3.811447384E0
1.101943558E1,2.929857623E0,-2.398381680E0,4.648431194E-1,3.814758118E0
1.102937158E1,2.252963035E0,-3.030098487E0,-1.485002156E0,4.057409356E0
1.103930758E1,1.535143200E0,-3.531053426E0,-2.277536105E0,4.473496803E0
1.104924358E1,4.435504105E-1,-3.200878699E0,-3.091189319E0,4.471891414E0
1.105918058E1,8.508455258E-2,-1.850995172E0,-4.322943011E0,4.703324227E0
1.106911658E1,-1.287072591E0,-1.216336046E0,-6.633156281E0,6.865478241E0
1.107905258E1,-3.370013798E0,-1.775667831E0,-8.390491337E0,9.214680359E0
1.108898858E1,-5.094560300E0,-3.887583307E0,-8.349628655E0,1.052540485E1
1.109892458E1,-5.102579756E0,-5.446236992E0,-7.128270435E0,1.032037097E1
1.110886158E1,-4.581727035E0,-6.502470426E0,-5.512887064E0,9.678133500E0
1.111879758E1,-3.533465987E0,-6.884148597E0,-5.107126551E0,9.271441387E0
1.112873358E1,-1.343576136E0,-6.945133302E0,-4.653422377E0,8.467255355E0
1.113866958E1,1.084867176E0,-5.802913638E0,-3.829079576E0,7.036518591E0
1.114860558E1,2.441546703E0,-3.959340922E0,-4.004634039E0,6.137965838E0
1.115854258E1,2.543430051E0,-2.053219956E0,-3.787489500E0,5.002981643E0
1.116847858E1,2.602234914E0,1.892509818E-2,-8.427662086E-1,2.735368273E0
1.117841458E1,3.860810661E0,1.102331713E0,8.336235023E-1,4.100722169E0
1.118835058E1,4.363342886E0,1.849987696E0,4.732654488E-1,4.762897836E0
1.119828658E1,4.738958371E0,2.804802929E0,-5.383694442E-1,5.533036018E0
1.120822358E1,5.591964809E0,3.525268775E0,-7.021745130E-1,6.647604035E0
1.121815958E1,5.611590988E0,4.121536837E0,-2.421168280E-1,6.966752463E0
1.122809558E1,3.239820279E0,4.941566733E0,5.862418413E-3,5.908938278E0
1.123803158E1,1.323885199E0,5.831445127E0,5.097987791E-1,6.001526396E0
1.124796858E1,6.144632815E-1,5.859479018E0,3.307207831E-1,5.900884317E0
1.125790458E1,-3.310496890E-1,5.473338252E0,-7.577055931E-2,5.483864212E0
1.126784058E1,-8.656639782E-1,5.290427406E0,-2.227297632E-1,5.365408168E0
1.127777658E1,-8.944612961E-1,5.557309531E0,4.357695206E-1,5.645674921E0
1.128771258E1,-1.340942112E0,5.517412809E0,6.881423648E-1,5.719572516E0
1.129764958E1,-1.965123612E0,5.160304053E0,1.160141380E0,5.642373326E0
1.130758558E1,-2.427506808E0,4.953031953E0,1.640105399E0,5.754586045E0
1.131752158E1,-1.943975987E0,4.637491053E0,1.903318981E0,5.376615018E0
1.132745758E1,-1.331564640E0,4.110332987E0,1.785183005E0,4.674909627E0
1.133739358E1,-8.616003826E-1,3.344636005E0,1.335988204E0,3.703216130E0
1.134733058E1,-2.030211747E-1,2.520807758E0,1.084022326E0,2.751507542E0
1.135726658E1,7.756642927E-1,1.590143865E0,1.023534050E0,2.043975185E0
1.136720258E1,1.490604081E0,4.813211578E-1,1.128346633E0,1.930475773E0
1.137713858E1,1.635451600E0,-3.090335333E-1,1.685250582E0,2.368601525E0
1.138707558E1,2.326551560E0,-5.001041687E-1,2.968657115E0,3.804716994E0
1.139701158E1,3.322915353E0,-1.270660772E0,3.700920303E0,5.133532539E0
1.140694758E1,3.954024634E0,-2.135678560E0,3.766447710E0,5.863579288E0
1.141688358E1,3.862517463E0,-3.480803624E0,2.439344934E0,5.743295111E0
1.142681958E1,3.153990754E0,-4.049721335E0,1.498040278E0,5.347151133E0
1.143675658E1,2.529793174E0,-4.054364024E0,9.287366509E-1,4.868292607E0
1.144669258E1,1.914592705E0,-4.058516716E0,5.042720640E-1,4.515696345E0
1.145662858E1,1.396954491E0,-4.063293307E0,1.003564639E0,4.412366296E0
1.146656458E1,1.399934232E0,-3.494186146E0,2.418148777E0,4.473991081E0
1.147650058E1,2.229491580E0,-2.909314892E0,4.181329880E0,5.560419536E0
1.148643758E1,2.534043223E0,-3.148714519E0,3.206627097E0,5.159286338E0
1.149637358E1,1.578614617E0,-3.585372890E0,-4.809381652E-1,3.946925941E0
1.150630958E1,-7.050226917E-1,-4.799578795E0,-4.215833130E0,6.426994833E0
1.151624558E1,-5.316658015E0,-6.571393311E0,-5.789591342E0,1.024545901E1
1.152618158E1,-5.633037990E0,-5.324330147E0,-3.928881022E0,8.689977825E0
1.153611858E1,3.211101533E-1,-1.157922946E0,-1.785793455E0,2.152430148E0
1.154605458E1,2.655521759E0,5.157706136E-1,-6.201440708E-1,2.775318686E0
1.155599058E1,-7.464817165E-1,-3.482029200E0,-1.060732867E0,3.715765940E0
1.156592658E1,-2.615073645E0,-4.920721409E0,-1.662755173E0,5.815226919E0
1.157586258E1,-3.187948459E0,-3.420683137E0,-2.346075997E0,5.231458792E0
1.158579958E1,-3.498054956E0,-2.629944284E0,-2.951982025E0,5.278938652E0
1.159573558E1,-3.227098199E0,-2.355318106E0,-3.866084265E0,5.559522795E0
1.160567158E1,-2.879129226E0,-2.501362258E0,-3.746072502E0,5.345957111E0
1.161560758E1,-2.658404437E0,-2.330461593E0,-3.252236549E0,4.803666095E0
1.162554458E1,-3.002281528E0,-1.812124051E0,-2.440761130E0,4.272563966E0
1.163548058E1,-3.477169579E0,-8.357688457E-1,-1.090138587E0,3.738665535E0
1.164541658E1,-2.290612818E0,2.747466302E-1,-4.570675651E-1,2.351872350E0
1.165535258E1,-8.949001296E-1,4.790851825E-1,2.767728366E-2,1.015448121E0
1.166528858E1,-3.682425852E-1,1.186369066E0,7.249787271E-1,1.438286590E0
1.167522558E1,-2.513113553E-1,2.054171298E0,9.374055867E-1,2.271894881E0
1.168516158E1,-4.207524090E-1,2.540982991E0,3.174232645E-1,2.595069301E0
1.169509758E1,-7.741311528E-1,2.904158818E0,-5.529126390E-1,3.055998996E0
1.170503358E1,-1.097159120E0,3.358868712E0,-1.045959218E0,3.685076369E0
1.171496958E1,-1.667115735E0,3.794621349E0,-9.393130946E-1,4.249792365E0
1.172490658E1,-2.139808449E0,4.008626518E0,-5.059943613E-1,4.572077980E0
1.173484258E1,-1.884663586E0,4.285332550E0,3.109996596E-1,4.691775004E0
1.174477858E1,-1.438881804E0,4.696590616E0,1.116151753E0,5.037274958E0
1.175471458E1,-1.195018340E0,5.001229967E0,1.553034511E0,5.371432417E0
1.176465058E1,-9.740359808E-1,4.773600785E0,1.611213137E0,5.131473309E0
1.177458758E1,-7.990270621E-1,4.651867602E0,1.463733494E0,4.941743840E0
1.178452358E1,-2.983931357E-1,4.288487123E0,1.171951732E0,4.455741367E0
1.179445958E1,5.551351657E-1,3.812309176E0,1.074884005E0,3.999656477E0
1.180439558E1,1.026266015E0,3.232054299E0,1.073547917E0,3.556951230E0
1.181433258E1,1.435207560E0,2.364407603E0,1.041077159E0,2.955348661E0
1.182426858E1,1.813685404E0,1.521445513E0,1.292457146E0,2.697164561E0
1.183420458E1,1.834397265E0,8.280499363E-1,1.035717309E0,2.263490748E0
1.184414058E1,1.324403847E0,2.337541401E-1,6.001783875E-1,1.472718794E0
1.185407658E1,1.062901818E0,-5.952851450E-1,6.308584356E-1,1.371899065E0
1.186401358E1,9.227898864E-1,-8.409974259E-1,1.167129095E0,1.709095717E0
1.187394958E1,4.086803938E-1,-2.691613698E-1,1.801709576E0,1.866982834E0
1.188388558E1,-3.232380647E-1,9.926584125E-2,3.693394936E0,3.708841155E0
1.189382158E1,2.910787075E-1,2.449457109E-1,5.418785484E0,5.432123096E0
1.190375758E1,2.307185216E-1,2.097530740E-1,5.866620222E0,5.874900869E0
1.191369458E1,5.889846240E-1,4.269233412E-1,5.927114346E0,5.971586966E0
1.192362988E1,1.264665037E0,5.280392414E-1,5.923036498E0,6.079520084E0
1.193356588E1,1.700041406E0,3.714736104E-3,5.739095957E0,5.985597463E0
1.194350188E1,2.205060890E0,-9.384646636E-1,5.357201439E0,5.868783240E0
1.195343888E1,2.197382034E0,-2.088559942E0,4.632803048E0,5.536554391E0
1.196337488E1,1.874989367E0,-2.672162350E0,3.856879870E0,5.052876318E0
1.197331088E1,1.347617293E0,-2.646613526E0,2.935019545E0,4.175520956E0
1.198324688E1,1.556174758E0,-2.191027134E0,1.494939207E0,3.075243570E0
1.199318287E1,1.896701248E0,-2.003886997E0,2.210206586E-1,2.768011715E0
1.200311988E1,8.171472180E-1,-2.308470215E0,-9.321982026E-1,2.620259109E0
1.201305588E1,6.919834739E-1,-2.617850488E0,-2.181449980E0,3.477169297E0
1.202299187E1,8.846547114E-1,-2.919793687E0,-2.960940836E0,4.251467955E0
1.203292787E1,-5.360524850E-1,-1.812016463E0,-3.998669879E0,4.422682075E0
1.204286388E1,-2.709764625E0,6.455326080E-3,-6.907543892E0,7.420042359E0
1.205280087E1,-4.831190597E0,-2.061529434E-1,-7.514376118E0,8.935812781E0
1.206273687E1,-6.059024023E0,-1.860615011E0,-7.294983909E0,9.663873476E0
1.207267288E1,-5.799365548E0,-3.294185643E0,-6.240714555E0,9.134047184E0
1.208260888E1,-5.493301231E0,-4.605876328E0,-4.844726901E0,8.652273337E0
1.209254488E1,-4.745531811E0,-5.382251496E0,-4.290347707E0,8.360370015E0
1.210248188E1,-2.257128738E0,-6.125463011E0,-4.161023669E0,7.741449813E0
1.211241788E1,3.429249454E-1,-5.858383834E0,-4.210211617E0,7.222474682E0
1.212235388E1,1.880325098E0,-4.591203325E0,-4.826042708E0,6.921376934E0
1.213228988E1,2.285970713E0,-3.099261693E0,-6.055913304E0,7.176710325E0
1.214222588E1,2.563942960E0,-1.856169373E0,-3.733389891E0,4.894626474E0
1.215216288E1,2.538382734E0,-4.811966121E-2,4.212487645E-1,2.573548703E0
1.216209888E1,2.917461233E0,1.027056997E0,1.434768727E0,3.409543580E0
1.217203488E1,3.304518843E0,1.915433827E0,1.269027060E0,4.024818158E0
1.218197087E1,4.086111774E0,2.499399932E0,4.843482614E-2,4.790162354E0
1.219190687E1,4.904368208E0,2.863263976E0,-6.844434893E-1,5.720102360E0
1.220184388E1,5.323041421E0,2.963280015E0,-8.867735231E-1,6.156473479E0
1.221177987E1,4.061875357E0,3.171765997E0,-3.445237935E-1,5.165038974E0
1.222171587E1,2.095214805E0,3.596467981E0,3.451283956E-1,4.176556073E0
1.223165188E1,1.194382529E0,3.758501928E0,3.115770721E-1,3.956003873E0
1.224158887E1,7.381662449E-1,4.518592601E0,3.034974626E-1,4.588537807E0
1.225152487E1,-2.152073934E-1,4.617073746E0,2.340664180E-1,4.628009430E0
1.226146088E1,-8.218096416E-1,4.825844488E0,4.604285081E-1,4.916923888E0
1.227139688E1,-1.557097156E0,5.117733985E0,1.042248648E0,5.449957333E0
1.228133288E1,-2.724829391E0,5.003519737E0,1.482536970E0,5.887089335E0
1.229126988E1,-3.183740510E0,4.741415956E0,1.685340629E0,5.954628615E0
1.230120588E1,-2.711950022E0,4.186333927E0,1.345300480E0,5.166226674E0
1.231114188E1,-2.307771472E0,3.589569436E0,8.609650826E-1,4.353398532E0
1.232107788E1,-1.794151319E0,2.859790730E0,3.978878224E-1,3.399367102E0
1.233101488E1,-9.890518498E-1,1.982248206E0,3.434186697E-2,2.215561075E0
1.234095088E1,-6.984859066E-2,1.099057857E0,9.944595376E-2,1.105756074E0
1.235088688E1,7.694417589E-1,4.253761679E-1,4.930945265E-1,1.008031605E0
1.236082288E1,1.683024985E0,-9.226496994E-2,9.092198145E-1,1.915141404E0
1.237075887E1,2.363789845E0,-2.337325054E-1,1.765276744E0,2.959448479E0
1.238069588E1,3.286889780E0,-2.128462511E-1,2.993113679E0,4.450581697E0
1.239063188E1,4.031562806E0,-8.875880402E-1,3.488917805E0,5.404984611E0
1.240056787E1,4.142166399E0,-2.450174562E0,2.422975069E0,5.388107836E0
1.241050387E1,3.487759764E0,-3.342244493E0,1.635813543E0,5.100093369E0
1.242043988E1,3.068589246E0,-3.664661719E0,1.251393027E0,4.940847091E0
1.243037688E1,2.404404605E0,-3.821768217E0,1.047580140E0,4.635137318E0
1.244031287E1,1.556324154E0,-3.829212892E0,1.409677740E0,4.367173866E0
1.245024888E1,1.382886529E0,-3.645722587E0,2.916919781E0,4.869506068E0
1.246018488E1,1.299930180E0,-3.067948099E0,4.602727017E0,5.682184440E0
1.247012088E1,1.176524620E0,-2.189471190E0,4.592648172E0,5.222107956E0
1.248005788E1,1.255536364E0,-2.205500162E0,1.890414176E0,3.164532870E0
1.248999388E1,2.627189807E-1,-2.662399254E0,-2.290809284E0,3.522101394E0
1.249992988E1,-4.376285990E0,-4.591077610E0,-6.276192536E0,8.923030059E0
1.250986588E1,-5.511356848E0,-8.678624582E0,-4.828665769E0,1.135823895E1
1.251980288E1,6.646744917E-1,-5.955833530E0,-5.309198138E0,8.006330626E0
1.252973888E1,1.894635866E0,1.220284671E-1,-3.498782058E0,3.980704950E0
1.253967488E1,8.699921604E-1,-1.309318469E0,4.323817170E-1,1.630384974E0
1.254961088E1,-2.682846675E0,-2.857656496E0,-1.338953912E0,4.142060419E0
1.255954688E1,-3.534749451E0,-2.582199429E0,-2.401044502E0,4.992716923E0
1.256948388E1,-3.423358238E0,-2.503823935E0,-2.425020425E0,4.885615620E0
1.257941988E1,-3.849140495E0,-2.203812071E0,-3.016114286E0,5.363731498E0
1.258935588E1,-3.514785887E0,-1.458773301E0,-4.222296642E0,5.684147105E0
1.259929187E1,-3.323245720E0,-1.107438086E0,-4.218063258E0,5.482922476E0
1.260922788E1,-3.511520509E0,-7.344430304E-1,-2.812121304E0,4.558312087E0
1.261916488E1,-3.418792440E0,-2.019815397E-1,-1.570495466E0,3.767677574E0
1.262910087E1,-2.523414739E0,1.650815159E-1,-8.969512597E-1,2.683168913E0
1.263903687E1,-1.520743555E0,3.864448214E-1,-4.836021566E-1,1.641910961E0
1.264897288E1,-9.433877268E-1,1.231305503E0,2.913155928E-3,1.551161542E0
1.265890888E1,-4.307433271E-1,1.832061887E0,1.432779066E-1,1.887463677E0
1.266884587E1,-2.486315033E-1,2.308139847E0,-4.083239329E-1,2.357128679E0
1.267878188E1,-4.667743816E-1,2.676222657E0,-1.210640273E0,2.974171465E0
1.268871788E1,-1.078188852E0,3.050928023E0,-1.510384920E0,3.570982443E0
1.269865388E1,-1.737837808E0,3.465289207E0,-1.054339375E0,4.017454548E0
1.270859088E1,-2.265096885E0,3.624924041E0,-3.092171359E-1,4.285598376E0
1.271852688E1,-2.661640871E0,3.839270103E0,4.818362975E-1,4.696434101E0
1.272846288E1,-2.570844136E0,4.330267233E0,1.184363178E0,5.173313254E0
1.273839888E1,-2.052237185E0,4.637799786E0,1.439575284E0,5.271929563E0
1.274833488E1,-1.483168031E0,4.408912284E0,1.119632016E0,4.784544993E0
1.275827188E1,-7.958389409E-1,3.998059430E0,6.838084817E-1,4.133452899E0
1.276820788E1,-2.130168071E-2,3.306756572E0,3.253237300E-1,3.322789238E0
1.277814388E1,8.330102755E-1,2.856848411E0,2.640007634E-1,2.987504873E0
1.278807987E1,1.445006178E0,2.323588191E0,4.694707520E-1,2.776239853E0
1.279801587E1,1.539548492E0,1.539587669E0,6.626782523E-1,2.275891521E0
1.280795288E1,1.665983714E0,1.230176990E0,8.036087210E-1,2.221401390E0
1.281788887E1,2.172972248E0,8.330908209E-1,1.200848526E0,2.618756554E0
1.282782487E1,1.951416715E0,4.263316029E-1,1.446571624E0,2.466243154E0
1.283776088E1,1.638873975E0,4.375997722E-2,1.278358047E0,2.078947363E0
1.284769787E1,1.324785963E0,-3.312874514E-1,1.351615181E0,1.921372639E0
1.285763387E1,1.470518603E0,-4.451929665E-1,1.499948809E0,2.147200077E0
1.286756988E1,1.642986322E0,-7.752238512E-3,1.585388909E0,2.283182460E0
1.287750588E1,1.009272837E0,5.102800781E-1,2.393810473E0,2.647516950E0
1.288744188E1,1.392138870E0,3.890047324E-1,3.519065756E0,3.804365797E0
1.289737888E1,1.861939990E0,5.768974060E-1,3.889435120E0,4.350555907E0
1.290731488E1,1.932159349E0,1.104094648E-1,3.966076622E0,4.413070787E0
1.291725133E1,2.178783795E0,-9.312375051E-1,4.067533708E0,4.707348785E0
1.292718733E1,2.169892665E0,-2.019275699E0,4.466490109E0,5.360544974E0
1.293712333E1,1.769898822E0,-2.760153006E0,4.726409662E0,5.752385135E0
1.294706033E1,1.617821660E0,-3.069069595E0,4.449741929E0,5.642405368E0
1.295699633E1,1.465864366E0,-3.312793238E0,3.727934732E0,5.198158783E0
1.296693233E1,1.393746416E0,-3.342901136E0,3.075078778E0,4.751171073E0
1.297686833E1,1.464167650E0,-2.705173976E0,2.515550234E0,3.973631353E0
1.298680433E1,1.928398274E0,-1.837468223E0,1.515849727E0,3.064769121E0
1.299674133E1,1.998673035E0,-1.564508502E0,2.371855786E-1,2.549242584E0
1.300667733E1,6.243906842E-1,-1.910696413E0,-1.140800837E0,2.311287749E0
1.301661333E1,-3.600010078E-1,-2.083957599E0,-2.420870656E0,3.214513141E0
1.302654933E1,-3.750172058E-1,-2.313690024E0,-2.706551580E0,3.580393957E0
1.303648633E1,-9.344205831E-1,-2.070373932E0,-3.258718772E0,3.972258562E0
1.304642233E1,-2.000136885E0,-1.460202945E0,-4.330114621E0,4.988249476E0
1.305635833E1,-3.346071496E0,-9.308059806E-1,-4.347328531E0,5.564338199E0
1.306629433E1,-4.427210268E0,-1.490451761E0,-4.774801511E0,6.679847804E0
1.307623033E1,-4.342397282E0,-2.624727983E0,-5.132331558E0,7.217093485E0
1.308616733E1,-4.523146997E0,-2.441055830E0,-4.527659293E0,6.849621230E0
1.309610333E1,-3.440444972E0,-3.335213801E0,-3.780587447E0,6.103536200E0
1.310603933E1,-1.750510624E0,-4.188512599E0,-3.293763474E0,5.608636471E0
1.311597533E1,-1.193999974E-1,-3.676465493E0,-3.209348391E0,4.881656684E0
1.312591133E1,9.809090173E-1,-2.944713936E0,-3.430194218E0,4.625986926E0
1.313584833E1,1.521735242E0,-1.684022666E0,-3.957663064E0,4.562313822E0
1.314578433E1,2.097310300E0,-2.881262290E-1,-3.820591757E0,4.367911240E0
1.315572033E1,2.035147089E0,9.542106307E-1,-7.948598246E-1,2.384144237E0
1.316565633E1,1.763288106E0,2.321589612E0,1.466201165E0,3.263235991E0
1.317559233E1,2.521139295E0,2.964561140E0,1.505958577E0,4.172850025E0
1.318552933E1,3.036621056E0,3.490186066E0,8.298609652E-2,4.627024196E0
1.319546533E1,3.726201032E0,4.059087405E0,-4.018380551E-1,5.524693522E0
1.320540133E1,4.283325494E0,4.191851360E0,-5.588673703E-1,6.019204918E0
1.321533733E1,2.849482966E0,4.397548220E0,-2.808041994E-1,5.247555099E0
1.322527433E1,9.014546391E-1,4.299361190E0,-3.370287593E-1,4.405759355E0
1.323521033E1,-1.798746426E-1,4.448957525E0,-4.930044063E-1,4.479802595E0
1.324514633E1,-1.103250749E0,4.830507057E0,-2.802734184E-1,4.962813097E0
1.325508233E1,-6.409641784E-1,4.825504764E0,3.587465608E-1,4.881089059E0
1.326501833E1,-5.022710737E-1,4.541186827E0,7.391944778E-1,4.628289371E0
1.327495533E1,-1.083459824E0,4.531859348E0,9.075521886E-1,4.747134432E0
1.328489133E1,-2.165297631E0,4.200436242E0,1.203054169E0,4.876424693E0
1.329482733E1,-2.612461109E0,3.875127568E0,1.698390445E0,4.972534245E0
1.330476333E1,-2.255667226E0,3.368964515E0,1.560310786E0,4.344252097E0
1.331469933E1,-1.735566018E0,2.540334535E0,1.169075925E0,3.291234946E0
1.332463633E1,-1.047355460E0,1.492251534E0,5.405049205E-1,1.901555593E0
1.333457233E1,-3.838505945E-1,4.440498358E-1,7.596468687E-2,5.918548549E-1
1.334450833E1,2.138394738E-1,-5.754876423E-1,1.746633482E-1,6.382950980E-1
1.335444433E1,8.265018860E-1,-1.338751599E0,5.349161518E-1,1.661775105E0
1.336438133E1,1.437462101E0,-1.667350500E0,1.145034513E0,2.481422781E0
1.337431733E1,2.070647436E0,-1.556616515E0,2.052018353E0,3.304756435E0
1.338425333E1,2.704417931E0,-1.192355445E0,3.071414913E0,4.262531809E0
1.339418933E1,3.407952872E0,-1.008348831E0,3.759804103E0,5.173686987E0
1.340412533E1,3.682723183E0,-1.435951619E0,3.642262205E0,5.374986610E0
1.341406233E1,3.308029803E0,-1.719415278E0,3.036729230E0,4.808448242E0
1.342399833E1,2.826181519E0,-2.787637843E0,1.464411771E0,4.231161609E0
1.343393433E1,2.805871508E0,-3.375763657E0,7.078276742E-1,4.446314789E0
1.344387033E1,2.663044787E0,-3.817424905E0,1.000335807E0,4.760799531E0
1.345380633E1,2.018123213E0,-3.876443192E0,2.121245878E0,4.857912844E0
1.346374333E1,1.961149552E0,-3.637508419E0,3.158161865E0,5.201111557E0
1.347367933E1,2.126224782E0,-3.206125991E0,4.084215814E0,5.610783769E0
1.348361533E1,1.450225841E0,-2.488091417E0,3.537388884E0,4.561455251E0
1.349355133E1,1.362323187E0,-2.203009833E0,1.465383579E0,2.975991570E0
1.350348833E1,-2.175587049E-1,-1.672176792E0,-2.053903495E0,2.657447381E0
1.351342433E1,-4.950160385E0,-2.473703173E0,-6.754645050E0,8.732040138E0
1.352336033E1,-3.687807045E0,-6.415458010E0,-6.098824850E0,9.589248502E0
1.353329633E1,6.804018208E-1,-5.098612420E0,-5.612999582E0,7.613445971E0
1.354323233E1,9.790205128E-1,-2.197903460E0,-2.504637283E0,3.473106492E0
1.355316933E1,-8.235863180E-1,-3.342367870E0,7.996325413E-1,3.533996265E0
1.356310533E1,-3.112087853E0,-3.609768058E0,-1.130181416E0,4.898247265E0
1.357304133E1,-3.216552746E0,-3.496423876E0,-1.506184280E0,4.983952505E0
1.358297733E1,-3.728600145E0,-2.653863489E0,-1.909370849E0,4.958946208E0
1.359291333E1,-3.694450359E0,-1.468604810E0,-3.246629069E0,5.132870917E0
1.360285033E1,-3.494895998E0,-5.391518748E-1,-3.891123211E0,5.257929500E0
1.361278633E1,-3.384903440E0,-2.813779575E-1,-3.669492688E0,5.000192140E0
1.362272233E1,-3.411977510E0,2.502906507E-1,-2.680968257E0,4.346472908E0
1.363265833E1,-3.396951920E0,7.654549080E-1,-1.559473464E0,3.815384784E0
1.364259433E1,-2.585814470E0,1.244582191E0,-7.695812881E-1,2.971140633E0
1.365253133E1,-1.281985367E0,1.260845636E0,-2.143109056E-1,1.810841618E0
1.366246733E1,-5.897438119E-1,1.658500155E0,1.614976113E-1,1.767626093E0
1.367240333E1,-3.361116967E-1,2.235561867E0,2.021801989E-1,2.269710283E0
1.368233933E1,-5.095724188E-1,2.609609422E0,-3.656156505E-1,2.683915086E0
1.369227633E1,-1.011476653E0,2.928652219E0,-1.029843049E0,3.265067464E0
1.370221233E1,-1.940822437E0,3.366690533E0,-1.127222725E0,4.046236269E0
1.371214833E1,-2.033736448E0,3.679021311E0,-8.120200869E-1,4.281431813E0
1.372208433E1,-2.667738347E0,3.869713047E0,-1.290528734E-1,4.701931688E0
1.373202033E1,-2.850078212E0,4.223098295E0,5.194968979E-1,5.121267622E0
1.374195733E1,-2.237927358E0,4.470896278E0,1.333784974E0,5.174573871E0
1.375189333E1,-1.524504484E0,3.954944986E0,1.772204672E0,4.594171651E0
1.376182933E1,-7.353272755E-1,3.613918996E0,1.462104314E0,3.967223934E0
1.377176533E1,-8.287985992E-2,3.369399548E0,9.892424691E-1,3.512594916E0
1.378170233E1,7.441684849E-1,2.843980443E0,4.501712859E-1,2.973998266E0
1.379163833E1,1.629333658E0,2.220381911E0,1.205824506E-1,2.756694420E0
1.380157433E1,2.452690912E0,1.678842618E0,2.462801917E-1,2.982425050E0
1.381151033E1,2.901832795E0,1.082230155E0,1.924296744E-1,3.103044450E0
1.382144633E1,2.378917469E0,8.383310956E-1,7.128399074E-1,2.621104363E0
1.383138333E1,1.981329462E0,6.479627109E-1,8.848044732E-1,2.264597330E0
1.384131933E1,1.406972672E0,3.574519873E-1,9.068934998E-1,1.711665809E0
1.385125533E1,8.646682705E-1,1.282060504E-1,1.068587724E0,1.380567902E0
1.386119133E1,3.975100192E-1,-9.766428888E-2,1.301614470E0,1.364460611E0
1.387112733E1,3.381216770E-1,1.056673729E-1,1.432264657E0,1.475423298E0
1.388106433E1,-3.474624213E-1,9.144811392E-2,1.866574785E0,1.900840425E0
1.389100033E1,-1.498930443E-1,-1.399893594E-1,2.737324599E0,2.744997432E0
1.390093633E1,5.688976110E-1,1.179827785E-1,3.151016860E0,3.204133531E0
1.391087233E1,9.562393221E-1,6.525317252E-2,3.605914743E0,3.731122184E0
1.392080963E1,1.215171938E0,1.107567894E-1,4.342925578E0,4.511087727E0
1.393074563E1,1.823964663E0,6.534672797E-2,4.627166917E0,4.974112078E0
1.394068162E1,1.860356418E0,-2.837092423E-1,4.778663012E0,5.135857973E0
1.395061762E1,1.386475403E0,-1.442526228E0,4.614245448E0,5.029359503E0
1.396055363E1,8.068548759E-1,-2.408951107E0,3.875259131E0,4.633755880E0
1.397049062E1,6.094654470E-1,-2.864912891E0,3.188471493E0,4.329610197E0
1.398042662E1,7.812515996E-1,-2.658781582E0,2.652250242E0,3.835870815E0
1.399036263E1,1.401909129E0,-2.158050007E0,1.951667561E0,3.229788740E0
1.400029863E1,2.015794852E0,-1.865363535E0,1.180241768E0,2.989311063E0
1.401023463E1,1.290678277E0,-2.092738363E0,1.059027234E-1,2.461020044E0
1.402017163E1,3.404323139E-1,-2.333532550E0,-1.293947893E0,2.689901388E0
1.403010763E1,-1.799307393E-1,-2.445644140E0,-2.311793480E0,3.370154213E0
1.404004363E1,-6.830233468E-1,-2.423780231E0,-2.985610532E0,3.905777995E0
1.404997963E1,-1.620227497E0,-1.373343726E0,-3.375018137E0,3.987725863E0
1.405991563E1,-2.577886815E0,-5.898004568E-1,-3.766766091E0,4.602378928E0
1.406985263E1,-3.310242097E0,-1.334061547E0,-4.022466293E0,5.377514113E0
1.407978863E1,-4.169715555E0,-1.909159180E0,-4.453369249E0,6.392488894E0
1.408972463E1,-4.041387883E0,-2.680167189E0,-4.516280612E0,6.626681126E0
1.409966062E1,-3.707693425E0,-4.067944767E0,-4.153790371E0,6.895588416E0
1.410959763E1,-2.949303708E0,-4.805300880E0,-4.132607371E0,6.990547374E0
1.411953363E1,-1.321387853E0,-5.311386750E0,-4.527137722E0,7.102948051E0
1.412946962E1,6.141184419E-2,-5.028053484E0,-4.907723633E0,7.026438964E0
1.413940562E1,7.923523193E-1,-3.518293047E0,-5.280820431E0,6.394784796E0
1.414934163E1,1.030196221E0,-2.031097600E0,-5.254284596E0,5.726619276E0
1.415927862E1,1.308212176E0,-4.173561269E-1,-4.531862272E0,4.735333239E0
1.416921462E1,1.708889120E0,7.128767449E-1,-6.458564707E-1,1.961026736E0
1.417915063E1,1.435678846E0,1.463496097E0,1.655755179E0,2.635245679E0
1.418908663E1,2.481165682E0,1.856425481E0,1.353140573E0,3.381344129E0
1.419902263E1,2.840381482E0,2.733696109E0,4.078772787E-1,3.963234191E0
1.420895963E1,3.971327130E0,3.042314490E0,1.128795480E-1,5.003984254E0
1.421889563E1,4.037067083E0,2.653030261E0,-1.048814341E-1,4.831923045E0
1.422883163E1,2.294442890E0,3.573730499E0,-6.305532110E-1,4.293438623E0
1.423876763E1,1.461609493E0,4.368752437E0,-1.334968450E0,4.796294500E0
1.424870463E1,7.943788181E-1,4.625151674E0,-1.131971834E0,4.827465789E0
1.425864063E1,-2.335840958E-1,5.198773470E0,-2.387827456E-1,5.209493672E0
1.426857663E1,-1.275756621E0,5.398474596E0,1.868360817E-1,5.550314463E0
1.427851263E1,-1.332722681E0,5.148673357E0,4.287973738E-1,5.335621263E0
1.428844862E1,-1.424783875E0,5.277106279E0,1.170209116E0,5.589923895E0
1.429838563E1,-2.441585441E0,5.299304649E0,1.399556794E0,6.000227366E0
1.430832163E1,-2.988732360E0,4.857843960E0,1.553820376E0,5.911474166E0
1.431825762E1,-2.607982727E0,4.370083848E0,1.542089692E0,5.317635505E0
1.432819362E1,-2.062375233E0,3.657065601E0,1.157526578E0,4.355156506E0
1.433813063E1,-1.567082300E0,2.815198694E0,6.514827347E-1,3.287175136E0
1.434806663E1,-9.056857574E-1,2.000766923E0,1.906929417E-1,2.204472447E0
1.435800262E1,-4.579295543E-1,1.076883461E0,-2.780577622E-2,1.170534334E0
1.436793863E1,-8.757859105E-2,4.322840685E-1,1.099206742E-1,4.545570152E-1
1.437787463E1,5.032365952E-1,1.218267381E-2,6.004926753E-1,7.835731883E-1
1.438781162E1,1.314741469E0,-4.731853420E-1,1.228117601E0,1.860301680E0
1.439774763E1,2.223129810E0,-7.197279274E-1,2.364901693E0,3.324616438E0
1.440768363E1,2.788462008E0,-8.266325712E-1,3.560880657E0,4.597685595E0
1.441761963E1,3.209650108E0,-1.559641280E0,3.825993415E0,5.231879237E0
1.442755563E1,3.427588114E0,-2.319732537E0,3.708833925E0,5.557424620E0
1.443749263E1,3.380567145E0,-2.761985523E0,3.014942504E0,5.305344150E0
1.444742863E1,2.975535779E0,-3.183258115E0,2.038907726E0,4.810830501E0
1.445736463E1,2.774720759E0,-3.831638902E0,6.583567214E-1,4.776396710E0
1.446730063E1,2.371638709E0,-4.513558148E0,2.806885890E-1,5.106433531E0
1.447723763E1,1.798465102E0,-4.470796291E0,7.421555078E-1,4.875786192E0
1.448717363E1,2.244060064E0,-3.813845240E0,1.820570354E0,4.784944880E0
1.449710963E1,2.607358536E0,-3.624627002E0,3.064271954E0,5.415348747E0
1.450704563E1,1.485766388E0,-3.701409715E0,2.947438738E0,4.959367979E0
1.451698162E1,2.930864952E-1,-3.871050305E0,2.007293000E0,4.370372449E0
1.452691863E1,-8.167283381E-1,-4.307921514E0,1.526166555E0,4.642673508E0
1.453685463E1,-3.365572837E0,-3.415529401E0,-1.182002950E0,4.938628614E0
1.454679062E1,-5.484700561E0,-2.324775175E0,-3.219453549E0,6.771366259E0
1.455672663E1,-1.296185184E-1,-3.153239679E0,-2.859107190E0,4.258428743E0
1.456666263E1,2.929490418E0,-1.884247702E0,-2.983604937E0,4.586305913E0
1.457659962E1,2.420865686E-1,-1.972424299E0,-2.398158317E0,3.114518716E0
1.458653562E1,-1.857567150E0,-2.681086956E0,-2.123946122E0,3.892291113E0
1.459647163E1,-2.961616482E0,-1.846775821E0,-2.723248304E0,4.426944143E0
1.460640763E1,-3.231284221E0,-1.352138799E0,-2.832164390E0,4.504512424E0
1.461634462E1,-3.146647528E0,-8.246836942E-1,-3.002742873E0,4.426958169E0
1.462628063E1,-3.043538897E0,-1.076567711E0,-3.492548926E0,4.756051414E0
1.463621663E1,-3.315228311E0,-1.476107957E0,-3.277162060E0,4.889726436E0
1.464615263E1,-3.409095125E0,-9.867094553E-1,-2.357012630E0,4.260402992E0
1.465608863E1,-3.000318910E0,-5.284391910E-1,-1.666426055E0,3.472482878E0
1.466602563E1,-2.133986961E0,9.694975913E-2,-1.149493600E0,2.425826692E0
1.467596163E1,-1.342810443E0,3.248502517E-1,-1.726951023E-1,1.392297084E0
1.468589763E1,-8.051347712E-1,8.448565882E-1,6.294960344E-1,1.326005246E0
1.469583363E1,-5.240027623E-1,1.714503617E0,7.426232851E-1,1.940513048E0
1.470577063E1,-6.796990585E-1,2.247162743E0,2.156045289E-1,2.357587012E0
1.471570663E1,-8.837364793E-1,2.554736227E0,-4.467703260E-1,2.739939977E0
1.472564263E1,-1.359220362E0,2.964048924E0,-6.719795644E-1,3.329357678E0
1.473557862E1,-1.828878663E0,3.319674826E0,-5.016292687E-1,3.823175387E0
1.474551462E1,-2.009432789E0,3.542037420E0,-3.794506744E-2,4.072504027E0
1.475545163E1,-1.823629764E0,4.036691399E0,6.915558963E-1,4.483163228E0
1.476538762E1,-1.603012563E0,4.630056903E0,1.252617580E0,5.057284549E0
1.477532362E1,-1.447151960E0,4.786636568E0,1.541065260E0,5.232687700E0
1.478525963E1,-1.099333553E0,4.579190220E0,1.387841167E0,4.909543812E0
1.479519563E1,-6.238134909E-1,4.380660877E0,9.337278342E-1,4.522298161E0
1.480513262E1,1.215751799E-1,4.010275433E0,3.224775977E-1,4.025056692E0
1.481506863E1,8.908139491E-1,3.501086445E0,1.394093156E-2,3.612665241E0
1.482500463E1,1.426286317E0,2.872170455E0,-6.872671098E-3,3.206821326E0
1.483494063E1,1.481101187E0,2.285868972E0,2.652767721E-1,2.736645656E0
1.484487763E1,1.624715235E0,1.766038637E0,5.527431428E-1,2.462542800E0
1.485481363E1,1.519133670E0,1.157128310E0,6.897260101E-1,2.030378044E0
1.486474963E1,1.202408855E0,4.702862924E-1,7.276430109E-1,1.482032592E0
1.487468563E1,6.881509164E-1,-2.708956540E-1,9.140275414E-1,1.175747628E0
1.488462163E1,3.085744904E-1,-9.114926273E-1,1.299165949E0,1.616746482E0
1.489455863E1,4.499916302E-1,-1.124053534E0,1.701793232E0,2.088561471E0
1.490449463E1,5.442757533E-1,-9.254826754E-1,2.146745878E0,2.400265015E0
1.491443063E1,-3.567816040E-1,-5.131773734E-1,3.253050773E0,3.312549390E0
1.492436633E1,-7.437877581E-2,1.296093822E-2,4.064840188E0,4.065541285E0
1.493430333E1,6.233183049E-2,2.608133000E-1,3.872021235E0,3.881295825E0
1.494423933E1,1.276841864E-1,2.896301329E-2,4.076850953E0,4.078952783E0
1.495417533E1,7.977321962E-1,-8.570848703E-2,4.521349271E0,4.591984520E0
1.496411133E1,1.710850276E0,-3.435303515E-1,4.780273043E0,5.088814414E0
1.497404733E1,2.109435964E0,-8.906701076E-1,5.021865376E0,5.519252230E0
1.498398433E1,1.930432081E0,-1.627895243E0,4.858043350E0,5.475143481E0
1.499392033E1,1.366451321E0,-2.315692695E0,4.208525572E0,4.994127488E0
1.500385633E1,9.261972052E-1,-2.575872157E0,3.497909653E0,4.441658539E0
1.501379233E1,8.486366670E-1,-2.366807300E0,2.788181926E0,3.754453282E0
1.502372933E1,1.203530790E0,-2.054086513E0,2.076850016E0,3.159282158E0
1.503366533E1,1.486309009E0,-1.711150239E0,1.353592417E0,2.639954931E0
1.504360133E1,5.838777389E-1,-1.605194013E0,4.668150929E-1,1.770727919E0
1.505353733E1,-1.775083292E-1,-1.737570298E0,-7.885060939E-1,1.916351118E0
1.506347333E1,-9.244075917E-1,-1.235914278E0,-1.549149913E0,2.186750775E0
1.507341033E1,-1.483434226E0,-3.289953429E-1,-3.056550414E0,3.413402330E0
1.508334633E1,-2.427381385E0,-4.057780552E-1,-4.263120732E0,4.922502879E0
1.509328233E1,-3.798253932E0,-1.168293568E0,-4.785236452E0,6.220139122E0
1.510321833E1,-5.154916429E0,-1.580722246E0,-4.793980086E0,7.214852131E0
1.511315433E1,-5.117486647E0,-2.495608013E0,-4.482551533E0,7.246378212E0
1.512309133E1,-4.984090608E0,-4.225730127E0,-4.173213944E0,7.753300518E0
1.513302733E1,-4.249624189E0,-5.667296242E0,-4.138709525E0,8.204051985E0
1.514296333E1,-2.226452782E0,-7.154796329E0,-4.625105481E0,8.805668811E0
1.515289933E1,1.584281154E-1,-7.327940571E0,-5.321990676E0,9.058001834E0
1.516283633E1,1.816324545E0,-6.240637956E0,-6.079355961E0,8.899616051E0
1.517277233E1,2.007233066E0,-4.553817982E0,-6.389726168E0,8.099064347E0
1.518270833E1,1.537852508E0,-2.203217994E0,-4.575618156E0,5.306170123E0
1.519264433E1,1.603142664E0,-8.416160613E-1,4.010941431E-2,1.811075029E0
1.520258033E1,2.562653064E0,-3.752953506E-1,1.049184469E0,2.794427558E0
1.521251733E1,2.988135067E0,1.896678883E-1,5.536016603E-1,3.044897352E0
1.522245333E1,3.810231661E0,9.958708727E-1,-2.830052376E-4,3.938226020E0
1.523238933E1,4.501026396E0,1.450522880E0,-5.318931413E-1,4.758798751E0
1.524232533E1,5.069761088E0,1.897488137E0,-3.508703613E-1,5.424578208E0
1.525226133E1,3.621739355E0,2.979262794E0,-5.265826269E-1,4.719141025E0
1.526219833E1,1.090544822E0,4.437891085E0,-3.101352219E-1,4.580431109E0
1.527213433E1,3.746743032E-1,5.520684326E0,-5.474280238E-2,5.533654582E0
1.528207033E1,7.078355679E-1,5.790831537E0,6.124455535E-1,5.865991019E0
1.529200633E1,2.540327591E-1,5.991163577E0,2.566319561E-1,6.002035789E0
1.530194333E1,-8.132969727E-1,6.465945793E0,1.207251958E-1,6.518012085E0
1.531187933E1,-1.881562369E0,6.876654221E0,6.099441147E-1,7.155465187E0
1.532181533E1,-2.402049054E0,6.810260257E0,1.452486960E0,7.366084631E0
1.533175133E1,-3.156279354E0,6.750873011E0,1.823455371E0,7.672116739E0
1.534168733E1,-3.199810413E0,6.203504629E0,1.691404191E0,7.182137878E0
1.535162433E1,-2.800421903E0,5.186394914E0,1.380533463E0,6.053670596E0
1.536156033E1,-2.338795337E0,4.124433548E0,1.003280391E0,4.846389095E0
1.537149633E1,-1.847835190E0,3.338447312E0,6.116983525E-1,3.864440479E0
1.538143233E1,-1.413029948E0,2.414653897E0,3.888480270E-1,2.824607913E0
1.539136933E1,-1.109911312E0,1.206635515E0,3.871651983E-1,1.684567980E0
1.540130533E1,-5.634928834E-1,-1.454746324E-1,6.393428917E-1,8.645498433E-1
1.541124133E1,1.784681497E-1,-1.002563011E0,1.020532163E0,1.441689761E0
1.542117733E1,1.352764451E0,-1.388720149E0,1.628270634E0,2.531754445E0
1.543111333E1,2.925640903E0,-1.438869379E0,2.508145612E0,4.113455263E0
1.544105033E1,4.050801315E0,-1.633106866E0,3.365791816E0,5.514035172E0
1.545098633E1,3.955891065E0,-2.928044693E0,2.506618320E0,5.523192487E0
1.546092233E1,3.236478302E0,-2.606165412E0,2.542864040E0,4.871657570E0
1.547085833E1,2.352035187E0,-2.905089694E0,2.025780727E0,4.251517753E0
1.548079433E1,2.287729410E0,-4.000774877E0,1.007371176E0,4.717488967E0
1.549073133E1,2.005071497E0,-4.859245538E0,3.987543797E-1,5.271772373E0
1.550066733E1,1.215157686E0,-4.710441501E0,1.332885672E0,5.043951977E0
1.551060333E1,1.649134085E0,-3.686064282E0,2.240994515E0,4.618308082E0
1.552053933E1,2.757516496E0,-2.933992481E0,3.519905709E0,5.348078656E0
1.553047633E1,3.106246192E0,-2.636995441E0,5.711491252E0,7.015956292E0
1.554041233E1,2.465321190E0,-2.645129503E0,5.663192081E0,6.719096904E0
1.555034833E1,1.340835546E0,-2.891006675E0,2.577828051E0,4.098897049E0
1.556028433E1,2.098719918E-1,-3.893131145E0,4.808422709E-1,3.928323517E0
1.557022033E1,-2.857702397E0,-4.797857959E0,-3.513348641E0,6.597690707E0
1.558015733E1,-5.260584971E0,-3.410993131E0,-6.347771226E0,8.922041690E0
1.559009333E1,2.524222532E-1,-2.238805903E0,-3.285020717E0,3.983381726E0
1.560002933E1,3.010734848E0,-2.214451665E-1,-9.118487227E-1,3.153574223E0
1.560996533E1,5.448246972E-1,-9.277087104E-1,-8.314728963E-1,1.359714889E0
1.561990233E1,-1.513506163E0,-3.068240460E0,-2.175656558E0,4.054415110E0
1.562983833E1,-2.837264916E0,-2.774513183E0,-3.994062274E0,5.630322287E0
1.563977433E1,-3.137656850E0,-1.953626086E0,-4.235581516E0,5.621538594E0
1.564971033E1,-3.675813236E0,-1.731110294E0,-4.099252514E0,5.771673671E0
1.565964633E1,-4.189240578E0,-2.029712394E0,-3.927961839E0,6.090841751E0
1.566958333E1,-4.471076080E0,-2.118569022E0,-3.133042227E0,5.856177047E0
1.567951933E1,-3.922295595E0,-1.543013552E0,-2.080672048E0,4.700477607E0
1.568945533E1,-3.393389504E0,-1.051871411E0,-1.377773577E0,3.810483673E0
1.569939133E1,-2.503574844E0,-1.279857858E0,-1.498318605E0,3.186044849E0
1.570932833E1,-1.356830020E0,-6.459506840E-1,-1.135272002E0,1.883369987E0
1.571926433E1,-8.805862918E-1,9.341862559E-2,-4.876835132E-1,1.010937419E0
1.572920033E1,-1.248118002E0,4.451245540E-1,-2.530848158E-1,1.349068693E0
1.573913633E1,-1.580848692E0,1.073930617E0,-6.368927622E-1,2.014458227E0
1.574907233E1,-2.130621596E0,1.995054778E0,-1.186801175E0,3.150918752E0
1.575900933E1,-2.019889072E0,2.865913349E0,-1.123064332E0,3.681668736E0
1.576894533E1,-2.553793071E0,3.457984865E0,-7.244641721E-1,4.359399811E0
1.577888133E1,-3.113484168E0,4.053362396E0,-5.758571863E-2,5.111442701E0
1.578881733E1,-3.646860163E0,4.535970526E0,6.255023861E-1,5.853705740E0
1.579875433E1,-3.204577648E0,4.561134018E0,1.227912948E0,5.707979646E0
1.580869033E1,-2.522230386E0,4.442187619E0,1.376542153E0,5.290514650E0
1.581862633E1,-1.909699901E0,4.214213451E0,1.137910412E0,4.764597447E0
1.582856233E1,-1.146469566E0,3.928483411E0,8.486064076E-1,4.179414697E0
1.583849833E1,-7.283752285E-2,3.517854506E0,6.046044374E-1,3.570175367E0
1.584843533E1,8.966293705E-1,3.054062131E0,5.440473099E-1,3.229121739E0
1.585837133E1,1.338242014E0,2.800073701E0,7.670877430E-1,3.196830935E0
1.586830733E1,1.790240847E0,2.707181325E0,1.138815415E0,3.439577527E0
1.587824333E1,2.126221858E0,2.385434191E0,1.557003893E0,3.554627518E0
1.588818033E1,2.079012462E0,1.930685704E0,2.024693437E0,3.485573643E0
1.589811633E1,1.975454472E0,1.451909255E0,2.127359726E0,3.245939042E0
1.590805233E1,1.805341281E0,1.073702576E0,2.242821186E0,3.072839279E0
1.591798833E1,1.481567648E0,5.648363543E-1,2.095554382E0,2.627818671E0
1.592792400E1,9.748514481E-1,1.838265198E-1,1.902812904E0,2.145885478E0
1.593786100E1,9.591882192E-1,-1.433269501E-1,1.670468236E0,1.931592291E0
1.594779700E1,7.346538225E-1,-5.043428153E-1,1.626957642E0,1.855011882E0
1.595773300E1,-3.178555930E-1,-6.278716779E-1,3.174108684E0,3.251187623E0
1.596766900E1,3.029277977E-1,-2.306574547E-1,4.256027183E0,4.273024162E0
1.597760600E1,8.225951419E-1,4.954071003E-1,4.419404235E0,4.522524158E0
1.598754200E1,1.654533988E0,8.947713447E-1,4.573901706E0,4.945571281E0
1.599747800E1,2.063481380E0,8.233522832E-1,4.803833814E0,5.292700983E0
1.600741400E1,1.712908058E0,-2.730836821E-1,4.625883453E0,4.940387276E0
1.601735000E1,7.843470425E-1,-2.677351170E0,4.285751211E0,5.113811984E0
1.602728700E1,5.042464093E-1,-3.451043050E0,4.135811352E0,5.410073763E0
1.603722300E1,5.353655103E-1,-3.449087157E0,4.119549953E0,5.399399065E0
1.604715900E1,7.508736333E-1,-3.296504649E0,3.854157699E0,5.126917756E0
1.605709500E1,1.401240354E0,-2.733884974E0,3.073093064E0,4.345285095E0
1.606703200E1,2.029152816E0,-2.554779496E0,1.749663509E0,3.702118558E0
1.607696800E1,1.160862707E0,-2.567294292E0,6.335548791E-1,2.887904775E0
1.608690400E1,3.232864869E-1,-2.659827649E0,-1.154730951E0,2.917636174E0
1.609684000E1,3.458748292E-1,-3.088378270E0,-2.891732607E0,4.244976703E0
1.610677600E1,-9.407464664E-1,-2.147110451E0,-2.379282920E0,3.340071020E0
1.611671300E1,-1.750541176E0,-9.338342535E-1,-4.174513488E0,4.622012947E0
1.612664900E1,-2.937604891E0,-1.007160092E0,-5.475978270E0,6.295254717E0
1.613658500E1,-4.956894039E0,-2.067338058E0,-4.936795989E0,7.294973598E0
1.614652100E1,-5.117873148E0,-2.845303084E0,-5.026279439E0,7.716985175E0
1.615645700E1,-4.356515969E0,-3.939016001E0,-5.148987937E0,7.810707728E0
1.616639400E1,-4.510534845E0,-4.934385182E0,-5.103329369E0,8.410532228E0
1.617633000E1,-2.680378565E0,-6.249479531E0,-4.891780615E0,8.376750041E0
1.618626600E1,-8.229064330E-1,-6.405648721E0,-4.721299195E0,8.000011039E0
1.619620200E1,6.990221328E-1,-5.090483036E0,-4.758201850E0,7.003008948E0
1.620613900E1,1.145170461E0,-2.844128963E0,-5.248958952E0,6.078820200E0
1.621607500E1,7.930986433E-1,-1.867963207E-1,-5.159371423E0,5.223314254E0
1.622601100E1,1.631081099E0,6.412039143E-1,-1.049958641E0,2.043032344E0
1.623594700E1,1.959217193E0,1.368254310E0,1.475497069E0,2.808512679E0
1.624588300E1,2.821515733E0,1.996100260E0,1.659884044E0,3.834133842E0
1.625582000E1,3.464948314E0,2.693881248E0,9.126484756E-1,4.482832836E0
1.626575600E1,4.759972680E0,3.075937734E0,7.115524967E-1,5.711833314E0
1.627569200E1,5.725854937E0,3.033758259E0,2.940155447E-1,6.486566818E0
1.628562800E1,4.681698050E0,3.467854380E0,-7.972678542E-2,5.826720089E0
1.629556500E1,2.519482194E0,4.311802311E0,6.967556790E-2,4.994425330E0
1.630550100E1,1.123531816E0,4.442600432E0,-3.582798799E-1,4.596453721E0
1.631543700E1,6.129987732E-1,4.709790705E0,-4.240014144E-1,4.768403631E0
1.632537300E1,-4.049965383E-1,5.179874099E0,5.301158801E-3,5.195685324E0
1.633530900E1,-9.230220209E-1,5.557965589E0,9.046833985E-1,5.706260000E0
1.634524600E1,-1.657528932E0,5.756095567E0,1.190880193E0,6.107228011E0
1.635518200E1,-2.912879355E0,5.569347194E0,1.601035327E0,6.485815941E0
1.636511800E1,-3.518906128E0,5.412425467E0,2.011577840E0,6.761915053E0
1.637505400E1,-3.358203299E0,4.934113287E0,1.892839601E0,6.261457105E0
1.638499100E1,-2.806207430E0,4.225795031E0,1.543053313E0,5.302184202E0
1.639492700E1,-2.061569487E0,3.329187076E0,1.227131760E0,4.103584737E0
1.640486300E1,-1.243548988E0,2.271594749E0,8.950228480E-1,2.740004140E0
1.641479900E1,-4.958289769E-1,1.258041896E0,5.712238526E-1,1.467927954E0
1.642473600E1,-2.241161015E-2,2.641777879E-1,4.201176938E-1,4.967806966E-1
1.643467200E1,6.425161757E-1,-5.135165119E-1,6.846504807E-1,1.070174063E0
1.644460800E1,1.371489720E0,-1.000877843E0,1.303498735E0,2.140525511E0
1.645454400E1,2.074845736E0,-1.161086875E0,2.362983806E0,3.352133653E0
1.646448000E1,2.964489219E0,-1.332082849E0,3.364298437E0,4.677728617E0
