"Time (s)","Linear Acceleration x (m/s^2)","Linear Acceleration y (m/s^2)","Linear Acceleration z (m/s^2)","Absolute acceleration (m/s^2)"
5.076999994E-3,1.247539712E0,6.500809232E0,6.926019924E0,9.580533805E0
1.501300000E-2,2.617089473E-1,6.891068192E0,6.240759578E0,9.300666240E0
2.494900000E-2,-4.609351328E-1,6.925974900E0,5.153442346E0,8.645204308E0
3.488599999E-2,-8.549494672E-1,6.792821521E0,4.048858286E0,7.954031444E0
4.482200000E-2,-1.380606991E0,6.393563696E0,3.002596108E0,7.197174153E0
5.475800000E-2,-1.774280433E0,5.395433459E0,1.720323935E0,5.934499786E0
6.469499999E-2,-1.715127807E0,4.043121582E0,8.184499776E-1,4.467477576E0
7.463100000E-2,-1.721884118E0,3.000087653E0,-4.444439381E-2,3.459391008E0
8.456700000E-2,-1.440162929E0,1.677499512E0,-9.726583037E-1,2.415396045E0
9.450399999E-2,-9.582763459E-1,3.824043953E-1,-1.636485388E0,1.934582927E0
1.044400000E-1,-5.525957930E-1,-6.137120605E-1,-2.108742192E0,2.264685019E0
1.143760000E-1,-1.101619961E0,-1.646765962E0,-1.343028837E0,2.393560346E0
1.243130000E-1,1.188143988E-1,-1.656020935E0,-6.590730053E-1,1.786308883E0
1.342490000E-1,1.261599781E0,-9.595830524E-1,-1.110555822E-1,1.588951536E0
1.441850000E-1,2.809726869E0,-4.206504482E-1,-2.698343843E-2,2.841168771E0
1.541220000E-1,4.497972980E0,-3.145714313E-1,-1.843986699E-1,4.512728552E0
1.640580000E-1,6.034769188E0,-2.652513367E-1,2.138484639E-1,6.044379917E0
1.739940000E-1,7.372492261E0,1.245503712E-1,1.603734548E0,7.545933967E0
1.839310000E-1,8.420943636E0,1.230435437E-1,1.939405657E0,8.642263924E0
1.938670000E-1,9.286742027E0,3.351512915E-1,2.231985710E0,9.557074033E0
2.038030000E-1,9.058729268E0,2.076632792E-1,2.122242536E0,9.306321151E0
2.137400000E-1,8.349929786E0,-5.590189594E-1,1.094994042E0,8.439955070E0
2.236760000E-1,6.797019821E0,-1.621755082E0,-8.626908883E-1,7.040866677E0
2.336120000E-1,3.532146855E0,-3.124950265E0,-3.783487373E0,6.046168396E0
2.435490000E-1,-1.362754419E0,-5.602781573E0,-8.270769596E0,1.008235541E1
2.534850000E-1,-1.045515839E1,-8.877744495E0,-1.804180609E1,2.266343864E1
2.634210000E-1,-1.906072435E1,-1.337838497E1,-2.321117040E1,3.287933741E1
2.733580000E-1,-2.054899393E1,-1.709149321E1,-1.140014562E1,2.905759129E1
2.832940000E-1,-7.740847551E0,-1.647160182E1,-3.778033968E0,1.858784355E1
2.932300000E-1,2.592250208E0,-1.564763791E1,-5.019156945E0,1.663611342E1
3.031670000E-1,7.775929091E0,-1.048714032E1,-4.168431507E0,1.370478042E1
3.131030000E-1,8.703286384E0,-4.788819333E0,-1.420160043E0,1.003478146E1
3.230390000E-1,7.228233265E0,-2.052197278E-2,-3.081675607E-1,7.234828576E0
3.329760000E-1,3.650086072E0,2.498334569E0,5.515009019E-1,4.457460846E0
3.429120000E-1,1.530481215E0,3.961644140E0,1.084964898E0,4.383394333E0
3.528480000E-1,-1.347555166E-1,3.719986904E0,1.225708548E0,3.919033434E0
3.627850000E-1,-1.122428593E0,3.050568420E0,1.554124432E0,3.602931637E0
3.727210000E-1,-1.671527897E0,2.859296055E0,9.272251457E-1,3.439378711E0
3.826570000E-1,-2.247039367E0,3.977638614E0,-6.549092031E-1,4.615159903E0
3.925940000E-1,-2.441405054E0,5.473599622E0,-1.358313751E0,6.145385888E0
4.025300000E-1,-3.833638065E0,6.477315120E0,1.239955581E0,7.628229271E0
4.124660000E-1,-3.015465538E0,8.038081403E0,-5.242914686E-1,8.601085199E0
4.224030000E-1,-2.143651385E0,9.071197286E0,2.992011771E0,9.789483944E0
4.323390000E-1,-2.357294027E-1,8.145445054E0,2.757080586E0,8.602635458E0
4.422750000E-1,2.088686096E-1,8.336855412E0,2.429759301E0,8.686225562E0
4.522120000E-1,2.042949175E-1,8.815642387E0,2.716712579E0,9.227015462E0
4.621480000E-1,1.007033061E-1,9.039345163E0,3.293313531E0,9.621113041E0
4.720840000E-1,6.296187528E-1,8.610009845E0,3.083239445E0,9.167063586E0
4.820210000E-1,1.537962143E0,8.133130233E0,3.227693738E0,8.884319997E0
4.919570000E-1,1.297868744E0,7.836231426E0,3.680844765E0,8.754404858E0
5.018930000E-1,2.423473544E0,7.073068042E0,3.085519859E0,8.088383543E0
5.118300000E-1,4.119834713E0,6.071395562E0,2.904760204E0,7.891293555E0
5.217660000E-1,5.128327385E0,5.285789394E0,2.525170366E0,7.785614726E0
5.317020000E-1,6.269036713E0,4.846150698E0,9.568719909E-1,7.981328330E0
5.416390000E-1,7.510039238E0,3.962934621E0,1.757781199E-1,8.493317262E0
5.515750000E-1,8.796346575E0,2.334448224E0,1.283979852E-1,9.101749701E0
5.615110000E-1,9.610077265E0,1.542715344E0,-1.057362239E-1,9.733690760E0
5.714480000E-1,9.546171876E0,3.187662238E-1,-1.589885856E0,9.682910018E0
5.813840000E-1,7.300933451E0,-1.103457302E0,-4.363431179E0,8.576758066E0
5.913200000E-1,4.417261523E0,-2.736323848E0,-6.927768241E0,8.659886856E0
6.012570000E-1,2.007892047E0,-4.352404792E0,-8.875275800E0,1.008690133E1
6.111930000E-1,8.178982928E-1,-5.186524138E0,-9.193546765E0,1.058727030E1
6.211290000E-1,9.406839012E-1,-4.376984147E0,-7.747677684E0,8.948149860E0
6.310660000E-1,3.313999226E0,-3.250306383E0,-5.084923503E0,6.885022112E0
6.410020000E-1,6.427536018E0,-1.989875899E0,-1.068866343E0,6.812877558E0
6.509380000E-1,8.690099743E0,-8.747329366E-1,9.629707830E-1,8.786939398E0
6.608750000E-1,8.906447307E0,-1.386234498E-1,2.142885253E0,9.161658000E0
6.708110000E-1,5.943140395E0,-6.907830405E-1,1.148659787E0,6.092414814E0
6.807470000E-1,1.799577388E0,-2.534187357E0,-1.389995281E0,3.404801201E0
6.906840000E-1,-3.249180794E0,-4.686114745E0,-3.835256574E0,6.872120504E0
7.006200000E-1,-9.346111146E0,-7.327892039E0,-5.758132153E0,1.319863179E1
7.105560000E-1,-1.362805640E1,-1.048374192E1,-6.035430508E0,1.822249125E1
7.204930000E-1,-1.317378973E1,-1.202206366E1,-6.370342648E0,1.893832136E1
7.304290000E-1,-1.108180332E1,-1.264767481E1,-5.459934679E0,1.767995841E1
7.403650000E-1,-7.967881486E0,-1.144353430E1,-3.439265589E0,1.436210849E1
7.503020000E-1,-4.152922352E0,-8.823091739E0,-2.721301181E0,1.012418846E1
7.602380000E-1,-5.709062757E-1,-6.382070408E0,-2.218215079E0,6.780651503E0
7.701740000E-1,1.866605922E0,-4.270724452E0,-8.630861601E-1,4.740065688E0
7.801111250E-1,3.253234668E0,-3.244879582E0,-2.997481549E-1,4.604631176E0
7.900471250E-1,3.930812357E0,-2.446915324E0,-1.588827364E-1,4.632917452E0
7.999831250E-1,3.837852446E0,-1.372305846E0,2.152102804E-1,4.081500973E0
8.099201250E-1,2.900959513E0,-1.568036127E-1,1.164335149E0,3.129829039E0
8.198561250E-1,1.844746252E0,1.325987712E0,1.495472035E0,2.719883959E0
8.297921250E-1,8.873434073E-1,2.911965435E0,1.368334855E0,3.337553190E0
8.397291250E-1,-1.689354888E-1,4.179520167E0,1.198140242E0,4.351145603E0
8.496651250E-1,-1.010357934E0,5.082324416E0,1.108851943E0,5.299094003E0
8.596011250E-1,-1.759616347E0,5.906884734E0,1.172888164E0,6.274010169E0
8.695381250E-1,-2.251074530E0,6.580197464E0,1.228801871E0,7.062314723E0
8.794741250E-1,-2.709616983E0,7.108379377E0,1.266682327E0,7.712040306E0
8.894101250E-1,-2.769372018E0,7.422694700E0,1.325396850E0,8.032589545E0
8.993471250E-1,-2.611633436E0,8.096070580E0,1.461622649E0,8.631531081E0
9.092831250E-1,-2.568820707E0,8.502226950E0,1.432026383E0,8.996521689E0
9.192191250E-1,-2.633219017E0,8.578875761E0,1.278530978E0,9.064523880E0
9.291561250E-1,-2.632753286E0,8.620873387E0,1.178575385E0,9.090648369E0
9.390921250E-1,-2.670169912E0,8.851828465E0,9.288326915E-1,9.292330424E0
9.490281250E-1,-2.825324902E0,8.874176524E0,6.632579307E-1,9.336668617E0
9.589651250E-1,-3.035218309E0,8.643907909E0,4.001998845E-1,9.170052021E0
9.689011250E-1,-3.042907982E0,7.975039648E0,2.033813632E-1,8.538261553E0
9.788371250E-1,-2.859701267E0,6.972781277E0,7.239792187E-2,7.536763996E0
9.887741250E-1,-2.742188313E0,6.247089189E0,2.444172688E-3,6.822442822E0
9.987101250E-1,-2.422138625E0,5.323802143E0,1.275359595E-1,5.850289754E0
1.008646125E0,-1.961078362E0,4.291354598E0,3.340327557E-1,4.730024366E0
1.018583125E0,-1.814674899E0,3.673182281E0,7.228316295E-1,4.160264250E0
1.028519125E0,-1.885946319E0,3.684180894E0,8.235218525E-1,4.219972822E0
1.038455125E0,-2.046270540E0,3.712826988E0,3.797813344E-1,4.256353043E0
1.048392125E0,-2.020553901E0,3.114677292E0,1.354142055E-3,3.712661381E0
1.058328125E0,-1.471047484E0,2.189811498E0,6.582905017E-2,2.638861224E0
1.068264125E0,2.825231346E-1,-2.944014609E-2,6.854258215E-1,7.419532335E-1
1.078201125E0,4.095595080E0,-3.398346773E0,2.528804995E0,5.892157038E0
1.088137125E0,9.172193903E0,-8.180586820E0,4.796927083E0,1.319324263E1
1.098073125E0,1.465206408E1,-1.276757313E1,5.387187130E0,2.016719343E1
1.108010125E0,2.073998270E1,-1.764713774E1,4.655756586E0,2.762687862E1
1.117946125E0,2.345364040E1,-2.007758205E1,5.029874307E0,3.128069987E1
1.127882125E0,1.945947990E1,-1.686114566E1,5.032394457E0,2.623536897E1
1.137819125E0,1.225697204E1,-1.103593542E1,1.972803783E-1,1.649436734E1
1.147755125E0,4.028490095E0,-6.540046973E0,-2.818950852E0,8.182140964E0
1.157691125E0,-5.241991410E0,-4.898172791E0,-6.993633617E0,1.001905593E1
1.167628125E0,-1.592825632E1,-6.610681338E0,-1.147805743E1,2.071608697E1
1.177564125E0,-3.369369376E1,-1.271648952E1,-2.332368487E1,4.290650744E1
1.187500125E0,-3.769864589E1,-2.140677813E1,-2.704706082E1,5.109776463E1
1.197437125E0,-9.146363243E0,-2.196309860E1,-1.370936895E1,2.745870459E1
1.207373125E0,3.734552903E0,-1.246053935E1,1.508807195E0,1.309535892E1
1.217309125E0,9.520299700E0,-6.076833472E0,1.980989885E-1,1.129616106E1
1.227246125E0,9.052430062E0,-1.306307738E0,-1.776331490E0,9.317096302E0
1.237182125E0,7.057955913E0,1.283979560E0,-1.714310074E-1,7.175843767E0
1.247118125E0,6.650042455E0,2.242499004E0,-1.632156694E-1,7.019865083E0
1.257055125E0,3.750943525E0,3.290475585E0,9.729547575E-2,4.990618530E0
1.266991125E0,1.465654305E0,4.889468626E0,1.608053009E-1,5.106946674E0
1.276927125E0,1.065077932E0,6.480411805E0,-2.533177543E-1,6.572236914E0
1.286864125E0,5.648626667E-1,7.402426497E0,1.966582346E-1,7.426551174E0
1.296800125E0,2.141413729E-1,7.673735549E0,8.363212614E-1,7.722143942E0
1.306736125E0,2.815612677E-1,7.789494631E0,7.960563111E-1,7.835126611E0
1.316673125E0,5.352433035E-1,7.982748032E0,6.917057312E-1,8.030517316E0
1.326609125E0,6.582706942E-1,8.044485859E0,9.091074018E-1,8.122410314E0
1.336545125E0,4.845885819E-1,7.761507518E0,1.094140348E0,7.853213874E0
1.346482125E0,6.673780981E-1,7.717906001E0,1.225716734E0,7.843076442E0
1.356418125E0,9.852024085E-1,7.753827201E0,1.357189185E0,7.933121865E0
1.366354125E0,9.316466640E-1,7.778108348E0,1.533090827E0,7.982311850E0
1.376291125E0,1.146792844E0,7.863199954E0,1.504300307E0,8.087519197E0
1.386227125E0,1.058559603E0,8.031532522E0,1.385666149E0,8.218645494E0
1.396163125E0,1.026027668E0,7.640432147E0,1.185368680E0,7.799617624E0
1.406100125E0,9.147457257E-1,7.279401664E0,1.153373812E0,7.426756996E0
1.416036125E0,8.466011050E-1,6.740020579E0,9.154541159E-1,6.854390350E0
1.425972125E0,8.088643447E-1,6.302765792E0,1.063549032E0,6.442845233E0
1.435909125E0,7.283407299E-1,5.922733612E0,1.115461489E0,6.070709019E0
1.445845125E0,9.615114641E-1,5.104574241E0,1.080615739E0,5.305554905E0
1.455781125E0,1.447190113E0,3.682306277E0,1.331355894E0,4.174475686E0
1.465718125E0,2.701701899E0,1.861172251E0,2.132636108E0,3.912964613E0
1.475654125E0,4.438307699E0,4.011529076E-1,2.593662311E0,5.156217903E0
1.485590125E0,6.544559269E0,-3.463516331E-1,1.634359925E0,6.754431719E0
1.495527125E0,8.857688545E0,-2.383589394E0,-1.736402316E-1,9.174437078E0
1.505463125E0,1.190411012E1,-7.384655054E0,-1.563371218E0,1.409557014E1
1.515399125E0,1.167778194E1,-1.065672127E1,-1.092134753E0,1.584705201E1
1.525336125E0,9.337226302E0,-1.006302072E1,-1.629210867E0,1.382398311E1
1.535272125E0,7.706912650E0,-7.255878900E0,-4.050049363E0,1.133345407E1
1.545208125E0,5.839289167E0,-4.515445045E0,-3.707041168E0,8.260066353E0
1.555145125E0,3.248342595E0,-2.538282747E0,-2.056331113E0,4.606854303E0
1.565081125E0,3.546500015E-1,-2.706538131E0,-2.294297733E0,3.565799681E0
1.575017125E0,-3.502393883E0,-3.430493011E0,-3.718733261E0,6.153374868E0
1.584954125E0,-7.739291607E0,-4.634887288E0,-4.196697532E0,9.949426362E0
1.594890125E0,-1.068177074E1,-7.106855008E0,-4.643587360E0,1.364443175E1
1.604826125E0,-1.085045706E1,-1.005906098E1,-5.500756431E0,1.578529213E1
1.614763125E0,-9.544942206E0,-1.123409171E1,-5.098307780E0,1.559818837E1
1.624699125E0,-8.965484889E0,-9.668842952E0,-1.949751867E0,1.332921512E1
1.634635125E0,-7.000928603E0,-7.990911915E0,-1.864781152E0,1.078633781E1
1.644572125E0,-6.635647194E0,-6.725687883E0,-2.743964989E0,9.838497602E0
1.654508125E0,-6.441713178E0,-6.028851805E0,-3.395185769E0,9.453571238E0
1.664444125E0,-5.326199502E0,-5.551082831E0,-3.253835177E0,8.352865681E0
1.674381125E0,-3.737572989E0,-4.773724746E0,-2.619545596E0,6.604537753E0
1.684317125E0,-1.943940758E0,-3.424839923E0,-1.796583906E0,4.328527220E0
1.694253125E0,-1.565533519E-1,-1.506419338E0,-6.721935725E-1,1.657001018E0
1.704190125E0,1.285572049E0,2.265369219E-1,3.802609523E-1,1.359637033E0
1.714126125E0,2.168714744E0,1.880568050E0,1.157253001E0,3.095011202E0
1.724062125E0,2.680445516E0,3.521285652E0,1.427572120E0,4.649968061E0
1.733999125E0,2.884652506E0,4.999135494E0,1.510132466E0,5.965993282E0
1.743935125E0,2.756768053E0,6.052095072E0,1.634468975E0,6.848292757E0
1.753871125E0,2.460631138E0,6.872033166E0,1.708385675E0,7.496541006E0
1.763808125E0,2.024869146E0,7.524407017E0,1.667194380E0,7.968458641E0
1.773744125E0,1.691921085E0,7.790885099E0,1.567297039E0,8.125078929E0
1.783679375E0,1.354970459E0,8.141938478E0,1.568928412E0,8.401704797E0
1.793616375E0,1.037932672E0,8.433569528E0,1.524088747E0,8.632800573E0
1.803552375E0,7.216300267E-1,8.495540074E0,1.375130489E0,8.636314892E0
1.813488375E0,3.358566119E-1,8.483747410E0,1.223439682E0,8.578086875E0
1.823425375E0,3.328980669E-2,8.481846480E0,1.086892286E0,8.551266734E0
1.833361375E0,-1.726017661E-1,8.455149847E0,1.025910212E0,8.518910850E0
1.843298375E0,-3.168750881E-1,8.327003438E0,1.004900143E0,8.393403385E0
1.853234375E0,-3.153141738E-1,7.986175670E0,9.581012218E-1,8.049620041E0
1.863170375E0,-1.355482529E-1,7.437662988E0,9.294044030E-1,7.496732394E0
1.873106375E0,1.165092802E-1,6.454250777E0,8.085392395E-1,6.505740789E0
1.883043375E0,4.517802934E-1,5.090034555E0,6.120771790E-1,5.146571254E0
1.892979375E0,9.234276715E-1,3.390314453E0,4.961304009E-1,3.548675264E0
1.902915375E0,1.485512034E0,1.580565541E0,6.405789931E-1,2.261697344E0
1.912852375E0,1.935346666E0,-1.843089151E-1,8.511980398E-1,2.122280518E0
1.922788375E0,2.330666538E0,-1.975611616E0,1.010622375E0,3.218136938E0
1.932724375E0,2.836363276E0,-3.807043759E0,1.268194417E0,4.913945043E0
1.942661375E0,3.544522195E0,-5.627462085E0,1.611822563E0,6.843240394E0
1.952597375E0,4.462833552E0,-7.245619376E0,2.366711991E0,8.832735086E0
1.962533375E0,5.260669756E0,-8.015805266E0,3.190484397E0,1.010479941E1
1.972470375E0,5.456861383E0,-7.078089631E0,3.244281119E0,9.507999209E0
1.982406375E0,4.935083925E0,-4.726133088E0,2.709631308E0,7.350747522E0
1.992342375E0,4.060942141E0,-2.706627009E0,2.532714443E0,5.498338230E0
2.002279375E0,3.381090471E0,-1.457893295E0,2.465425855E0,4.431201900E0
2.012215375E0,3.188090254E0,-6.000909716E-1,2.255904623E0,3.951345886E0
2.022151375E0,3.400114387E0,-5.223200798E-1,2.427709121E0,4.210388068E0
2.032088375E0,3.623459021E0,-1.923240445E0,2.910998013E0,5.030131064E0
2.042024375E0,2.180589562E0,-3.052952914E0,2.043707120E0,4.272262998E0
2.051960375E0,-1.359360256E0,-4.227363839E0,-4.585611632E-1,4.464162147E0
2.061897375E0,-5.844113705E0,-6.284354079E0,-4.159429718E0,9.536646516E0
2.071833375E0,-1.042946221E1,-8.812162124E0,-8.131442142E0,1.589176625E1
2.081769375E0,-1.431468441E1,-1.127978302E1,-1.182575626E1,2.172538161E1
2.091706375E0,-1.454516645E1,-1.268278500E1,-1.472519053E1,2.427439265E1
2.101642375E0,-8.486751709E0,-1.069576195E1,-1.091827424E1,1.748236227E1
2.111578375E0,-2.832357348E0,-8.410391166E0,-4.980519129E0,1.017656614E1
2.121515375E0,-1.505402507E0,-7.239856360E0,-2.982581966E0,7.973553286E0
2.131451375E0,-1.376676639E0,-4.222339327E0,-3.704475702E0,5.783297346E0
2.141387375E0,-1.343007787E0,-2.092016231E0,-2.806585160E0,3.749282877E0
2.151324375E0,-1.285297230E0,-1.245176268E0,-2.012519534E0,2.693081466E0
2.161260375E0,-1.147082939E0,-1.386743206E-1,-1.384799591E0,1.803524257E0
2.171196375E0,-9.629074869E-1,8.868746799E-1,-1.075079302E0,1.693969608E0
2.181133375E0,-7.922907043E-1,1.739858898E0,-6.177978024E-1,2.009106187E0
2.191069375E0,-5.127750850E-1,2.514816116E0,-2.086953127E-1,2.575032450E0
2.201005375E0,-2.550929689E-1,3.360149252E0,7.862400055E-2,3.370735403E0
2.210942375E0,-1.400848152E-1,4.055348110E0,2.838647783E-1,4.067683771E0
2.220878375E0,-2.590630822E-2,4.792731121E0,4.665355960E-1,4.815454100E0
2.230814375E0,8.810431056E-2,5.481779292E0,8.084948006E-1,5.541780438E0
2.240751375E0,2.915577406E-1,6.131544700E0,1.265172868E0,6.267496207E0
2.250687375E0,4.764883610E-1,6.737456574E0,1.649983977E0,6.952899350E0
2.260623375E0,5.863883141E-1,7.065511100E0,1.921124191E0,7.345475922E0
2.270560375E0,5.932976034E-1,7.272448155E0,2.141766389E0,7.604450505E0
2.280496375E0,7.409797789E-1,7.500570842E0,2.191204305E0,7.849139462E0
2.290432375E0,8.371688153E-1,7.562533202E0,2.228829968E0,7.928457799E0
2.300369375E0,1.023506714E0,7.491514674E0,2.258724881E0,7.891273421E0
2.310305375E0,1.263213174E0,7.383332414E0,2.240249580E0,7.818441228E0
2.320241375E0,1.556901421E0,7.026831769E0,1.934218300E0,7.452617471E0
2.330178375E0,2.054069410E0,6.233306133E0,1.735191358E0,6.788534122E0
2.340114375E0,2.904459364E0,5.090709323E0,1.779926797E0,6.125303667E0
2.350050375E0,3.947410263E0,3.790057012E0,1.573810837E0,5.694160210E0
2.359987375E0,4.954895461E0,2.422083369E0,1.143382383E0,5.632477265E0
2.369923375E0,6.097844272E0,1.098224629E0,7.793996403E-1,6.244779092E0
2.379859375E0,7.224592203E0,-3.576601481E-1,3.315605164E-1,7.241034848E0
2.389796375E0,7.929874585E0,-1.503667638E0,-1.325671962E-1,8.072267424E0
2.399732375E0,8.301921222E0,-2.148258260E0,-5.636414757E-1,8.593869981E0
2.409668375E0,7.744582168E0,-2.390977351E0,-5.669773123E-1,8.125071626E0
2.419605375E0,6.886343057E0,-2.388652498E0,6.256988525E-2,7.289121789E0
2.429541375E0,5.647848988E0,-1.841297565E0,3.540994862E-1,5.950963061E0
2.439477375E0,4.645150906E0,-1.044272370E0,4.638492389E-1,4.783627059E0
2.449414375E0,3.983559505E0,-6.600407195E-1,9.010562244E-1,4.137185323E0
2.459350375E0,3.554313065E0,-5.792392159E-1,1.258875124E0,3.814895282E0
2.469286375E0,3.384444433E0,-5.707894045E-1,1.601053161E0,3.787299287E0
2.479223375E0,3.459623255E0,-6.651739901E-1,1.896308169E0,4.000929164E0
2.489159375E0,3.479875963E0,-1.049361786E0,1.923173933E0,4.112091299E0
2.499095375E0,3.269436134E0,-2.143165335E0,9.579984570E-1,4.024938674E0
2.509032375E0,2.225587979E0,-3.114982517E0,-3.163365595E-1,3.841409475E0
2.518968375E0,-9.440424688E-2,-4.265035695E0,-1.212862069E0,4.435141040E0
2.528904375E0,-4.583570954E0,-6.098369352E0,-2.139996729E0,7.923308491E0
2.538841375E0,-1.064950463E1,-8.309669368E0,-3.360723449E0,1.391966293E1
2.548777375E0,-1.876266019E1,-1.201417811E1,-8.394764482E0,2.380861113E1
2.558713375E0,-2.600794043E1,-1.521422826E1,-1.198755807E1,3.242818612E1
2.568650375E0,-1.986772080E1,-1.361220577E1,-6.625595831E0,2.497833053E1
2.578586375E0,-7.958516586E0,-9.837785969E0,-1.042725781E0,1.269674352E1
2.588522375E0,-4.061791157E0,-6.438953292E0,-1.518137451E-1,7.614546231E0
2.598459375E0,-1.896572464E0,-4.678805140E0,-6.141574721E-1,5.085803186E0
2.608395375E0,-2.187702846E-1,-3.427012163E0,-4.702227040E-1,3.466032631E0
2.618331375E0,1.010581152E0,-2.545445001E0,-2.147097588E-3,2.738716694E0
2.628268375E0,1.809499236E0,-1.617157416E0,4.326401639E-1,2.465088864E0
2.638204375E0,2.382792419E0,-1.969827551E-1,6.737417690E-1,2.484035001E0
2.648140375E0,2.589824491E0,1.467612537E0,8.381410611E-1,3.092500265E0
2.658077375E0,2.705100009E0,2.964013256E0,8.370828612E-1,4.099225336E0
2.668013375E0,2.688150392E0,4.298729106E0,8.155216920E-1,5.135202050E0
2.677949375E0,2.399446751E0,5.346454257E0,9.586838968E-1,5.938096719E0
2.687886375E0,1.918972854E0,6.132836934E0,1.056457529E0,6.512315117E0
2.697822375E0,1.544097480E0,6.711347587E0,1.021982199E0,6.962102490E0
2.707758375E0,1.255516776E0,7.099427875E0,1.053432179E0,7.286145612E0
2.717695375E0,9.198034211E-1,7.471182151E0,1.044084674E0,7.599652221E0
2.727631375E0,5.361649708E-1,7.820036978E0,9.801863015E-1,7.899444056E0
2.737567375E0,5.275935374E-2,8.011098257E0,9.079882447E-1,8.062562960E0
2.747504375E0,-3.601105700E-1,8.024978963E0,7.643971467E-1,8.069341359E0
2.757440375E0,-6.738517698E-1,8.029560256E0,6.430509035E-1,8.083404516E0
2.767376375E0,-8.730065462E-1,7.979860677E0,5.933707666E-1,8.049373002E0
2.777313375E0,-9.749041461E-1,7.866099004E0,5.799746494E-1,7.947472694E0
2.787250000E0,-8.146970885E-1,7.564290290E0,6.498127699E-1,7.635736741E0
2.797186000E0,-3.218954343E-1,6.929618885E0,6.548064382E-1,6.967926954E0
2.807123000E0,2.342090535E-1,6.017357934E0,7.125744438E-1,6.063927170E0
2.817059000E0,9.030248357E-1,4.677004198E0,6.246463537E-1,4.804165400E0
2.826995000E0,1.666661991E0,3.065600442E0,5.833324130E-1,3.537788146E0
2.836932000E0,2.499140023E0,1.355774598E0,8.713978310E-1,2.973745079E0
2.846868000E0,3.228089887E0,-3.868897945E-1,1.090236747E0,3.429120032E0
2.856804000E0,3.760531789E0,-2.092775200E0,1.407507984E0,4.527956062E0
2.866741000E0,4.141586355E0,-3.481832149E0,2.051334229E0,5.786524412E0
2.876677000E0,4.294112729E0,-4.540925456E0,2.790881001E0,6.844590922E0
2.886613000E0,4.728875140E0,-5.354236901E0,3.478365920E0,7.945384972E0
2.896550000E0,4.930120808E0,-5.197115784E0,4.222514451E0,8.315391268E0
2.906486000E0,4.363834052E0,-3.826688064E0,4.025753013E0,7.063517289E0
2.916422000E0,3.548464095E0,-2.377367372E0,3.409129039E0,5.464945916E0
2.926359000E0,3.089780725E0,-1.728454489E0,3.266036270E0,4.816772027E0
2.936295000E0,3.144199299E0,-2.191985493E0,3.140468191E0,4.955131693E0
2.946231000E0,3.604119355E0,-3.379193049E0,2.877977909E0,5.717637522E0
2.956168000E0,3.105144869E0,-4.566492991E0,1.895260641E0,5.838389829E0
2.966104000E0,1.366201937E0,-6.100463825E0,-3.948178880E-1,6.264028079E0
2.976040000E0,-1.643163200E0,-7.521248935E0,-3.392543997E0,8.412997422E0
2.985977000E0,-5.289883615E0,-8.652927824E0,-5.524538226E0,1.154887662E1
2.995913000E0,-8.895528216E0,-9.253693564E0,-7.032276696E0,1.463605761E1
3.005849000E0,-1.311791841E1,-1.040488403E1,-9.255501523E0,1.913127553E1
3.015785000E0,-1.666194272E1,-1.252447631E1,-1.301515360E1,2.457391025E1
3.025722000E0,-1.245190067E1,-1.382020994E1,-1.232538914E1,2.231509020E1
3.035658000E0,-3.242178168E0,-9.820763555E0,-6.147466668E0,1.203122864E1
3.045594000E0,-2.781858163E-1,-7.167270194E0,-2.407559178E0,7.565942808E0
3.055531000E0,-8.883426234E-2,-4.174060037E0,-2.724570944E0,4.985374163E0
3.065467000E0,-5.784324463E-1,-1.669413983E0,-2.426414402E0,3.001501955E0
3.075403000E0,-1.123293396E0,-4.236529934E-1,-1.875735180E0,2.227027700E0
3.085340000E0,-1.223532945E0,5.574928361E-1,-1.225406685E0,1.819190115E0
3.095276000E0,-9.850394905E-1,1.469421666E0,-5.964464021E-1,1.866882733E0
3.105212000E0,-8.087409684E-1,2.320999628E0,-1.679691634E-1,2.463597952E0
3.115149000E0,-6.170800567E-1,2.874890580E0,1.697294676E-1,2.945265987E0
3.125085000E0,-4.417622954E-1,3.568819422E0,3.961450598E-1,3.617811065E0
3.135021000E0,-3.343312195E-1,4.420795580E0,4.850429106E-1,4.459874163E0
3.144958000E0,-1.187454017E-1,5.276435019E0,6.564669013E-1,5.318441103E0
3.154894000E0,4.237257913E-3,5.936814877E0,1.182246632E0,6.053387146E0
3.164830000E0,3.016129781E-1,6.648896400E0,1.634796127E0,6.853564920E0
3.174767000E0,4.745525672E-1,7.153881240E0,1.985836058E0,7.439540428E0
3.184703000E0,6.083738815E-1,7.475607324E0,2.206914750E0,7.818266839E0
3.194639000E0,7.661176168E-1,7.850161248E0,2.331281665E0,8.224770028E0
3.204576000E0,8.927148789E-1,8.107230576E0,2.362768629E0,8.491572472E0
3.214512000E0,1.043945145E0,8.186367962E0,2.510442691E0,8.626051494E0
3.224448000E0,1.100272397E0,8.119509729E0,2.444348689E0,8.550548409E0
3.234385000E0,1.174358081E0,8.014045839E0,2.221513639E0,8.398760055E0
3.244321000E0,1.343707845E0,7.804109747E0,1.963345620E0,8.158701228E0
3.254257000E0,1.567771979E0,7.341393260E0,1.760448114E0,7.710586329E0
3.264194000E0,2.151650522E0,6.556410990E0,1.755233567E0,7.120180469E0
3.274130000E0,3.159995845E0,5.403384503E0,1.865196012E0,6.531546064E0
3.284066000E0,4.197737167E0,4.169940673E0,1.825396354E0,6.192049288E0
3.294003000E0,5.373323382E0,2.610243260E0,1.691727835E0,6.208696893E0
3.303939000E0,6.732422122E0,6.239663225E-1,1.483449136E0,6.922099605E0
3.313875000E0,7.576671769E0,-7.638323057E-1,1.138600530E0,7.699727661E0
3.323812000E0,7.843670254E0,-2.082381189E0,3.320016888E-1,8.122173329E0
3.333748000E0,7.665092779E0,-3.271920615E0,-1.759052968E-1,8.336069488E0
3.343684000E0,6.602678838E0,-3.923441942E0,-2.875192881E-2,7.680468162E0
3.353621000E0,5.218574481E0,-4.055279113E0,2.949660096E-1,6.615573539E0
3.363557000E0,4.106450436E0,-3.465338908E0,4.140123966E-1,5.389147910E0
3.373493000E0,3.117431331E0,-2.810128573E0,4.967502058E-1,4.226341381E0
3.383430000E0,2.328669713E0,-2.418508381E0,7.344921470E-1,3.436766524E0
3.393366000E0,1.693956793E0,-2.222914925E0,1.025827328E0,2.977106328E0
3.403302000E0,1.611163143E0,-2.145538720E0,1.359659195E0,3.007965459E0
3.413239000E0,1.532028388E0,-2.384793336E0,1.529182695E0,3.220675387E0
3.423175000E0,9.536411119E-1,-3.279717878E0,6.336700693E-1,3.473833399E0
3.433111000E0,-3.314032263E-1,-4.229861185E0,-4.264486934E-1,4.264201242E0
3.443048000E0,-3.025468077E0,-5.433259681E0,-1.242979907E0,6.341826780E0
3.452984000E0,-6.566710276E0,-6.586330023E0,-2.416632887E0,9.609450637E0
3.462920000E0,-1.152604787E1,-8.307595360E0,-4.269053317E0,1.483545538E1
3.472857000E0,-1.713751899E1,-1.109194590E1,-7.694525324E0,2.181585526E1
3.482793000E0,-1.869494125E1,-1.164886278E1,-1.042997560E1,2.437173000E1
3.492729000E0,-1.019452460E1,-8.213144116E0,-6.018848974E0,1.440869914E1
3.502666000E0,-3.973965101E0,-5.441597226E0,-1.849652066E0,6.987459607E0
3.512602000E0,-1.846650398E0,-4.527212566E0,-5.386621705E-1,4.918935682E0
3.522538000E0,-5.144772094E-1,-3.823399006E0,-6.745942931E-1,3.916394287E0
3.532475000E0,3.054233162E-1,-3.392721167E0,-5.221645439E-1,3.446229263E0
3.542411000E0,1.091122747E0,-2.870650764E0,-2.519343030E-1,3.081339895E0
3.552347000E0,1.802232463E0,-1.744094621E0,1.728309770E-1,2.513916952E0
3.562284000E0,2.173122083E0,-1.523421872E-1,6.904848325E-1,2.285265199E0
3.572220000E0,2.098477989E0,1.551779698E0,1.013944616E0,2.799948890E0
3.582156000E0,1.935151369E0,3.180391810E0,1.227714143E0,3.920074604E0
3.592092000E0,1.783976432E0,4.538296548E0,1.380357169E0,5.067947650E0
3.602029000E0,1.584445022E0,5.561452283E0,1.574765103E0,5.993338190E0
3.611965000E0,1.282170432E0,6.212128687E0,1.721423796E0,6.572503612E0
3.621901000E0,9.813526748E-1,6.707321194E0,1.664205283E0,6.980027930E0
3.631838000E0,6.958993542E-1,7.152325881E0,1.525121073E0,7.346157887E0
3.641774000E0,3.863606215E-1,7.565199532E0,1.414344403E0,7.705964481E0
3.651710000E0,1.384697411E-2,7.838305433E0,1.312921085E0,7.947514428E0
3.661647000E0,-4.105513931E-1,7.963570919E0,1.157084602E0,8.057658407E0
3.671583000E0,-7.968373530E-1,7.929267059E0,9.507034707E-1,8.025712613E0
3.681519000E0,-1.143230940E0,7.850377010E0,8.025152917E-1,7.973670860E0
3.691456000E0,-1.285335237E0,7.599560110E0,7.583791924E-1,7.744710423E0
3.701392000E0,-1.252393778E0,7.126967091E0,6.856949396E-1,7.268584982E0
3.711328000E0,-9.535653904E-1,6.257718258E0,4.661451481E-1,6.347095087E0
3.721265000E0,-5.036741131E-1,5.082229106E0,3.480439635E-1,5.118972055E0
3.731201000E0,1.674834790E-1,3.753570971E0,2.778855617E-1,3.767567669E0
3.741137000E0,9.198836741E-1,2.324358854E0,4.588745740E-1,2.541534168E0
3.751074000E0,1.759700255E0,7.991576743E-1,6.646589966E-1,2.043763577E0
3.761010000E0,2.468237781E0,-7.765956080E-1,1.059149733E0,2.795907123E0
3.770946000E0,3.038795051E0,-2.403643590E0,1.598874489E0,4.191440981E0
3.780883000E0,3.110761997E0,-3.624696584E0,2.208588369E0,5.262426067E0
3.790818500E0,3.121881939E0,-4.451786408E0,2.934261746E0,6.178546840E0
3.800754500E0,3.318763829E0,-4.840000597E0,3.624947430E0,6.897828861E0
3.810691500E0,3.637498478E0,-4.442488750E0,4.297373722E0,7.171786554E0
3.820627500E0,3.859191859E0,-3.007206053E0,4.610306178E0,6.722467784E0
3.830563500E0,3.472635648E0,-1.353783621E0,4.062056913E0,5.512915273E0
3.840500500E0,3.793831975E0,-6.159187996E-1,3.846887856E0,5.437928208E0
3.850436500E0,4.299644195E0,-2.556624877E-1,4.122532326E0,5.962178821E0
3.860372500E0,4.094224493E0,-1.698288703E-1,3.569985942E0,5.434732345E0
3.870309500E0,4.001985835E0,-1.098980674E0,3.316175852E0,5.312313190E0
3.880245500E0,3.953509786E0,-2.697901794E0,3.081655434E0,5.692584117E0
3.890181500E0,2.674622274E0,-4.091281589E0,1.533088781E0,5.122748341E0
3.900118500E0,8.944778144E-4,-5.356042521E0,-9.163288593E-1,5.433861506E0
3.910054500E0,-3.953093757E0,-6.866494684E0,-3.886681666E0,8.825077556E0
3.919990500E0,-8.360267079E0,-8.773688614E0,-6.762080369E0,1.387794684E1
3.929927500E0,-1.335755719E1,-1.035446933E1,-9.559513468E0,1.941709729E1
3.939863500E0,-1.919465716E1,-1.298562984E1,-1.476942237E1,2.748085303E1
3.949799500E0,-1.715482791E1,-1.434659735E1,-1.490656297E1,2.687598549E1
3.959736500E0,-4.350651212E0,-1.017058609E1,-8.476817290E0,1.393647799E1
3.969672500E0,1.059313601E0,-7.094826701E0,-1.537656626E0,7.336422774E0
3.979608500E0,2.335333347E0,-4.880483794E0,-5.081019902E-1,5.434249860E0
3.989544500E0,1.374606433E0,-2.049110532E0,-1.051900501E0,2.682329488E0
3.999481500E0,3.816560979E-1,-4.184513104E-1,-9.221950784E-1,1.082223008E0
4.009417500E0,-1.329297053E-1,5.009379816E-1,-4.561700906E-1,6.904348771E-1
4.019353500E0,-1.821431065E-1,1.469122288E0,6.844399810E-2,1.481951750E0
4.029290500E0,-1.527876171E-1,2.321280879E0,4.161600789E-1,2.363234688E0
4.039226500E0,-4.458838150E-2,2.972035636E0,5.123178327E-1,3.016198519E0
4.049162500E0,-1.172330193E-2,3.723511605E0,6.751994799E-1,3.784252958E0
4.059099500E0,9.753886610E-5,4.532577386E0,9.897561470E-1,4.639383041E0
4.069035500E0,4.863586072E-2,5.251248137E0,1.406139882E0,5.436469609E0
4.078971500E0,2.496691648E-1,5.896324663E0,1.714597026E0,6.145634400E0
4.088908500E0,4.302841014E-1,6.428513088E0,2.064059816E0,6.765446612E0
4.098844500E0,5.744654759E-1,6.869884899E0,2.244753983E0,7.250120658E0
4.108780500E0,7.323362786E-1,7.120014752E0,2.305684747E0,7.519781156E0
4.118717500E0,7.289226010E-1,7.258227727E0,2.394730386E0,7.677755630E0
4.128653500E0,6.759295779E-1,7.436209955E0,2.400618533E0,7.843281751E0
4.138589500E0,6.691843761E-1,7.549503266E0,2.304771412E0,7.921791373E0
4.148526500E0,6.172238251E-1,7.593898836E0,2.195291216E0,7.928907132E0
4.158462500E0,5.273400606E-1,7.589601132E0,1.996451093E0,7.865491075E0
4.168398500E0,3.561455000E-1,7.290476875E0,1.678181444E0,7.489605173E0
4.178335500E0,4.404025619E-1,6.614427649E0,1.483861657E0,6.793118058E0
4.188271500E0,9.249828116E-1,5.647910968E0,1.474958687E0,5.910160288E0
4.198207500E0,1.702720308E0,4.419863534E0,1.389370944E0,4.936071487E0
4.208144500E0,2.834037838E0,2.870593461E0,1.267005970E0,4.228165254E0
4.218080500E0,3.829357026E0,1.128172898E0,9.357837152E-1,4.100297609E0
4.228016500E0,4.867997942E0,-7.183871609E-1,3.795927617E-1,4.935339375E0
4.237953500E0,5.848875677E0,-2.291627310E0,-1.024489193E-1,6.282626695E0
4.247889500E0,6.478885097E0,-3.683289194E0,-5.580304876E-1,7.473551325E0
4.257825500E0,6.612526134E0,-4.558098144E0,-6.828144550E-1,8.060272709E0
4.267762500E0,6.301779367E0,-4.674584035E0,-4.571049142E-1,7.859586757E0
4.277698500E0,5.326916370E0,-3.752469356E0,1.065937181E-1,6.516780379E0
4.287634500E0,4.120434929E0,-2.708458357E0,4.206951794E-1,4.948809464E0
4.297571500E0,3.168908463E0,-1.855739018E0,6.147081336E-1,3.723387468E0
4.307507500E0,2.787032656E0,-1.132384647E0,1.246298056E0,3.256240909E0
4.317443500E0,3.121657406E0,-7.125007689E-1,2.079739710E0,3.818077994E0
4.327379500E0,3.335534813E0,-1.208242330E0,2.385177498E0,4.274893416E0
4.337316500E0,3.191574318E0,-2.506125984E0,1.758826096E0,4.422700907E0
4.347252500E0,2.489814884E0,-3.223150744E0,1.272487442E0,4.266978224E0
4.357188500E0,2.607794227E-1,-4.029664215E0,4.495902188E-1,4.063044543E0
4.367125500E0,-3.967547782E0,-6.032255470E0,-8.753759842E-1,7.272951572E0
4.377061500E0,-9.743796655E0,-7.939518982E0,-3.204400477E0,1.297095669E1
4.386997500E0,-1.674393355E1,-1.168087512E1,-7.251595230E0,2.166535916E1
4.396934500E0,-2.277385948E1,-1.448230187E1,-1.137397582E1,2.928742169E1
4.406870500E0,-1.729514706E1,-1.217263531E1,-9.693047501E0,2.326478738E1
4.416806500E0,-7.054363968E0,-8.016826774E0,-3.905386909E0,1.137038299E1
4.426743500E0,-3.666579605E0,-6.595991378E0,-1.139689866E0,7.632155741E0
4.436679500E0,-1.883886344E0,-4.901425012E0,-1.060379695E0,5.356995427E0
4.446615500E0,-4.636084433E-1,-3.548347151E0,-6.392290172E-1,3.635149794E0
4.456552500E0,6.251784503E-1,-2.525389636E0,1.391638787E-1,2.605342107E0
4.466488500E0,1.561514727E0,-1.260041059E0,7.655160114E-1,2.147567573E0
4.476424500E0,2.028449396E0,4.556290770E-1,1.339927181E0,2.473380209E0
4.486361500E0,2.126596665E0,2.141012975E0,1.478438218E0,3.360376393E0
4.496297500E0,2.176385998E0,3.667516914E0,1.527285712E0,4.529893815E0
4.506233500E0,2.077248504E0,4.954910663E0,1.649263308E0,5.620157514E0
4.516170500E0,1.802327042E0,5.867035959E0,1.673893827E0,6.361793321E0
4.526106500E0,1.395929474E0,6.457895347E0,1.671001063E0,6.815077106E0
4.536042500E0,9.261439955E-1,6.892007840E0,1.508200692E0,7.115629564E0
4.545979500E0,4.916075796E-1,7.311330970E0,1.389535836E0,7.458421308E0
4.555915500E0,3.290780079E-2,7.738187653E0,1.292571166E0,7.845468201E0
4.565851500E0,-3.669320780E-1,8.082955275E0,1.175194452E0,8.176178027E0
4.575788500E0,-6.879442173E-1,8.262347851E0,1.105657171E0,8.364337215E0
4.585724500E0,-9.739598939E-1,8.309352449E0,1.123645399E0,8.441357413E0
4.595660500E0,-1.222968543E0,8.204687873E0,1.114335462E0,8.369844603E0
4.605597500E0,-1.421558697E0,8.000379142E0,1.072349822E0,8.196147246E0
4.615533500E0,-1.299057483E0,7.675726526E0,9.819172235E-1,7.846559085E0
4.625469500E0,-8.349501624E-1,6.934607729E0,1.005117952E0,7.056641427E0
4.635405500E0,-1.757547310E-1,5.786903962E0,1.014750363E0,5.877828297E0
4.645342500E0,6.510310373E-1,4.256169562E0,9.398393440E-1,4.407053295E0
4.655278500E0,1.555519870E0,2.401117008E0,1.054321541E0,3.049032447E0
4.665214500E0,2.411292479E0,5.316183221E-1,1.398888311E0,2.837928464E0
4.675151500E0,3.095987544E0,-1.326903386E0,1.501323343E0,3.687788396E0
4.685087500E0,3.339075302E0,-3.108783883E0,1.779574502E0,4.897024251E0
4.695023500E0,3.165691325E0,-4.364088113E0,2.411264266E0,5.906019132E0
4.704960500E0,2.966445990E0,-5.466135651E0,2.988936135E0,6.900157969E0
4.714896500E0,2.850372620E0,-6.281935086E0,3.747674347E0,7.850630262E0
4.724832500E0,2.695268793E0,-5.778992094E0,4.306738037E0,7.694752499E0
4.734769500E0,2.594102606E0,-3.652488400E0,4.192455962E0,6.135692857E0
4.744705500E0,2.462797531E0,-1.833664609E0,3.482458971E0,4.642759746E0
4.754641500E0,2.751776285E0,-9.014751774E-1,3.276575291E0,4.372742373E0
4.764578500E0,3.319234238E0,-3.979574043E-1,3.044833178E0,4.521802197E0
4.774514500E0,4.064796041E0,-4.061060840E-1,2.947140530E0,5.037174438E0
4.784451125E0,4.571601704E0,-1.097716506E0,2.890302671E0,5.518910508E0
4.794388125E0,4.801094978E0,-2.435993310E0,2.168576457E0,5.804076175E0
4.804324125E0,4.279857510E0,-3.346294860E0,8.334302518E-1,5.496314727E0
4.814260125E0,1.914169367E0,-4.205039755E0,-1.323781849E0,4.806121314E0
4.824197125E0,-1.946605480E0,-5.047016589E0,-3.932652183E0,6.687854853E0
4.834133125E0,-6.912271950E0,-6.326805450E0,-6.711227134E0,1.152599412E1
4.844069125E0,-1.221274487E1,-8.152896745E0,-9.639423856E0,1.756528835E1
4.854006125E0,-1.796113439E1,-1.075027204E1,-1.502134498E1,2.576453964E1
4.863942125E0,-1.662708279E1,-1.440586005E1,-1.511606988E1,2.669240068E1
4.873878125E0,-3.470389148E0,-1.140965787E1,-7.555039410E0,1.411745423E1
4.883814125E0,1.511620290E0,-7.866394873E0,-1.346709221E0,8.122732909E0
4.893751125E0,1.689203884E0,-4.824989040E0,-9.923078719E-1,5.207552583E0
4.903687125E0,4.407765645E-1,-1.785918585E0,-1.460011157E0,2.348493507E0
4.913623125E0,-7.517130741E-1,-3.535396153E-1,-1.063040470E0,1.349117432E0
4.923560125E0,-1.352154002E0,2.491100979E-1,-7.157930437E-1,1.550076116E0
4.933496125E0,-1.381504978E0,9.519290471E-1,-2.872517779E-1,1.702127639E0
4.943432125E0,-1.285583744E0,1.603814655E0,-7.711074114E-2,2.056913483E0
4.953369125E0,-1.178459537E0,2.245092244E0,-2.505093366E-2,2.535711658E0
4.963305125E0,-1.009178843E0,3.019297510E0,1.449198778E-1,3.186785397E0
4.973241125E0,-8.659296611E-1,3.779644876E0,4.122358663E-1,3.899421492E0
4.983178125E0,-7.213540381E-1,4.448841750E0,7.155761120E-1,4.563397171E0
4.993114125E0,-4.932451289E-1,5.220789991E0,1.091739189E0,5.356475833E0
5.003050125E0,-2.394784546E-1,5.966310571E0,1.552924291E0,6.169747614E0
5.012987125E0,9.243062887E-2,6.545737483E0,1.951940333E0,6.831200018E0
5.022923125E0,3.083681567E-1,7.121750205E0,2.280662173E0,7.484372843E0
5.032859125E0,4.193929679E-1,7.510809317E0,2.440740518E0,7.908562533E0
5.042796125E0,4.014400059E-1,7.616625209E0,2.533620177E0,8.036999742E0
5.052732125E0,4.262748118E-1,7.647937049E0,2.599291718E0,8.088817512E0
5.062668125E0,4.614124118E-1,7.698213748E0,2.584103283E0,8.133448598E0
5.072605125E0,4.795896511E-1,7.712662218E0,2.384950626E0,8.087221662E0
5.082541125E0,4.450186463E-1,7.580807505E0,1.962167991E0,7.843263813E0
5.092477125E0,5.850186769E-1,7.172953688E0,1.794567494E0,7.417141225E0
5.102414125E0,1.077119323E0,6.398135633E0,1.846713548E0,6.745863662E0
5.112350125E0,1.865530911E0,5.328324965E0,1.820032995E0,5.931591069E0
5.122286125E0,2.786373675E0,4.109086946E0,1.736953124E0,5.259798469E0
5.132222125E0,3.973302611E0,2.656554962E0,1.608933892E0,5.043122662E0
5.142159125E0,5.183229232E0,1.005390725E0,1.224128923E0,5.419886290E0
5.152095125E0,6.371065364E0,-5.258196384E-1,6.000462404E-1,6.420826711E0
5.162031125E0,7.399881788E0,-1.843978513E0,-3.858843657E-1,7.635929150E0
5.171968125E0,8.017189887E0,-3.358092202E0,-1.044213605E0,8.754570176E0
5.181904125E0,7.851478626E0,-4.493244336E0,-1.204794519E0,9.126143277E0
5.191840125E0,7.013842179E0,-4.365903674E0,-9.448659030E-1,8.315519742E0
5.201777125E0,5.969625943E0,-3.522606538E0,-3.499125874E-1,6.940290306E0
5.211713125E0,4.909747939E0,-2.977459513E0,1.731911655E-1,5.744639689E0
5.221649125E0,3.883592582E0,-2.322010612E0,4.464340380E-1,4.546793153E0
5.231586125E0,3.260054276E0,-1.921837113E0,7.929444230E-1,3.866545309E0
5.241522125E0,2.946681524E0,-2.159352767E0,1.421727097E0,3.920082182E0
5.251458125E0,2.529513970E0,-3.020635938E0,1.572502377E0,4.242103973E0
5.261395125E0,1.091002952E0,-4.487491845E0,1.103611376E0,4.748244789E0
5.271331125E0,-1.887167217E0,-6.414891415E0,3.805334325E-1,6.697539672E0
5.281267125E0,-6.201801335E0,-8.450079727E0,-1.967284012E-1,1.048355327E1
5.291204125E0,-1.136403088E1,-1.051250320E1,-2.856038572E0,1.574200996E1
5.301140125E0,-1.821568942E1,-1.256753053E1,-7.012010247E0,2.321470337E1
5.311076125E0,-2.318120225E1,-1.394494977E1,-1.045210380E1,2.900131438E1
5.321013125E0,-1.815255118E1,-1.026522679E1,-7.898199048E0,2.229958618E1
5.330949125E0,-8.970135180E0,-6.485780718E0,-3.133004805E0,1.150410343E1
5.340885125E0,-4.950677279E0,-5.054207495E0,-1.135371697E0,7.165423073E0
5.350821125E0,-2.600219378E0,-3.664238380E0,-3.937959409E-1,4.510305862E0
5.360758125E0,-9.691111634E-1,-3.200646565E0,2.603385061E-2,3.344247695E0
5.370694125E0,-6.363473631E-2,-2.689336208E0,3.071527764E-1,2.707567440E0
5.380630125E0,6.540156754E-1,-1.729935588E0,4.438501534E-1,1.901950736E0
5.390567125E0,1.269762932E0,-4.588918233E-1,6.083934331E-1,1.480885606E0
5.400503125E0,1.712661890E0,8.517101097E-1,9.285238123E-1,2.126211967E0
5.410439125E0,2.089585836E0,2.312056897E0,1.224170438E0,3.348218828E0
5.420376125E0,2.378839408E0,3.648002416E0,1.476312902E0,4.598510449E0
5.430312125E0,2.535392468E0,4.784056191E0,1.710010031E0,5.677987576E0
5.440248125E0,2.495802140E0,5.715176167E0,1.896498496E0,6.518356656E0
5.450185125E0,2.355210225E0,6.416052087E0,1.967487787E0,7.112225234E0
5.460121125E0,2.203769386E0,6.836263994E0,1.936188227E0,7.439081244E0
5.470057125E0,1.936567126E0,7.153846157E0,1.967722261E0,7.668098719E0
5.479994125E0,1.658996291E0,7.373792097E0,1.942280587E0,7.803687107E0
5.489930125E0,1.291567784E0,7.621272576E0,1.837230534E0,7.945272749E0
5.499866125E0,8.704237580E-1,7.836777556E0,1.655870369E0,8.056961379E0
5.509803125E0,5.197657236E-1,7.827737761E0,1.465493799E0,7.980683362E0
5.519739125E0,2.368081409E-1,7.691522779E0,1.319166934E0,7.807419686E0
5.529675125E0,2.317543924E-3,7.482641525E0,1.247889376E0,7.585984277E0
5.539612125E0,-8.969555721E-3,7.214682342E0,1.165548154E0,7.308229899E0
5.549548125E0,2.165852532E-1,6.701314934E0,1.121967248E0,6.798039536E0
5.559484125E0,5.068283205E-1,5.750099832E0,9.906010696E-1,5.856775009E0
5.569420125E0,8.404944192E-1,4.476410202E0,7.325961873E-1,4.613174215E0
5.579357125E0,1.282012411E0,3.108467549E0,5.737109658E-1,3.411051245E0
5.589293125E0,1.744106315E0,1.739781130E0,5.718999369E-1,2.528994812E0
5.599229125E0,2.159706670E0,2.701244062E-1,5.677354038E-1,2.249360705E0
5.609166125E0,2.429132187E0,-1.314853444E0,7.942661861E-1,2.874087949E0
5.619102125E0,2.563684806E0,-2.821780905E0,1.218360644E0,4.002415510E0
5.629038125E0,2.725169407E0,-4.144231051E0,1.755457807E0,5.261447654E0
5.638975125E0,3.208306125E0,-5.049734375E0,2.660628425E0,6.547670507E0
5.648911125E0,4.138307236E0,-5.480320412E0,3.628564517E0,7.766980047E0
5.658847125E0,4.980094036E0,-5.038337567E0,4.290698248E0,8.282286732E0
5.668784125E0,5.129481626E0,-3.872595724E0,4.189257242E0,7.671926461E0
5.678720125E0,4.749350043E0,-2.379001084E0,3.984100665E0,6.639957085E0
5.688656125E0,4.295279249E0,-1.471030819E0,3.827543220E0,5.938303006E0
5.698593125E0,4.200380985E0,-1.121917546E0,3.784760020E0,5.764226558E0
5.708529125E0,4.275678213E0,-2.078417947E0,3.749567968E0,6.054791927E0
5.718465125E0,3.795994860E0,-3.182947043E0,3.212621663E0,5.904376919E0
5.728402125E0,2.690810875E0,-4.829875558E0,1.506664629E0,5.730462405E0
5.738338125E0,-7.104906423E-1,-5.673597202E0,-1.576762512E0,5.931330557E0
5.748274125E0,-5.018402070E0,-6.895462375E0,-4.885422353E0,9.828484739E0
5.758210125E0,-9.448931510E0,-8.720865453E0,-8.154569634E0,1.522605684E1
5.768147125E0,-1.395175242E1,-9.940575342E0,-1.256102843E1,2.124254855E1
5.778083125E0,-1.658704105E1,-1.144746363E1,-1.492836490E1,2.508047912E1
5.788018750E0,-8.184288692E0,-1.046149794E1,-1.028396010E1,1.679837361E1
5.797955750E0,-9.552786246E-1,-8.038754418E0,-3.721946890E0,8.909939309E0
5.807891750E0,4.283152708E-1,-6.327257439E0,-1.700053393E0,6.565654744E0
5.817827750E0,1.385448048E-1,-3.510518004E0,-2.665641536E0,4.410053981E0
5.827764750E0,-1.147554956E0,-1.680758750E0,-1.967498020E0,2.830703236E0
5.837700750E0,-1.699679463E0,-8.674443823E-1,-1.553182153E0,2.460435903E0
5.847636750E0,-1.746587874E0,2.382424629E-1,-8.879689863E-1,1.973782560E0
5.857573750E0,-1.385139022E0,1.246128779E0,-4.396859126E-1,1.914359095E0
5.867509750E0,-1.010947626E0,2.195718355E0,-2.418320686E-2,2.417390954E0
5.877445750E0,-7.172954857E-1,3.168746495E0,3.886366501E-1,3.272079707E0
5.887382750E0,-4.976777934E-1,3.966932947E0,6.983603011E-1,4.058564685E0
5.897318750E0,-3.223569258E-1,4.616290804E0,1.166932775E0,4.772398440E0
5.907254750E0,-2.038631737E-3,5.351209797E0,1.709797193E0,5.617727022E0
5.917191750E0,3.154721218E-1,5.901981259E0,2.220009736E0,6.313584455E0
5.927127750E0,6.505885492E-1,6.397238671E0,2.620315674E0,6.943628900E0
5.937063750E0,8.151004001E-1,6.794878571E0,2.905751599E0,7.434928097E0
5.946999750E0,8.730848989E-1,7.024370091E0,3.055223973E0,7.709633321E0
5.956936750E0,7.332646702E-1,7.183292150E0,2.953760163E0,7.801414121E0
5.966872750E0,6.683989488E-1,7.305348684E0,2.820107139E0,7.859254470E0
5.976808750E0,5.495073668E-1,7.487077807E0,2.530223822E0,7.922141442E0
5.986745750E0,5.471847796E-1,7.506322748E0,2.156316308E0,7.829047988E0
5.996681750E0,7.209076032E-1,7.231681952E0,2.188023419E0,7.589754813E0
6.006617750E0,9.889911850E-1,6.651908886E0,2.132344770E0,7.054990405E0
6.016554750E0,1.540891744E0,5.768618549E0,1.970885604E0,6.287741836E0
6.026490750E0,2.248696468E0,4.654832141E0,1.743361380E0,5.455584933E0
6.036426750E0,3.100829331E0,3.180039808E0,1.323467269E0,4.634583189E0
6.046363750E0,4.069056323E0,1.433779963E0,9.136078575E-1,4.409945992E0
6.056299750E0,5.034212941E0,-1.866980875E-1,5.475996396E-1,5.067348565E0
6.066235750E0,5.934138021E0,-1.614289357E0,-5.227732390E-2,6.150012773E0
6.076172750E0,6.765658280E0,-2.992829504E0,-5.904679164E-1,7.421577512E0
6.086108750E0,6.904493399E0,-4.014680141E0,-3.609652868E-1,7.994997290E0
6.096044750E0,5.801369973E0,-3.432917851E0,5.697956702E-1,6.765019264E0
6.105981750E0,4.658264164E0,-2.478864511E0,1.385262983E0,5.455561183E0
6.115917750E0,3.868977467E0,-1.995838305E0,1.707469124E0,4.676302812E0
6.125853750E0,2.995793750E0,-1.573563500E0,2.229966667E0,4.052608248E0
6.135789750E0,2.491822525E0,-1.281015022E0,2.779045652E0,3.946298737E0
6.145726750E0,2.259320566E0,-1.068942942E0,3.205471395E0,4.064752797E0
6.155662750E0,1.931388832E0,-1.386955460E0,3.293302421E0,4.061988319E0
6.165598750E0,8.689729176E-1,-2.690080558E0,2.517135414E0,3.785184016E0
6.175535750E0,-1.569816312E0,-4.134759146E0,1.213372238E0,4.586156194E0
6.185471750E0,-5.475107034E0,-5.533283907E0,-2.234430139E-1,7.787422848E0
6.195407750E0,-1.132060945E1,-8.191294241E0,-3.136411393E0,1.432098377E1
6.205344750E0,-1.855176633E1,-1.071768667E1,-7.549073496E0,2.271619141E1
6.215280750E0,-2.465842644E1,-1.405444706E1,-1.048007220E1,3.025553487E1
6.225216750E0,-1.783594200E1,-1.185767387E1,-6.392486054E0,2.235149066E1
6.235153750E0,-8.539122881E0,-7.943917258E0,-3.184949422E0,1.208992737E1
6.245089750E0,-5.216291728E0,-5.585546905E0,-1.956770718E0,7.889042100E0
6.255025750E0,-2.644041044E0,-4.262478708E0,-1.247754890E0,5.168807410E0
6.264962750E0,-9.705749407E-1,-3.462779582E0,-6.816847730E-1,3.660266695E0
6.274898750E0,1.999660410E-1,-2.880005724E0,-3.582165107E-1,2.909078627E0
6.284834750E0,9.503096607E-1,-2.203228519E0,-1.400528017E-1,2.403522237E0
6.294770750E0,1.679400735E0,-1.059856369E0,9.318941474E-2,1.988055989E0
6.304707750E0,2.171809967E0,3.439770788E-1,4.494136329E-1,2.244337626E0
6.314643750E0,2.421782822E0,1.753234988E0,8.598798394E-1,3.110989923E0
6.324579750E0,2.571866230E0,3.091906480E0,1.002882854E0,4.144895126E0
6.334516750E0,2.390074249E0,4.272617195E0,1.132623214E0,5.024992334E0
6.344452750E0,2.160247099E0,5.320935254E0,1.331513623E0,5.895078288E0
6.354388750E0,1.838303790E0,6.185978769E0,1.558621818E0,6.638900220E0
6.364325750E0,1.503394866E0,6.831441795E0,1.692651110E0,7.196795183E0
6.374261750E0,1.057106277E0,7.083034621E0,1.609117933E0,7.340034989E0
6.384197750E0,5.646477816E-1,7.243023797E0,1.418290104E0,7.402146152E0
6.394134750E0,1.510113609E-1,7.446039124E0,1.113470074E0,7.530346518E0
6.404070750E0,-2.583101801E-1,7.471598473E0,9.257039925E-1,7.533155765E0
6.414006750E0,-5.166488653E-1,7.339342057E0,8.590542126E-1,7.407485539E0
6.423943750E0,-6.778495842E-1,7.179200268E0,7.539645445E-1,7.250438544E0
6.433879750E0,-7.270980504E-1,6.977362570E0,5.812506580E-1,7.039184068E0
6.443815750E0,-4.340779211E-1,6.529316747E0,5.377324632E-1,6.565786855E0
6.453752750E0,9.318539478E-2,5.783061172E0,6.080813380E-1,5.815689379E0
6.463688750E0,6.991717485E-1,4.869619668E0,5.906295919E-1,4.954884474E0
6.473624750E0,1.251701468E0,3.781370389E0,4.506671298E-1,4.008568254E0
6.483560750E0,1.760740474E0,2.471472461E0,3.747059512E-1,3.057578730E0
6.493497750E0,2.221492882E0,1.217409010E0,4.002180840E-1,2.564622747E0
6.503433750E0,2.696882624E0,-7.721189797E-2,4.953582761E-1,2.743085377E0
6.513369750E0,3.046061386E0,-1.504782118E0,8.102834639E-1,3.492766594E0
6.523306750E0,3.240845295E0,-2.920115869E0,1.337475444E0,4.562783742E0
6.533242750E0,3.237916718E0,-3.833621693E0,1.949373698E0,5.383383487E0
6.543178750E0,3.451854351E0,-4.175418345E0,2.439528537E0,5.941440591E0
6.553115750E0,4.273261851E0,-4.247004052E0,3.197422410E0,6.820653952E0
6.563051750E0,5.296790346E0,-3.843480683E0,4.178631682E0,7.764618114E0
6.572987750E0,6.032365397E0,-2.930988182E0,4.510946782E0,8.082621164E0
6.582924750E0,5.859228172E0,-1.776754244E0,4.222806519E0,7.437708338E0
6.592860750E0,4.986928262E0,-1.179251250E0,3.867232658E0,6.419935781E0
6.602796750E0,4.467475657E0,-1.398065169E0,3.535734999E0,5.866374259E0
6.612732750E0,4.002815555E0,-2.614939159E0,2.989021212E0,5.638677769E0
6.622669750E0,2.991317122E0,-3.913022788E0,1.425837397E0,5.127644464E0
6.632605750E0,8.908899629E-1,-5.066955010E0,-9.637921706E-1,5.234177428E0
6.642541750E0,-2.162077569E0,-6.522522867E0,-3.402414681E0,7.667744755E0
6.652478750E0,-5.595149202E0,-8.002444963E0,-5.715844504E0,1.131440225E1
6.662414750E0,-8.985610421E0,-9.276707035E0,-7.981734710E0,1.518244305E1
6.672350750E0,-1.248300903E1,-9.908406301E0,-1.118901786E1,1.947295947E1
6.682287750E0,-1.445205422E1,-1.063818325E1,-1.267180977E1,2.196833123E1
6.692223750E0,-7.516304530E0,-9.651693068E0,-9.188521668E0,1.529963867E1
6.702159750E0,-1.888998565E0,-7.395426210E0,-3.094116143E0,8.236151960E0
6.712096750E0,-1.254883815E0,-5.804776561E0,-1.647228331E0,6.163077599E0
6.722032750E0,-1.539502884E0,-3.047936003E0,-2.416315091E0,4.183128211E0
6.731968750E0,-2.385765435E0,-1.598299561E0,-1.626677707E0,3.300381578E0
6.741905750E0,-2.735920975E0,-6.281184304E-1,-1.109823458E0,3.018526867E0
6.751841750E0,-2.819233273E0,4.466015607E-1,-6.659779823E-1,2.931050302E0
6.761777750E0,-2.596301159E0,1.183060126E0,-3.869128910E-1,2.879255556E0
6.771713750E0,-2.257091900E0,1.828366447E0,4.852721214E-2,2.905123509E0
6.781650750E0,-1.749650645E0,2.516598347E0,3.740441926E-1,3.087791068E0
6.791586500E0,-1.272751737E0,3.267604201E0,6.814381666E-1,3.572323078E0
6.801522500E0,-8.793092600E-1,3.968992336E0,8.310157903E-1,4.149297794E0
6.811459500E0,-5.134209099E-1,4.710973012E0,9.300019884E-1,4.829261999E0
6.821395500E0,-8.371955663E-2,5.497510056E0,1.344058532E0,5.660045859E0
6.831331500E0,2.709351958E-1,6.123917592E0,1.883311125E0,6.412693143E0
6.841268500E0,6.080884277E-1,6.773616925E0,2.216297923E0,7.152875944E0
6.851204500E0,8.549314139E-1,7.223037429E0,2.374196573E0,7.651142842E0
6.861140500E0,8.376405394E-1,7.429753459E0,2.406867160E0,7.854672982E0
6.871077500E0,8.912120714E-1,7.563819589E0,2.310466162E0,7.958886833E0
6.881013500E0,9.070360988E-1,7.620082083E0,2.157291331E0,7.971340622E0
6.890949500E0,9.513741463E-1,7.565414709E0,1.861221367E0,7.848869821E0
6.900886500E0,9.497424077E-1,7.381860670E0,1.562724809E0,7.604997463E0
6.910822500E0,1.071178552E0,6.940799346E0,1.415537527E0,7.164207251E0
6.920758500E0,1.573969589E0,6.251675161E0,1.426531754E0,6.602712732E0
6.930694500E0,2.242803059E0,5.295351931E0,1.389184418E0,5.916143252E0
6.940631500E0,3.330385171E0,4.011449554E0,1.218773458E0,5.354306832E0
6.950567500E0,4.669923804E0,2.604160987E0,8.547766820E-1,5.414839421E0
6.960503500E0,5.744309919E0,1.166565131E0,1.551479736E-1,5.863620174E0
6.970440500E0,6.862872334E0,-5.480530912E-1,-6.251588622E-1,6.913045816E0
6.980376500E0,7.247313899E0,-2.247939838E0,-1.299371478E0,7.698386747E0
6.990312500E0,7.041974888E0,-3.348483472E0,-1.718944285E0,7.984768083E0
7.000249500E0,6.491372411E0,-3.408351944E0,-1.572132394E0,7.498425102E0
7.010185500E0,5.787326131E0,-2.942691969E0,-2.496948195E-1,6.497301538E0
7.020121500E0,5.285592928E0,-2.339411341E0,6.001628923E-1,5.811241995E0
7.030058500E0,4.705633920E0,-1.978110716E0,9.411293860E-1,5.190533413E0
7.039994500E0,4.105190946E0,-1.755012542E0,1.228535384E0,4.630546503E0
7.049930500E0,3.678633056E0,-1.655249687E0,1.768816649E0,4.404645845E0
7.059867500E0,3.576934773E0,-1.784485433E0,2.339354038E0,4.631568627E0
7.069803500E0,3.401178872E0,-2.065036009E0,2.734761472E0,4.828178927E0
7.079739500E0,2.702251245E0,-2.948418732E0,2.168521786E0,4.549485855E0
7.089675500E0,1.090573181E0,-4.231513023E0,1.091283107E0,4.503992801E0
7.099612500E0,-1.565814185E0,-5.127831541E0,3.097854853E-3,5.361570663E0
7.109548500E0,-5.466635004E0,-6.121600340E0,-1.069501351E0,8.276588798E0
7.119484500E0,-1.064520459E1,-8.017254206E0,-2.959864072E0,1.365128350E1
7.129421500E0,-1.699986851E1,-1.025864867E1,-6.294772063E0,2.082929565E1
7.139357500E0,-2.197153730E1,-1.213144519E1,-8.875188092E0,2.662122043E1
7.149293500E0,-1.764343295E1,-9.260507324E0,-5.415732068E0,2.064891949E1
7.159230500E0,-8.994532102E0,-5.100699291E0,-2.956810656E0,1.075460228E1
7.169166500E0,-5.089814699E0,-3.861463210E0,-1.303862286E0,6.520519048E0
7.179102500E0,-2.684869812E0,-2.978693275E0,-5.242075610E-1,4.044246914E0
7.189039500E0,-1.183829912E0,-2.454469927E0,-4.404730940E-1,2.760415264E0
7.198975500E0,-3.153976429E-1,-2.253838509E0,-4.707932460E-1,2.323985796E0
7.208911500E0,1.618176367E-1,-1.772816729E0,-4.204871647E-1,1.829172916E0
7.218847500E0,5.690902402E-1,-9.568997651E-1,-1.843169551E-1,1.128491738E0
7.228784500E0,9.310094637E-1,1.345836085E-1,1.994648981E-1,9.616015883E-1
7.238720500E0,1.305764531E0,1.430663981E0,5.654340859E-1,2.017804784E0
7.248656500E0,1.693609176E0,2.856275969E0,8.421301778E-1,3.425756513E0
7.258593500E0,1.848766213E0,4.105360515E0,1.180772842E0,4.654690749E0
7.268529500E0,1.948056028E0,5.174513372E0,1.570980785E0,5.747911930E0
7.278465500E0,2.007029876E0,6.102944798E0,1.899301944E0,6.699362060E0
7.288402500E0,1.941563718E0,6.773423383E0,2.082470944E0,7.347490675E0
7.298338500E0,1.814133155E0,7.180730485E0,1.993452787E0,7.669929818E0
7.308274500E0,1.449970903E0,7.481911207E0,1.819180764E0,7.835230028E0
7.318211500E0,1.058420439E0,7.768347006E0,1.615609074E0,8.004852386E0
7.328147500E0,7.916836902E-1,7.905152557E0,1.451357570E0,8.076177240E0
7.338083500E0,4.977961995E-1,7.866871421E0,1.369545521E0,8.000695091E0
7.348020500E0,3.081559394E-1,7.690706508E0,1.218817166E0,7.792781400E0
7.357956500E0,2.266953814E-1,7.429012617E0,1.128823693E0,7.517703252E0
7.367892500E0,2.474010298E-1,6.998127202E0,1.015348094E0,7.075727762E0
7.377828500E0,5.619127464E-1,6.244605877E0,9.199716747E-1,6.336970599E0
7.387765500E0,9.320687599E-1,5.091972322E0,7.756730635E-1,5.234367488E0
7.397701500E0,1.300098580E0,3.650900297E0,5.203004515E-1,3.910248311E0
7.407637500E0,1.726959648E0,2.072203526E0,5.304268058E-1,2.749139806E0
7.417574500E0,2.122325566E0,5.149888408E-1,5.137220415E-1,2.243521707E0
7.427510500E0,2.471513391E0,-9.347879344E-1,6.954862484E-1,2.732381387E0
7.437446500E0,2.464090643E0,-2.509867033E0,1.099457514E0,3.685102718E0
7.447383500E0,2.217620125E0,-3.895716784E0,1.623007848E0,4.767452438E0
7.457319500E0,1.964212323E0,-4.912378017E0,2.146839141E0,5.709510148E0
7.467255500E0,2.188551715E0,-5.296555288E0,2.503400305E0,6.253820401E0
7.477192500E0,3.138362901E0,-4.867670206E0,3.013797619E0,6.528898148E0
7.487128500E0,4.176761743E0,-3.949664365E0,3.330032583E0,6.643365432E0
7.497064500E0,4.828130749E0,-2.925097112E0,3.461360755E0,6.621786611E0
7.507001500E0,5.130185046E0,-2.169969556E0,3.325383462E0,6.487352438E0
7.516937500E0,4.963028353E0,-2.025507662E0,3.096739204E0,6.190648223E0
7.526873500E0,4.672955586E0,-3.145020248E0,2.687364526E0,6.240961013E0
7.536809500E0,3.789741848E0,-4.401802654E0,1.326306385E0,5.957944151E0
7.546746500E0,2.073051665E0,-5.339531738E0,-8.985790515E-1,5.797895023E0
7.556682500E0,-4.802815594E-1,-6.292589298E0,-3.214142231E0,7.082235574E0
7.566618500E0,-3.173917480E0,-7.111562017E0,-5.327658967E0,9.435677853E0
7.576555500E0,-6.276795384E0,-7.507886294E0,-7.171915222E0,1.213271960E1
7.586491500E0,-9.381813660E0,-7.555131796E0,-9.536094199E0,1.536344807E1
7.596427500E0,-1.220259060E1,-8.071377788E0,-1.076882876E1,1.816639837E1
7.606364500E0,-8.504048942E0,-8.755089791E0,-8.032480356E0,1.461133760E1
7.616300500E0,-3.114551285E0,-7.143909983E0,-3.120504335E0,8.394845255E0
7.626236500E0,-1.624920618E0,-5.677040042E0,-2.269013057E0,6.325944270E0
7.636172500E0,-1.588428145E0,-3.688782068E0,-2.624419835E0,4.797686587E0
7.646109500E0,-2.400742786E0,-2.454283985E0,-1.999042871E0,3.972813639E0
7.656045500E0,-2.747470687E0,-1.539689995E0,-1.518898466E0,3.496611647E0
7.665981500E0,-2.756409034E0,-4.523037654E-1,-1.220329256E0,3.048208154E0
7.675918500E0,-2.556990036E0,4.139419377E-1,-8.918127997E-1,2.739502882E0
7.685854500E0,-2.063032168E0,1.180952205E0,-5.170821440E-1,2.432719421E0
7.695790500E0,-1.492833040E0,1.910226297E0,-1.851719642E-1,2.431420088E0
7.705727500E0,-9.655524749E-1,2.784331242E0,1.046439640E-1,2.948854423E0
7.715663500E0,-6.432849383E-1,3.702054663E0,3.494087036E-1,3.773739615E0
7.725599500E0,-3.981453557E-1,4.431027623E0,2.814605494E-1,4.457773610E0
7.735536500E0,-2.245444831E-1,5.280833879E0,2.964210892E-1,5.293910855E0
7.745472500E0,5.320874881E-2,6.051970527E0,7.004131123E-1,6.092598539E0
7.755408500E0,2.989125512E-1,6.625273064E0,1.125710343E0,6.726872651E0
7.765345500E0,4.262550044E-1,7.006865281E0,1.443106856E0,7.166617877E0
7.775281500E0,4.246681066E-1,7.357384225E0,1.550433815E0,7.530955494E0
7.785217500E0,3.940334109E-1,7.466716048E0,1.510684589E0,7.628189746E0
7.795153875E0,2.664189891E-1,7.425932304E0,1.264706845E0,7.537568113E0
7.805090875E0,2.052001030E-1,7.197703198E0,1.039658040E0,7.275295681E0
7.815026875E0,3.136771362E-1,6.855811236E0,1.113860814E0,6.952785554E0
7.824962875E0,6.241993341E-1,6.384503435E0,1.140921582E0,6.515612863E0
7.834899875E0,1.182788889E0,5.430430799E0,1.274143666E0,5.701930401E0
7.844835875E0,2.021729483E0,4.124906588E0,1.552761738E0,4.849052843E0
7.854771875E0,2.902974464E0,2.558874886E0,1.654925752E0,4.208786127E0
7.864708875E0,3.852375760E0,1.115494380E0,1.676758963E0,4.347027412E0
7.874644875E0,4.741291118E0,-3.635757762E-1,1.506497691E0,4.988142350E0
7.884580875E0,5.359882972E0,-1.871239402E0,1.168809000E0,5.796205384E0
7.894517875E0,5.441069223E0,-3.016300228E0,4.263906598E-1,6.235792680E0
7.904453875E0,4.886994376E0,-3.870381968E0,-1.337585664E-1,6.235419951E0
7.914389875E0,3.845903184E0,-3.685538033E0,3.913249075E-2,5.326884009E0
7.924325875E0,2.825327533E0,-2.208379916E0,1.777857614E-1,3.590407400E0
7.934262875E0,2.471368965E0,-1.051263885E0,4.721000987E-1,2.726847781E0
7.944198875E0,2.130433023E0,-6.403508055E-1,1.178001115E0,2.517236709E0
7.954134875E0,2.120136076E0,-3.189135736E-1,1.550908463E0,2.646129231E0
7.964071875E0,2.301310591E0,-2.767878932E-1,2.154431312E0,3.164524649E0
7.974007875E0,2.535807913E0,-2.649718398E-1,2.571411316E0,3.621144571E0
7.983943875E0,2.840137069E0,-4.820421195E-1,2.653401267E0,3.916539475E0
7.993880875E0,2.784284465E0,-9.146676654E-1,1.990460182E0,3.542709225E0
8.003816875E0,2.056058194E0,-1.975939645E0,9.393753675E-1,3.002355552E0
8.013752875E0,1.956041643E-2,-2.979325359E0,-1.909734254E-1,2.985503820E0
8.023689875E0,-3.232049037E0,-4.318014393E0,-1.541837093E0,5.609692584E0
8.033625875E0,-7.787854487E0,-6.378079099E0,-3.617179989E0,1.069647426E1
8.043561875E0,-1.368540823E1,-9.123232242E0,-6.288473443E0,1.760876666E1
8.053498875E0,-1.803209153E1,-1.082189809E1,-9.346729782E0,2.301371679E1
8.063434875E0,-1.180211246E1,-1.073906176E1,-6.635399272E0,1.728137232E1
8.073370875E0,-4.503153613E0,-6.977825085E0,-2.164716272E0,8.582216026E0
8.083306875E0,-2.088581285E0,-3.822344168E0,-4.017316358E-1,4.374228506E0
8.093243875E0,-6.235485390E-1,-2.214330043E0,-5.866138704E-1,2.374065322E0
8.103179875E0,-1.644163951E-1,-1.099052594E0,-1.091842539E0,1.557905480E0
8.113115875E0,7.135094593E-2,-8.812251002E-1,-1.721856344E0,1.935571726E0
8.123052875E0,4.672992423E-1,-9.379746670E-1,-1.548793087E0,1.870006707E0
8.132988875E0,9.472059587E-1,-8.475913310E-1,-1.023730663E0,1.632064540E0
8.142924875E0,1.322262743E0,-9.031316936E-2,-6.780888815E-1,1.488737640E0
8.152861875E0,1.663726981E0,1.075847334E0,-2.519753797E-1,1.997229718E0
8.162797875E0,1.959246137E0,2.255411410E0,2.641384654E-1,2.999215761E0
8.172733875E0,2.047864491E0,3.431705723E0,7.814337404E-1,4.071976404E0
8.182669875E0,1.796223426E0,4.529049177E0,1.170365967E0,5.010834415E0
8.192606875E0,1.245882319E0,5.459447606E0,1.362579002E0,5.763194640E0
8.202542875E0,7.980227298E-1,6.187521849E0,1.637060169E0,6.449979295E0
8.212478875E0,3.778222248E-1,6.636731268E0,1.789042899E0,6.884012351E0
8.222415875E0,-3.494529963E-2,6.951253583E0,1.775470780E0,7.174499567E0
8.232351875E0,-3.153371242E-1,7.105983188E0,1.646722108E0,7.301104593E0
8.242287875E0,-6.663679916E-1,7.105122478E0,1.390156956E0,7.270443459E0
8.252224875E0,-9.890021485E-1,7.037657889E0,1.231886862E0,7.212787190E0
8.262160875E0,-1.148259545E0,6.841908896E0,1.064470553E0,7.018783006E0
8.272096875E0,-1.084214992E0,6.534366987E0,8.793360110E-1,6.681819056E0
8.282033875E0,-7.107889234E-1,6.037803892E0,8.864206436E-1,6.143780456E0
8.291969875E0,-5.749859512E-2,5.272003999E0,9.414075673E-1,5.355705412E0
8.301905875E0,5.799662806E-1,4.188780402E0,9.473715810E-1,4.333561475E0
8.311842875E0,1.236821181E0,3.046868886E0,9.384594011E-1,3.419626104E0
8.321778875E0,1.792035942E0,1.955383759E0,1.061483795E0,2.856863019E0
8.331714875E0,2.119035338E0,9.614073837E-1,1.144038148E0,2.592959353E0
8.341650875E0,2.223639687E0,1.041038275E-2,1.108305667E0,2.484556959E0
8.351587875E0,2.104416422E0,-9.925765514E-1,1.080644975E0,2.565457123E0
8.361523875E0,2.074288351E0,-1.740035484E0,1.328490905E0,3.015838810E0
8.371459875E0,2.025375807E0,-2.267141510E0,1.630117331E0,3.449544941E0
8.381396875E0,2.401594141E0,-2.449596273E0,1.939633406E0,3.940857022E0
8.391332875E0,3.131664331E0,-2.478913627E0,2.458013924E0,4.689793887E0
8.401268875E0,4.103305219E0,-2.464358738E0,3.042233506E0,5.671451526E0
8.411205875E0,5.192700552E0,-2.466208212E0,3.645721418E0,6.807173174E0
8.421141875E0,5.887557932E0,-2.702322873E0,4.007258270E0,7.617349024E0
8.431077875E0,6.087079548E0,-3.552539020E0,3.845362609E0,8.028691332E0
8.441013875E0,5.224487185E0,-4.906495718E0,2.739093089E0,7.672782907E0
8.450950875E0,3.231374268E0,-6.619467949E0,2.770095026E-1,7.371286852E0
8.460886875E0,1.259318051E0,-8.471720856E0,-2.641316826E0,8.962839438E0
8.470822875E0,-4.858346967E-1,-8.946155164E0,-4.533092234E0,1.004084921E1
8.480759875E0,-2.732390426E0,-8.266989956E0,-5.579063512E0,1.034093951E1
8.490695875E0,-5.395676703E0,-7.358330889E0,-6.039792531E0,1.094246107E1
8.500631875E0,-6.990246325E0,-7.664835502E0,-6.010479269E0,1.198912457E1
8.510568875E0,-8.752460298E0,-8.343078019E0,-5.875912617E0,1.344391540E1
8.520504875E0,-9.124492317E0,-8.713302079E0,-5.433412879E0,1.373681072E1
8.530440875E0,-6.271767363E0,-7.438578077E0,-3.903914580E0,1.048370444E1
8.540377875E0,-4.665939512E0,-5.488421144E0,-3.302326137E0,7.924589333E0
8.550313875E0,-4.455535058E0,-4.221655203E0,-2.714637694E0,6.711439720E0
8.560249875E0,-4.142113481E0,-2.729349874E0,-1.927018769E0,5.321640364E0
8.570185875E0,-3.870071189E0,-1.417612996E0,-1.148719283E0,4.278625200E0
8.580122875E0,-3.526225672E0,-2.435347778E-1,-8.111725330E-1,3.626510383E0
8.590058875E0,-3.102675590E0,7.302119851E-1,-4.903217769E-1,3.224937333E0
8.599994875E0,-2.551410038E0,1.617334002E0,-6.381066442E-2,3.021511916E0
8.609931875E0,-1.887553718E0,2.457183620E0,3.475633223E-1,3.117917677E0
8.619867875E0,-1.259825005E0,3.242022632E0,6.636108832E-1,3.540939027E0
8.629803875E0,-8.197755414E-1,3.999412476E0,9.340399294E-1,4.188049985E0
8.639740875E0,-5.335408866E-1,4.650865974E0,1.082519300E0,4.804900439E0
8.649676875E0,-2.292061941E-1,5.261255647E0,1.053583768E0,5.370603804E0
8.659612875E0,1.786573071E-1,5.838799170E0,1.246827668E0,5.973112540E0
8.669548875E0,5.714314288E-1,6.455851160E0,1.744953138E0,6.711885692E0
8.679485875E0,8.341193461E-1,6.923296875E0,2.181439601E0,7.306604782E0
8.689421875E0,8.613720489E-1,7.236422875E0,2.315932431E0,7.646654226E0
8.699357875E0,8.706340384E-1,7.357672493E0,2.141105361E0,7.712177404E0
8.709294875E0,8.260124740E-1,7.352492445E0,1.921849684E0,7.644275503E0
8.719230875E0,8.889610396E-1,7.232480682E0,1.890736650E0,7.528207863E0
8.729166875E0,1.092067364E0,6.808855171E0,1.981376971E0,7.174884986E0
8.739103875E0,1.324029771E0,6.318391306E0,1.929502813E0,6.737811562E0
8.749039875E0,1.678332594E0,5.663414860E0,1.854248416E0,6.191066578E0
8.758975875E0,2.202425404E0,4.778824103E0,1.868369296E0,5.583783779E0
8.768912875E0,2.956640502E0,3.770471179E0,1.829459438E0,5.128849559E0
8.778848875E0,3.847984501E0,2.633440334E0,1.739847350E0,4.976852571E0
8.788784792E0,4.782894350E0,1.440734641E0,1.470123624E0,5.207020082E0
8.798720792E0,5.452197644E0,1.844504178E-1,9.868413100E-1,5.543855777E0
8.808657792E0,5.808540999E0,-8.770145202E-1,3.413931942E-1,5.884288599E0
8.818593792E0,5.703343157E0,-1.711422134E0,-4.105303797E-1,5.968720473E0
8.828529792E0,5.363438664E0,-2.171675774E0,-9.562700200E-1,5.864904289E0
8.838466792E0,5.106653511E0,-1.869829638E0,-1.113489370E0,5.551038780E0
8.848402792E0,4.984487050E0,-1.295890338E0,-6.623012531E-1,5.192599144E0
8.858338792E0,4.796031289E0,-7.591352373E-1,-8.283779651E-2,4.856445669E0
8.868275792E0,4.433276462E0,-4.841009241E-1,2.299104729E-1,4.465551782E0
8.878211792E0,4.078385263E0,-5.160939646E-1,5.303591242E-1,4.144980112E0
8.888147792E0,3.928995920E0,-9.406836820E-1,8.656507489E-1,4.131736432E0
8.898084792E0,3.402567001E0,-2.106847694E0,5.898808560E-1,4.045272405E0
8.908020792E0,2.719498192E0,-4.123034894E0,1.173537643E-1,4.940532265E0
8.917956792E0,8.630447180E-1,-6.005098661E0,1.850412789E-1,6.069620778E0
8.927892792E0,-2.891957433E0,-7.935396110E0,-5.806986809E-2,8.446141210E0
8.937829792E0,-8.207456530E0,-1.038959005E1,-2.217502742E0,1.342472504E1
8.947765792E0,-1.417008979E1,-1.326031332E1,-5.391020565E0,2.014175902E1
8.957701792E0,-1.853240269E1,-1.414907372E1,-8.866327221E0,2.494509962E1
8.967638792E0,-1.556867477E1,-1.173964198E1,-8.187473670E0,2.114799170E1
8.977574792E0,-8.045252429E0,-6.904451299E0,-4.559897917E0,1.154080601E1
8.987510792E0,-4.510461463E0,-5.018709633E0,-1.671386687E0,6.951635955E0
8.997447792E0,-2.227715196E0,-3.228039601E0,-8.030890498E-1,4.003486816E0
9.007383792E0,-7.433357683E-1,-1.847297392E0,-5.083567826E-1,2.055111272E0
9.017319792E0,-1.086156122E-1,-1.036136554E0,-2.869243339E-1,1.080602555E0
9.027255792E0,3.685588099E-1,-3.687224954E-1,-7.950444505E-2,5.273640411E-1
9.037192792E0,7.866243137E-1,3.499886012E-1,1.754436591E-1,8.786639343E-1
9.047128792E0,1.017539119E0,1.282922384E0,4.367656669E-1,1.694709400E0
9.057064792E0,1.136853966E0,2.384840698E0,6.438464172E-1,2.719272018E0
9.067001792E0,1.223132265E0,3.635291739E0,9.661331034E-1,3.955352290E0
9.076937792E0,1.249967476E0,4.796166360E0,1.328753152E0,5.131395072E0
9.086873792E0,1.268160795E0,5.812852736E0,1.654309748E0,6.175291853E0
9.096810792E0,1.222795173E0,6.667313960E0,1.977705066E0,7.061134527E0
9.106746792E0,1.065070916E0,7.196776999E0,2.027317375E0,7.552350029E0
9.116682792E0,8.548078915E-1,7.523093732E0,1.948952698E0,7.818315193E0
9.126618792E0,5.332461139E-1,7.732760852E0,1.740699435E0,7.944178770E0
9.136555792E0,2.124430125E-1,7.778735170E0,1.461097277E0,7.917616948E0
9.146491792E0,-9.895550027E-2,7.670113783E0,1.194920911E0,7.763264367E0
9.156427792E0,-3.342910930E-1,7.552745547E0,9.670313819E-1,7.621736386E0
9.166364792E0,-3.884695660E-1,7.395810372E0,7.431954351E-1,7.443202209E0
9.176300792E0,-3.680658531E-1,7.028077226E0,6.711796653E-1,7.069641017E0
9.186236792E0,-2.395645183E-1,6.439027551E0,6.500314558E-1,6.476187757E0
9.196173792E0,1.061702335E-1,5.580058123E0,5.031704485E-1,5.603704246E0
9.206109792E0,4.607107459E-1,4.347025938E0,3.522956201E-1,4.385544562E0
9.216045792E0,9.486366262E-1,2.837423376E0,2.803731135E-1,3.004911304E0
9.225982792E0,1.445322951E0,1.396608628E0,3.468591714E-1,2.039555191E0
9.235918792E0,1.823030570E0,-3.625098288E-2,4.093857872E-1,1.868783379E0
9.245854792E0,1.984716024E0,-1.416077517E0,7.160392115E-1,2.541079570E0
9.255790792E0,1.939844491E0,-2.898204013E0,1.045782413E0,3.640912524E0
9.265727792E0,1.760304565E0,-4.300158166E0,1.451693785E0,4.868002389E0
9.275663792E0,1.776387624E0,-5.160972975E0,2.188156882E0,5.880410324E0
9.285599792E0,2.467860343E0,-5.411972308E0,3.273104092E0,6.789181787E0
9.295536792E0,3.322870914E0,-5.113942065E0,4.445845052E0,7.547146002E0
9.305472792E0,3.734776851E0,-3.953907689E0,5.060128385E0,7.428784788E0
9.315408792E0,3.381096025E0,-2.360117501E0,4.711915584E0,6.261318824E0
9.325345792E0,3.930774058E0,-1.748653695E0,4.696371053E0,6.369040391E0
9.335281792E0,4.231023611E0,-1.314005013E0,4.575874557E0,6.369207010E0
9.345217792E0,3.628130654E0,-1.686177365E0,3.671473140E0,5.430123495E0
9.355154792E0,2.935410431E0,-2.960613685E0,2.676106005E0,4.954130715E0
9.365090792E0,2.253161986E0,-4.450431608E0,1.409925077E0,5.183721555E0
9.375026792E0,1.009574115E0,-5.253061944E0,-2.776325235E-1,5.356396129E0
9.384962792E0,-9.446998420E-1,-5.829074081E0,-1.894857183E0,6.201697040E0
9.394899792E0,-3.365395082E0,-6.067936934E0,-3.250772991E0,7.662458334E0
9.404835792E0,-6.218689848E0,-5.728232415E0,-4.617053280E0,9.633375889E0
9.414771792E0,-9.058160918E0,-5.286325584E0,-5.772581792E0,1.197155871E1
9.424708792E0,-1.037106139E1,-6.165243373E0,-7.007276341E0,1.395245720E1
9.434644792E0,-9.444094693E0,-7.253461077E0,-7.207861565E0,1.391965842E1
9.444580792E0,-4.308786025E0,-7.012113742E0,-5.584624214E0,9.946024520E0
9.454517792E0,-4.569552255E-1,-5.359370171E0,-2.654417805E0,5.998132259E0
9.464453792E0,-3.350132972E-1,-4.533579599E0,-1.627787947E0,4.828588975E0
9.474389792E0,-1.525155863E0,-3.063487258E0,-2.379598377E0,4.168158229E0
9.484325792E0,-2.528876623E0,-1.761537450E0,-2.394743543E0,3.902951165E0
9.494262792E0,-3.198628983E0,-1.167865552E0,-2.137059088E0,4.020218758E0
9.504198792E0,-3.373250231E0,-4.357374340E-1,-1.649616334E0,3.780200826E0
9.514134792E0,-2.894924017E0,2.713698632E-1,-1.137810863E0,3.122313282E0
9.524071792E0,-1.957364795E0,8.533069843E-1,-4.780823851E-1,2.188143624E0
9.534007792E0,-1.018651917E0,1.546838216E0,1.668874285E-1,1.859626739E0
9.543943792E0,-3.602613186E-1,2.398595104E0,7.271243629E-1,2.532144650E0
9.553880792E0,1.365695788E-1,3.229907786E0,1.077335158E0,3.407580755E0
9.563816792E0,5.078818426E-1,4.201249589E0,1.607843971E0,4.526986229E0
9.573752792E0,8.432708234E-1,5.058953095E0,2.071649502E0,5.531350989E0
9.583688792E0,9.869211245E-1,5.769349451E0,2.490893110E0,6.361128428E0
9.593625792E0,1.018188745E0,6.152663673E0,2.746903507E0,6.814503465E0
9.603561792E0,1.013052550E0,6.465438255E0,2.856766842E0,7.140678125E0
9.613497792E0,8.753399507E-1,6.667906868E0,2.849701652E0,7.303971627E0
9.623434792E0,7.382688636E-1,6.796622795E0,2.554749091E0,7.298346748E0
9.633370792E0,6.489401460E-1,6.941552467E0,2.155917820E0,7.297551344E0
9.643306792E0,5.209144092E-1,6.978227958E0,2.127391301E0,7.313877973E0
9.653243792E0,6.255941143E-1,6.804007244E0,2.145225017E0,7.161555204E0
9.663179792E0,7.638880004E-1,6.641280987E0,2.125628366E0,7.014872342E0
9.673115792E0,9.980040101E-1,6.198587705E0,2.028254391E0,6.597902501E0
9.683051792E0,1.504894384E0,5.502763780E0,2.073467109E0,6.069957346E0
9.692988792E0,2.340084063E0,4.437123345E0,2.041011554E0,5.415698031E0
9.702924792E0,3.275355855E0,3.137481433E0,1.729620716E0,4.854207818E0
9.712860792E0,3.983454840E0,1.602810688E0,1.217116357E0,4.462990789E0
9.722797792E0,4.530569453E0,2.507426405E-1,7.092070323E-1,4.592592520E0
9.732733792E0,4.830390113E0,-9.826380390E-1,2.614655569E-1,4.936254693E0
9.742669792E0,4.973386111E0,-2.111400336E0,-8.004633576E-2,5.403608813E0
9.752606792E0,4.887379416E0,-2.898875273E0,9.553561002E-2,5.683228172E0
9.762542792E0,4.631275463E0,-3.196473407E0,5.187638032E-1,5.651130023E0
9.772478792E0,4.262674297E0,-3.073377239E0,7.963489643E-1,5.315092802E0
9.782415792E0,3.688749616E0,-2.665655569E0,1.214848222E0,4.710461712E0
9.792351375E0,3.105384605E0,-2.199136053E0,1.481305839E0,4.083366247E0
9.802287375E0,2.774708480E0,-1.667014285E0,1.885207815E0,3.745924756E0
9.812223375E0,2.905558641E0,-1.269529336E0,2.653035523E0,4.134316538E0
9.822160375E0,3.282283636E0,-1.345690489E0,2.729957692E0,4.476263817E0
9.832096375E0,2.855256507E0,-2.432721793E0,1.327956615E0,3.979207686E0
9.842032375E0,1.492446831E0,-3.525824845E0,8.574590921E-2,3.829646295E0
9.851969375E0,-1.302680125E0,-4.722080968E0,-7.564265147E-1,4.956531575E0
9.861905375E0,-6.244897068E0,-6.428185059E0,-1.984396327E0,9.179222807E0
9.871841375E0,-1.248277280E1,-8.600168982E0,-5.033634067E0,1.597247618E1
9.881778375E0,-1.911708098E1,-1.104604993E1,-8.763472944E0,2.375450405E1
9.891714375E0,-1.924144892E1,-1.267668752E1,-9.888540970E0,2.507419003E1
9.901650375E0,-1.000663835E1,-8.990074770E0,-5.627383733E0,1.458155352E1
9.911586375E0,-4.808887270E0,-5.979372666E0,-2.615784374E0,8.106825652E0
9.921523375E0,-2.651896193E0,-4.881636865E0,-1.911432577E0,5.875075012E0
9.931459375E0,-1.558548727E0,-3.761139607E0,-1.887005249E0,4.487319255E0
9.941395375E0,-6.613972735E-1,-3.233638895E0,-1.268744055E0,3.536039922E0
9.951332375E0,5.480774302E-2,-2.725934515E0,-7.493883674E-1,2.827597177E0
9.961268375E0,5.127487360E-1,-2.018364703E0,-2.845375004E-1,2.101825143E0
9.971204375E0,8.265448630E-1,-9.380062419E-1,3.711578608E-2,1.250763648E0
9.981141375E0,9.913986298E-1,4.286734128E-1,3.666511193E-1,1.140642442E0
9.991077375E0,1.165871651E0,1.838846996E0,6.693332608E-1,2.277854692E0
1.000101338E1,1.174646275E0,3.183744603E0,9.964931627E-1,3.536809607E0
1.001094937E1,1.136061376E0,4.423828531E0,1.363323061E0,4.766502291E0
1.002088638E1,1.087804159E0,5.446885448E0,1.625290162E0,5.787352338E0
1.003082238E1,8.747487241E-1,6.316032540E0,1.658024922E0,6.588360875E0
1.004075837E1,6.403321675E-1,6.938783226E0,1.608872204E0,7.151587776E0
1.005069538E1,4.789534375E-1,7.249742832E0,1.502088159E0,7.419193781E0
1.006063138E1,2.949397336E-1,7.484436035E0,1.441696654E0,7.627729771E0
1.007056737E1,1.387571318E-1,7.720703309E0,1.349650955E0,7.839009556E0
1.008050438E1,-2.712399088E-2,7.768285026E0,1.267525641E0,7.871061504E0
1.009044038E1,-1.608765639E-1,7.692773498E0,1.164756880E0,7.782114363E0
1.010037637E1,-1.521366575E-1,7.488321510E0,1.055189706E0,7.563830373E0
1.011031338E1,-8.722993255E-2,7.120302435E0,9.707243371E-1,7.186697542E0
1.012024938E1,1.533879617E-1,6.565325655E0,9.723685741E-1,6.638714444E0
1.013018538E1,5.749359575E-1,5.703325031E0,9.539077449E-1,5.811059090E0
1.014012137E1,9.655721361E-1,4.566976556E0,8.019038191E-1,4.736312294E0
1.015005838E1,1.503896411E0,3.113145906E0,6.647585455E-1,3.520693933E0
1.015999438E1,2.059480862E0,1.637227399E0,7.826474762E-1,2.744906565E0
1.016993037E1,2.524040099E0,9.624516964E-2,8.883619192E-1,2.677541494E0
1.017986738E1,2.821803709E0,-1.512236148E0,1.068715632E0,3.375142581E0
1.018980338E1,2.717905118E0,-2.949730847E0,1.472871961E0,4.272852925E0
1.019973937E1,2.544909689E0,-4.001666577E0,1.956148721E0,5.129953074E0
1.020967638E1,2.695353577E0,-4.692740225E0,2.479077057E0,5.952525916E0
1.021961238E1,3.333669552E0,-4.565441662E0,3.379210591E0,6.586021141E0
1.022954837E1,4.229700387E0,-3.927678834E0,4.074494233E0,7.065304639E0
1.023948437E1,4.714213247E0,-3.109494320E0,4.249132146E0,7.067381797E0
1.024942138E1,4.588294920E0,-2.461563769E0,3.941160175E0,6.530274878E0
1.025935737E1,4.216356163E0,-2.053465539E0,3.517791063E0,5.862527951E0
1.026929337E1,4.181513482E0,-1.753539628E0,3.138664910E0,5.514632685E0
1.027923038E1,4.414311603E0,-1.415015078E0,2.991361853E0,5.516943024E0
1.028916637E1,4.255303297E0,-1.410286435E0,3.034012613E0,5.413108767E0
1.029910237E1,3.774228015E0,-2.769203911E0,2.645526821E0,5.376997263E0
1.030903938E1,2.506810693E0,-4.085660661E0,1.215212065E0,4.945044312E0
1.031897538E1,-4.577785134E-2,-5.249340191E0,-1.010336884E0,5.345881468E0
1.032891137E1,-3.492762934E0,-6.754220542E0,-3.534847684E0,8.385346516E0
1.033884737E1,-7.025059478E0,-8.555362353E0,-6.158259459E0,1.266766929E1
1.034878438E1,-1.079122360E1,-9.988633608E0,-9.457184855E0,1.748318202E1
1.035872037E1,-1.390709723E1,-9.850888410E0,-1.316864535E1,2.153742269E1
1.036865637E1,-1.205792230E1,-9.041515065E0,-1.138447274E1,1.888779247E1
1.037859338E1,-5.063325058E0,-6.989708966E0,-5.383635532E0,1.017235585E1
1.038852937E1,-2.926945709E0,-5.792356490E0,-1.556889288E0,6.674002484E0
1.039846537E1,-2.353820050E0,-3.379946170E0,-2.035943480E0,4.594515295E0
1.040840238E1,-2.759408070E0,-1.673448561E0,-1.388732721E0,3.513309203E0
1.041833837E1,-2.774423428E0,-7.998704499E-1,-7.879196182E-1,2.992997731E0
1.042827437E1,-2.664545767E0,2.188589430E-1,-1.417157498E-1,2.677272257E0
1.043821037E1,-2.281627694E0,1.237429876E0,2.879344404E-1,2.611506055E0
1.044814737E1,-1.776705420E0,2.035688834E0,7.658262062E-1,2.808416093E0
1.045808337E1,-1.273960356E0,2.589360514E0,1.142108859E0,3.103574634E0
1.046801937E1,-8.066484692E-1,3.148381813E0,1.393150877E0,3.536079631E0
1.047795637E1,-4.483765561E-1,3.717056279E0,1.432537137E0,4.008704475E0
1.048789237E1,-1.647587496E-1,4.347851565E0,1.429762341E0,4.579866704E0
1.049782837E1,1.402125037E-1,5.142139678E0,1.673092027E0,5.409297269E0
1.050776537E1,4.351052038E-1,5.908032542E0,2.182548525E0,6.313294158E0
1.051770137E1,6.810211140E-1,6.520004472E0,2.504940169E0,7.017761275E0
1.052763737E1,7.627395342E-1,6.936974682E0,2.732225242E0,7.494560969E0
1.053757337E1,6.311014605E-1,7.063493811E0,2.658735097E0,7.573645502E0
1.054751037E1,3.132004054E-1,7.173248388E0,2.286530877E0,7.535370620E0
1.055744637E1,4.359895952E-2,7.301596525E0,1.741140900E0,7.506449515E0
1.056738237E1,-1.426168057E-1,7.059764457E0,1.384185634E0,7.195594736E0
1.057731937E1,2.709213817E-1,6.341512367E0,1.413799442E0,6.502846019E0
1.058725537E1,9.364185036E-1,5.286375870E0,1.397373736E0,5.547549262E0
1.059719137E1,1.816769664E0,4.043752497E0,1.016287303E0,4.548123366E0
1.060712837E1,2.799455066E0,2.248362007E0,5.569265333E-1,3.633489720E0
1.061706437E1,3.734247093E0,5.233176148E-1,1.016129136E-1,3.772106555E0
1.062700037E1,4.559678646E0,-7.996839237E-1,-3.481785956E-1,4.642347689E0
1.063693637E1,5.378349064E0,-2.069662326E0,-7.541934630E-1,5.811965982E0
1.064687337E1,5.572830965E0,-2.871889789E0,-7.131185272E-1,6.309733271E0
1.065680937E1,5.562669674E0,-2.843885719E0,-2.476424468E-1,6.252384078E0
1.066674537E1,5.080071484E0,-2.004827229E0,6.236733770E-1,5.496856100E0
1.067668237E1,3.826460023E0,-1.004270398E0,1.260191625E0,4.151919830E0
1.068661837E1,3.593866555E0,-6.864987856E-1,1.776771201E0,4.067440632E0
1.069655437E1,3.708575478E0,-4.662294942E-1,2.419984511E0,4.452777453E0
1.070649137E1,3.657052152E0,-5.904056436E-1,2.965762158E0,4.745350824E0
1.071642737E1,3.574050341E0,-5.017846584E-1,3.139115438E0,4.783269741E0
1.072636337E1,3.201017571E0,-3.189568430E-1,3.182820159E0,4.525327736E0
1.073629937E1,2.812149371E0,-1.643599695E-1,3.235040472E0,4.289601979E0
1.074623637E1,2.362068717E0,-2.979401958E-1,2.984257486E0,3.817581659E0
1.075617237E1,1.686110122E0,-1.099059026E0,1.634247951E0,2.592617298E0
1.076610837E1,7.593879101E-1,-2.141577231E0,3.242026725E-1,2.295240817E0
1.077604537E1,-1.549162192E0,-3.626503959E0,-7.014844684E-1,4.005435672E0
1.078598137E1,-5.810634887E0,-5.681089239E0,-2.035904888E0,8.377539104E0
1.079591767E1,-1.147310951E1,-7.841036668E0,-4.518986996E0,1.461284850E1
1.080585467E1,-1.828186587E1,-9.697170373E0,-8.948171868E0,2.254620839E1
1.081579067E1,-2.075633386E1,-1.111467520E1,-1.108166299E1,2.602238756E1
1.082572667E1,-1.181367474E1,-8.344934510E0,-6.977118741E0,1.605867457E1
1.083566267E1,-5.449303856E0,-6.026986544E0,-2.556230775E0,8.517851554E0
1.084559967E1,-2.852660050E0,-4.887872921E0,-1.281280485E0,5.802641703E0
1.085553567E1,-1.112521582E0,-3.660254672E0,-1.199567693E0,4.009255690E0
1.086547167E1,-1.684702332E-1,-2.992024342E0,-6.333293228E-1,3.062955748E0
1.087540867E1,6.744172686E-1,-2.182788992E0,-1.295672822E-1,2.288273173E0
1.088534467E1,1.440073906E0,-9.860259157E-1,2.024887857E-1,1.757003605E0
1.089528067E1,2.001001689E0,3.455926645E-1,5.125575686E-1,2.094315475E0
1.090521767E1,2.161998924E0,1.823657684E0,5.994621035E-1,2.891249127E0
1.091515367E1,2.133601629E0,3.125256659E0,8.092898758E-1,3.869681538E0
1.092508967E1,1.984508447E0,4.234235487E0,9.987257758E-1,4.781681411E0
1.093502567E1,1.887759540E0,5.170672921E0,1.304854120E0,5.657043292E0
1.094496267E1,1.744325001E0,6.008786500E0,1.568812930E0,6.450531677E0
1.095489867E1,1.464078772E0,6.588389997E0,1.715973168E0,6.963833235E0
1.096483467E1,1.105378989E0,6.863106807E0,1.630224774E0,7.140149198E0
1.097477167E1,6.876226205E-1,6.867947717E0,1.358132926E0,7.034632595E0
1.098470767E1,3.335238286E-1,6.955259510E0,1.174067401E0,7.061537174E0
1.099464367E1,5.702233940E-2,7.122290488E0,1.019561452E0,7.195121882E0
1.100457967E1,-2.184555582E-1,7.065909296E0,9.148328492E-1,7.128233733E0
1.101451667E1,-3.989338893E-1,6.876095227E0,7.611858559E-1,6.929591454E0
1.102445267E1,-4.391999359E-1,6.586207232E0,6.602322158E-1,6.633771843E0
1.103438867E1,-2.405798142E-1,6.035584874E0,6.763968435E-1,6.078130972E0
1.104432567E1,1.840647939E-1,5.214527623E0,7.235379732E-1,5.267702097E0
1.105426167E1,6.824007645E-1,4.207936465E0,6.818894255E-1,4.317102418E0
1.106419767E1,1.250277086E0,2.992614911E0,6.550087519E-1,3.308772169E0
1.107413467E1,1.696252702E0,1.682076128E0,8.620703526E-1,2.539649311E0
1.108407067E1,1.968896089E0,3.594874030E-1,9.379204340E-1,2.210311685E0
1.109400667E1,2.063526258E0,-8.361465758E-1,1.231320413E0,2.544293944E0
1.110394267E1,1.888736025E0,-2.128112263E0,1.581518929E0,3.255362914E0
1.111387967E1,1.706095613E0,-3.276576169E0,2.044447524E0,4.222141555E0
1.112381567E1,1.647858661E0,-3.961750560E0,2.554990581E0,4.993884513E0
1.113375167E1,2.231376723E0,-4.026900237E0,3.152374291E0,5.579644367E0
1.114368867E1,3.337063860E0,-3.647814136E0,3.676005902E0,6.160808597E0
1.115362467E1,4.290882143E0,-2.876675150E0,3.853112801E0,6.444641785E0
1.116356067E1,4.903787287E0,-2.132478964E0,3.808285707E0,6.564879003E0
1.117349767E1,5.332691665E0,-1.615765194E0,3.588170782E0,6.627463099E0
1.118343367E1,5.491457019E0,-1.082425452E0,3.249411174E0,6.471971726E0
1.119336967E1,5.120473405E0,-1.040448291E0,2.668520705E0,5.867093257E0
1.120330567E1,4.719126370E0,-2.492254634E0,1.969793929E0,5.688723493E0
1.121324267E1,3.894467234E0,-4.048722630E0,7.998676725E-1,5.674400256E0
1.122317867E1,2.061137378E0,-5.326926895E0,-1.413043105E0,5.883972149E0
1.123311467E1,-9.102775759E-1,-6.953518209E0,-4.247015746E0,8.198607412E0
1.124305167E1,-4.732736641E0,-8.098672591E0,-6.899233829E0,1.164417113E1
1.125298767E1,-8.841482402E0,-9.071552796E0,-9.587636821E0,1.588671335E1
1.126292367E1,-1.220242688E1,-9.058361478E0,-1.260523571E1,1.974449548E1
1.127285967E1,-1.313296213E1,-1.017350502E1,-1.166795394E1,2.030064157E1
1.128279667E1,-6.512938111E0,-8.991309702E0,-6.803354695E0,1.302104635E1
1.129273267E1,-3.146542863E0,-6.714486372E0,-2.716001265E0,7.896943846E0
1.130266867E1,-2.100944053E0,-4.526309756E0,-2.794608893E0,5.719378007E0
1.131260567E1,-2.413746994E0,-2.377963203E0,-2.488524696E0,4.204002700E0
1.132254167E1,-2.520984344E0,-1.344338613E0,-1.707036138E0,3.328149748E0
1.133247767E1,-2.307538168E0,-5.079031849E-1,-1.020988465E0,2.573929970E0
1.134241467E1,-1.897029131E0,2.262159097E-1,-7.431517272E-1,2.049918938E0
1.135235067E1,-1.532592937E0,8.454471570E-1,-4.070303826E-1,1.797024134E0
1.136228667E1,-1.100193971E0,1.428999279E0,-8.854438663E-2,1.805631696E0
1.137222267E1,-6.024856988E-1,1.966499900E0,9.340824679E-2,2.058843359E0
1.138215967E1,-1.689632266E-1,2.594713640E0,3.950247332E-1,2.630044104E0
1.139209567E1,1.698508339E-1,3.411992421E0,4.959774962E-1,3.452033496E0
1.140203167E1,3.532969924E-1,4.284385886E0,5.062124625E-1,4.328629372E0
1.141196867E1,6.203208759E-1,5.123656629E0,9.054568389E-1,5.239895737E0
1.142190467E1,8.864674214E-1,5.985971834E0,1.544563211E0,6.245266912E0
1.143184067E1,9.649399790E-1,6.613523085E0,1.926337130E0,6.955614386E0
1.144177667E1,8.620374620E-1,6.936122158E0,2.103097290E0,7.299035374E0
1.145171367E1,6.755512630E-1,7.172899309E0,2.044447086E0,7.489099938E0
1.146164967E1,6.256055894E-1,7.392304966E0,1.830317663E0,7.641179086E0
1.147158567E1,6.009198875E-1,7.423378825E0,1.704222604E0,7.640159198E0
1.148152267E1,6.995371994E-1,7.284758883E0,1.819614919E0,7.541091614E0
1.149145867E1,9.984418935E-1,7.025208582E0,1.892085310E0,7.343733972E0
1.150139467E1,1.518009396E0,6.506221415E0,1.857093818E0,6.934267595E0
1.151133167E1,2.169102560E0,5.636979014E0,1.873499058E0,6.323807163E0
1.152126767E1,2.842872396E0,4.549928999E0,1.846542225E0,5.673931225E0
1.153120367E1,3.647932835E0,3.158738986E0,1.644183539E0,5.097880487E0
1.154113967E1,4.532421266E0,1.565465691E0,1.421711017E0,5.001478539E0
1.155107667E1,5.165956557E0,3.797825038E-2,1.017013235E0,5.265250746E0
1.156101267E1,5.700245887E0,-1.453955196E0,3.275124890E-1,5.891863314E0
1.157094867E1,5.811768662E0,-2.488313026E0,-4.218257385E-1,6.336110293E0
1.158088567E1,5.401865981E0,-3.224144771E0,-9.488127735E-1,6.362036722E0
1.159082167E1,4.655356051E0,-3.335409098E0,-8.356077549E-1,5.787532647E0
1.160075767E1,3.939322979E0,-2.415138046E0,-2.456086390E-1,4.627254145E0
1.161069367E1,3.540175667E0,-1.863989439E0,1.356866857E-1,4.003212617E0
1.162063067E1,3.216468253E0,-1.530868301E0,5.252410564E-1,3.600708812E0
1.163056667E1,3.126764072E0,-1.339164412E0,9.417581078E-1,3.529436671E0
1.164050267E1,3.301025424E0,-1.332284578E0,1.432017027E0,3.836981080E0
1.165043967E1,3.640977572E0,-1.391528567E0,1.984318998E0,4.373853143E0
1.166037567E1,3.691055758E0,-1.711960663E0,2.070201732E0,4.565132761E0
1.167031167E1,3.339728144E0,-2.641062180E0,1.063569936E0,4.388641535E0
1.168024867E1,2.067901729E0,-3.359059916E0,1.260155372E-1,3.946565722E0
1.169018467E1,-5.777487606E-2,-4.394398910E0,-6.274951172E-1,4.439350159E0
1.170012067E1,-4.097639267E0,-6.350304240E0,-1.995076851E0,7.816478948E0
1.171005667E1,-9.689209973E0,-8.415724996E0,-4.335664798E0,1.354633553E1
1.171999367E1,-1.637736224E1,-1.086813203E1,-8.035502197E0,2.123449042E1
1.172992967E1,-2.092038568E1,-1.293894099E1,-1.188295723E1,2.731818814E1
1.173986567E1,-1.501436926E1,-1.121409073E1,-8.744859502E0,2.067993430E1
1.174980267E1,-5.972227369E0,-6.259771215E0,-3.702267501E0,9.410580219E0
1.175973867E1,-2.638053203E0,-4.084825678E0,-8.065672660E-1,4.929064442E0
1.176967467E1,-4.835536247E-1,-2.188126330E0,-4.291914761E-1,2.281649901E0
1.177961067E1,7.471931764E-1,-1.272199175E0,-5.640867412E-1,1.579551276E0
1.178954762E1,1.586946023E0,-9.311316705E-1,-5.249022102E-1,1.913354697E0
1.179948362E1,1.687033398E0,-5.400184321E-1,-1.954300269E-1,1.782103950E0
1.180941963E1,1.512513599E0,2.556496239E-1,3.148477122E-2,1.534289870E0
1.181935662E1,1.212352923E0,1.340286493E0,1.128278732E-1,1.810772658E0
1.182929262E1,1.062795472E0,2.477157708E0,1.939229071E-1,2.702489708E0
1.183922863E1,1.049981591E0,3.614825315E0,5.144112821E-1,3.799216020E0
1.184916463E1,9.341485414E-1,4.658094887E0,8.794855535E-1,4.831560443E0
1.185910162E1,7.626301181E-1,5.538962722E0,1.157838746E0,5.709842669E0
1.186903763E1,5.235669985E-1,6.229912409E0,1.350655360E0,6.396108264E0
1.187897363E1,2.946441569E-1,6.655883823E0,1.363161531E0,6.800427487E0
1.188891062E1,3.487363469E-2,6.823251600E0,1.240205988E0,6.935134423E0
1.189884663E1,-1.541475150E-1,6.963637986E0,1.109670553E0,7.053182557E0
1.190878263E1,-2.868441539E-1,7.125801156E0,1.037313745E0,7.206617895E0
1.191871962E1,-3.760315150E-1,7.154265402E0,9.863492668E-1,7.231721650E0
1.192865563E1,-4.075082463E-1,7.003953953E0,8.921178782E-1,7.072291584E0
1.193859163E1,-4.054354814E-1,6.641002659E0,8.458019368E-1,6.706912491E0
1.194852762E1,-3.091203645E-1,6.144167084E0,8.605265415E-1,6.211831492E0
1.195846463E1,-3.762069315E-2,5.347474011E0,8.122694707E-1,5.408944011E0
1.196840063E1,2.319605067E-1,4.164143159E0,7.027920520E-1,4.229398372E0
1.197833662E1,6.461591372E-1,2.833920894E0,7.542802942E-1,3.002926577E0
1.198827363E1,9.520907226E-1,1.490635364E0,8.395432234E-1,1.957882365E0
1.199820963E1,1.180352865E0,1.212654054E-1,8.239077687E-1,1.444562978E0
1.200814563E1,1.437330100E0,-1.377214583E0,9.799281469E-1,2.218760239E0
1.201808162E1,1.632544364E0,-2.704294555E0,1.524675807E0,3.507569879E0
1.202801863E1,1.767901852E0,-3.556650782E0,2.004518058E0,4.448970036E0
1.203795463E1,1.858891690E0,-3.873334812E0,2.225436683E0,4.838467661E0
1.204789062E1,2.200554003E0,-3.382612501E0,2.342794686E0,4.666175328E0
1.205782763E1,3.036199180E0,-2.586872524E0,2.524936477E0,4.720775268E0
1.206776363E1,4.091407012E0,-1.752922162E0,2.880488119E0,5.301844891E0
1.207769962E1,4.901153702E0,-1.351493266E0,3.129748198E0,5.970189732E0
1.208763562E1,5.926221476E0,-1.182588256E0,3.328617557E0,6.899152905E0
1.209757263E1,6.947764549E0,-9.181952906E-1,3.697563416E0,7.923792655E0
1.210750862E1,7.181411685E0,-8.068455935E-1,3.419491475E0,7.994785523E0
1.211744462E1,6.530436489E0,-1.680471652E0,2.753822225E0,7.283826093E0
1.212738163E1,4.938171839E0,-3.105457402E0,1.471317041E0,6.016159957E0
1.213731762E1,3.088029484E0,-4.303550720E0,-3.136437705E-1,5.306114144E0
1.214725362E1,4.366557392E-1,-5.361102701E0,-2.364377490E0,5.875574127E0
1.215719063E1,-2.967135377E0,-6.074594573E0,-4.363599286E0,8.046464460E0
1.216712662E1,-6.797733766E0,-6.117508458E0,-6.202485459E0,1.105006425E1
1.217706262E1,-1.018512110E1,-6.421979409E0,-7.689230086E0,1.428645410E1
1.218699862E1,-1.151623390E1,-7.522946967E0,-8.445012529E0,1.614114652E1
1.219693563E1,-1.027369005E1,-8.352944026E0,-7.432325649E0,1.518419723E1
1.220687162E1,-4.990903199E0,-7.355591469E0,-4.761571308E0,1.008396757E1
1.221680762E1,-1.876401908E0,-5.693684142E0,-2.131639450E0,6.362610311E0
1.222674362E1,-1.378227613E0,-4.502170696E0,-2.229103618E0,5.209410261E0
1.223668062E1,-1.853153379E0,-2.978397991E0,-2.122899470E0,4.100211482E0
1.224661662E1,-2.511944256E0,-1.889126034E0,-1.675323471E0,3.561652686E0
1.225655262E1,-2.873151618E0,-1.067745432E0,-1.409253817E0,3.373585162E0
1.226648962E1,-2.859336986E0,-1.806269234E-1,-1.098983743E0,3.068582629E0
1.227642562E1,-2.498935078E0,5.593335396E-1,-6.503982224E-1,2.642072744E0
1.228636162E1,-1.998595267E0,1.191539174E0,-1.350915854E-1,2.330750604E0
1.229629862E1,-1.483118768E0,1.905145651E0,2.303664096E-1,2.425343257E0
1.230623462E1,-1.061757883E0,2.756496742E0,5.670248209E-1,3.007843287E0
1.231617062E1,-7.018453147E-1,3.462290754E0,8.138733619E-1,3.625249503E0
1.232610662E1,-4.310993860E-1,4.174348889E0,8.856182595E-1,4.288980652E0
1.233604362E1,-2.370808404E-2,4.995007945E0,1.208638333E0,5.139209381E0
1.234597962E1,3.967859511E-1,5.826308933E0,1.897825229E0,6.140444241E0
1.235591562E1,6.503717637E-1,6.512366254E0,2.451900076E0,6.988970714E0
1.236585262E1,7.291910613E-1,6.968066082E0,2.755045463E0,7.528342449E0
1.237578862E1,6.656020794E-1,7.143350989E0,2.831264211E0,7.712752201E0
1.238572462E1,6.008315580E-1,7.298274137E0,2.724843717E0,7.813486880E0
1.239566062E1,5.882210507E-1,7.407687821E0,2.581381696E0,7.866598650E0
1.240559762E1,4.807175059E-1,7.327679785E0,2.331117943E0,7.704550033E0
1.241553362E1,4.696665607E-1,7.099781047E0,2.015948341E0,7.395371884E0
1.242546962E1,5.900227971E-1,6.668258286E0,1.911732540E0,6.961933407E0
1.243540662E1,1.067627976E0,5.826805946E0,1.824332745E0,6.198361638E0
1.244534262E1,1.824140957E0,4.780951905E0,1.828065608E0,5.433858225E0
1.245527862E1,2.860296514E0,3.497462926E0,1.686347812E0,4.822583541E0
1.246521463E1,4.068697596E0,1.886995894E0,1.490484506E0,4.726160989E0
1.247515162E1,5.168370287E0,2.697028220E-1,1.058172371E0,5.282472887E0
1.248508762E1,5.916187654E0,-1.220471197E0,3.295809415E-1,6.049747920E0
1.249502363E1,6.523910996E0,-2.461795319E0,-5.968276405E-1,6.998432261E0
1.250496062E1,6.285103692E0,-3.549430055E0,-1.396950983E0,7.352037417E0
1.251489662E1,5.367082064E0,-4.056269631E0,-1.736640298E0,6.948007825E0
1.252483263E1,4.290559961E0,-3.017998844E0,-1.119503816E0,5.363814929E0
1.253476863E1,3.696717324E0,-2.213887993E0,-4.727973792E-1,4.334807537E0
1.254470562E1,3.202961478E0,-1.776326813E0,-8.347748190E-2,3.663504833E0
1.255464162E1,3.004070776E0,-1.538165626E0,4.190860257E-1,3.400886328E0
1.256457763E1,3.068640994E0,-1.575385492E0,1.037013052E0,3.601915194E0
1.257451462E1,3.282893500E0,-1.684381685E0,1.725371544E0,4.073258936E0
1.258445062E1,3.366737603E0,-2.188338000E0,2.017520950E0,4.493788610E0
1.259438663E1,2.623404173E0,-3.389228041E0,1.481787504E0,4.534844030E0
1.260432362E1,1.276747431E0,-4.751261498E0,4.314780298E-1,4.938698524E0
1.261425962E1,-1.425709928E0,-5.788532411E0,-2.475312035E-1,5.966659700E0
1.262419563E1,-5.941622458E0,-7.058893222E0,-1.182262274E0,9.302074770E0
1.263413163E1,-1.104547223E1,-9.066252880E0,-3.536962914E0,1.472105651E1
1.264406862E1,-1.647575802E1,-1.084734283E1,-7.081626027E0,2.095864681E1
1.265400463E1,-1.872700153E1,-1.149135283E1,-9.716989510E0,2.402439721E1
1.266394063E1,-1.177524450E1,-8.503607478E0,-6.808308456E0,1.604122150E1
1.267387762E1,-5.451686597E0,-5.519559322E0,-2.587622137E0,8.178154449E0
1.268381363E1,-2.993741377E0,-4.234586905E0,-8.159859610E-1,5.249766354E0
1.269374963E1,-1.273732899E0,-2.931719084E0,-6.855161610E-1,3.269144336E0
1.270368562E1,-3.646227933E-1,-2.300637285E0,-7.588262120E-1,2.449836508E0
1.271362263E1,2.090540760E-1,-1.745003278E0,-6.031951122E-1,1.858113127E0
1.272355863E1,7.594618043E-1,-9.985857350E-1,-2.884406631E-1,1.287304827E0
1.273349463E1,1.131125157E0,8.320587873E-2,1.112280750E-1,1.139622316E0
1.274343163E1,1.493859519E0,1.413650338E0,5.516790958E-1,2.129406811E0
1.275336763E1,1.773735327E0,2.686286885E0,8.657045433E-1,3.333424454E0
1.276330363E1,1.804506884E0,3.771945262E0,1.200761695E0,4.350361456E0
1.277323962E1,1.768839161E0,4.732048132E0,1.566252872E0,5.289066038E0
1.278317663E1,1.626938054E0,5.554842006E0,1.723566216E0,6.039360698E0
1.279311217E1,1.348680171E0,6.270866892E0,1.778547293E0,6.656270746E0
1.280304817E1,1.009815093E0,6.654926634E0,1.748301400E0,6.954446981E0
1.281298517E1,6.278343288E-1,6.780295615E0,1.635009112E0,7.002845091E0
1.282292117E1,2.993874548E-1,7.029891032E0,1.430206875E0,7.180145714E0
1.283285717E1,4.791866317E-3,7.289376429E0,1.259286915E0,7.397353258E0
1.284279317E1,-2.010353141E-1,7.334844378E0,1.110442678E0,7.421148172E0
1.285273017E1,-3.199641721E-1,7.304307879E0,1.039221253E0,7.384800030E0
1.286266617E1,-3.006521344E-1,7.193263407E0,1.028644516E0,7.272656989E0
1.287260217E1,-1.380848482E-1,6.983565881E0,1.004115593E0,7.056734937E0
1.288253917E1,1.721909261E-1,6.569421045E0,1.078797401E0,6.659635607E0
1.289247517E1,4.968602065E-1,5.896958501E0,1.156771191E0,6.029851508E0
1.290241117E1,9.306940064E-1,4.789578302E0,1.132403358E0,5.008851067E0
1.291234717E1,1.334056723E0,3.554097303E0,1.045730373E0,3.937621997E0
1.292228417E1,1.693298397E0,2.220894127E0,1.088237146E0,2.997313842E0
1.293222017E1,1.923722694E0,9.257744515E-1,1.140303239E0,2.420342706E0
1.294215617E1,1.784122174E0,-4.241903526E-1,1.222592274E0,2.204032953E0
1.295209317E1,1.511220779E0,-1.885494329E0,1.404840338E0,2.795076651E0
1.296202917E1,1.103501960E0,-3.157584161E0,1.613930192E0,3.713869272E0
1.297196517E1,1.084411312E0,-4.085340818E0,2.179290310E0,4.755550836E0
1.298190117E1,1.969196636E0,-4.390380703E0,3.190276820E0,5.773304452E0
1.299183817E1,3.755642055E0,-4.034025654E0,4.304066445E0,6.993082166E0
1.300177417E1,5.124605048E0,-3.294353458E0,4.978010674E0,7.867333212E0
1.301171017E1,5.465369081E0,-2.410730415E0,4.740737679E0,7.626039213E0
1.302164717E1,4.723254212E0,-1.904454510E0,4.246209415E0,6.630714270E0
1.303158317E1,4.069798042E0,-1.880839360E0,3.547875280E0,5.717362312E0
1.304151917E1,3.508874352E0,-2.581394852E0,3.009520089E0,5.294620833E0
1.305145517E1,3.069492056E0,-4.044840664E0,2.150602409E0,5.514309403E0
1.306139217E1,2.349492233E0,-5.202693443E0,4.829925844E-1,5.728997701E0
1.307132817E1,9.508587143E-1,-6.138332732E0,-1.721334919E0,6.445638442E0
1.308126417E1,-1.256632425E0,-6.963819834E0,-3.630813357E0,7.953409166E0
1.309120117E1,-4.009420278E0,-7.691299415E0,-5.304132110E0,1.016687539E1
1.310113717E1,-7.289633122E0,-7.464001771E0,-7.149892854E0,1.264796590E1
1.311107317E1,-9.548955150E0,-7.266209761E0,-8.726091110E0,1.483661062E1
1.312100917E1,-1.002575875E1,-7.616900028E0,-8.121352186E0,1.498296919E1
1.313094617E1,-6.717149779E0,-7.784940235E0,-5.677419527E0,1.174557313E1
1.314088217E1,-2.882573236E0,-5.764643027E0,-3.031332250E0,7.122451327E0
1.315081817E1,-1.968714826E0,-4.284989904E0,-2.095274739E0,5.160150460E0
1.316075517E1,-2.103706277E0,-2.810274754E0,-2.026381528E0,4.053325350E0
1.317069117E1,-2.801236420E0,-1.716554235E0,-1.516763062E0,3.618570728E0
1.318062717E1,-3.229948132E0,-1.011899260E0,-1.385910124E0,3.657492573E0
1.319056317E1,-3.514656956E0,-4.352725804E-1,-1.335498062E0,3.784947927E0
1.320050017E1,-3.375860136E0,6.164602518E-2,-1.131894650E0,3.561097779E0
1.321043617E1,-2.896790741E0,5.841128701E-1,-6.188704741E-1,3.019202727E0
1.322037217E1,-2.222684252E0,1.173328605E0,-1.216200390E-1,2.516310143E0
1.323030917E1,-1.491565364E0,1.838767474E0,3.214777239E-1,2.389389250E0
1.324024517E1,-8.786640197E-1,2.666963006E0,7.177354887E-1,2.898255746E0
1.325018117E1,-4.371793574E-1,3.418181698E0,9.613290310E-1,3.577603307E0
1.326011817E1,-6.153982513E-2,4.172282483E0,1.095870540E0,4.314239273E0
1.327005417E1,3.245721435E-1,4.977570378E0,1.574877077E0,5.230850003E0
1.327999017E1,7.423411569E-1,5.678559734E0,2.152852710E0,6.118160331E0
1.328992617E1,9.651408309E-1,6.283288132E0,2.570868695E0,6.857154834E0
1.329986317E1,9.713823681E-1,6.667320392E0,2.737523404E0,7.272604712E0
1.330979917E1,9.311038231E-1,6.914951144E0,2.767857589E0,7.506299974E0
1.331973517E1,8.117294803E-1,7.164454175E0,2.666512771E0,7.687561300E0
1.332967217E1,7.889227811E-1,7.302398179E0,2.437136149E0,7.738672426E0
1.333960817E1,7.296256556E-1,7.173128520E0,2.172044733E0,7.530199511E0
1.334954417E1,7.094166550E-1,7.040519516E0,2.063311665E0,7.370850838E0
1.335948017E1,9.537753054E-1,6.648246190E0,2.128157287E0,7.045418240E0
1.336941717E1,1.364245020E0,5.818979448E0,2.095302074E0,6.333401699E0
1.337935317E1,1.978724235E0,4.855702125E0,2.003838173E0,5.613248627E0
1.338928917E1,2.710196149E0,3.717328759E0,1.737289631E0,4.917506638E0
1.339922617E1,3.535237108E0,2.226178840E0,1.382373289E0,4.400537416E0
1.340916217E1,4.247427098E0,7.227164394E-1,8.284153873E-1,4.387394222E0
1.341909817E1,4.566902297E0,-5.860711026E-1,9.289003730E-2,4.605290923E0
1.342903417E1,4.500866182E0,-1.738462583E0,-8.804705170E-1,4.904617913E0
1.343897117E1,4.236742188E0,-2.669545721E0,-1.594978635E0,5.255512875E0
1.344890717E1,3.855215752E0,-3.003997101E0,-1.892222720E0,5.240915369E0
1.345884317E1,3.877883069E0,-2.831588439E0,-1.485940635E0,5.026319703E0
1.346878017E1,4.003989676E0,-2.363116538E0,-6.280213666E-1,4.691552402E0
1.347871617E1,3.915750807E0,-2.083930702E0,-3.597207069E-2,4.435895123E0
1.348865217E1,3.743017917E0,-1.702942502E0,4.334719303E-1,4.134984184E0
1.349858817E1,3.879187290E0,-1.447231482E0,1.060347827E0,4.273980640E0
1.350852517E1,4.224345506E0,-1.201164860E0,1.902018999E0,4.785976207E0
1.351846117E1,4.678665392E0,-1.358720425E0,2.267562363E0,5.373813368E0
1.352839717E1,4.726901705E0,-2.304098836E0,1.564986512E0,5.486497422E0
1.353833417E1,3.894590026E0,-3.570474184E0,7.204192145E-1,5.332459209E0
1.354827017E1,1.715762815E0,-4.382870539E0,1.195559719E-1,4.708257622E0
1.355820617E1,-2.575617219E0,-5.823375970E0,-9.903214265E-1,6.444086302E0
1.356814217E1,-8.669691206E0,-7.502511533E0,-2.789959188E0,1.179979225E1
1.357807917E1,-1.535182493E1,-9.960123754E0,-6.650379839E0,1.947075104E1
1.358801517E1,-1.911403809E1,-1.131769754E1,-1.018007262E1,2.443502830E1
1.359795117E1,-1.356419545E1,-8.859528664E0,-6.810075485E0,1.757429300E1
1.360788817E1,-5.844049970E0,-5.660336301E0,-2.811991788E0,8.608113900E0
1.361782417E1,-3.373035931E0,-4.749512011E0,-1.222843120E0,5.952359283E0
1.362776017E1,-2.170357811E0,-3.539348871E0,-1.174776961E0,4.314805252E0
1.363769617E1,-1.375139260E0,-2.962977714E0,-7.273465571E-1,3.346532225E0
1.364763317E1,-9.215358049E-1,-2.141508819E0,-3.609521306E-1,2.359147028E0
1.365756917E1,-4.812316223E-1,-1.336051939E0,-1.104397242E-1,1.424364978E0
1.366750517E1,-1.966998960E-1,-3.071846437E-1,1.102485202E-1,3.810616625E-1
1.367744217E1,1.365069039E-2,8.327089977E-1,4.120546027E-1,9.291822275E-1
1.368737817E1,2.906461597E-1,2.043687825E0,7.862707034E-1,2.208926602E0
1.369731417E1,5.510516164E-1,3.147891231E0,1.194536018E0,3.411714142E0
1.370725117E1,7.164983641E-1,4.109233711E0,1.509632237E0,4.436007336E0
1.371718717E1,7.274116074E-1,5.008416780E0,1.794336675E0,5.369637827E0
1.372712317E1,7.466145214E-1,5.707145602E0,1.890899203E0,6.058419262E0
1.373705917E1,6.227138489E-1,6.254541466E0,1.770411769E0,6.530039764E0
1.374699617E1,3.285106087E-1,6.621825546E0,1.482420026E0,6.793678084E0
1.375693217E1,6.193546236E-2,6.792112253E0,1.243216281E0,6.905230741E0
1.376686817E1,-1.411807296E-1,6.865587196E0,1.086078207E0,6.952394222E0
1.377680517E1,-2.895573351E-1,6.988029061E0,9.838408113E-1,7.062884421E0
1.378674117E1,-3.554840337E-1,7.066157218E0,8.365893562E-1,7.124382673E0
1.379667825E1,-3.555520807E-1,6.937492161E0,8.223667350E-1,6.995105561E0
1.380661425E1,-2.592313358E-1,6.618855160E0,8.213537049E-1,6.674658525E0
1.381655125E1,-1.765062444E-2,6.125347821E0,8.069708700E-1,6.178300693E0
1.382648725E1,3.246938387E-1,5.284250407E0,8.026297510E-1,5.354712221E0
1.383642325E1,7.169475764E-1,4.256574774E0,7.474098158E-1,4.380760673E0
1.384636025E1,1.183334507E0,2.989621722E0,7.760053316E-1,3.307612865E0
1.385629625E1,1.629574271E0,1.753322112E0,9.436986525E-1,2.572978406E0
1.386623225E1,2.072051791E0,4.328804845E-1,1.160463123E0,2.414013007E0
1.387616825E1,2.547902586E0,-9.085152251E-1,1.640391035E0,3.163556582E0
1.388610525E1,2.671401335E0,-2.144534753E0,2.299453808E0,4.125881993E0
1.389604125E1,2.745734357E0,-3.323390731E0,2.728709604E0,5.101944650E0
1.390597725E1,2.823614299E0,-3.944206574E0,3.315889338E0,5.875771040E0
1.391591425E1,3.470309626E0,-4.089449657E0,3.753002330E0,6.546118994E0
1.392585025E1,4.452829551E0,-3.750578951E0,4.074014761E0,7.105781432E0
1.393578625E1,5.174279484E0,-2.822895384E0,4.030643916E0,7.140587994E0
1.394572225E1,5.238249777E0,-2.039211196E0,3.635422424E0,6.694321417E0
1.395565925E1,4.890758522E0,-1.770933926E0,3.106719232E0,6.058665717E0
1.396559525E1,4.443797942E0,-2.384002792E0,2.314092166E0,5.548498177E0
1.397553125E1,3.746193832E0,-3.942318508E0,9.724232456E-1,5.524622196E0
1.398546825E1,2.564716254E0,-5.346135584E0,-1.003280464E0,6.013776420E0
1.399540425E1,6.251147157E-1,-6.278721457E0,-3.214669650E0,7.081469656E0
1.400534025E1,-1.876901261E0,-7.091120735E0,-5.147436086E0,8.961185741E0
1.401527625E1,-4.965541486E0,-6.887356380E0,-6.627889109E0,1.077131348E1
1.402521325E1,-7.682071924E0,-5.561784990E0,-7.969649684E0,1.238801830E1
1.403514925E1,-8.690773927E0,-5.532718481E0,-7.750721744E0,1.289240912E1
1.404508525E1,-7.214271868E0,-6.321385666E0,-5.055652342E0,1.084275131E1
1.405502225E1,-2.672970436E0,-6.021806495E0,-2.539915874E0,7.061026629E0
1.406495825E1,-7.821598184E-1,-4.922840440E0,-1.006136098E0,5.085119647E0
1.407489425E1,-1.171796050E0,-4.098484774E0,-1.963812958E0,4.693319163E0
1.408483025E1,-2.718760566E0,-3.212776614E0,-2.122995365E0,4.713883951E0
1.409476725E1,-3.725803129E0,-2.507456810E0,-2.025457960E0,4.926604161E0
1.410470325E1,-4.224192017E0,-1.942640921E0,-1.908289114E0,5.025855080E0
1.411463925E1,-4.313778962E0,-1.336998603E0,-1.908140595E0,4.902780306E0
1.412457625E1,-3.961055034E0,-6.599489182E-1,-1.557294792E0,4.307047321E0
1.413451225E1,-3.333822456E0,8.728548110E-2,-1.082630251E0,3.506291372E0
1.414444825E1,-2.578202857E0,8.787593293E-1,-5.725530709E-1,2.783372945E0
1.415438425E1,-1.846299565E0,1.855412158E0,-6.093851209E-2,2.618222654E0
1.416432125E1,-1.321899631E0,2.821710153E0,2.501663974E-1,3.126027839E0
1.417425725E1,-9.824955862E-1,3.669085137E0,3.178968890E-1,3.811632426E0
1.418419325E1,-5.408922985E-1,4.450822202E0,4.358502853E-1,4.504702901E0
1.419413025E1,-1.015356573E-1,5.315152942E0,9.609397526E-1,5.402274104E0
1.420406625E1,3.390584010E-1,5.976627983E0,1.577099311E0,6.190499567E0
1.421400225E1,5.887386024E-1,6.563520620E0,2.030257355E0,6.895531959E0
1.422393825E1,7.103005347E-1,6.970696744E0,2.166801827E0,7.334178216E0
1.423387525E1,6.641910732E-1,7.159095202E0,2.076232842E0,7.483617889E0
1.424381125E1,4.589511725E-1,7.390502855E0,1.879097475E0,7.639448667E0
1.425374725E1,3.453301245E-1,7.483667711E0,1.628188773E0,7.666520331E0
1.426368425E1,3.201027511E-1,7.345287505E0,1.488834129E0,7.501489277E0
1.427362025E1,5.186303405E-1,7.118046579E0,1.552169415E0,7.303752078E0
1.428355625E1,1.036639853E0,6.449774149E0,1.648072523E0,6.737236214E0
1.429349225E1,1.918222657E0,5.347333093E0,1.817878296E0,5.964749020E0
1.430342925E1,3.030964167E0,4.072890342E0,1.924808668E0,5.429555040E0
1.431336525E1,4.389401295E0,2.626263462E0,1.769026564E0,5.412352398E0
1.432330125E1,5.416330823E0,1.090726744E0,1.421135651E0,5.704905867E0
1.433323825E1,6.243720024E0,-5.089030588E-1,7.954300743E-1,6.314723356E0
1.434317425E1,6.724448274E0,-2.241066436E0,-2.300613311E-1,7.091791845E0
1.435311025E1,6.628559200E0,-3.770403351E0,-1.021621718E0,7.693987875E0
1.436304625E1,5.732544152E0,-4.728124065E0,-1.427362351E0,7.566675817E0
1.437298325E1,4.504810714E0,-4.121990581E0,-1.184641067E0,6.219927682E0
1.438291925E1,3.672178022E0,-2.924515314E0,-5.926538980E-1,4.731693131E0
1.439285525E1,2.965280055E0,-2.284662107E0,-9.646809474E-2,3.744579127E0
1.440279225E1,2.469042650E0,-1.837301577E0,4.364420235E-1,3.108428917E0
1.441272825E1,2.397971498E0,-1.557467870E0,1.094498344E0,3.061682560E0
1.442266425E1,2.625360944E0,-1.372900507E0,1.922277993E0,3.531646722E0
1.443260025E1,2.564798700E0,-1.631625182E0,2.283643375E0,3.802028429E0
1.444253725E1,1.826311151E0,-2.777525668E0,1.589884833E0,3.684805970E0
1.445247325E1,6.199729666E-1,-4.042485990E0,5.476455402E-1,4.126254366E0
1.446240925E1,-1.559656482E0,-4.988003565E0,-7.898185015E-2,5.226752916E0
1.447234625E1,-5.202040894E0,-6.153889250E0,-1.125413597E0,8.136223825E0
1.448228225E1,-9.409414857E0,-7.358524432E0,-2.917529061E0,1.229621672E1
1.449221825E1,-1.329006044E1,-8.482897809E0,-5.395375571E0,1.666419333E1
1.450215425E1,-1.536966128E1,-8.743066746E0,-7.715237331E0,1.929229357E1
1.451209125E1,-1.113989190E1,-6.716283807E0,-6.840299742E0,1.469678061E1
1.452202725E1,-5.546137841E0,-4.690140553E0,-3.898811131E0,8.243651593E0
1.453196325E1,-2.897944689E0,-3.964222178E0,-1.771330659E0,5.220225397E0
1.454190025E1,-8.937467663E-1,-3.257201419E0,-1.291512674E0,3.616095872E0
1.455183625E1,9.116225816E-2,-2.769386929E0,-1.162166563E0,3.004737200E0
1.456177225E1,6.011955837E-1,-2.569593417E0,-1.146835164E0,2.877408096E0
1.457170825E1,7.614586285E-1,-2.430610363E0,-9.712856698E-1,2.726001070E0
1.458164525E1,7.902207899E-1,-1.772267091E0,-6.795807986E-1,2.056017899E0
1.459158125E1,8.160692107E-1,-6.302503252E-1,-4.109168807E-1,1.109971672E0
1.460151725E1,9.116798113E-1,6.175700533E-1,-4.003325433E-2,1.101887249E0
1.461145425E1,9.348746194E-1,1.893117344E0,4.069887212E-1,2.150238045E0
1.462139025E1,9.379783946E-1,3.066613764E0,8.534885404E-1,3.318488532E0
1.463132625E1,9.557531261E-1,4.195280752E0,1.211539575E0,4.470086438E0
1.464126225E1,8.950148812E-1,5.202078316E0,1.403828770E0,5.461996490E0
1.465119925E1,7.631601682E-1,6.000254243E0,1.559556495E0,6.246413442E0
1.466113525E1,5.879472549E-1,6.463378866E0,1.516183311E0,6.664815089E0
1.467107125E1,3.253750393E-1,6.634325139E0,1.334228193E0,6.774976298E0
1.468100825E1,1.001519868E-1,6.792108160E0,1.224064311E0,6.902253047E0
1.469094425E1,-8.754670545E-3,7.121271318E0,1.093853981E0,7.204796900E0
1.470088025E1,-4.742530435E-2,7.246967159E0,1.026441286E0,7.319451064E0
1.471081625E1,-1.191077098E-1,7.183343021E0,9.783866747E-1,7.250644391E0
1.472075325E1,-1.009883579E-1,7.004120598E0,9.716658850E-1,7.071919018E0
1.473068925E1,-4.943089932E-3,6.699699934E0,1.040282522E0,6.779984614E0
1.474062525E1,2.263615054E-1,6.195572881E0,1.110564008E0,6.298389895E0
1.475056225E1,5.538928516E-1,5.369319209E0,1.063542746E0,5.501591518E0
1.476049825E1,8.154747681E-1,4.177619237E0,9.911629871E-1,4.370343882E0
1.477043425E1,1.099241898E0,2.850240473E0,1.134843694E0,3.258845457E0
1.478037025E1,1.167331993E0,1.511504661E0,1.252557793E0,2.283902657E0
1.479030725E1,1.124213748E0,2.710172760E-1,1.402835913E0,1.818036169E0
1.480024317E1,9.920566609E-1,-1.075202386E0,1.730549400E0,2.266062182E0
1.481017917E1,8.035537572E-1,-2.458368266E0,2.101573798E0,3.332549414E0
1.482011617E1,7.857618494E-1,-3.710928397E0,2.366596508E0,4.470927229E0
1.483005217E1,1.191720584E0,-4.502384119E0,2.724517735E0,5.395799995E0
1.483998817E1,2.305780203E0,-4.651347200E0,3.136897881E0,6.065622923E0
1.484992417E1,3.716514535E0,-4.170176316E0,3.574473387E0,6.631720048E0
1.485986117E1,4.723427582E0,-3.698894243E0,3.788751914E0,7.095578046E0
1.486979717E1,5.346065417E0,-3.323815239E0,3.653251754E0,7.278352256E0
1.487973317E1,5.329202047E0,-2.638014026E0,3.375054097E0,6.837433921E0
1.488967017E1,4.840051467E0,-2.300908595E0,2.825607322E0,6.058410296E0
1.489960617E1,4.104515300E0,-3.357644890E0,1.933535053E0,5.644411648E0
1.490954217E1,3.129145643E0,-4.652158209E0,2.856306374E-1,5.613885759E0
1.491947817E1,1.543155055E0,-5.533284491E0,-1.475303088E0,5.930858621E0
1.492941517E1,-9.431281105E-1,-6.199402807E0,-3.281960577E0,7.077665648E0
1.493935117E1,-4.022703982E0,-6.686617958E0,-4.801717122E0,9.162395667E0
1.494928717E1,-7.256443157E0,-6.406041069E0,-6.521642277E0,1.167155291E1
1.495922317E1,-1.011586785E1,-6.392997100E0,-8.915029265E0,1.492243080E1
1.496916017E1,-1.099859861E1,-6.466557997E0,-9.658692770E0,1.600237138E1
1.497909617E1,-6.460389769E0,-6.153662962E0,-6.820237945E0,1.123030941E1
1.498903217E1,-1.012547716E0,-4.554186357E0,-2.200735266E0,5.158401105E0
1.499896917E1,1.028782693E-1,-3.547112803E0,-8.149719076E-1,3.640985085E0
1.500890517E1,-2.942698803E-1,-2.284034700E0,-2.011694638E0,3.057830046E0
1.501884117E1,-1.716546049E0,-1.419253725E0,-1.680807721E0,2.790327233E0
1.502877717E1,-2.288066648E0,-5.898191679E-1,-1.501443650E0,2.799547940E0
1.503871417E1,-2.667450079E0,2.333764100E-1,-1.271271222E0,2.964099356E0
1.504865017E1,-2.669480525E0,9.067230535E-1,-9.480510275E-1,2.974403086E0
1.505858617E1,-2.235648114E0,1.585491235E0,-5.158526208E-1,2.788908186E0
1.506852317E1,-1.656949181E0,2.090688329E0,-2.693198293E-2,2.667805017E0
1.507845917E1,-1.038894978E0,2.679290106E0,3.259834421E-1,2.892086350E0
1.508839517E1,-5.755545564E-1,3.393529252E0,6.609789053E-1,3.504881874E0
1.509833117E1,-2.292907046E-1,4.090114485E0,8.011863658E-1,4.174147856E0
1.510826817E1,9.882664226E-2,4.816710552E0,8.927245268E-1,4.899737169E0
1.511820417E1,3.844099903E-1,5.558232222E0,1.361276243E0,5.735397936E0
1.512814017E1,6.257533778E-1,6.112551189E0,1.872845047E0,6.423581392E0
1.513807717E1,7.072245339E-1,6.686510954E0,2.196881951E0,7.073604851E0
1.514801317E1,7.723063830E-1,7.069236361E0,2.279811841E0,7.467804357E0
1.515794917E1,7.001676024E-1,7.240219472E0,2.257784503E0,7.616337935E0
1.516788517E1,6.093216786E-1,7.218845560E0,2.124148436E0,7.549504004E0
1.517782217E1,4.668165547E-1,7.155505596E0,1.990745380E0,7.441924832E0
1.518775817E1,5.807153454E-1,6.824794096E0,1.862919399E0,7.098275385E0
1.519769417E1,9.612245851E-1,6.319929124E0,1.781328228E0,6.636157555E0
1.520763117E1,1.634941577E0,5.356343653E0,1.861426604E0,5.901555751E0
1.521756717E1,2.473155874E0,4.240876755E0,1.880976185E0,5.257338398E0
1.522750317E1,3.537947585E0,2.977205744E0,1.751536957E0,4.944563567E0
1.523743917E1,4.581094658E0,1.615055927E0,1.537379175E0,5.094935588E0
1.524737617E1,5.143989152E0,2.638731480E-1,1.172460001E0,5.282510378E0
1.525731217E1,5.593630096E0,-1.106608951E0,4.776964688E-1,5.722016684E0
1.526724817E1,5.610927329E0,-2.257236911E0,-2.697121775E-1,6.053954792E0
1.527718517E1,5.155770707E0,-2.893294106E0,-7.200021619E-1,5.955797636E0
1.528712117E1,4.397842335E0,-3.228609120E0,-5.922226658E-1,5.487773842E0
1.529705717E1,3.584937272E0,-2.769941245E0,-4.142916012E-1,4.549284260E0
1.530699317E1,3.011052352E0,-2.313871872E0,-3.118600774E-1,3.810209445E0
1.531693017E1,2.568286857E0,-2.121578000E0,2.712435633E-2,3.331355027E0
1.532686617E1,2.425759513E0,-2.008303399E0,3.893006015E-1,3.173191882E0
1.533680217E1,2.501930022E0,-2.058337439E0,8.825433549E-1,3.357869804E0
1.534673817E1,2.798444082E0,-2.199215575E0,1.366690764E0,3.812568960E0
1.535667517E1,2.759022447E0,-2.823570153E0,1.135169968E0,4.107720064E0
1.536661117E1,2.031544620E0,-3.963711716E0,-1.785037994E-2,4.454043415E0
1.537654717E1,6.863262197E-1,-5.020144540E0,-6.935958436E-1,5.114095235E0
1.538648417E1,-1.953517327E0,-6.143038571E0,-9.249011698E-1,6.512188189E0
1.539642017E1,-5.707446148E0,-7.298129711E0,-1.572434403E0,9.397350093E0
1.540635617E1,-1.031951351E1,-8.628347299E0,-3.527395992E0,1.390623093E1
1.541629317E1,-1.476343600E1,-9.760256567E0,-6.494004242E0,1.885188961E1
1.542622917E1,-1.635467621E1,-1.057418665E1,-8.351580455E0,2.119051093E1
1.543616517E1,-9.890564107E0,-8.134061694E0,-5.902600479E0,1.410059965E1
1.544610117E1,-4.526739526E0,-5.003144930E0,-2.254242844E0,7.113679831E0
1.545603817E1,-2.475113522E0,-3.734941158E0,-8.062852840E-1,4.552589193E0
1.546597417E1,-1.317656599E0,-2.441246449E0,-8.456933248E-1,2.900189707E0
1.547591017E1,-9.060091084E-1,-1.639138854E0,-8.458207941E-1,2.055004015E0
1.548584617E1,-4.894636249E-1,-1.094177186E0,-7.206199202E-1,1.398603383E0
1.549578317E1,-1.681085829E-1,-5.963867605E-1,-5.108628993E-1,8.030682197E-1
1.550571917E1,3.711615153E-2,1.862653935E-1,-2.443677136E-1,3.094963408E-1
1.551565517E1,3.022750291E-1,1.194997217E0,7.959229946E-2,1.235201796E0
1.552559217E1,5.680608013E-1,2.349718813E0,4.056365526E-1,2.451206353E0
1.553552817E1,7.627149028E-1,3.398162001E0,7.699917626E-1,3.566808984E0
1.554546417E1,9.202471516E-1,4.298497556E0,1.127203137E0,4.538118881E0
1.555540017E1,1.064415735E0,5.125058207E0,1.428221015E0,5.425773470E0
1.556533717E1,1.138300421E0,5.921241987E0,1.729026785E0,6.272668343E0
1.557527317E1,1.136092074E0,6.543285745E0,1.883187017E0,6.903020128E0
1.558520917E1,9.803228340E-1,6.843052027E0,1.817768369E0,7.147914083E0
1.559514617E1,7.746295548E-1,7.047637916E0,1.675833202E0,7.285442201E0
1.560508217E1,6.021324538E-1,7.261313303E0,1.485342903E0,7.436092920E0
1.561501817E1,4.418316945E-1,7.403783051E0,1.398286779E0,7.547610524E0
1.562495417E1,3.271882609E-1,7.345377553E0,1.340144405E0,7.473794925E0
1.563489117E1,3.720152088E-1,7.182087623E0,1.277170770E0,7.304241447E0
1.564482717E1,4.728422566E-1,6.930074968E0,1.221543868E0,7.052778763E0
1.565476317E1,7.880837057E-1,6.372125464E0,1.199754073E0,6.531804398E0
1.566470017E1,1.133608031E0,5.536292299E0,1.246390442E0,5.786975784E0
1.567463617E1,1.451124266E0,4.411993766E0,1.115189302E0,4.776515237E0
1.568457217E1,1.815541749E0,3.105917578E0,9.312205482E-1,3.716192615E0
1.569450817E1,2.090992969E0,1.807933937E0,1.000664712E0,2.939763014E0
1.570444517E1,2.363461670E0,5.151987559E-1,1.009355721E0,2.621102782E0
1.571438117E1,2.367570947E0,-7.736152822E-1,1.167221189E0,2.750686841E0
1.572431717E1,2.164935981E0,-2.181440624E0,1.352039981E0,3.357624623E0
1.573425417E1,1.753964575E0,-3.468366596E0,1.519687840E0,4.173177411E0
1.574419017E1,1.540034542E0,-4.338962043E0,1.760727903E0,4.929346889E0
1.575412617E1,2.184456618E0,-4.645723933E0,2.252445703E0,5.606078239E0
1.576406217E1,3.581259373E0,-4.115680266E0,2.751678636E0,6.110317346E0
1.577399917E1,5.130083304E0,-3.501561824E0,3.380564514E0,7.071556147E0
1.578393517E1,5.882348063E0,-2.945658846E0,3.777356275E0,7.585996652E0
1.579387062E1,5.500109729E0,-2.264823673E0,3.551356420E0,6.927681122E0
1.580380762E1,4.765257393E0,-2.093282154E0,3.312668692E0,6.169544721E0
1.581374362E1,4.253927447E0,-3.062628887E0,2.931104249E0,6.005577953E0
1.582367962E1,3.389088292E0,-4.304611990E0,2.306404978E0,5.944334089E0
1.583361563E1,1.985429969E0,-5.331947315E0,5.713644782E-1,5.718221025E0
1.584355262E1,-1.008948755E-1,-6.544770938E0,-1.826428095E0,6.795590187E0
1.585348862E1,-2.546433473E0,-7.464247938E0,-3.786972606E0,8.748741752E0
1.586342463E1,-5.324618999E0,-7.340154819E0,-5.526535635E0,1.061941789E1
1.587336063E1,-8.376229393E0,-6.395189806E0,-7.459517541E0,1.291139316E1
1.588329762E1,-1.036741975E1,-6.251724277E0,-7.854191734E0,1.443106983E1
1.589323362E1,-9.573766640E0,-6.196242971E0,-6.730146385E0,1.324180143E1
1.590316963E1,-5.913285681E0,-5.759216226E0,-4.614261235E0,9.456581086E0
1.591310662E1,-2.789541404E0,-4.536758730E0,-2.562956243E0,5.910369339E0
1.592304262E1,-1.891765175E0,-3.432621397E0,-2.156750464E0,4.473615730E0
1.593297863E1,-2.014067584E0,-2.301372864E0,-2.072287141E0,3.694206179E0
1.594291463E1,-2.645160493E0,-1.396295802E0,-1.900288954E0,3.543672404E0
1.595285162E1,-2.973946798E0,-7.211055315E-1,-1.930390128E0,3.618115364E0
1.596278763E1,-3.011076618E0,-2.395569170E-1,-1.638190582E0,3.436224425E0
1.597272363E1,-2.545793788E0,1.752895850E-1,-1.174948869E0,2.809323280E0
1.598266062E1,-1.787255843E0,5.733984321E-1,-7.602055702E-1,2.025088077E0
1.599259663E1,-9.343397453E-1,1.292421770E0,-3.124132240E-1,1.625099017E0
1.600253263E1,-2.827449634E-1,2.135514838E0,2.279538484E-1,2.166178962E0
1.601246862E1,1.078537200E-1,2.968233776E0,4.565438738E-1,3.005075121E0
1.602240563E1,5.179030931E-1,3.879124725E0,8.328282809E-1,4.001179225E0
1.603234163E1,9.697402507E-1,4.788093694E0,1.524698904E0,5.117708874E0
1.604227762E1,1.294715487E0,5.524567462E0,2.037517258E0,6.028980877E0
1.605221463E1,1.374503083E0,6.076615956E0,2.320440342E0,6.648230109E0
1.606215063E1,1.281086796E0,6.451724195E0,2.396173479E0,7.000541109E0
1.607208662E1,1.202019504E0,6.615260292E0,2.262028412E0,7.093891186E0
1.608202262E1,1.027259019E0,6.771216643E0,2.033853685E0,7.144312195E0
1.609195963E1,8.356530708E-1,6.890352493E0,1.757320146E0,7.159849693E0
1.610189563E1,9.523266578E-1,6.785511332E0,1.737573806E0,7.068893324E0
1.611183162E1,1.191164148E0,6.604359328E0,1.830979860E0,6.956214589E0
1.612176762E1,1.614830663E0,6.275708971E0,1.781150765E0,6.720468675E0
1.613170463E1,2.153183516E0,5.566344064E0,1.685117850E0,6.201613311E0
1.614164062E1,2.852044339E0,4.675035440E0,1.603879267E0,5.706359784E0
1.615157662E1,3.706858150E0,3.558658715E0,1.390067056E0,5.323263625E0
1.616151363E1,4.509372126E0,2.320918937E0,9.418753445E-1,5.158316668E0
1.617144962E1,5.115849427E0,1.063686295E0,2.802254713E-1,5.232768885E0
1.618138562E1,5.377259143E0,-1.338883746E-1,-4.498707390E-1,5.397705593E0
1.619132162E1,5.417150602E0,-9.335915941E-1,-1.128750895E0,5.611701390E0
1.620125862E1,5.466927364E0,-1.385768475E0,-1.427926315E0,5.817785028E0
1.621119462E1,5.430941260E0,-1.633909104E0,-9.519243693E-1,5.750734035E0
1.622113062E1,5.283898405E0,-1.712435457E0,-1.244977462E-1,5.555854321E0
1.623106762E1,5.078320827E0,-1.653455177E0,2.209597014E-1,5.345285740E0
1.624100362E1,4.773894608E0,-1.564322560E0,7.184681448E-1,5.074777953E0
1.625093962E1,4.648166900E0,-1.732505440E0,1.194063124E0,5.102236507E0
1.626087562E1,4.576157562E0,-1.924133899E0,1.751825809E0,5.264257114E0
1.627081262E1,4.506113181E0,-2.387160873E0,2.109462569E0,5.518462228E0
1.628074862E1,4.324022699E0,-3.362436683E0,1.888632091E0,5.793969617E0
1.629068462E1,3.797247334E0,-4.437068381E0,1.342516182E0,5.992412939E0
1.630062162E1,2.592177703E0,-5.210595955E0,1.240762789E0,5.950561969E0
1.631055762E1,-4.512502433E-1,-6.465999588E0,6.846250454E-1,6.517782514E0
1.632049362E1,-6.245594641E0,-8.003972256E0,-8.426491182E-1,1.018730003E1
1.633042962E1,-1.441407655E1,-1.059567049E1,-5.203500359E0,1.863089509E1
1.634036662E1,-2.319653599E1,-1.312471054E1,-1.067318235E1,2.870982637E1
1.635030262E1,-2.574095188E1,-1.396812813E1,-1.199607747E1,3.164823979E1
1.636023862E1,-1.554015440E1,-8.911084734E0,-6.557154171E0,1.907616577E1
1.637017562E1,-7.097150384E0,-5.804648507E0,-1.945243517E0,9.372697595E0
1.638011162E1,-3.966012888E0,-4.198448188E0,-7.519004774E-1,5.824223531E0
1.639004762E1,-1.816385795E0,-2.413499656E0,-2.994943857E-2,3.020783825E0
1.639998363E1,-1.031796020E-1,-1.743974753E0,4.241175547E-1,1.797767969E0
1.640992062E1,7.327830789E-1,-9.784204423E-1,5.538719478E-1,1.342032689E0
1.641985662E1,1.274320252E0,-1.010591823E-1,5.551711991E-1,1.393671455E0
1.642979263E1,1.704656906E0,9.329981017E-1,6.354765666E-1,2.044546671E0
1.643972863E1,2.017015750E0,2.100347344E0,8.176056397E-1,3.024614105E0
1.644966562E1,2.223317213E0,3.228215017E0,9.228718936E-1,4.026934834E0
1.645960162E1,2.397802952E0,4.276955829E0,1.154514019E0,5.037331911E0
1.646953763E1,2.446955962E0,5.171799095E0,1.436051314E0,5.898927253E0
1.647947462E1,2.422369005E0,5.844934069E0,1.582876068E0,6.522010619E0
1.648941062E1,2.276194754E0,6.322562710E0,1.669744058E0,6.924153883E0
1.649934663E1,2.028495881E0,6.663830189E0,1.643034562E0,7.156884161E0
1.650928263E1,1.674670630E0,6.851271458E0,1.473978693E0,7.205349089E0
1.651921962E1,1.365369440E0,7.074957277E0,1.293027249E0,7.320599268E0
1.652915563E1,1.117181009E0,7.271672814E0,1.153098701E0,7.446808413E0
