"Time (s)","Linear Acceleration x (m/s^2)","Linear Acceleration y (m/s^2)","Linear Acceleration z (m/s^2)","Absolute acceleration (m/s^2)"
7.104999968E-4,2.322251079E0,-4.049226660E0,-2.205811234E0,5.162818011E0
1.064950001E-2,2.542498882E0,-4.690776730E0,-1.796452344E0,5.629824856E0
2.058750001E-2,2.829906780E0,-5.440331304E0,-1.333338831E0,6.275617063E0
3.052549998E-2,2.939735616E0,-6.052212017E0,-8.182289529E-1,6.777965359E0
4.046449999E-2,2.447411461E0,-6.657435674E0,-3.685008860E-1,7.102609768E0
5.040250000E-2,1.117332160E0,-7.269377198E0,-2.679603517E-1,7.359624905E0
6.034150001E-2,1.560134931E0,-6.763346876E0,-8.877236956E-1,6.997494932E0
7.027950001E-2,1.781123430E0,-7.151420732E0,-8.751790792E-1,7.421668112E0
8.021749998E-2,1.474804174E0,-7.033133313E0,-8.172220623E-1,7.232417538E0
9.015649999E-2,8.234679119E-1,-6.682043681E0,-9.623750979E-1,6.801027348E0
1.000945000E-1,-3.249487773E-2,-6.607215693E0,-1.492071440E0,6.773671996E0
1.100335000E-1,-8.458438906E-1,-6.473030280E0,-2.192489523E0,6.886405681E0
1.199715000E-1,-1.510956339E0,-6.237664647E0,-2.664187333E0,6.949053421E0
1.299105000E-1,-2.189418126E0,-5.916249635E0,-2.788249462E0,6.897093339E0
1.398485000E-1,-2.945780468E0,-5.489160233E0,-2.522508713E0,6.720978562E0
1.497865000E-1,-3.728769129E0,-5.208810216E0,-1.459048120E0,6.569950114E0
1.597255000E-1,-4.724364890E0,-4.810344104E0,4.481516576E-1,6.757209033E0
1.696635000E-1,-5.884951243E0,-3.504245988E0,3.017672569E0,7.484566709E0
1.796025000E-1,-6.708064376E0,-1.019580163E0,6.602585868E0,9.467407856E0
1.895405000E-1,-7.365079161E0,1.764383875E0,9.224071569E0,1.193486229E1
1.994795000E-1,-8.676440063E0,3.850013777E0,1.141823340E1,1.484854444E1
2.094175000E-1,-9.802082870E0,6.192237044E0,1.453371059E1,1.859175547E1
2.193555000E-1,-1.203839377E1,8.163025292E0,1.710296779E1,2.245149023E1
2.292945000E-1,-1.395248917E1,8.941906577E0,1.824760703E1,2.464964116E1
2.392325000E-1,-1.384160841E1,9.254626195E0,1.811649141E1,2.460580197E1
2.491715000E-1,-1.219697025E1,9.847380080E0,1.668131805E1,2.289111945E1
2.591095000E-1,-8.203931243E0,1.046177510E1,1.548031867E1,2.040572204E1
2.690475000E-1,-5.350105258E0,1.172751719E1,1.338147113E1,1.858015219E1
2.789865000E-1,-3.259397634E0,1.187560962E1,7.041304797E0,1.418568821E1
2.889245000E-1,1.689357666E0,1.133718280E1,5.075742205E0,1.253590053E1
2.988635000E-1,1.172593610E1,1.073093880E1,5.997783794E0,1.698893862E1
3.088015000E-1,2.016119021E1,1.251745497E1,4.197632502E0,2.409938565E1
3.187405000E-1,2.272850614E1,1.248214013E1,4.684205629E0,2.635015362E1
3.286785000E-1,2.193212706E1,9.447913510E0,5.905508299E0,2.459992470E1
3.386165000E-1,1.888137855E1,8.213569794E0,2.854886085E0,2.078748564E1
3.485555000E-1,1.524627217E1,2.373203277E0,1.549156052E0,1.550744316E1
3.584935000E-1,1.358758899E1,5.505903150E0,1.536842401E0,1.474107963E1
3.684325000E-1,1.260863879E1,6.373297831E0,2.072242410E0,1.427903660E1
3.783705000E-1,8.834320732E0,4.646337306E0,1.004841379E0,1.003211739E1
3.883095000E-1,7.205325043E0,3.517714757E0,3.762525398E-1,8.026991470E0
3.982475000E-1,3.196324303E0,5.457416868E-1,-1.573890944E0,3.604366206E0
4.081848750E-1,-3.221344539E0,-4.115144076E0,-3.225951853E0,6.141517464E0
4.181238750E-1,-8.646166103E0,-1.554953099E1,-1.123587745E1,2.104255318E1
4.280618750E-1,-1.204715056E1,-2.119371962E1,-1.584050949E1,2.907282802E1
4.380008750E-1,-1.335028092E1,-1.596153048E1,-1.111946640E1,2.359328271E1
4.479388750E-1,-1.153993617E1,-1.293397086E1,-5.124177032E0,1.807525710E1
4.578768750E-1,-8.652851225E0,-8.937887785E0,-3.000545490E0,1.279691157E1
4.678158750E-1,-4.984037983E0,-3.942964041E0,-2.245704740E0,6.740236630E0
4.777538750E-1,-2.873971982E0,-3.720016140E-1,2.824526757E-1,2.911679870E0
4.876928750E-1,-1.024345644E0,-1.734581201E0,2.464589411E0,3.183120624E0
4.976308750E-1,-9.280373240E-1,-1.567885269E0,8.335858462E0,8.532646353E0
5.075698750E-1,7.159588122E-1,-4.176709995E0,1.355316994E1,1.420020841E1
5.175078750E-1,3.397431684E0,-5.184929602E0,1.220502187E1,1.368899543E1
5.274458750E-1,3.055459031E0,-2.091123362E0,1.004307119E1,1.070382668E1
5.373848750E-1,3.125884650E0,1.626004838E0,6.379456118E0,7.287832802E0
5.473228750E-1,2.980791841E0,3.642467442E0,1.696804680E0,5.003182506E0
5.572618750E-1,4.684143063E0,2.842711598E0,-3.005047261E0,6.249201110E0
5.671998750E-1,4.168227439E0,3.834978247E0,-4.178624373E0,7.038613485E0
5.771388750E-1,2.726915678E0,5.229963103E0,-3.948079185E0,7.097599060E0
5.870768750E-1,5.386714091E0,-1.114351249E0,-9.680277182E0,1.113401247E1
5.970148750E-1,1.450241044E0,1.127739034E0,-7.162365550E0,7.394219004E0
6.069538750E-1,-4.916162335E0,5.275935667E0,1.380188477E-1,7.212710895E0
6.168918750E-1,-5.860742016E0,2.554126947E0,3.482343196E0,7.280012059E0
6.268308750E-1,-3.358509693E0,2.468791512E0,3.798660021E0,5.639533389E0
6.367688750E-1,-3.238000333E0,3.108103852E0,2.208847986E0,5.002395939E0
6.467078750E-1,-3.343270972E0,2.900141196E0,-2.927000673E-1,4.435533009E0
6.566458750E-1,-6.785953966E-1,4.183364711E0,-2.395082535E0,4.868002913E0
6.665838750E-1,1.572467147E0,5.613267385E0,-2.499567162E0,6.342653992E0
6.765228750E-1,2.485202892E0,4.938939579E0,-3.232076519E0,6.404348226E0
6.864608750E-1,1.972454120E0,4.579407152E0,-3.251521434E0,5.952641158E0
6.963998750E-1,4.600387546E-1,4.464131050E0,-4.365306673E0,6.260671213E0
7.063378750E-1,-7.032773709E-1,1.509399664E0,-4.472546947E0,4.772479712E0
7.162758750E-1,-1.224703996E0,-1.450477272E0,-2.210853288E0,2.914044690E0
7.262148750E-1,-3.011181575E-1,-2.686870437E0,1.292794822E0,2.996875597E0
7.361528750E-1,1.623959190E0,-4.369510821E0,4.604955976E0,6.552517669E0
7.460918750E-1,3.617926678E0,-5.075224142E0,5.961388385E0,8.624699706E0
7.560298750E-1,4.105641766E0,-4.234310331E0,5.487257549E0,8.055785108E0
7.659688750E-1,3.717105396E0,-4.657456956E0,3.852758460E0,7.095951351E0
7.759068750E-1,4.313976306E0,-8.119692162E0,6.557117919E0,1.129316553E1
7.858448750E-1,4.492322230E-1,-1.364144887E1,9.315174698E0,1.652463060E1
7.957838750E-1,-6.907154467E0,-1.774468567E1,8.884896809E0,2.101247353E1
8.057218750E-1,-6.709454843E0,-1.939035645E1,5.574777503E0,2.126219302E1
8.156608750E-1,-5.398512602E0,-2.332567526E1,5.661040306E-2,2.394231128E1
8.255988750E-1,5.955699044E-1,-1.492164177E1,-4.037995913E0,1.546982571E1
8.355368750E-1,-1.066993773E0,-4.892476434E0,-2.623773133E0,5.653228000E0
8.454758750E-1,-1.583805337E0,-2.885367036E-1,2.477034040E-1,1.628818514E0
8.554138750E-1,2.958638495E-1,4.141606236E-1,2.353282106E-1,5.607528923E-1
8.653528750E-1,2.563615516E0,-8.843048286E-1,-2.486201012E0,3.679037241E0
8.752908750E-1,2.993876740E0,-1.709372100E0,-3.639296205E0,5.012955992E0
8.852298750E-1,3.066595930E0,-8.493642068E-1,-2.679308817E0,4.159822820E0
8.951678750E-1,1.391849141E0,1.052763112E0,-1.899701747E0,2.579616430E0
9.051058750E-1,1.187397152E0,1.279680102E0,-1.181237988E0,2.107798934E0
9.150448750E-1,1.315990435E0,1.738943809E0,-1.008431788E0,2.402642517E0
9.249828750E-1,1.939528010E-1,2.396981857E0,-1.411507334E0,2.788457040E0
9.349218750E-1,-3.755356711E-1,2.898395802E0,-1.975642022E0,3.527731093E0
9.448598750E-1,-8.981855339E-1,2.894951792E0,-2.149459863E0,3.715866094E0
9.547988750E-1,-1.338390825E0,3.247547082E0,-2.977755382E0,4.604875586E0
9.647368750E-1,-1.415704757E0,2.846940304E0,-3.214456519E0,4.521285190E0
9.746748750E-1,-1.831709593E0,2.305592215E0,-2.555821470E0,3.899120270E0
9.846138750E-1,-2.628207369E0,1.246005988E0,-1.629486855E0,3.333951455E0
9.945518750E-1,-4.521976969E0,-1.808824468E0,9.488593320E-1,4.961900412E0
1.004490875E0,-5.762974817E0,-5.569374091E0,3.352554889E0,8.687314360E0
1.014428875E0,-5.419808162E0,-7.291225319E0,2.706830492E0,9.479621220E0
1.024366875E0,-3.687395693E0,-5.479919293E0,2.014868653E0,6.905512156E0
1.034305875E0,-6.781318586E-1,-3.262565655E0,-9.053826889E-2,3.333525859E0
1.044243875E0,6.640239890E-1,4.847715998E-1,1.694855218E0,1.883737129E0
1.054182875E0,7.954537556E-2,2.435534304E0,1.304275246E0,2.763926325E0
1.064120875E0,2.192736275E0,5.413073924E0,-6.875214052E0,9.020977216E0
1.074059875E0,4.893632136E0,9.460761012E0,-1.051254530E1,1.496553518E1
1.083997875E0,5.409537528E0,1.047332685E1,-1.029241985E1,1.564888424E1
1.093935875E0,6.908121012E0,8.233550899E0,-7.896641935E0,1.333680810E1
1.103874875E0,5.407843004E0,3.785628916E0,-2.028220770E0,6.905753525E0
1.113812875E0,1.719069854E0,-7.395888725E0,6.166695821E0,9.781743635E0
1.123751875E0,5.640094118E-1,-1.683427770E1,9.442401339E0,1.930984090E1
1.133689875E0,-9.041112484E-1,-1.762385413E1,6.436300410E0,1.878413199E1
1.143628875E0,-2.150424946E0,-9.486284108E0,2.731851897E0,1.010331274E1
1.153566875E0,1.112237627E0,-1.154107638E0,2.392091246E0,2.879433539E0
1.163504875E0,1.533276330E0,3.299829376E0,3.168944131E0,4.825144259E0
1.173443875E0,1.633330522E-1,4.729464832E0,4.366225855E0,6.438823146E0
1.183381875E0,8.720587125E-1,4.265957801E0,3.813404360E0,5.787999237E0
1.193320875E0,1.931268672E0,4.124856886E0,3.319879478E0,5.636119477E0
1.203258875E0,2.109399711E0,4.862370290E0,2.670510512E0,5.934967428E0
1.213197875E0,2.174569269E0,5.956836328E0,1.978520021E0,6.642830121E0
1.223135875E0,2.007448682E0,7.333304806E0,6.722472207E-1,7.632766597E0
1.233073875E0,2.001076387E0,8.600742593E0,-6.208354309E-2,8.830681414E0
1.243012875E0,1.513654390E0,9.309006470E0,2.302469802E-1,9.434074663E0
1.252950875E0,1.933289908E0,9.416287090E0,1.458441764E-3,9.612703811E0
1.262889875E0,2.012986873E0,9.251547636E0,-5.815323476E-1,9.485854188E0
1.272827875E0,1.177632887E0,9.124998686E0,-7.690038756E-2,9.200996354E0
1.282765875E0,-1.143273040E0,8.124559384E0,-2.857431963E-2,8.204654467E0
1.292704875E0,-2.892451230E0,4.330384762E0,-3.236453744E0,6.131324420E0
1.302642875E0,3.195797177E-1,-2.934164974E0,-1.065041241E0,3.137796701E0
1.312581875E0,2.842850469E-1,-6.109876673E0,6.887375383E-1,6.155141781E0
1.322519875E0,-7.663249737E-1,-8.120804302E0,2.326724052E-1,8.160199319E0
1.332458875E0,-1.367337466E0,-7.223631506E0,-1.674875282E0,7.540269961E0
1.342396875E0,-3.076576543E0,-3.884400083E0,-5.376042337E0,7.311341767E0
1.352334875E0,-3.892528297E0,-2.026384744E0,-6.303192639E0,7.680380792E0
1.362273875E0,-3.916658294E0,-3.354602584E0,-7.210795698E0,8.865051906E0
1.372211875E0,-2.482459964E0,-4.704543999E0,-6.790234712E0,8.625695865E0
1.382150875E0,-1.125295483E0,-4.562612779E0,-6.379720412E0,7.923670730E0
1.392088875E0,-3.238517811E0,-5.664655640E0,-5.106651757E0,8.285783807E0
1.402026875E0,-3.009925593E0,-4.238253694E0,-2.769444816E0,5.890014519E0
1.411967042E0,-2.315274327E0,-2.038783765E0,-1.332419064E0,3.360427802E0
1.421905042E0,-9.515042469E-1,-6.900112081E-1,-9.813488010E-1,1.531182964E0
1.431844042E0,-4.212885256E-1,1.045991451E0,-1.226434772E0,1.666050536E0
1.441782042E0,1.827753367E-1,2.367631758E0,-2.024325647E0,3.120413641E0
1.451721042E0,7.190951125E-1,3.151881371E0,-2.674472001E0,4.195742418E0
1.461659042E0,1.063167062E0,3.685075518E0,-2.639930159E0,4.656107496E0
1.471597042E0,1.263147977E0,4.097078519E0,-2.683756210E0,5.058076966E0
1.481536042E0,1.764658986E0,4.278066216E0,-2.573949008E0,5.295383402E0
1.491474042E0,2.234863710E0,4.429909635E0,-2.462068384E0,5.538997735E0
1.501413042E0,2.122796852E0,4.490987896E0,-2.273114294E0,5.462809474E0
1.511351042E0,1.934841613E0,4.762318583E0,-2.234615349E0,5.605068787E0
1.521290042E0,1.746111326E0,4.450324604E0,-1.256478058E0,4.942977944E0
1.531228042E0,1.383219089E0,3.161971911E0,1.781675845E-2,3.451330012E0
1.541166042E0,1.837642762E0,1.848320655E0,1.658601019E0,3.089365227E0
1.551105042E0,3.157570712E0,5.803227049E-1,3.216253953E0,4.544371984E0
1.561043042E0,3.653252047E0,2.299481875E-1,2.690562076E0,4.542934181E0
1.570982042E0,2.136326432E0,8.069859266E-1,1.182662516E0,2.571732399E0
1.580920042E0,7.457769808E-1,1.352995416E0,1.182741161E0,1.945676374E0
1.590858042E0,-1.151061531E0,1.710266140E0,1.282245276E0,2.427777968E0
1.600797042E0,-2.385506111E0,9.501468158E-1,2.442656505E0,3.544007503E0
1.610735042E0,-1.383507064E0,8.717555344E-2,3.644414857E0,3.899160298E0
1.620674042E0,-2.487590603E0,-1.520562583E0,4.113403360E0,5.041855292E0
1.630612042E0,-4.212027177E0,-3.125269523E0,3.901537102E0,6.536855077E0
1.640551042E0,-4.664998110E0,-4.626951447E0,4.276182827E0,7.839427698E0
1.650489042E0,-5.163642229E0,-5.506900685E0,6.030463298E0,9.662072439E0
1.660427042E0,-4.704399865E0,-5.005659817E0,5.955165778E0,9.091314962E0
1.670366042E0,-2.905812410E0,-3.703801226E0,4.465439949E0,6.488608728E0
1.680304042E0,-2.112676491E0,-2.664174469E0,3.413625840E0,4.818098062E0
1.690243042E0,-1.499961673E0,-2.099681346E0,3.412057325E0,4.277929635E0
1.700181042E0,-9.572125912E-1,-1.930303881E0,3.756139361E0,4.330232317E0
1.710120042E0,-1.333771233E0,-2.156751341E0,3.735846307E0,4.515204278E0
1.720058042E0,-2.101784882E0,-2.345469641E0,3.375682673E0,4.616704565E0
1.729996042E0,-2.356407150E0,-3.562674583E0,2.617730912E0,5.009772447E0
1.739935042E0,-2.694084439E0,-5.778407958E0,1.089790020E0,6.468054713E0
1.749873042E0,-2.884853358E0,-6.833429849E0,-6.774817944E-1,7.448296716E0
1.759812042E0,-2.295054655E0,-7.205491104E0,-1.746579980E0,7.761244716E0
1.769750042E0,-3.292818564E-1,-6.083699273E0,-9.646446946E-1,6.168497610E0
1.779688042E0,1.675714942E0,-3.672995170E0,-2.109233943E-1,4.042697462E0
1.789627042E0,3.090680904E0,-1.992082638E0,4.004234675E-1,3.698789077E0
1.799565042E0,2.917152500E0,-1.472896666E0,6.281052741E-1,3.327719870E0
1.809504042E0,2.431644736E0,-1.165376977E0,1.575263286E-1,2.701076482E0
1.819442042E0,1.795439899E0,-6.886371124E-1,-3.224341822E-1,1.949817762E0
1.829381042E0,1.477078887E0,-4.360818350E-1,-1.195983642E0,1.949950327E0
1.839319042E0,1.109109586E0,-3.218722647E-1,-1.780764703E0,2.122462899E0
1.849257042E0,7.964709518E-1,-5.057367915E-1,-2.403297873E0,2.581855214E0
1.859196042E0,1.369656472E0,-8.959840572E-1,-3.318458605E0,3.700123484E0
1.869134042E0,1.672256899E0,-1.139519420E0,-4.155447472E0,4.621979158E0
1.879073042E0,2.315828936E0,-1.014788954E0,-4.053975184E0,4.777821164E0
1.889011042E0,3.190387917E0,-1.127805693E0,-3.516784465E0,4.880398930E0
1.898949042E0,3.540518314E0,-1.309504411E0,-2.663472219E0,4.619973592E0
1.908888042E0,2.761193225E0,-1.605376446E0,-9.080665974E-1,3.320543104E0
1.918826042E0,2.571767997E0,-8.629315013E-1,-3.470918906E-1,2.734796918E0
1.928765042E0,2.280261638E0,1.008760475E0,-8.694317047E-1,2.640663236E0
1.938703042E0,1.800974142E0,2.817430576E0,-1.330097573E0,3.598691771E0
1.948642042E0,3.563673288E-2,3.510398721E0,-8.788025987E-1,3.618903586E0
1.958580042E0,-8.576578975E-1,3.701899127E0,-7.801787817E-1,3.879215532E0
1.968518042E0,-2.886583257E0,2.887449229E0,-4.200615605E-1,4.104409539E0
1.978457042E0,-3.720210267E0,1.822460175E-2,-1.394794822E-1,3.722868665E0
1.988395042E0,-3.976464786E0,-3.400031941E0,-8.080782596E-1,5.293909696E0
1.998334042E0,-3.928901487E0,-6.051112740E0,-2.117956234E0,7.519173551E0
2.008272042E0,-2.413954716E0,-6.338047891E0,-2.691241815E0,7.296630109E0
2.018210042E0,-1.384116929E0,-3.958676094E0,-3.101213493E0,5.215785772E0
2.028149042E0,-1.005917120E0,-1.133157064E0,-3.699389502E0,3.997673933E0
2.038087042E0,-4.690422973E-1,2.007919822E0,-2.315223603E0,3.100323050E0
2.048026042E0,-3.989368129E-1,4.937056775E0,-2.258662462E0,5.443825521E0
2.057964042E0,-8.144703627E-2,7.633552898E0,-1.465452722E0,7.773372186E0
2.067903042E0,7.287063271E-2,8.986181109E0,-6.542168927E-1,9.010258642E0
2.077841042E0,7.424686262E-1,9.102177588E0,2.570728362E-1,9.136026650E0
2.087779042E0,1.075396222E0,8.352768025E0,1.586536864E0,8.569848886E0
2.097718042E0,7.770326874E-1,6.391007878E0,3.212039280E0,7.194856345E0
2.107656042E0,-7.958361635E-1,3.676826266E0,3.985698416E0,5.480711492E0
2.117595042E0,-1.196300269E0,1.413587188E0,4.111008925E0,4.508853231E0
2.127533042E0,-8.231680959E-1,-3.718794072E-1,4.282851577E0,4.377067241E0
2.137472042E0,2.203230858E-2,-9.004840744E-1,4.820964986E0,4.904391949E0
2.147410042E0,7.219168326E-1,-6.265279877E-1,5.437829865E0,5.521204115E0
2.157348042E0,1.046918235E0,-9.108909488E-2,5.717980492E0,5.813745430E0
2.167287042E0,1.181025003E0,5.493225217E-1,4.995856376E0,5.162863180E0
2.177225042E0,1.032017190E0,1.693599236E0,4.092082658E0,4.547359490E0
2.187164042E0,6.102759442E-1,3.348845415E0,2.903876982E0,4.474338372E0
2.197102042E0,5.375965154E-1,5.457391725E0,1.150157844E0,5.603123907E0
2.207040042E0,-9.282922626E-2,7.011696836E0,2.611974621E-1,7.017174210E0
2.216979042E0,-4.929413295E-1,7.139234549E0,-5.832913728E-1,7.179964480E0
2.226917042E0,-9.727869424E-1,5.584968030E0,1.056516439E0,5.766663621E0
2.236856042E0,-2.033447303E0,-5.566072753E0,2.869918692E0,6.584262079E0
2.246794042E0,7.703931155E0,-1.634006051E1,1.729593672E0,1.814771686E1
2.256733042E0,1.163157608E1,-1.148717090E1,-3.253099013E0,1.666827257E1
2.266671042E0,5.280131629E0,-7.784373640E0,-3.302102773E0,9.968959108E0
2.276609042E0,1.292957083E0,-5.096388724E0,-1.805780407E0,5.559294822E0
2.286548042E0,-2.488734318E0,-2.544477287E0,-2.732220272E0,4.487002428E0
2.296486042E0,-3.650799724E0,-1.528782599E0,-4.148346906E0,5.733611158E0
2.306425042E0,-3.241255185E0,-2.932830639E0,-5.511993610E0,7.034863488E0
2.316363042E0,-1.815107593E0,-3.475423601E0,-6.385865836E0,7.493494996E0
2.326301042E0,-9.314860117E-1,-3.175940909E0,-6.089945853E0,6.931212545E0
2.336240042E0,-8.052013564E-1,-2.758146826E0,-4.388018428E0,5.245038500E0
2.346178042E0,-1.081890870E0,-1.939534881E0,-3.383142843E0,4.046966630E0
2.356117042E0,-1.121043972E0,-2.226643694E0,-2.732152444E0,3.698559004E0
2.366055042E0,-1.141589919E0,-1.741725329E0,-2.702077875E0,3.411460026E0
2.375994042E0,-3.235603559E-1,-3.567047131E-1,-1.553005275E0,1.625962773E0
2.385932042E0,-7.263922915E-2,1.351518994E0,9.752015501E-2,1.356978345E0
2.395870042E0,-1.119724256E0,1.646105812E0,2.844997859E-1,2.011066105E0
2.405807917E0,-1.271062184E0,1.844638079E0,-1.104772925E0,2.497761384E0
2.415745917E0,-1.413250389E0,2.897347396E0,-2.392602146E0,4.014529066E0
2.425684917E0,-1.508197476E0,3.927663631E0,-2.865853708E0,5.090610838E0
2.435622917E0,-1.150904022E0,4.668590055E0,-2.135917565E0,5.261412074E0
2.445560917E0,-9.440052659E-1,5.161983958E0,-1.292769972E0,5.404486889E0
2.455499917E0,-8.377242277E-1,5.532332565E0,-1.405637606E0,5.769254940E0
2.465437917E0,3.852151519E-1,5.590135800E0,-4.748383498E-1,5.623475832E0
2.475376917E0,1.182108200E0,4.783926383E0,8.961068487E-1,5.008626450E0
2.485314917E0,5.804922011E-1,3.213716846E0,1.277199421E0,3.506591725E0
2.495253917E0,7.985771920E-1,2.080624686E0,2.413572162E0,3.285126359E0
2.505191917E0,2.485092380E0,2.411779405E0,3.367727536E0,4.830523036E0
2.515129917E0,3.670538463E0,2.492213119E0,3.297036746E0,5.527606185E0
2.525068917E0,3.290620596E0,2.898063680E0,2.158325411E0,4.887261562E0
2.535006917E0,2.235628233E0,3.682212721E0,1.491703943E0,4.558717448E0
2.544945917E0,-1.621990579E-1,3.995645700E0,2.083830422E0,4.509306190E0
2.554883917E0,-1.857173924E0,4.750982001E0,3.053605756E0,5.945202526E0
2.564821917E0,-1.982131262E0,4.737236951E0,3.548327270E0,6.241865481E0
2.574760917E0,-3.411047218E0,2.734652714E0,3.390417364E0,5.532494780E0
2.584698917E0,-3.870282858E0,-1.014781938E0,2.172024560E0,4.552643460E0
2.594637917E0,-1.881904723E0,-3.726236992E0,8.014334106E-1,4.250729705E0
2.604575917E0,-2.333044893E0,-5.488483710E0,-3.310292968E-1,5.972950050E0
2.614514917E0,-3.986927793E0,-6.395013220E0,-8.071116418E-2,7.536464795E0
2.624452917E0,-4.727736395E0,-6.521604270E0,2.101231151E0,8.324541190E0
2.634390917E0,-4.954065741E0,-6.822259328E0,5.657520282E0,1.015349819E1
2.644329917E0,-3.952192993E0,-6.354910092E0,6.800787182E0,1.011214211E1
2.654267917E0,-2.264068505E0,-5.727261778E0,5.434156060E0,8.213256708E0
2.664206917E0,-7.869539505E-1,-5.124663520E0,4.636788803E0,6.955665541E0
2.674144917E0,-5.866651797E-1,-5.359450278E0,4.382217405E0,6.947784734E0
2.684082917E0,-1.153647462E0,-6.626742470E0,3.480317135E0,7.573455327E0
2.694021917E0,-1.066149727E0,-8.072058404E0,1.956899942E0,8.374022898E0
2.703959917E0,-4.026596894E-2,-7.979420382E0,9.290097159E-1,8.033419573E0
2.713898917E0,1.061930376E0,-6.778373635E0,1.588223639E-1,6.862890776E0
2.723836917E0,1.489903293E0,-4.984753683E0,1.725162506E-2,5.202679955E0
2.733775917E0,1.526010142E0,-3.770903288E0,4.201195210E-1,4.089611103E0
2.743713917E0,1.659497690E0,-3.014752470E0,7.843738666E-1,3.529576093E0
2.753651917E0,1.976340179E0,-2.099592469E0,4.593932220E-1,2.919803276E0
2.763590917E0,2.769880726E0,-1.224830881E0,-6.382399607E-1,3.095125227E0
2.773528917E0,2.990839112E0,-9.019061172E-1,-2.007496191E0,3.713299637E0
2.783467917E0,3.080635387E0,-6.894814503E-1,-2.745439365E0,4.183674983E0
2.793405917E0,3.909424996E0,-5.162337130E-1,-2.858890551E0,4.870662812E0
2.803343917E0,4.074705902E0,-2.072147977E-1,-2.852208645E0,4.978077974E0
2.813282917E0,3.773830404E0,1.296561599E-1,-3.145459667E0,4.914521661E0
2.823220917E0,4.568911107E0,5.467953551E-1,-2.499397008E0,5.236498761E0
2.833159917E0,4.077946429E0,6.953929853E-1,-1.871608653E0,4.540499690E0
2.843097917E0,3.179648921E0,4.693536615E-1,-1.570479094E0,3.577270566E0
2.853036917E0,2.851795247E0,2.270046991E-1,-1.166023679E0,3.089316831E0
2.862974917E0,2.358933294E0,5.219429344E-1,-6.615640654E-1,2.504926690E0
2.872912917E0,1.718826609E0,1.211928415E0,-3.663511571E-1,2.134794736E0
2.882851917E0,9.605956440E-1,1.711195262E0,-2.813794193E-1,1.982449897E0
2.892789917E0,5.770861249E-1,1.930749439E0,-4.924386151E-1,2.074443921E0
2.902728917E0,4.489371579E-1,1.550942377E0,-1.124963215E0,1.967869168E0
2.912666917E0,-4.963495984E-1,5.434355450E-1,-8.223730208E-1,1.103622445E0
2.922604917E0,-1.721483877E0,3.553586841E-1,4.206415312E-1,1.807408595E0
2.932543917E0,-3.042729350E0,1.375598413E-1,1.620378355E0,3.450036322E0
2.942481917E0,-4.258377471E0,-1.859863644E0,9.448938234E-1,4.741908455E0
2.952420917E0,-5.699712036E0,-4.478996426E0,-5.827742232E-1,7.272396584E0
2.962358917E0,-5.485628514E0,-6.591259811E0,-2.104097164E0,8.829725418E0
2.972297917E0,-3.730381791E0,-6.175925066E0,-2.896806529E0,7.774913942E0
2.982235917E0,-1.856683635E0,-2.920232813E0,-2.443978268E0,4.236515500E0
2.992173917E0,-8.804553142E-1,8.816946316E-1,-2.709938872E0,2.982675925E0
3.002112917E0,1.919605815E-1,3.642583217E0,-3.564743328E0,5.100260420E0
3.012050917E0,3.467840347E-1,5.672231877E0,-2.881126635E0,6.371449154E0
3.021989917E0,5.273809180E-1,6.775228418E0,-2.944515131E0,7.406214965E0
3.031927917E0,5.286674517E-1,7.311911014E0,-3.910309680E0,8.308673404E0
3.041865917E0,6.584970546E-1,7.263559218E0,-3.520823722E0,8.098710426E0
3.051804917E0,9.772278296E-1,7.010203457E0,-2.059908586E0,7.371645008E0
3.061742917E0,8.405255556E-1,6.633011270E0,-4.018346930E-1,6.698118604E0
3.071681917E0,6.763886574E-1,5.855246218E0,5.674477208E-1,5.921436212E0
3.081619917E0,7.811657917E-1,5.404425307E0,1.303157843E0,5.613933849E0
3.091558917E0,5.488178704E-1,5.182088440E0,2.279038839E0,5.687640960E0
3.101496917E0,4.351375097E-1,4.865490949E0,3.259696426E0,5.872645708E0
3.111434917E0,1.263852274E-1,4.240005519E0,3.617944804E0,5.575225972E0
3.121373917E0,1.771260493E-2,3.837546344E0,3.321805551E0,5.075575612E0
3.131311917E0,9.339658159E-1,3.900653003E0,2.295769916E0,4.621465731E0
3.141250917E0,2.268959117E0,4.359998571E0,8.678131954E-1,4.991078316E0
3.151188917E0,2.527902185E0,5.257577164E0,-1.132591785E0,5.942656917E0
3.161126917E0,1.625102613E0,5.925083023E0,-1.102860593E0,6.242104519E0
3.171065917E0,-1.199264515E0,4.729919745E0,2.882268012E-1,4.888092763E0
3.181003917E0,-7.301658506E0,-4.746933389E-1,6.300454388E0,9.655841558E0
3.190942917E0,-9.234987152E0,-9.123921629E0,1.459909298E1,1.953623427E1
3.200880917E0,6.758708280E0,-1.845741331E1,2.614997631E0,1.982913151E1
3.210819917E0,5.316958562E0,-1.542522152E1,-3.678834200E0,1.672546946E1
3.220757917E0,-3.687645954E0,-8.227568028E0,-2.626608155E0,9.390989231E0
3.230695917E0,-5.244292874E0,-3.421969525E0,-2.794624973E0,6.857288963E0
3.240634917E0,-5.640024244E0,-1.699480366E0,-2.584468149E0,6.432540913E0
3.250572917E0,-3.998508204E0,-7.194612944E-1,-3.601229369E0,5.429046452E0
3.260511917E0,-1.410547075E0,-2.316371557E0,-4.988777152E0,5.678302362E0
3.270449917E0,-7.005565153E-1,-3.923814409E0,-5.449274036E0,6.751421070E0
3.280387917E0,-1.218189175E0,-4.760615873E0,-5.432687239E0,7.325403675E0
3.290326917E0,-1.877037062E0,-4.662044097E0,-4.827717935E0,6.968843789E0
3.300264917E0,-1.892643135E0,-3.505909229E0,-3.901614286E0,5.576386966E0
3.310203917E0,-1.466411081E0,-1.125481424E0,-2.898799260E0,3.438038255E0
3.320141917E0,-1.828718888E-1,5.890023118E-1,-1.901542304E0,1.999057024E0
3.330079917E0,1.682021457E0,1.677222354E0,-3.324387681E-1,2.398496725E0
3.340018917E0,3.277471377E0,2.361886868E0,2.610166662E0,4.809708745E0
3.349956917E0,1.935226067E0,1.743965397E0,6.300423105E-1,2.680199349E0
3.359895917E0,3.376628899E-1,1.978203687E0,-3.122378075E0,3.711677639E0
3.369833917E0,5.597111966E-1,2.534800730E0,-4.945669724E0,5.585529552E0
3.379772917E0,1.100000793E0,3.504625765E0,-4.377591673E0,5.714517684E0
3.389710917E0,1.710182671E0,4.475813202E0,-3.088999537E0,5.700837370E0
3.399648917E0,2.832007100E0,4.724915698E0,-1.877697359E0,5.819865973E0
3.409588000E0,3.462348349E0,4.642058313E0,-1.316410265E0,5.938812799E0
3.419526000E0,2.552980308E0,3.179456255E0,-9.015304336E-1,4.176051683E0
3.429465000E0,2.257481178E0,1.758213893E0,7.490461591E-1,2.957804509E0
3.439403000E0,2.747015482E0,6.964589328E-1,2.071231572E0,3.510149474E0
3.449341000E0,3.832149948E0,6.374295366E-1,2.690867301E0,4.725722852E0
3.459280000E0,3.537345614E0,2.078169440E0,2.305107773E0,4.705860608E0
3.469218000E0,7.098844323E-1,3.933849401E0,2.773397534E0,4.865268841E0
3.479157000E0,-2.519495350E0,4.929115087E0,3.476215606E0,6.536674024E0
3.489095000E0,-4.293159341E0,4.184212557E0,3.069934398E0,6.735231923E0
3.499034000E0,-4.490819788E0,3.995999456E0,3.304212741E0,6.859540499E0
3.508972000E0,-3.314629848E0,3.850875072E0,3.493490620E0,6.166075459E0
3.518910000E0,-1.790230322E0,2.517326910E0,3.369580519E0,4.571206871E0
3.528849000E0,-3.024697414E-1,-8.620316148E-2,2.546233498E0,2.565584525E0
3.538787000E0,3.152026382E-1,-2.204592674E0,2.114572158E0,3.070992832E0
3.548726000E0,-3.772120678E-1,-2.715075066E0,2.080375010E0,3.441203531E0
3.558664000E0,-8.946286726E-1,-2.801252500E0,2.513014004E0,3.868154006E0
3.568602000E0,-1.358642072E0,-2.989625230E0,3.084565593E0,4.505364824E0
3.578541000E0,-1.273310438E0,-3.302499214E0,3.366604871E0,4.884859147E0
3.588479000E0,-1.670887773E0,-3.785818951E0,3.794930082E0,5.614782757E0
3.598418000E0,-1.861120795E0,-3.971037108E0,4.325621036E0,6.159862309E0
3.608356000E0,-1.297191344E0,-3.789796811E0,4.959391385E0,6.375015934E0
3.618295000E0,-6.584853601E-1,-3.501191695E0,5.565914294E0,6.608430084E0
3.628233000E0,-2.095826277E-1,-3.338239151E0,5.639428997E0,6.556746519E0
3.638171000E0,-7.576579383E-1,-4.256969461E0,5.130172766E0,6.709285145E0
3.648110000E0,-2.337642558E0,-5.733932866E0,4.084119920E0,7.417721642E0
3.658048000E0,-2.010948679E0,-8.422997178E0,2.157050426E0,8.924329812E0
3.667987000E0,-9.021514079E-1,-9.695231436E0,-8.000482053E-2,9.737442710E0
3.677925000E0,-9.407219812E-1,-8.364718564E0,-1.026927774E0,8.479861742E0
3.687863000E0,4.141404507E-1,-6.025941061E0,-1.395259968E0,6.199211915E0
3.697802000E0,2.022072715E0,-3.879135250E0,-1.202290449E0,4.536735685E0
3.707740000E0,1.789281611E0,-3.047783391E0,-1.474643229E0,3.829501917E0
3.717679000E0,1.105475176E0,-2.824899809E0,-2.868785794E0,4.175172599E0
3.727617000E0,1.738573095E0,-2.230362523E0,-4.398464771E0,5.229115196E0
3.737555000E0,2.257001268E0,-1.067476460E0,-4.746622317E0,5.363206516E0
3.747494000E0,2.745991634E0,2.076492459E-1,-4.332709615E0,5.133805691E0
3.757432000E0,3.801495336E0,1.288662010E0,-3.310346178E0,5.202923061E0
3.767371000E0,4.075706653E0,2.089113089E0,-2.696946651E0,5.315007005E0
3.777309000E0,3.760728841E0,2.598302076E0,-2.824473255E0,5.373258254E0
3.787248000E0,3.803567297E0,2.212116287E0,-2.882087917E0,5.259944240E0
3.797186000E0,4.253422833E0,1.527445341E0,-2.417311310E0,5.125240388E0
3.807124000E0,4.601887357E0,1.511902272E0,-1.430502598E0,5.050698309E0
3.817063000E0,4.265637374E0,2.141851466E0,-5.883515167E-1,4.809298017E0
3.827001000E0,2.770787629E0,2.579572275E0,-1.013595099E0,3.919034605E0
3.836940000E0,2.468184864E0,2.843519098E0,-1.198060427E0,3.951314486E0
3.846878000E0,2.213001555E0,3.036464936E0,-1.438248843E0,4.023189645E0
3.856816000E0,2.246710169E0,3.280898430E0,-7.462144987E-1,4.045841961E0
3.866755000E0,1.965307945E0,3.064133960E0,3.672918279E-1,3.658723211E0
3.876693000E0,1.516876206E0,2.081254431E0,1.166924296E0,2.827409723E0
3.886632000E0,-1.064047068E-3,1.479118688E0,1.639154788E0,2.207854534E0
3.896570000E0,-1.401633140E0,5.317949080E-1,2.404760993E0,2.833770759E0
3.906509000E0,-3.302790113E0,-6.607961798E-1,3.310693502E0,4.722898008E0
3.916447000E0,-3.832383837E0,-6.601553249E-1,3.323135208E0,5.115290660E0
3.926385000E0,-4.098538569E0,-7.171656775E-1,3.254255008E0,5.282283660E0
3.936324000E0,-4.305819732E0,-1.315387879E0,1.712562926E0,4.816970066E0
3.946262000E0,-3.289441797E0,-2.545832087E0,-8.218331035E-1,4.239940802E0
3.956201000E0,-1.655584441E0,-3.502641220E0,-2.411743737E0,4.563547218E0
3.966139000E0,-4.995178391E-1,-3.461150547E0,-2.161081789E0,4.110882591E0
3.976077000E0,2.232173114E-1,-1.339255044E0,-1.788880785E0,2.245779264E0
3.986016000E0,8.545009857E-1,2.436335957E-1,-2.039295981E0,2.224467883E0
3.995954000E0,1.571962532E-1,1.172775459E0,-2.719256995E0,2.965547427E0
4.005893000E0,-1.624151856E-2,2.582601133E0,-2.660970780E0,3.708214920E0
4.015831000E0,6.168917763E-1,3.496502813E0,-2.575037760E0,4.385989837E0
4.025770000E0,-5.671068281E-2,3.672927343E0,-2.030786967E0,4.197345241E0
4.035708000E0,3.078825089E-1,3.896968088E0,-1.769596229E0,4.290993210E0
4.045646000E0,1.011274924E0,4.274684186E0,-1.087330243E0,4.525250150E0
4.055585000E0,1.225774037E0,4.406639471E0,1.892199916E-1,4.577859502E0
4.065523000E0,6.704242051E-1,4.003244741E0,1.793023537E0,4.437383291E0
4.075462000E0,-3.772527060E-1,3.248963277E0,2.275095623E0,3.984236699E0
4.085400000E0,-8.711127792E-1,2.809768385E0,2.772591788E0,4.042388041E0
4.095338000E0,-1.191224594E0,2.516799492E0,3.165185541E0,4.215648849E0
4.105277000E0,-1.349149117E0,1.667633505E0,3.700460127E0,4.277219892E0
4.115215000E0,-6.136326845E-1,1.033088985E0,4.166162202E0,4.335980330E0
4.125154000E0,9.201558620E-2,2.671930801E0,2.767323446E0,3.847825376E0
4.135092000E0,5.306231260E-1,5.433770728E0,7.280822830E-1,5.507951438E0
4.145031000E0,7.171322022E-1,7.216123681E0,-1.112359249E0,7.336488443E0
4.154969000E0,-1.239679885E-1,7.528166192E0,-1.201625621E0,7.624471024E0
4.164907000E0,-1.219119905E0,4.227487800E0,7.443691467E0,8.646759457E0
4.174846000E0,-1.638544046E0,-1.404653929E1,2.396968525E1,2.783048515E1
4.184784000E0,6.160998294E0,-1.729287132E1,-6.419221278E0,1.944756284E1
4.194723000E0,8.918410710E0,-4.953735373E0,-1.568311531E1,1.870929313E1
4.204661000E0,-6.948334068E-1,-7.481267429E0,5.066296613E-1,7.530526504E0
4.214599000E0,-1.370796825E0,-3.183761560E0,1.127568149E0,3.645110635E0
4.224538000E0,-3.444087495E-1,1.278493702E-1,-1.933886032E0,1.968470988E0
4.234476000E0,-1.366021404E0,2.403094536E-1,-1.950597374E0,2.393447979E0
4.244415000E0,-1.818730528E0,1.081152513E0,-1.504838836E0,2.596384296E0
4.254353000E0,-1.523461487E0,1.435675630E0,-9.913867161E-1,2.316235531E0
4.264292000E0,-1.906680545E0,3.900759423E-1,-1.509744650E0,2.463111619E0
4.274230000E0,-1.323353979E0,-1.943496954E0,-3.611943222E0,4.309823663E0
4.284168000E0,-6.210484158E-1,-4.401558825E0,-4.477811780E0,6.309534021E0
4.294107000E0,-4.452602094E-1,-6.473553021E0,-3.897204316E0,7.569236874E0
4.304045000E0,-4.427918074E-1,-6.593985783E0,-3.545517683E0,7.499827247E0
4.313984000E0,-6.759653921E-1,-4.511815093E0,-2.983472790E0,5.451102139E0
4.323922000E0,3.716873261E-1,-2.426741261E0,-2.649894984E0,3.612363221E0
4.333860000E0,3.296879455E-1,-1.155101080E0,-1.105596213E0,1.632573316E0
4.343799000E0,4.034366108E-1,6.029274559E-1,2.519394194E0,2.621760805E0
4.353737000E0,-8.464166254E-1,4.964251006E-1,2.169431320E0,2.381027349E0
4.363676000E0,-2.962779201E0,-1.360518444E-1,-1.832427338E0,3.486310464E0
4.373614000E0,-2.979767409E0,5.098128855E-2,-3.572673322E0,4.652484021E0
4.383552000E0,-2.758161736E0,1.825250466E0,-3.849358012E0,5.075091381E0
4.393491000E0,-2.689092671E0,2.848970457E0,-3.155982901E0,5.030713680E0
4.403429000E0,-2.787624102E0,3.876687021E0,-2.299373409E0,5.299685695E0
4.413368667E0,-2.616995917E0,4.710668373E0,-1.419982288E0,5.572738451E0
4.423306667E0,-1.988393922E0,5.394100878E0,-5.816181555E-1,5.778262226E0
4.433245667E0,-1.738708458E0,5.455422383E0,-5.801630759E-1,5.755113350E0
4.443183667E0,-1.313512385E0,5.665841455E0,-1.118649830E0,5.922706444E0
4.453121667E0,-3.103491569E-1,5.929454402E0,-1.396581731E0,6.099605449E0
4.463060667E0,1.143879104E-1,5.782022122E0,-1.240297205E0,5.914659886E0
4.472998667E0,8.590393022E-1,5.264225448E0,-7.716029629E-1,5.389377443E0
4.482937667E0,1.508060944E0,4.028910509E0,-2.418499026E-1,4.308695751E0
4.492875667E0,2.236841823E0,2.244679431E0,1.678364316E-1,3.173360388E0
4.502813667E0,4.193841167E0,1.104553655E0,8.596494591E-1,4.421237350E0
4.512752667E0,4.563743631E0,1.596680467E0,7.995684412E-1,4.900658541E0
4.522690667E0,3.197346396E0,3.331652262E0,1.181861155E0,4.766521432E0
4.532629667E0,-4.985220948E-2,5.635743497E0,3.074193802E0,6.419872081E0
4.542567667E0,-2.440804984E0,4.098111722E0,3.105135806E0,5.691565428E0
4.552506667E0,-2.801209815E0,2.417339523E0,2.071015956E0,4.240213897E0
4.562444667E0,-3.073703513E0,2.867649972E-1,1.201682339E0,3.312691941E0
4.572382667E0,-7.315843266E-1,-2.397823271E0,1.083932572E0,2.731241821E0
4.582321667E0,-1.391891496E-1,-5.312356803E0,1.697730002E0,5.578780833E0
4.592259667E0,-1.383065892E0,-6.697614232E0,2.122404211E0,7.160691817E0
4.602198667E0,-5.810272944E-1,-6.917043863E0,3.664410581E0,7.849267063E0
4.612136667E0,-7.705566037E-1,-5.706388387E0,5.481972250E0,7.950386510E0
4.622074667E0,-2.598645308E0,-4.540499194E0,6.100714086E0,8.036653702E0
4.632013667E0,-2.223562796E0,-3.657585418E0,5.048891791E0,6.619174489E0
4.641951667E0,-9.587050930E-1,-2.923873290E0,4.304782144E0,5.291436457E0
4.651890667E0,-2.928992929E-1,-2.608977923E0,4.083681671E0,4.854792661E0
4.661828667E0,-7.782620645E-1,-2.829782234E0,3.504212952E0,4.570871661E0
4.671767667E0,-1.938841401E0,-4.008107285E0,2.609672572E0,5.160854670E0
4.681705667E0,-2.869834492E0,-6.727986424E0,1.355459433E0,7.439020205E0
4.691643667E0,-1.885167177E0,-1.036246482E1,4.625065720E-1,1.054269627E1
4.701582667E0,-1.266665955E0,-1.032527769E1,4.137609664E-1,1.041090775E1
4.711520667E0,-3.893888944E-1,-7.342620590E0,6.788360095E-1,7.384207417E0
4.721459667E0,7.233433340E-1,-4.819152349E0,5.856094649E-1,4.908196552E0
4.731397667E0,1.802122097E0,-3.204326802E0,-2.741081142E-1,3.686528118E0
4.741335667E0,1.632102461E0,-2.531209955E0,-1.038711375E0,3.185859947E0
4.751274667E0,1.644432046E0,-2.063369552E0,-2.106021775E0,3.375941110E0
4.761212667E0,2.237723583E0,-1.298528017E0,-3.015296553E0,3.973109003E0
4.771151667E0,2.321191125E0,-5.786872387E-1,-3.122158220E0,3.933278417E0
4.781089667E0,2.705646431E0,-2.600841522E-1,-2.988887604E0,4.040001916E0
4.791027667E0,3.695221899E0,-2.021090090E-1,-2.263472089E0,4.338066255E0
4.800966667E0,3.480113360E0,1.537665689E-1,-1.571223152E0,3.821462462E0
4.810904667E0,2.693014106E0,9.906282592E-1,-1.444554627E0,3.212539088E0
4.820843667E0,2.068806294E0,1.222542865E0,-1.594991791E0,2.884193016E0
4.830781667E0,1.640881617E0,1.054655271E0,-1.398659831E0,2.400216562E0
4.840720667E0,1.457001010E0,1.046363919E0,-1.373845417E0,2.259464677E0
4.850658667E0,1.139947509E0,1.322478797E0,-1.637459241E0,2.393679858E0
4.860596667E0,1.099903364E0,1.643128994E0,-1.595591716E0,2.540782010E0
4.870535667E0,7.390303172E-1,1.634337121E0,-1.052314192E0,2.079564568E0
4.880473667E0,-8.919211194E-2,1.438411542E0,9.212726802E-3,1.441203619E0
4.890412667E0,-2.655110262E-1,1.523365154E0,4.745718630E-1,1.617515363E0
4.900350667E0,-3.885661912E-1,1.924295282E0,6.725759804E-1,2.075151674E0
4.910288667E0,-1.043962906E0,1.838615447E0,1.272814740E0,2.467878172E0
4.920227667E0,-1.442262518E0,1.727997821E0,1.952617002E0,2.979733344E0
4.930165667E0,-1.537196158E0,1.502842011E0,1.738103564E0,2.764509023E0
4.940104667E0,-1.693744539E0,1.963619562E0,1.071970119E0,2.806010029E0
4.950042667E0,-1.520225930E0,2.677733577E0,7.925362142E-1,3.179537331E0
4.959981667E0,-1.544504885E0,2.898418021E0,6.951006246E-1,3.357005696E0
4.969919667E0,-2.211812378E0,2.874568983E0,5.738434418E-1,3.672132504E0
4.979857667E0,-2.505201247E0,2.142997520E0,-7.893086243E-1,3.389908518E0
4.989796667E0,-2.967726822E0,1.232545697E0,-1.692530365E0,3.631973351E0
4.999734667E0,-2.487468688E0,1.358004141E0,-1.593943970E0,3.251512433E0
5.009673667E0,-1.457514542E0,3.829359072E-1,-2.164075563E0,2.637083918E0
5.019611667E0,-8.489923239E-1,-7.260370731E-1,-1.990065349E0,2.282165176E0
5.029549667E0,1.702842222E-1,-6.308642828E-1,-9.721341008E-1,1.171337342E0
5.039488667E0,3.614332102E-1,1.675361770E-1,-9.301516771E-1,1.011871770E0
5.049426667E0,5.176784138E-1,3.444056797E-1,-2.256482620E0,2.340581130E0
5.059365667E0,1.040308104E0,2.149623585E-1,-4.621193109E0,4.741716516E0
5.069303667E0,1.688466696E0,1.020380062E0,-3.868500334E0,4.342509653E0
5.079241667E0,1.686665023E0,1.687846745E0,-2.867965722E0,3.730803254E0
5.089180667E0,1.471694917E0,2.881296204E0,-1.364281712E0,3.511270188E0
5.099118667E0,1.249218594E0,4.112460204E0,-9.546784810E-1,4.402759025E0
5.109057667E0,9.840432711E-1,4.745015502E0,-8.048869224E-1,4.912367681E0
5.118995667E0,8.533618020E-1,4.654129305E0,-7.647354081E-2,4.732334959E0
5.128934667E0,6.357591332E-1,3.907262696E0,1.102980023E0,4.109435044E0
5.138872667E0,1.199135292E-1,2.707567826E0,2.133775876E0,3.449391581E0
5.148810667E0,-3.468995172E-1,1.830719951E0,2.980221738E0,3.514768331E0
5.158749667E0,-6.126845585E-1,1.275694640E0,3.408539055E0,3.690652743E0
5.168687667E0,-4.545221990E-1,4.762054288E-1,3.838661408E0,3.894699404E0
5.178626667E0,8.794164102E-1,3.527999425E-1,4.553160755E0,4.650711116E0
5.188564667E0,2.245816714E0,8.470387691E-1,3.077103084E0,3.902528768E0
5.198502667E0,2.648331438E0,2.539373252E0,3.558764550E-1,3.686288645E0
5.208441667E0,1.438266239E0,3.422177685E0,-1.858239287E-1,3.716778231E0
5.218379667E0,-2.284103990E0,6.611774182E-1,5.298268522E0,5.807403546E0
5.228318667E0,-3.906069864E0,-6.230159161E0,1.245871385E1,1.446692143E1
5.238256667E0,4.575109741E0,-1.071544485E1,-4.088308865E-1,1.165845317E1
5.248194667E0,6.318166773E0,-8.170043120E0,-9.263623890E0,1.387384458E1
5.258133667E0,-1.200124640E0,-7.329425763E0,-1.936790782E-1,7.429555354E0
5.268071667E0,-2.747868883E0,-5.419247414E0,2.416350174E0,6.538942888E0
5.278010667E0,-1.077191171E0,-1.234379969E0,-3.324566022E-1,1.671694385E0
5.287948667E0,-5.013224360E-1,1.081463585E0,-4.090215057E-2,1.192711472E0
5.297886667E0,-8.658092085E-1,1.583907809E0,-4.778733471E-1,1.867284785E0
5.307825667E0,-4.740595007E-1,5.954734254E-1,-1.871655139E0,2.020498446E0
5.317763667E0,3.117951733E-1,-3.140024972E-1,-3.273305236E0,3.303080527E0
5.327702667E0,3.636760560E-1,-1.873784695E0,-4.157874359E0,4.575068146E0
5.337640667E0,4.062350151E-1,-2.432051117E0,-4.235669224E0,4.901101234E0
5.347579667E0,-6.748142946E-1,-2.973730159E0,-4.390598220E0,5.345633556E0
5.357517667E0,-7.962057075E-1,-2.722357188E0,-3.637517189E0,4.612667720E0
5.367455667E0,-8.673096040E-1,-2.556966355E0,-2.476280626E0,3.663641444E0
5.377394667E0,-1.695724991E0,-4.013450471E0,-1.174990969E0,4.512634675E0
5.387332667E0,-1.152955444E0,-4.208845707E0,6.419564509E-1,4.410872536E0
5.397271667E0,-4.351790249E-2,-1.768379277E0,3.849383447E0,4.236367784E0
5.407209667E0,-5.870363317E-1,1.116362692E0,4.074533994E0,4.265290680E0
5.417147250E0,-1.309305021E0,3.043093924E0,1.078348481E0,3.483896628E0
5.427086250E0,-2.091917413E0,3.854603257E0,-1.505558628E0,4.636894598E0
5.437024250E0,-1.841002865E0,4.271070022E0,-2.759200494E0,5.407820083E0
5.446963250E0,-9.809498017E-1,4.588248142E0,-2.778360651E0,5.452849845E0
5.456901250E0,-7.781413195E-1,4.862105411E0,-2.335721748E0,5.449877890E0
5.466839250E0,-1.005551377E0,4.991930555E0,-1.812842820E0,5.405266259E0
5.476778250E0,-1.050080263E0,5.168015946E0,-1.315440065E0,5.435203763E0
5.486716250E0,-1.147153544E0,4.910870605E0,-1.017862689E0,5.144769752E0
5.496655250E0,-7.971746642E-1,4.843580262E0,-1.161172682E0,5.044212446E0
5.506593250E0,-2.848962271E-1,4.746170912E0,-9.044239283E-1,4.839967647E0
5.516531250E0,-4.306985959E-2,4.055103112E0,-1.329079427E-1,4.057509184E0
5.526470250E0,4.148453325E-3,3.530477475E0,4.289660659E-1,3.556444896E0
5.536408250E0,7.148763464E-1,2.922130820E0,1.136892558E0,3.215963527E0
5.546347250E0,1.341617319E0,2.871835994E0,1.567123084E0,3.535994028E0
5.556285250E0,1.099687236E0,3.011148246E0,1.310846639E0,3.463328556E0
5.566224250E0,4.065974694E-1,3.163436639E0,9.918225530E-1,3.340114496E0
5.576162250E0,-8.079390959E-1,2.679440964E0,1.361409852E0,3.112170665E0
5.586100250E0,-2.430913249E0,2.029667956E0,2.169580132E0,3.838745783E0
5.596039250E0,-2.454811989E0,4.950890118E-1,1.953801210E0,3.176248447E0
5.605977250E0,-1.498500161E0,-1.371650373E0,1.369232841E0,2.449842047E0
5.615916250E0,-5.990729348E-1,-3.120187708E0,1.166601091E0,3.384585325E0
5.625854250E0,-4.834399329E-1,-4.771911525E0,1.717621060E0,5.094612436E0
5.635792250E0,-8.867030641E-1,-5.983332401E0,3.282556993E0,6.881982952E0
5.645731250E0,-1.563352507E0,-6.414559293E0,5.327306964E0,8.483563018E0
5.655669250E0,-2.310342493E0,-6.219164057E0,5.752165654E0,8.780836732E0
5.665608250E0,-2.107312255E0,-5.390377371E0,3.970908469E0,7.018906412E0
5.675546250E0,-1.676727095E0,-4.540312668E0,2.699797753E0,5.542089929E0
5.685484250E0,-7.726574352E-1,-4.293145015E0,2.754388528E0,5.158948517E0
5.695423250E0,2.584150645E-1,-4.712437155E0,3.479209088E0,5.863338483E0
5.705361250E0,2.779891305E-1,-4.624691498E0,3.867800422E0,6.035306912E0
5.715300250E0,-9.788524785E-1,-4.808117484E0,3.025934977E0,5.764757445E0
5.725238250E0,-2.503247108E0,-6.090711839E0,1.557672230E0,6.766783546E0
5.735176250E0,-6.931594221E-1,-7.310952070E0,4.117869464E-1,7.355274206E0
5.745115250E0,4.991830129E-1,-7.395934918E0,5.092360577E-1,7.430232725E0
5.755053250E0,4.912090918E-1,-6.164701921E0,6.141003156E-1,6.214656494E0
5.764992250E0,7.441357405E-1,-4.651838366E0,-2.521582514E-2,4.711048081E0
5.774930250E0,2.005662796E0,-3.312092156E0,-6.444985279E-1,3.925304582E0
5.784868250E0,2.132268464E0,-2.272661281E0,-6.142722237E-1,3.176301067E0
5.794807250E0,1.712119999E0,-1.813309282E0,-7.796700740E-1,2.612916162E0
5.804745250E0,2.150223509E0,-9.130871630E-1,-9.167255929E-1,2.509496985E0
5.814684250E0,2.049823308E0,-1.759251773E-2,-8.428547940E-1,2.216413611E0
5.824622250E0,2.117610371E0,4.411654043E-1,-1.354980838E0,2.552425057E0
5.834561250E0,2.490926147E0,1.061711690E0,-2.578499019E0,3.739064318E0
5.844499250E0,3.510319199E0,7.749303210E-1,-3.524874673E0,5.034639942E0
5.854437250E0,4.491274409E0,3.862483549E-1,-3.963407661E0,6.002443994E0
5.864376250E0,4.623700395E0,2.154231191E-2,-4.184572453E0,6.236161963E0
5.874314250E0,4.611869139E0,4.335201699E-1,-3.349927150E0,5.716580149E0
5.884253250E0,4.316091828E0,1.401046665E0,-2.460265102E0,5.161829598E0
5.894191250E0,3.900085824E0,1.942343883E0,-2.178201120E0,4.871132241E0
5.904129250E0,3.085172242E0,2.342451893E0,-2.088383210E0,4.400762782E0
5.914068250E0,2.503344756E0,2.356661212E0,-1.841435266E0,3.900188569E0
5.924006250E0,1.641276450E0,2.113063284E0,-6.382117479E-1,2.750661568E0
5.933945250E0,4.129280305E-1,1.381918668E0,1.444611053E0,2.041350008E0
5.943883250E0,-5.584899326E-1,8.570690829E-1,2.438001390E0,2.643923069E0
5.953821250E0,-1.391642734E0,3.485683125E-1,2.629862423E0,2.995721237E0
5.963760250E0,-2.209930159E0,2.992973346E-1,2.500834254E0,3.350752478E0
5.973698250E0,-2.641712390E0,9.255961114E-1,2.062166780E0,3.476766363E0
5.983637250E0,-3.498745513E0,9.797869366E-1,1.578157657E0,3.961285675E0
5.993575250E0,-3.980683259E0,3.688821244E-1,3.331275702E-1,4.011594099E0
6.003513250E0,-3.971710999E0,-1.021091083E0,-7.732638645E-1,4.173134585E0
6.013452250E0,-3.984212639E0,-2.997877990E0,-2.409910051E0,5.537949914E0
6.023390250E0,-3.038452404E0,-3.272669059E0,-2.341482425E0,5.042330387E0
6.033329250E0,-1.092775024E0,-2.554095372E0,-2.452212317E0,3.705523670E0
6.043267250E0,9.103822410E-2,-8.189826590E-1,-2.332461340E0,2.473741389E0
6.053205250E0,9.456261872E-1,7.210037899E-1,-2.307745160E0,2.596101515E0
6.063144250E0,1.384546699E0,2.396940926E0,-3.521635900E0,4.479309632E0
6.073082250E0,1.069656887E0,4.568412048E0,-2.467473550E0,5.301224407E0
6.083021250E0,8.906243531E-1,6.443048682E0,-1.933332739E0,6.785562875E0
6.092959250E0,3.803410591E-1,7.833645203E0,-2.262709905E0,8.162751533E0
6.102897250E0,-3.953836061E-1,7.342065690E0,-1.579999384E0,7.520548839E0
6.112836250E0,-1.119975248E0,5.832929150E0,-4.245745877E-1,5.954634381E0
6.122774250E0,-6.890022710E-1,4.803441465E0,6.868075186E-1,4.900967110E0
6.132713250E0,-7.865026917E-1,3.807793956E0,1.998914963E0,4.371903742E0
6.142651250E0,-6.047694750E-1,2.545742624E0,3.503036492E0,4.372392513E0
6.152590250E0,2.320644410E-1,1.769681452E0,3.976801293E0,4.358964885E0
6.162528250E0,8.912526365E-1,1.405158427E0,3.623434755E0,3.987239758E0
6.172466250E0,1.454092313E0,1.283887174E0,3.522910593E0,4.021647645E0
6.182405250E0,1.464133151E0,1.830051030E0,3.666121184E0,4.351231687E0
6.192343250E0,1.351654796E0,2.408020815E0,2.630565258E0,3.813844322E0
6.202282250E0,2.019641881E0,2.944453735E0,8.697193877E-1,3.674938494E0
6.212220250E0,1.546471011E0,4.515249163E0,-3.076056433E-1,4.782642452E0
6.222158250E0,1.351721454E0,6.282936130E0,-1.519291106E0,6.603838487E0
6.232097250E0,1.188380362E0,6.840446507E0,-2.220191438E0,7.289252796E0
6.242035250E0,-3.777865568E-1,5.307585475E0,-1.181841567E0,5.450682136E0
6.251974250E0,-4.239710527E0,2.112786126E-1,5.042614220E0,6.591490134E0
6.261912250E0,-6.460838835E0,-1.020164417E1,1.015545701E1,1.577812692E1
6.271850250E0,6.795121815E0,-1.674520941E1,2.477039010E0,1.824037941E1
6.281789250E0,7.663801714E0,-1.142936416E1,-2.476502236E0,1.398203437E1
6.291727250E0,-3.061255960E0,-5.931438947E0,-2.807657540E0,7.241284202E0
6.301666250E0,-4.083676408E0,-2.331736286E0,-2.306999055E0,5.237905283E0
6.311604250E0,-3.049543988E0,5.197426271E-1,-2.256679087E0,3.829158058E0
6.321542250E0,-2.532967920E0,1.608097740E0,-2.036884589E0,3.626403681E0
6.331481250E0,2.353556925E-1,-2.009407353E-1,-3.255403401E0,3.270079629E0
6.341419250E0,2.024936389E0,-2.208567027E0,-4.193597338E0,5.154065805E0
6.351358250E0,1.576355546E0,-3.651618919E0,-4.216588590E0,5.796450369E0
6.361296250E0,3.945411685E-1,-4.300993148E0,-5.118914537E0,6.697573504E0
6.371234250E0,-4.393703091E-1,-3.608782802E0,-4.626486009E0,5.883938508E0
6.381173250E0,-6.445194317E-1,-3.298619002E0,-3.951620843E0,5.187639146E0
6.391111250E0,-1.135258846E-1,-3.276104298E0,-2.562132955E0,4.160561594E0
6.401050250E0,-5.170752735E-1,-2.130150018E0,-1.043723462E0,2.427810660E0
6.410988125E0,-1.162075639E-1,-1.460114068E-1,1.133410249E0,1.148669805E0
6.420926125E0,-8.563324799E-1,1.645338657E0,2.641632868E0,3.227796279E0
6.430865125E0,-1.583002222E0,2.596619248E0,-4.201819400E-1,3.069996810E0
6.440803125E0,-1.893195696E0,2.597770565E0,-1.795729043E0,3.682016384E0
6.450742125E0,-1.705512061E0,2.705120766E0,-2.626799651E0,4.138420732E0
6.460680125E0,-1.406173650E0,2.900337662E0,-3.191866386E0,4.536220223E0
6.470618125E0,-1.086329638E0,3.192235930E0,-3.285430022E0,4.707922339E0
6.480557125E0,-1.100276782E0,3.570118673E0,-2.476865348E0,4.482322868E0
6.490495125E0,-7.461710832E-1,3.603779340E0,-1.119105620E0,3.846608143E0
6.500434125E0,-7.390395997E-1,3.372880980E0,-2.989750068E-1,3.465817607E0
6.510372125E0,-6.079020477E-1,3.361397633E0,-1.873107295E-1,3.421056015E0
6.520310125E0,-4.850986784E-1,3.380331502E0,-2.848298612E-1,3.426819202E0
6.530249125E0,-3.335569020E-1,3.192261073E0,-1.737624384E-1,3.214340422E0
6.540187125E0,3.497577824E-2,2.938305972E0,1.587258849E-1,2.942797852E0
6.550126125E0,5.525701384E-1,2.230252011E0,4.317815003E-1,2.337903560E0
6.560064125E0,1.397760237E0,1.154529807E0,9.388619819E-1,2.041600984E0
6.570002125E0,2.512904077E0,1.246194268E0,1.294924671E0,3.089420165E0
6.579941125E0,2.916310501E0,1.357098992E0,4.175055233E-1,3.243592988E0
6.589879125E0,2.359427237E0,8.686541712E-1,-7.862423444E-1,2.634318504E0
6.599818125E0,1.624235617E0,9.790940416E-1,-7.256877020E-1,2.030612992E0
6.609756125E0,4.173435919E-1,1.303790511E0,4.129639909E-1,1.429889726E0
6.619695125E0,-1.390864616E0,1.145360788E0,1.476371959E0,2.329384012E0
6.629633125E0,-2.370950053E0,4.376442111E-1,1.830006883E0,3.026856753E0
6.639571125E0,-1.896087729E0,-6.080478626E-1,2.264989442E0,3.015799737E0
6.649510125E0,-8.790022811E-1,-1.988464966E0,2.715651309E0,3.478706651E0
6.659448125E0,-4.849090093E-1,-3.160784342E0,3.719711792E0,4.905298178E0
6.669387125E0,-9.254736122E-1,-4.152482057E0,5.067938511E0,6.616918421E0
6.679325125E0,-1.449748709E0,-4.784971865E0,5.574461753E0,7.488147362E0
6.689263125E0,-1.476645901E0,-4.189903067E0,5.160795804E0,6.809521581E0
6.699202125E0,-1.183754776E0,-3.679643455E0,3.917354113E0,5.503336676E0
6.709140125E0,-1.051256284E0,-3.702354625E0,3.149881623E0,4.973361417E0
6.719079125E0,-5.478972629E-1,-3.724714962E0,3.326876256E0,5.024121673E0
6.729017125E0,-6.376096308E-3,-3.881759480E0,4.164602165E0,5.693154531E0
6.738955125E0,2.605164807E-2,-4.200394726E0,4.326737562E0,6.030311142E0
6.748894125E0,-9.521863246E-1,-5.036707948E0,3.642487030E0,6.288306411E0
6.758832125E0,-2.243141905E0,-6.174857950E0,2.726676234E0,7.113038703E0
6.768771125E0,-2.372758012E0,-7.736912960E0,1.750850494E0,8.279811603E0
6.778709125E0,-1.935448554E0,-8.273524219E0,2.720852700E-1,8.501246644E0
6.788647125E0,-1.051453920E0,-6.486133305E0,-3.291289517E-1,6.579042975E0
6.798586125E0,-4.671469589E-1,-4.488993995E0,4.358076006E-2,4.513445763E0
6.808524125E0,1.407807435E-1,-3.502290387E0,2.735122830E-2,3.505225423E0
6.818463125E0,6.095008592E-1,-3.195286422E0,-3.031193671E-1,3.266990659E0
6.828401125E0,4.045503957E-1,-2.652420396E0,-7.617470424E-1,2.789131323E0
6.838339125E0,3.555749945E-1,-1.587488059E0,-1.073700675E0,1.949201133E0
6.848278125E0,1.357875137E-1,-2.540352076E-1,-1.511565765E0,1.538766778E0
6.858216125E0,1.270795478E-1,8.780003607E-2,-2.234698087E0,2.240029821E0
6.868155125E0,6.408957660E-1,2.910545146E-1,-2.898427377E0,2.982673528E0
6.878093125E0,1.313650379E0,1.108451993E0,-3.837741348E0,4.205068584E0
6.888031125E0,1.871206365E0,1.599664301E0,-4.773103187E0,5.370554270E0
6.897970125E0,2.449773736E0,1.585032814E0,-5.020711720E0,5.807001511E0
6.907908125E0,3.183214261E0,1.705726361E0,-4.778722361E0,5.989870020E0
6.917847125E0,4.133457848E0,2.090757326E0,-4.593722305E0,6.523727814E0
6.927785125E0,4.927862613E0,2.380885642E0,-4.175856886E0,6.884056007E0
6.937723125E0,5.070853348E0,2.725104795E0,-3.426970063E0,6.699542793E0
6.947662125E0,4.605147765E0,3.024065330E0,-2.077054961E0,5.887827644E0
6.957600125E0,4.062754194E0,2.947621171E0,-8.475995171E-1,5.090468264E0
6.967539125E0,3.393136320E0,2.898505729E0,-5.964067141E-1,4.502267264E0
6.977477125E0,2.838013068E0,2.912646636E0,-5.164939141E-1,4.099340747E0
6.987415125E0,2.351701019E0,3.108437144E0,-2.644917834E-1,3.906767853E0
6.997354125E0,1.914490671E0,3.583295374E0,-9.948452711E-3,4.062681287E0
7.007292125E0,1.084347724E0,3.779862392E0,4.993931472E-1,3.963907568E0
7.017231125E0,-3.654846729E-1,2.686608481E0,2.893525071E0,3.965341286E0
7.027169125E0,-2.095316692E0,1.573129052E0,4.658053372E0,5.344394098E0
7.037107125E0,-2.096345510E0,1.537437063E0,3.916836927E0,4.701062511E0
7.047046125E0,-2.118941782E0,1.962609748E0,2.979399034E0,4.149526468E0
7.056984125E0,-3.222095614E0,1.139341080E0,2.507871963E0,4.239035270E0
7.066923125E0,-3.933935940E0,-5.054491085E-1,1.205770054E0,4.145505060E0
7.076861125E0,-4.217967364E0,-1.355444230E0,2.900370260E-1,4.439887298E0
7.086799125E0,-3.528494099E0,-3.316460027E0,-4.226086807E-1,4.860841060E0
7.096738125E0,-2.454842102E0,-3.586826507E0,-7.256896023E-1,4.406608621E0
7.106676125E0,-9.606072653E-1,-2.987207991E0,-1.375676912E0,3.426173502E0
7.116615125E0,6.870550020E-1,-2.127635130E0,-1.818556281E0,2.882017136E0
7.126553125E0,9.350048661E-1,-1.241476734E0,-1.901173053E0,2.455597190E0
7.136491125E0,1.640651236E0,-6.019077015E-1,-3.309363261E0,3.742447669E0
7.146430125E0,2.132010017E0,2.597976387E-1,-3.479142430E0,4.088690936E0
7.156368125E0,2.399578605E0,1.596438977E0,-2.751367564E0,3.984547448E0
7.166307125E0,1.937593020E0,3.032042686E0,-2.504030634E0,4.383801887E0
7.176245125E0,1.754481322E0,4.373807940E0,-2.035293123E0,5.133304852E0
7.186183125E0,1.516493213E0,5.233191351E0,-6.707496026E-1,5.489621882E0
7.196122125E0,1.024497963E0,5.251798360E0,7.156629431E-1,5.398440103E0
7.206060125E0,5.201650885E-1,4.898754004E0,1.832685785E0,5.256148752E0
7.215999125E0,3.182671639E-1,4.085074185E0,2.476744895E0,4.787837754E0
7.225937125E0,1.049031419E-1,2.969047709E0,3.275334220E0,4.421997650E0
7.235875125E0,-5.193844852E-1,1.630801894E0,4.390963086E0,4.712730831E0
7.245814125E0,-7.524785478E-1,9.297330165E-1,5.344175012E0,5.476388774E0
7.255752125E0,-1.645471535E-1,4.652758133E-1,5.159024098E0,5.182575324E0
7.265691125E0,5.626599840E-1,4.857521778E-1,4.513265495E0,4.574068961E0
7.275629125E0,1.466008061E0,1.441185461E0,2.606171552E0,3.319386288E0
7.285567125E0,2.015877298E0,3.273946676E0,-1.383945313E-1,3.847290106E0
7.295506125E0,8.380568612E-1,4.274863111E0,-1.628363020E0,4.650630070E0
7.305444125E0,-2.222964334E0,2.647609892E0,-2.232119027E-1,3.464279452E0
7.315383125E0,-6.132535803E0,-1.942294766E0,7.503845283E0,9.883734029E0
7.325321125E0,-1.941193443E0,-7.294582790E0,1.105326949E0,7.628952597E0
7.335259125E0,4.411830337E0,-8.975608174E0,-2.692729931E0,1.035744097E1
7.345198125E0,2.781546214E0,-7.542712895E0,1.077387491E-1,8.039970447E0
7.355136125E0,-3.170742735E0,-5.155275448E0,-2.750252500E-1,6.058557033E0
7.365075125E0,-4.724695843E0,-2.976069630E0,3.558603752E-1,5.595210260E0
7.375013125E0,-3.747203061E0,-4.932617569E-1,-5.023927689E-2,3.779862686E0
7.384951125E0,-2.528935680E0,3.394051409E-1,-1.334025294E0,2.879294186E0
7.394890125E0,-1.935032232E-1,-1.097917065E0,-3.484849312E0,3.658830429E0
7.404828125E0,2.499989331E0,-1.944106234E0,-5.865374181E0,6.665741518E0
7.414767417E0,2.604926387E0,-2.813943881E0,-6.013680035E0,7.132199465E0
7.424705417E0,4.621735731E-1,-2.830777431E0,-5.382910477E0,6.099395911E0
7.434643417E0,-5.951075359E-1,-2.632928703E0,-4.689094486E0,5.410552063E0
7.444582417E0,-4.234847398E-1,-2.046958172E0,-3.346042260E0,3.945297947E0
7.454520417E0,-1.302994998E-1,-1.226592647E0,-1.851347759E0,2.224633904E0
7.464459417E0,-1.876161003E-1,-2.171053630E-1,2.571394944E-1,3.852989221E-1
7.474397417E0,-4.747502030E-1,5.934976512E-1,3.358420815E0,3.443343955E0
7.484335417E0,-1.259140880E-1,1.707817326E0,1.647088290E0,2.376003832E0
7.494274417E0,-2.664466538E-2,2.036163043E0,-2.769709110E0,3.437725764E0
7.504212417E0,-5.517812759E-1,1.653204331E0,-3.776550529E0,4.159312568E0
7.514151417E0,-3.965416472E-1,1.825522361E0,-3.868173767E0,4.295642613E0
7.524089417E0,-1.199735362E-1,2.268650676E0,-3.579497023E0,4.239571732E0
7.534027417E0,1.424489906E-1,2.738164551E0,-3.311203380E0,4.299058577E0
7.543966417E0,2.697967429E-1,3.090656930E0,-2.868213644E0,4.225115389E0
7.553904417E0,3.036535102E-1,3.419261679E0,-1.669693480E0,3.817254537E0
7.563843417E0,3.126485744E-1,3.605429424E0,-7.575851405E-1,3.697405267E0
7.573781417E0,4.292815232E-1,3.769535040E0,-2.719493222E-1,3.803634246E0
7.583719417E0,6.387349275E-1,3.874853919E0,-1.558212805E-1,3.930236058E0
7.593658417E0,1.385791571E0,3.742662406E0,1.685752273E-1,3.994540996E0
7.603596417E0,2.577387171E0,2.821425979E0,9.095091055E-1,3.928177185E0
7.613535417E0,2.711129950E0,1.492048051E0,1.357773176E0,3.379346237E0
7.623473417E0,3.010931899E0,1.171385576E0,1.951915190E0,3.774629515E0
7.633411417E0,2.425172453E0,1.992460368E0,1.675948831E0,3.558112453E0
7.643350417E0,1.068505863E0,2.799755613E0,1.316246835E0,3.273047815E0
7.653288417E0,-4.902138957E-1,3.192378017E0,1.926128092E0,3.760526093E0
7.663227417E0,-2.196165375E0,2.729658022E0,2.443673336E0,4.271500280E0
7.673165417E0,-2.815162441E0,1.623865342E0,2.873859423E0,4.338334496E0
7.683103417E0,-1.969388132E0,4.006208110E-1,3.105748301E0,3.699278195E0
7.693042417E0,-9.666207612E-1,-1.365043019E0,3.111771226E0,3.532820163E0
7.702980417E0,-9.009500974E-1,-3.178026611E0,3.385188492E0,4.729806058E0
7.712919417E0,-2.020100157E0,-4.276956414E0,3.692733909E0,6.000786993E0
7.722857417E0,-2.463268232E0,-4.471444747E0,3.553900251E0,6.220266514E0
7.732795417E0,-2.002317312E0,-3.679107850E0,3.190072460E0,5.265137367E0
7.742734417E0,-1.453428654E0,-3.126295125E0,3.345626231E0,4.804101470E0
7.752672417E0,-8.938524547E-1,-3.365050389E0,3.039997531E0,4.622133849E0
7.762611417E0,-1.712248930E-1,-3.526552239E0,2.968025615E0,4.612490077E0
7.772549417E0,3.181262826E-1,-3.788593454E0,3.106675085E0,4.909793761E0
7.782487417E0,3.481549144E-1,-3.822148871E0,3.437236897E0,5.152148224E0
7.792426417E0,-1.137690922E-2,-3.845200349E0,3.485946542E0,5.190136651E0
7.802364417E0,-5.175724331E-1,-4.308571140E0,3.166571623E0,5.372042659E0
7.812303417E0,-1.218144882E0,-5.510218395E0,2.744191861E0,6.275107384E0
7.822241417E0,-1.372030734E0,-6.480319419E0,2.139753485E0,6.961002304E0
7.832179417E0,-7.984323272E-1,-7.387459379E0,1.046190549E0,7.503770047E0
7.842118417E0,-4.521692795E-1,-6.683331238E0,7.190496504E-1,6.737091798E0
7.852056417E0,2.850752433E-2,-4.388821251E0,6.384688792E-1,4.435110727E0
7.861995417E0,4.996416539E-1,-2.952122358E0,3.096641555E-1,3.010076426E0
7.871933417E0,9.457514638E-1,-2.511558632E0,-1.723925820E-1,2.689254878E0
7.881871417E0,1.338522972E0,-2.062169119E0,-4.023784840E-1,2.491203257E0
7.891810417E0,1.448091608E0,-1.281858775E0,-4.709900048E-1,1.990467987E0
7.901748417E0,1.555870118E0,-2.786630952E-1,-7.373409104E-1,1.744149237E0
7.911687417E0,1.398197317E0,3.858308637E-1,-1.204299260E0,1.885247437E0
7.921625417E0,1.368126256E0,6.235880077E-1,-1.647408864E0,2.230378313E0
7.931563417E0,1.637826447E0,7.259657371E-1,-2.050501877E0,2.722877094E0
7.941502417E0,2.427334169E0,7.588346905E-1,-2.842306970E0,3.813986126E0
7.951440417E0,2.457310504E0,5.377532208E-1,-4.226563063E0,4.918474232E0
7.961379417E0,2.837086869E0,2.858715427E-1,-5.237859183E0,5.963719750E0
7.971317417E0,3.689729024E0,5.487348765E-1,-4.457396811E0,5.812365833E0
7.981255417E0,3.983450454E0,1.535268331E0,-2.692572641E0,5.047263991E0
7.991194417E0,3.884217357E0,2.119874121E0,-1.230862138E0,4.593041734E0
8.001132417E0,3.935591579E0,2.291657131E0,-1.176693678E0,4.703741223E0
8.011071417E0,2.901232871E0,1.789887090E0,-1.906754659E0,3.905964835E0
8.021009417E0,2.586134605E0,1.506424016E0,-9.262176704E-1,3.132935474E0
8.030947417E0,2.298121228E0,1.687833881E0,5.978462255E-1,2.913342496E0
8.040886417E0,1.327057167E0,1.746347553E0,1.020900172E0,2.419307269E0
8.050824417E0,4.041429544E-1,1.583742333E0,1.392079229E0,2.146964342E0
8.060763417E0,-6.231358717E-1,7.648064518E-1,2.123853590E0,2.341790190E0
8.070701417E0,-1.560305231E0,3.000662434E-1,2.571836994E0,3.023067595E0
8.080639417E0,-1.744984129E0,8.885347044E-1,2.174567807E0,2.926296068E0
8.090578417E0,-2.294028615E0,1.389090278E0,2.057555666E0,3.380188516E0
8.100516417E0,-2.869068215E0,1.673148599E0,1.284549079E0,3.561045491E0
8.110455417E0,-2.757302488E0,5.873457956E-1,-1.994836092E-1,2.826214041E0
8.120393417E0,-3.648227242E0,-3.718747294E-1,-9.146144557E-1,3.779467215E0
8.130331417E0,-3.290013070E0,-2.139917207E0,-2.693497671E0,4.760079974E0
8.140270417E0,-2.823212888E0,-3.198852639E0,-2.506111951E0,4.948109369E0
8.150208417E0,-1.028936950E0,-3.095051113E0,-1.877218180E0,3.763243379E0
8.160147417E0,4.566768980E-1,-2.181603761E0,-1.403529977E0,2.633978959E0
8.170085417E0,9.266775540E-1,-6.137237549E-2,-8.579946971E-1,1.264378408E0
8.180023417E0,1.052187088E0,1.253379326E0,-1.608042777E0,2.294310131E0
8.189962417E0,1.268576532E0,2.004383426E0,-1.892405299E0,3.034474774E0
8.199900417E0,1.383614068E0,3.056680514E0,-2.253219289E0,4.041618589E0
8.209839417E0,1.268080396E0,4.073827066E0,-2.624127474E0,5.009005875E0
8.219777417E0,8.871128809E-1,4.588681421E0,-2.891262199E0,5.495667707E0
8.229715417E0,7.342316535E-1,4.137491550E0,-2.083830130E0,4.690445656E0
8.239654417E0,2.191161474E-1,3.478808554E0,-3.315694334E-1,3.501436724E0
8.249592417E0,5.198947278E-1,2.855327550E0,1.256204993E0,3.162473230E0
8.259531417E0,1.202620232E-1,2.580669798E0,2.207759526E0,3.398311593E0
8.269469417E0,-2.342184456E-1,2.147984610E0,2.527306938E0,3.325052861E0
8.279407417E0,-5.242122753E-1,1.663335802E0,2.888532426E0,3.374181986E0
8.289346417E0,-9.757947502E-1,1.535720905E0,3.105103646E0,3.598927999E0
8.299284417E0,-7.860154724E-1,1.553319855E0,3.608266201E0,4.006271068E0
8.309223417E0,-1.888893681E-1,1.408767913E0,4.335965053E0,4.562992347E0
8.319161417E0,7.579225248E-1,2.123838533E0,3.520748878E0,4.181005779E0
8.329099417E0,1.752841763E0,3.891941822E0,4.593385506E-1,4.293094140E0
8.339038417E0,1.563099031E0,5.357574492E0,-1.184785347E0,5.705313254E0
8.348976417E0,-1.670670111E-1,4.808941941E0,-1.216551223E-1,4.813380719E0
8.358915417E0,-2.405060662E0,2.385113763E0,5.938205929E0,6.836327531E0
8.368853417E0,-1.566952346E0,-3.451587426E0,4.747664583E0,6.075287187E0
8.378791417E0,3.773252992E0,-8.330634559E0,-4.331148409E0,1.011907885E1
8.388730417E0,3.352602544E0,-7.331771082E0,-2.555580565E0,8.457292890E0
8.398668417E0,-2.761945762E0,-5.691437057E0,-2.859237291E-1,6.332657621E0
8.408607417E0,-4.226504591E0,-3.462031138E0,-6.496350145E-1,5.501911151E0
8.418545500E0,-2.255651000E0,-1.220206318E0,-1.094494836E0,2.788329937E0
8.428483500E0,-1.418207950E0,-2.376554024E-1,-1.853996547E0,2.346294329E0
8.438422500E0,-1.393064046E0,2.102062333E-1,-2.714189798E0,3.058045185E0
8.448360500E0,-8.062480080E-1,-1.773534182E0,-5.266474872E0,5.615266416E0
8.458299500E0,4.435379121E-1,-5.053636807E0,-6.063878381E0,7.906111046E0
8.468237500E0,-4.736447869E-1,-6.531269132E0,-5.100803956E0,8.300603404E0
8.478175500E0,-1.012989181E0,-5.834791489E0,-4.268247571E0,7.299923022E0
8.488114500E0,-2.130682991E-1,-3.587368544E0,-2.558444531E0,4.411377290E0
8.498052500E0,-3.892608404E-2,-2.001442276E0,-7.072430988E-1,2.123082482E0
8.507990500E0,1.360732452E0,1.902859390E-1,4.248133442E0,4.464800027E0
8.517929500E0,1.147664591E0,7.085767025E-1,2.673473296E0,2.994440586E0
8.527867500E0,-1.822059640E-1,7.014471924E-1,-2.415742064E0,2.522109612E0
8.537806500E0,-1.714242685E0,1.134378548E0,-3.934721221E0,4.439310054E0
8.547744500E0,-2.263481299E0,2.777245002E0,-3.779588742E0,5.207852576E0
8.557682500E0,-1.867572467E0,3.856505356E0,-3.183373890E0,5.338008037E0
8.567621500E0,-1.333014457E0,4.086746489E0,-2.390890520E0,4.918819155E0
8.577559500E0,-1.142627215E0,4.080932602E0,-1.719436328E0,4.573408919E0
8.587498500E0,-8.544139353E-1,3.985354015E0,-1.597155115E0,4.377667674E0
8.597436500E0,-3.175810663E-1,3.573841011E0,-1.229430739E0,3.792716342E0
8.607374500E0,2.169594750E-1,3.326548812E0,-4.469611645E-1,3.363446550E0
8.617313500E0,2.675114317E-1,3.059317024E0,2.988760427E-1,3.085499944E0
8.627251500E0,3.494446640E-1,2.849924138E0,9.440709740E-1,3.022490558E0
8.637190500E0,6.290118849E-1,2.514479901E0,1.341660004E0,2.918615543E0
8.647128500E0,1.493580314E0,2.132854940E0,1.576656969E0,3.043961161E0
8.657066500E0,2.428543665E0,1.697601070E0,1.632360469E0,3.382938727E0
8.667005500E0,2.696163417E0,2.153909009E0,1.020505485E0,3.598618156E0
8.676943500E0,2.179485315E0,2.646392502E0,1.986167595E-1,3.434093494E0
8.686882500E0,9.956206119E-1,3.199458995E0,4.888763452E-1,3.386266137E0
8.696820500E0,-5.739755158E-1,3.243838778E0,1.487498625E0,3.614497208E0
8.706758500E0,-2.015261001E0,2.690324387E0,2.353310465E0,4.103314801E0
8.716697500E0,-2.062840087E0,1.994189390E0,2.679441842E0,3.925749499E0
8.726635500E0,-1.451981468E0,1.176227655E0,2.268387551E0,2.938935821E0
8.736574500E0,-2.593994433E-1,3.283679366E-2,1.824915713E0,1.843551921E0
8.746512500E0,6.436565289E-1,-1.620259364E0,2.059140846E0,2.698072490E0
8.756450500E0,-7.615235326E-1,-3.517872047E0,3.120567777E0,4.763746958E0
8.766389500E0,-1.289918285E0,-4.517370533E0,3.925401344E0,6.122034092E0
8.776327500E0,-6.508915812E-1,-4.114849961E0,3.808300325E0,5.644360143E0
8.786266500E0,-3.407222262E-1,-3.450740749E0,3.175915474E0,4.702142326E0
8.796204500E0,-2.629171465E-1,-2.924802412E0,2.739230499E0,4.015840921E0
8.806142500E0,-4.228063166E-1,-3.352206395E0,2.400629935E0,4.144765009E0
8.816081500E0,-6.750025749E-1,-3.793852440E0,2.230739084E0,4.452543282E0
8.826019500E0,-7.619907251E-1,-3.753058755E0,2.277259532E0,4.455557301E0
8.835958500E0,-9.714765814E-1,-3.881671187E0,2.615059904E0,4.780133498E0
8.845896500E0,-1.076357211E0,-4.056973051E0,3.126196892E0,5.233610818E0
8.855834500E0,-1.116673763E0,-5.000095607E0,3.664871634E0,6.299142836E0
8.865773500E0,-2.108498071E0,-6.373328236E0,3.609015521E0,7.621684194E0
8.875711500E0,-3.195313027E0,-7.103244352E0,2.271211172E0,8.113230297E0
8.885650500E0,-3.110167335E0,-7.950300663E0,5.014876199E-1,8.551719787E0
8.895588500E0,-2.063487082E0,-7.568948767E0,-5.178408203E-1,7.862259439E0
8.905526500E0,-6.050181279E-1,-5.832275432E0,-6.213227963E-1,5.896399381E0
8.915465500E0,5.307561502E-1,-3.867707452E0,3.059298313E-1,3.915923401E0
8.925403500E0,8.007319640E-1,-2.983421334E0,1.000693071E0,3.247054228E0
8.935342500E0,9.300160217E-1,-2.532976983E0,7.434187987E-1,2.798852213E0
8.945280500E0,1.139898612E0,-1.684402151E0,-5.358359188E-2,2.034563995E0
8.955218500E0,1.348702683E0,-5.214739877E-1,-6.956511399E-1,1.604638450E0
8.965157500E0,1.112404419E0,6.333019871E-1,-9.643108186E-1,1.602626080E0
8.975095500E0,1.089766339E0,1.296453425E0,-1.415497473E0,2.207264201E0
8.985034500E0,1.294526183E0,1.511697620E0,-1.640169426E0,2.578988848E0
8.994972500E0,1.794997264E0,1.476075797E0,-1.843303452E0,2.966240475E0
9.004910500E0,1.883928444E0,1.376138695E0,-2.582013780E0,3.479905064E0
9.014849500E0,2.363184658E0,9.625721490E-1,-3.535626533E0,4.360257085E0
9.024787500E0,2.575761352E0,6.482995105E-1,-3.768482541E0,4.610455450E0
9.034725500E0,3.205223765E0,8.689096946E-1,-2.334693369E0,4.059465060E0
9.044664500E0,3.076660742E0,1.384516586E0,-1.793065344E0,3.820708158E0
9.054602500E0,2.894276438E0,1.247542051E0,-1.517014200E0,3.497789210E0
9.064541500E0,2.418356646E0,9.949014044E-1,-7.583137035E-2,2.616109338E0
9.074479500E0,1.897101344E0,8.023063999E-1,1.072233316E0,2.322148435E0
9.084417500E0,1.189885947E0,5.978930032E-1,1.460402774E0,1.976380751E0
9.094356500E0,9.031410491E-1,3.179435205E-1,1.471861124E0,1.755883540E0
9.104294500E0,6.061966342E-1,-4.341148317E-1,1.743935577E0,1.896639487E0
9.114233500E0,-2.750965860E-1,-9.470828748E-1,2.403133128E0,2.597632178E0
9.124171500E0,-1.001569935E0,-5.259283966E-1,2.775275660E0,2.996981481E0
9.134109500E0,-1.456669473E0,3.660783845E-1,2.733576826E0,3.119028951E0
9.144048500E0,-2.229609109E0,4.035391563E-1,2.337810519E0,3.255665624E0
9.153986500E0,-2.743503059E0,-7.059267443E-1,9.090934416E-1,2.975162599E0
9.163925500E0,-3.816273004E0,-2.527429730E0,-3.878948943E-1,4.593724320E0
9.173863500E0,-3.206738779E0,-3.983497524E0,-2.188863080E0,5.562602602E0
9.183801500E0,-3.023741102E0,-4.366131715E0,-2.739049820E0,5.975659823E0
9.193740500E0,-1.493863027E0,-2.777836155E0,-2.100052060E0,3.789224077E0
9.203678500E0,-4.776149002E-1,-3.323954988E-1,-2.240436691E0,2.314769822E0
9.213617500E0,-6.422998287E-1,1.158168529E0,-3.905699151E0,4.124122848E0
9.223555500E0,-4.022619051E-1,3.273312837E0,-3.986449199E0,5.173796361E0
9.233493500E0,1.792300236E-1,5.383239675E0,-4.958249424E0,7.320903643E0
9.243432500E0,7.149573304E-1,6.375315705E0,-5.941789688E0,8.744179722E0
9.253370500E0,1.327059214E-1,6.905600862E0,-4.789122219E0,8.404797782E0
9.263309500E0,-2.741309184E-1,7.151108490E0,-2.547991464E0,7.596430800E0
9.273247500E0,-1.970015392E-1,6.873187407E0,-1.043174994E0,6.954691136E0
9.283185500E0,-2.252300692E-1,5.230270082E0,-5.854127061E-1,5.267747313E0
9.293124500E0,-2.379004008E-1,3.420422351E0,-6.453963679E-1,3.488899846E0
9.303062500E0,3.311433175E-1,3.412237419E0,-8.010860860E-1,3.520619124E0
9.313001500E0,1.315078269E0,3.442849347E0,-1.196139617E0,3.874711920E0
9.322939500E0,1.883055455E0,3.551682987E0,-1.722817773E-1,4.023683747E0
9.332877500E0,2.022604227E0,3.622457101E0,2.998301621E-1,4.159690064E0
9.342816500E0,1.577687395E0,3.692089838E0,1.089443572E0,4.160229824E0
9.352754500E0,9.378803806E-1,3.546755539E0,2.180164031E0,4.267576556E0
9.362693500E0,5.117067987E-1,2.671202822E0,2.947839273E0,4.010850875E0
9.372631500E0,2.450392663E-1,2.010414244E0,3.166523969E0,3.758814137E0
9.382569500E0,-3.991592994E-1,1.380832840E0,3.181142592E0,3.490801580E0
9.392508500E0,-9.850973779E-1,7.736158669E-1,3.612375916E0,3.823369994E0
9.402446500E0,-9.619346564E-1,9.936173558E-2,3.892460762E0,4.010790673E0
9.412384875E0,-7.350379845E-1,-3.883679706E-1,4.205395850E0,4.286777901E0
9.422322875E0,-1.044368410E0,-1.082311431E0,4.184056144E0,4.446170175E0
9.432260875E0,-1.743287851E0,-1.770437497E0,4.384575295E0,5.039643041E0
9.442199875E0,-2.559911597E0,-2.424340979E0,5.215702913E0,6.295564585E0
9.452137875E0,-3.137179424E0,-3.016513066E0,6.618231847E0,7.920999849E0
9.462075875E0,-2.340643203E0,-2.264061196E0,6.409647632E0,7.189448273E0
9.472014875E0,-5.301750831E-1,1.437722155E0,3.951185226E0,4.237923466E0
9.481952875E0,1.065480806E0,4.788795360E0,2.071548053E0,5.325328317E0
9.491891875E0,2.251098358E0,4.003968042E0,2.900704283E0,5.432613481E0
9.501829875E0,2.153344168E0,-2.299618700E0,6.365166108E0,7.102145933E0
9.511767875E0,4.606386790E-1,-6.798257092E0,3.100428797E0,7.486063466E0
9.521706875E0,3.033655933E0,-2.635509664E0,-5.009723632E0,6.422329046E0
9.531644875E0,1.762659677E0,8.086529678E-1,-2.728958695E0,3.347850701E0
9.541583875E0,1.079034067E0,1.525933836E0,-3.768799460E-1,1.906522248E0
9.551521875E0,1.175752861E0,1.992285537E0,-1.724378979E0,2.885321353E0
9.561459875E0,6.330632745E-1,1.686668531E0,-1.283980291E0,2.212289590E0
9.571398875E0,-6.535450476E-1,1.242836212E0,-1.950728790E0,2.403561065E0
9.581336875E0,-1.364185086E0,1.560241204E0,-1.704251255E0,2.683249132E0
9.591275875E0,-1.042242509E0,1.483645018E0,-9.206612076E-1,2.033491835E0
9.601213875E0,-6.298126611E-1,8.032010239E-1,-3.062742323E-1,1.065645240E0
9.611151875E0,-6.277830926E-1,3.635424471E-1,-9.195696786E-2,7.312529016E-1
9.621090875E0,-1.044748772E0,-9.811160088E-1,3.137398841E-1,1.467147345E0
9.631028875E0,-8.747618803E-1,-2.533447684E0,1.537290736E-1,2.684622533E0
9.640967875E0,-1.110079274E-1,-3.888817070E0,-9.314614534E-1,4.000355159E0
9.650905875E0,-1.081056911E0,-6.255284647E0,-1.975848429E0,6.648401843E0
9.660843875E0,-6.605754474E-1,-8.772079461E0,-2.881795557E0,9.256915448E0
9.670782875E0,6.604593801E-1,-7.069631048E0,-2.844785020E0,7.649097435E0
9.680720875E0,3.936665712E-1,-3.666421146E0,-1.908652811E0,4.152176892E0
9.690659875E0,-5.643175600E-1,-1.226865712E0,-1.295038691E0,1.871036877E0
9.700597875E0,-1.554303941E-1,4.404555523E-1,-7.075834067E-1,8.478407742E-1
9.710535875E0,5.457908034E-2,2.636730562E0,4.329325247E-1,2.672593779E0
9.720474875E0,4.432568072E-1,4.258496754E0,3.175847062E0,5.330785661E0
9.730412875E0,-1.316005930E0,4.242026317E0,2.016204157E0,4.877677530E0
9.740351875E0,-2.860235118E0,3.017156260E0,-2.293498127E0,4.748084928E0
9.750289875E0,-3.867808024E0,2.963086472E0,-3.759462918E0,6.154135340E0
9.760227875E0,-4.246928623E0,4.064646937E0,-2.959783088E0,6.581646707E0
9.770166875E0,-3.884954691E0,5.218443503E0,-1.837791574E0,6.760362669E0
9.780104875E0,-3.651752528E0,5.502987143E0,-1.314612831E0,6.733971408E0
9.790043875E0,-3.032968593E0,5.010883720E0,-7.369117248E-1,5.903464494E0
9.799981875E0,-1.328946403E0,4.014995306E0,4.393059897E-1,4.251973142E0
9.809919875E0,9.913347490E-1,3.038385746E0,1.779821986E0,3.658182448E0
9.819858875E0,3.044957432E0,2.424543877E0,2.540320501E0,4.647946538E0
9.829796875E0,2.669818202E0,1.533975511E0,3.443312739E0,4.619243739E0
9.839734875E0,9.136224756E-1,6.730332327E-1,5.126898326E0,5.250977643E0
9.849673875E0,-1.600181780E0,-1.103357899E-1,4.791215522E0,5.052573789E0
9.859611875E0,-3.256633655E0,-7.732679576E-1,4.100775713E0,5.293389042E0
9.869550875E0,-3.792961324E0,-1.392327881E0,4.292427562E0,5.894918737E0
9.879488875E0,-3.475457222E0,-2.772500571E0,5.062404706E0,6.737470128E0
9.889426875E0,-2.590207776E0,-3.899934381E0,5.546516740E0,7.258272001E0
9.899365875E0,-2.154341118E0,-4.574804808E0,4.685570661E0,6.893808607E0
9.909303875E0,-1.230315861E0,-5.283455186E0,5.179074200E0,7.500092359E0
9.919242875E0,-1.287117468E0,-5.409508291E0,6.483911948E0,8.541695703E0
9.929180875E0,-2.773854201E0,-5.583376418E0,7.132849975E0,9.473431697E0
9.939118875E0,-4.522126366E0,-6.130045474E0,7.687801026E0,1.082263226E1
9.949057875E0,-5.473162251E0,-6.217242662E0,8.503799851E0,1.187115088E1
9.958995875E0,-5.427651617E0,-6.094248235E0,8.940879221E0,1.210531226E1
9.968934875E0,-5.101352425E0,-4.974373705E0,8.919702945E0,1.141618548E1
9.978872875E0,-4.243556826E0,-3.305670744E0,7.993899257E0,9.635230093E0
9.988810875E0,-3.347166972E0,-1.924980576E0,6.547075911E0,7.600873630E0
9.998749875E0,-2.640714563E0,-9.089566898E-1,5.118561366E0,5.830887250E0
1.000868788E1,-2.456737770E0,-7.612384808E-1,3.562079337E0,4.393569584E0
1.001862688E1,-1.842736418E0,-3.464656538E-1,1.870715345E0,2.648639624E0
1.002856487E1,-4.132508699E-1,2.830730653E-1,-4.084572494E-3,5.009224745E-1
1.003850287E1,1.427686141E-1,6.859193265E-2,-1.563777308E0,1.571778355E0
1.004844187E1,-6.958701181E-1,1.535051984E-1,-2.388540816E0,2.492574231E0
1.005837988E1,4.009839231E-1,9.101419204E-1,-2.465988357E0,2.658993230E0
1.006831888E1,2.040600495E0,2.274982041E0,-2.426031701E0,3.901951240E0
1.007825687E1,1.870469908E0,2.683745685E0,-1.218685165E0,3.490894170E0
1.008819487E1,8.823032536E-1,1.668952637E0,3.006476028E-1,1.911609510E0
1.009813387E1,1.950726744E0,8.150585926E-1,-1.392166937E0,2.531360132E0
1.010807188E1,3.261979179E0,-1.651293461E0,-4.333511853E0,5.669797461E0
1.011800988E1,3.328806715E0,-3.351231079E0,-6.587452104E0,8.105937892E0
1.012794887E1,2.813325831E0,-3.178478601E0,-8.678173177E0,9.660653091E0
1.013788687E1,2.899594481E0,-2.962585366E0,-1.004420087E1,1.086602647E1
1.014782587E1,4.843684927E0,-1.687071404E0,-8.369344296E0,9.815977667E0
1.015776388E1,6.021245747E0,4.007816094E-1,-5.874516302E0,8.421755638E0
1.016770188E1,6.125517974E0,1.950934612E0,-4.009426417E0,7.576517440E0
1.017764087E1,6.068484818E0,2.813825183E0,-3.328265555E0,7.471376831E0
1.018757887E1,4.845028910E0,1.853384929E0,-1.840799382E0,5.504351296E0
1.019751787E1,-1.579961523E-1,-4.783135255E0,3.372828355E0,5.854854120E0
1.020745588E1,-6.552051306E0,-1.393274780E1,8.059465256E0,1.737831458E1
1.021739388E1,-8.338302013E0,-1.835318670E1,5.707680037E0,2.095099887E1
1.022733287E1,-6.417849521E0,-2.120241794E1,8.142527732E-1,2.216741587E1
1.023727087E1,-5.507388927E0,-1.983581605E1,-2.507412372E0,2.073832317E1
1.024720988E1,-4.702739256E0,-1.208502999E1,-4.169233160E0,1.362153484E1
1.025714788E1,-1.773706383E0,-6.014834860E0,-6.255998007E0,8.857865645E0
1.026708588E1,7.261505822E-1,-1.768956397E0,-6.877775132E0,7.138647783E0
1.027702487E1,2.073192144E0,3.369221792E0,-6.044863821E0,7.224275726E0
1.028696287E1,2.424789460E0,6.961551699E0,-6.218582844E0,9.644354751E0
1.029690188E1,2.667248350E0,8.906979403E0,-5.698980550E0,1.090535993E1
1.030683988E1,2.013013331E0,9.831049976E0,-4.055110713E0,1.082338622E1
1.031677788E1,1.834414953E0,9.921736783E0,-2.956489643E-1,1.009422346E1
1.032671687E1,9.481406361E-1,9.420028723E0,9.838723862E-1,9.518608968E0
1.033665487E1,1.231711299E0,8.854397732E0,1.465189451E0,9.058932169E0
1.034659388E1,4.331139345E-1,6.663472340E0,1.844361359E0,6.927562351E0
1.035653188E1,5.860054676E-1,5.237671487E0,2.732315289E0,5.936510074E0
1.036646988E1,1.176078551E0,4.157382023E0,6.165788333E0,7.528873210E0
1.037640887E1,1.241132479E0,3.582819995E0,9.039044616E0,9.802108779E0
1.038634687E1,5.638572380E-1,2.461956117E0,8.190040598E0,8.570643377E0
1.039628588E1,-6.152739979E-1,1.626938639E0,6.267985969E0,6.504855074E0
1.040622388E1,-1.487838202E0,1.931351117E0,4.227361208E0,4.879996151E0
1.041616188E1,-1.817878881E0,2.235010475E0,1.389199036E0,3.198410451E0
1.042610087E1,-1.233496747E0,3.407328097E0,8.469545692E-1,3.721388320E0
1.043603887E1,-1.203240037E0,4.212436482E0,1.762824422E-1,4.384459283E0
1.044597788E1,-8.894720131E-1,4.940720640E0,-1.293263769E-1,5.021813041E0
1.045591588E1,-6.962686059E-1,5.604447445E0,-1.342856929E0,5.804988016E0
1.046585388E1,-7.097671956E-2,6.380718532E0,-3.737730280E0,7.395216990E0
1.047579287E1,1.436715265E0,6.855149331E0,-5.219203057E0,8.734832778E0
1.048573087E1,3.563924426E0,6.021691305E0,-5.139155259E0,8.681776331E0
1.049566988E1,6.300080166E0,3.388427557E0,-4.589187205E0,8.499005271E0
1.050560788E1,7.985447692E0,-3.807281740E0,-3.664630436E0,9.575608875E0
1.051554588E1,1.015456926E0,-1.061023356E1,-7.973383132E-1,1.068849650E1
1.052548487E1,-2.101721732E0,-9.144218484E0,-6.310678244E0,1.130745886E1
1.053542287E1,2.079310817E0,-4.765144542E0,-1.398332621E1,1.491856387E1
1.054536087E1,1.282782635E0,-5.670729142E0,-1.462678072E1,1.573993057E1
1.055529988E1,2.188753152E0,-9.168093835E0,-9.603164102E0,1.345605238E1
1.056523788E1,3.700037958E0,-1.327515121E1,-9.365736741E0,1.666244116E1
1.057517687E1,8.356047143E0,-1.394268572E1,-1.091205982E1,1.957792273E1
1.058511487E1,1.114326106E1,-8.953464183E0,-7.907213116E0,1.633587485E1
1.059505287E1,8.367562065E0,-2.780415947E0,-9.029169838E0,1.262032946E1
1.060499188E1,4.374678590E0,1.132338454E0,-1.015509097E1,1.111511924E1
1.061492988E1,1.126098452E0,6.789202094E-1,-9.736951904E0,9.825337794E0
1.062486887E1,-2.428217098E-2,-1.574661022E-1,-7.306021113E0,7.307758186E0
1.063480687E1,-1.054101832E0,1.050880308E0,-6.143129203E0,6.320879409E0
1.064474487E1,-1.068354420E0,2.086889977E0,-5.030469553E0,5.549965304E0
1.065468388E1,-7.850041234E-1,3.371358365E0,-3.686706891E0,5.057083784E0
1.066462188E1,-8.310163019E-1,4.489281678E0,-2.951655750E0,5.436589901E0
1.067456087E1,-8.206810559E-1,5.255863345E0,-1.896415612E0,5.647478116E0
1.068449887E1,-3.224315509E-1,5.438378334E0,-1.089268448E0,5.555756183E0
1.069443687E1,-3.387842031E-1,5.164790622E0,-1.659355456E0,5.435374636E0
1.070437588E1,-1.464409579E-2,4.617557895E0,-1.623689633E0,4.894734251E0
1.071431388E1,4.150445033E-2,4.131641411E0,-1.085400223E0,4.272034294E0
1.072425287E1,-9.740131035E-1,3.703763219E0,-9.144014709E-1,3.937346004E0
1.073419087E1,-3.733675236E-1,3.120579472E0,-3.139323306E-1,3.158476382E0
1.074412887E1,1.047994780E0,1.810336558E0,1.094387686E0,2.360782904E0
1.075406788E1,2.183661981E0,1.059202650E0,2.288004083E0,3.335453880E0
1.076400588E1,1.455169078E0,1.295056525E0,2.774204742E0,3.389823063E0
1.077394487E1,-9.640605578E-1,1.919291235E0,2.465338147E0,3.269706987E0
1.078388287E1,-1.864521243E0,2.742595571E0,3.847474916E0,5.079501271E0
1.079382087E1,-3.264320697E0,3.010865241E0,4.777572506E0,6.522752346E0
1.080375988E1,-3.366928807E0,3.195989842E0,4.773631775E0,6.658687633E0
1.081369788E1,-2.613341700E0,3.255370656E0,4.463827579E0,6.111689587E0
1.082363687E1,-2.261347504E0,2.888832681E0,3.653015527E0,5.177216359E0
1.083357487E1,-2.240141114E0,1.990802683E0,2.979546677E0,4.226017739E0
1.084351287E1,-2.270301053E0,-1.240516037E-1,2.444721157E0,3.338610071E0
1.085345188E1,-2.640889102E0,-3.036569601E0,2.114772133E0,4.546131472E0
1.086338988E1,-3.506457990E0,-5.786658964E0,2.481768530E0,7.206930320E0
1.087332887E1,-3.615551539E0,-7.258023659E0,3.789917849E0,8.950675822E0
1.088326687E1,-2.820182860E0,-7.304823019E0,4.823308842E0,9.196639544E0
1.089320487E1,-2.016049498E0,-7.076892706E0,4.866231498E0,8.821965481E0
1.090314388E1,-1.694513741E0,-6.883505988E0,4.503095140E0,8.398327057E0
1.091308187E1,-1.112126676E0,-6.081058670E0,4.002636338E0,7.364590820E0
1.092301987E1,-7.139494166E-1,-5.699315010E0,3.649794880E0,6.805359507E0
1.093295887E1,-8.212768140E-1,-5.142762991E0,3.556529160E0,6.306457520E0
1.094289687E1,-1.123080850E0,-4.047200600E0,2.786745558E0,5.040545020E0
1.095283588E1,-1.428456073E0,-4.337436504E0,2.016174044E0,4.991873391E0
1.096277387E1,-5.597486919E-1,-5.431573929E0,9.314009348E-1,5.539207673E0
1.097271187E1,7.809687406E-1,-5.226966990E0,-6.352646050E-1,5.323030829E0
1.098265087E1,1.769564800E0,-4.221324835E0,-1.671377185E0,4.872827171E0
1.099258888E1,2.341427169E0,-3.300701780E0,-1.961408145E0,4.497114112E0
1.100252788E1,2.270034712E0,-2.658982726E0,-2.409529982E0,4.246066587E0
1.101246587E1,2.329016161E0,-1.610338393E0,-3.288385205E0,4.339468087E0
1.102240387E1,2.639437239E0,1.117169023E-1,-3.859465509E0,4.677027220E0
1.103234287E1,2.741048983E0,1.511456130E0,-3.898636883E0,4.999721863E0
1.104228088E1,2.937072210E0,2.392370743E0,-3.752754700E0,5.332260194E0
1.105221988E1,3.066700011E0,2.529859833E0,-3.852268463E0,5.535775649E0
1.106215787E1,3.424564811E0,2.137397642E0,-4.149178380E0,5.788937213E0
1.107209587E1,4.436730705E0,1.611956318E0,-3.856158031E0,6.095320933E0
1.108203487E1,4.922544571E0,1.229720322E0,-3.020410820E0,5.904789467E0
1.109197288E1,5.094660872E0,1.226510786E0,-2.450078229E0,5.784702364E0
1.110191188E1,4.320657042E0,1.459449239E0,-2.352825877E0,5.131652654E0
1.111184987E1,3.651379476E0,1.768547092E0,-2.342685782E0,4.684923432E0
1.112178787E1,3.422295215E0,2.084319541E0,-2.456745079E0,4.700222215E0
1.113172687E1,3.176179768E0,2.124865889E0,-2.299308797E0,4.459819941E0
1.114166488E1,2.684043016E0,1.866180975E0,-1.661233582E0,3.666935417E0
1.115160388E1,1.937659094E0,1.605095780E0,7.442584589E-2,2.517219584E0
1.116154187E1,7.568057066E-1,5.948945510E-1,1.784186640E0,2.027307665E0
1.117147987E1,-4.921066394E-1,-9.850342280E-1,3.338936723E0,3.515815669E0
1.118141887E1,-1.824338885E0,-1.576187730E0,4.047278953E0,4.710949697E0
1.119135688E1,-2.583524408E0,-1.494433715E0,3.823508348E0,4.850479006E0
1.120129587E1,-3.598829964E0,-1.304974573E0,2.690716735E0,4.679155083E0
1.121123387E1,-4.838807765E0,-2.871357107E0,6.319775927E-1,5.661991513E0
1.122117187E1,-4.560748687E0,-4.670238969E0,-8.517053588E-1,6.583081545E0
1.123111088E1,-4.028625458E0,-3.723599313E0,-5.256331122E-1,5.511016702E0
1.124104888E1,-2.552180116E0,-1.766232764E0,-1.006753126E0,3.262936313E0
1.125098787E1,-1.141917363E0,-5.586552626E-1,-1.701847318E0,2.124230510E0
1.126092587E1,-3.616850059E-1,-1.617515266E-1,-3.663827906E0,3.685188533E0
1.127086387E1,7.895989385E-1,1.009061022E0,-5.797385681E0,5.937284847E0
1.128080288E1,1.706530646E0,2.246582115E0,-4.472407199E0,5.287892226E0
1.129074088E1,1.785682065E0,3.707404280E0,-3.264366013E0,5.252579595E0
1.130067888E1,1.541321953E0,5.228362135E0,-2.544019450E0,6.015270480E0
1.131061787E1,1.373916461E0,5.769585679E0,-1.872738043E0,6.219558917E0
1.132055587E1,1.233054990E0,5.729077923E0,-1.908574458E0,6.163230883E0
1.133049488E1,1.183713845E0,5.148901983E0,-1.629981530E0,5.528942926E0
1.134043288E1,6.081083082E-1,4.442868235E0,-9.475952370E-1,4.583318732E0
1.135037088E1,-8.270564944E-2,4.337027784E0,8.896070838E-2,4.338728412E0
1.136030987E1,-3.307863450E-1,4.160109165E0,6.219355845E-1,4.219328352E0
1.137024787E1,-6.944803812E-2,3.969481164E0,8.612070112E-1,4.062423077E0
1.138018688E1,2.864553872E-1,3.656351656E0,1.663532853E0,4.027195758E0
1.139012488E1,6.956689739E-1,2.787334957E0,2.247846283E0,3.647739628E0
1.140006288E1,1.092934360E0,1.632604591E0,2.753709959E0,3.382724021E0
1.141000187E1,1.558190001E0,1.572478257E0,2.588029103E0,3.405662723E0
1.141994000E1,1.526515926E0,2.515349382E0,9.733816043E-1,3.099145872E0
1.142987900E1,1.688927018E0,4.188660534E0,-1.687197997E0,4.821201989E0
1.143981700E1,1.550698548E0,5.336583572E0,-2.306484793E0,6.016947923E0
1.144975500E1,-7.182661235E-2,4.260345644E0,1.499799120E-1,4.263589807E0
1.145969400E1,-3.013625126E0,-6.010692108E-1,7.805383855E0,8.388518208E0
1.146963200E1,-4.377544895E0,-7.923991116E0,7.406137140E0,1.169629864E1
1.147957100E1,3.882227550E0,-1.234322666E1,-1.975080397E0,1.308922754E1
1.148950900E1,5.385922962E0,-1.187840342E1,-3.124792098E0,1.341152339E1
1.149944700E1,-8.875620932E-1,-6.569957235E0,3.943417785E-1,6.641356034E0
1.150938600E1,-3.581665170E0,-1.308246675E0,-1.228563743E0,4.006145732E0
1.151932400E1,-3.120643206E0,1.260826925E0,-1.181436355E0,3.567056267E0
1.152926300E1,-2.025300670E0,1.862936355E0,-1.614965880E0,3.190687929E0
1.153920100E1,1.188989495E0,7.324222326E-2,-2.869549148E0,3.106987730E0
1.154913900E1,2.950743877E0,-1.793831037E0,-4.102205358E0,5.362164490E0
1.155907800E1,2.675723889E0,-3.479488000E0,-4.360856942E0,6.187358754E0
1.156901600E1,9.343241040E-1,-4.207355837E0,-4.399238065E0,6.158579400E0
1.157895400E1,-7.070776226E-1,-3.867846031E0,-3.463159651E0,5.239624647E0
1.158889300E1,-1.607449138E0,-3.387859207E0,-1.770638056E0,4.146883392E0
1.159883100E1,-1.689347726E0,-3.159165248E0,-1.517492795E0,3.890630435E0
1.160877000E1,7.939057052E-4,-2.329403831E0,-1.446639744E0,2.742059334E0
1.161870800E1,1.946654304E0,-1.681179165E0,-5.061701433E-1,2.621456576E0
1.162864600E1,2.099501545E0,-1.219177793E0,7.078452158E-1,2.528902148E0
1.163858500E1,1.475859012E0,8.650370836E-3,2.771248097E0,3.139753281E0
1.164852300E1,4.183695956E-1,1.421584425E0,1.903436949E0,2.412261929E0
1.165846200E1,-3.915664706E-1,1.618440880E0,-1.169571623E0,2.034839789E0
1.166840000E1,-2.767672087E-1,1.741422443E0,-3.256249493E0,3.703014039E0
1.167833800E1,-2.369924743E-1,2.927838287E0,-3.612138519E0,4.655743458E0
1.168827700E1,-4.482742298E-1,3.722508223E0,-3.227819746E0,4.947407156E0
1.169821500E1,-4.253358952E-1,4.111021789E0,-2.429995090E0,4.794401622E0
1.170815400E1,-1.673397837E-1,4.042857873E0,-1.100563953E0,4.193321285E0
1.171809200E1,-2.362902968E-1,3.797775337E0,-5.452309325E-1,3.843983271E0
1.172803000E1,-5.628823610E-1,3.095392005E0,-3.806651410E-1,3.169099899E0
1.173796900E1,-6.775099341E-1,2.624665418E0,-3.272170584E-1,2.730377129E0
1.174790700E1,1.057685590E0,2.278253558E0,5.203062987E-1,2.565123141E0
1.175784600E1,2.468216439E0,2.584740044E0,1.393515743E0,3.835995257E0
1.176778400E1,2.027417362E0,3.080345950E0,1.177308513E0,3.871047361E0
1.177772200E1,1.202641867E0,2.936582798E0,7.909014058E-1,3.270380868E0
1.178766100E1,3.011669818E-1,3.465136009E0,4.981734180E-1,3.513694049E0
1.179759900E1,-9.656917848E-1,3.936112273E0,1.530669495E0,4.332261483E0
1.180753800E1,-2.593185178E0,3.452419485E0,2.136341050E0,4.817443590E0
1.181747600E1,-2.868290535E0,2.735118737E0,1.727605473E0,4.323492311E0
1.182741400E1,-2.120295120E0,2.345640965E0,1.387537258E0,3.452961421E0
1.183735300E1,-1.469912832E0,7.458620578E-1,1.094767170E0,1.978754431E0
1.184729100E1,-5.425470605E-1,-1.034539095E0,1.375135313E0,1.804335219E0
1.185723000E1,-7.400478789E-1,-2.539802438E0,2.024212796E0,3.331021575E0
1.186716800E1,-1.957388184E0,-4.072820760E0,3.330835991E0,5.613706961E0
1.187710600E1,-2.889581709E0,-5.721688796E0,4.742795022E0,7.973801462E0
1.188704500E1,-3.030887861E0,-6.981494797E0,5.690191015E0,9.502937684E0
1.189698300E1,-2.574477012E0,-6.941192864E0,5.934060838E0,9.487948581E0
1.190692100E1,-1.793347473E0,-5.520238184E0,5.308350291E0,7.865602811E0
1.191686000E1,-7.163891673E-1,-4.066363095E0,4.650536776E0,6.219004307E0
1.192679800E1,-9.887586120E-1,-4.209621048E0,4.204305929E0,6.031147594E0
1.193673700E1,-1.835402986E0,-5.237129450E0,3.378597510E0,6.497010862E0
1.194667500E1,-2.045347264E0,-6.735497757E0,2.107813362E0,7.348010114E0
1.195661300E1,-8.179167116E-1,-7.377067707E0,9.270359883E-1,7.479940603E0
1.196655200E1,4.472046645E-1,-6.709409235E0,5.168169728E-1,6.744128119E0
1.197649000E1,1.208418624E0,-5.684497581E0,4.076503336E-1,5.825801843E0
1.198642900E1,6.580155364E-1,-4.926349939E0,8.530853748E-2,4.970833502E0
1.199636700E1,9.985725787E-1,-3.834560171E0,-3.401070991E-1,3.977017945E0
1.200630500E1,2.067816652E0,-2.266227590E0,-9.466992974E-1,3.210590718E0
1.201624400E1,2.087151056E0,-1.046990156E0,-1.430274265E0,2.738260832E0
1.202618200E1,1.794939962E0,-3.931854916E-1,-1.666019382E0,2.480327574E0
1.203612100E1,1.599624833E0,-5.459954560E-2,-1.530637628E0,2.214640437E0
1.204605900E1,1.740809948E0,1.086202168E-1,-1.268159333E0,2.156489212E0
1.205599700E1,1.884476621E0,2.699355412E-1,-1.434615237E0,2.383744577E0
1.206593600E1,1.797771768E0,3.305705827E-1,-2.268674942E0,2.913442334E0
1.207587400E1,2.647961310E0,5.741211480E-1,-2.746217044E0,3.857852025E0
1.208581300E1,2.942948369E0,1.212956355E0,-2.469500195E0,4.028726776E0
1.209575100E1,3.022801747E0,1.785475951E0,-2.109270634E0,4.095641266E0
1.210568900E1,3.274771425E0,1.962084668E0,-2.182169333E0,4.397245403E0
1.211562800E1,3.373513064E0,1.650987652E0,-2.293906993E0,4.400949887E0
1.212556600E1,2.961248400E0,1.521920891E0,-2.483047024E0,4.153403160E0
1.213550500E1,2.479025017E0,1.570594869E0,-2.592612151E0,3.915861468E0
1.214544300E1,2.275299837E0,1.775533930E0,-2.520030663E0,3.831457246E0
1.215538100E1,2.224170614E0,2.222783362E0,-2.085063161E0,3.772954967E0
1.216532000E1,1.701861936E0,2.877176256E0,-1.605389456E0,3.708335552E0
1.217525800E1,7.038064709E-1,2.555696340E0,-2.154440229E-1,2.659575804E0
1.218519600E1,-8.568717393E-1,1.832838398E0,2.060193930E0,2.887546501E0
1.219513500E1,-1.638013265E0,1.181066226E0,3.042333201E0,3.651547096E0
1.220507300E1,-2.126708200E0,9.465431768E-1,2.471223954E0,3.394963856E0
1.221501200E1,-2.439302542E0,1.224962443E0,2.177323015E0,3.491627899E0
1.222495000E1,-2.500659422E0,8.216156602E-2,1.224972968E0,2.785786575E0
1.223488800E1,-3.773526641E0,-9.241372311E-1,1.080752563E-1,3.886542576E0
1.224482700E1,-3.107331727E0,-1.629906685E0,-3.783744943E-1,3.529202959E0
1.225476500E1,-2.705468968E0,-1.270722168E0,-4.217555720E-1,3.018637926E0
1.226470400E1,-1.718001421E0,-2.288266915E-1,-9.715651667E-1,1.986914545E0
1.227464200E1,-9.262557504E-1,4.821643263E-1,-1.283195449E0,1.654394969E0
1.228458000E1,-4.532059908E-2,7.132246542E-1,-1.876579664E0,2.008057419E0
1.229451900E1,6.883783000E-1,1.242647932E0,-2.568668972E0,2.935319208E0
1.230445700E1,1.240917448E0,1.906666512E0,-2.928143511E0,3.708001851E0
1.231439600E1,2.086690880E0,1.774734031E0,-3.235912877E0,4.239704218E0
1.232433400E1,2.232325726E0,1.299888664E0,-2.737055919E0,3.763570617E0
1.233427200E1,1.899245226E0,1.749004528E0,-1.916373475E0,3.215375026E0
1.234421100E1,1.423966288E0,2.687361603E0,-1.167229375E0,3.257609060E0
1.235414900E1,7.869597246E-1,3.014662423E0,-8.124712727E-1,3.219876504E0
1.236408800E1,2.162928924E-1,3.066815493E0,-5.217821360E-2,3.074876006E0
1.237402600E1,-6.948421776E-2,2.660767297E0,4.282921743E-1,2.695912619E0
1.238396400E1,1.663368400E-1,2.231444843E0,9.540865235E-1,2.432549100E0
1.239390300E1,6.199624416E-1,1.724325185E0,1.570629367E0,2.413405764E0
1.240384100E1,1.360643282E0,1.652289827E0,2.290719676E0,3.135093052E0
1.241378000E1,2.492611022E0,1.500078617E0,2.549885084E0,3.868495768E0
1.242371800E1,3.186603307E0,1.741766260E0,2.127289267E0,4.208746841E0
1.243365600E1,4.500314789E0,2.262888830E0,4.359062724E-1,5.056037316E0
1.244359500E1,4.709695396E0,2.474539325E0,-5.537607045E-1,5.348946299E0
1.245353300E1,4.095077602E0,2.539025928E0,-6.888096052E-1,4.867316704E0
1.246347200E1,7.883353552E-1,1.475902719E0,-1.504889122E0,2.250433900E0
1.247341000E1,-4.783818210E0,-4.341413196E0,2.533309982E0,6.939052145E0
1.248334800E1,-1.045605886E1,-9.683971453E0,8.079853327E0,1.638268903E1
1.249328700E1,-1.680407625E0,-1.102298618E1,4.653065697E0,1.208226032E1
1.250322500E1,2.313533903E0,-5.554893461E0,-1.197617354E0,6.135435422E0
1.251316300E1,-1.777281370E0,-3.203934454E0,-1.662763944E0,4.023519478E0
1.252310200E1,-3.575384091E0,-1.096212602E0,-8.645865557E-1,3.838302148E0
1.253304000E1,-4.554088708E0,5.474408877E-1,4.858890027E-2,4.587131606E0
1.254297900E1,-4.313654709E0,4.737314719E-1,-1.653557503E-1,4.342738880E0
1.255291700E1,-2.351021865E0,-8.319623083E-1,-1.703252404E0,3.020022159E0
1.256285500E1,5.500601479E-1,-8.989509344E-1,-3.532391853E0,3.686254353E0
1.257279400E1,-2.311192386E-1,4.776590466E-2,-4.370667108E0,4.377034230E0
1.258273200E1,-1.841280608E0,1.956536829E-1,-3.496782310E0,3.956776613E0
1.259267100E1,-2.613165991E0,-3.577981424E-1,-3.081763315E0,4.056343321E0
1.260260900E1,-2.597995390E0,-1.187456063E0,-2.724573283E0,3.947522201E0
1.261254700E1,-2.271635680E0,-1.416658731E0,-2.236088701E0,3.488171914E0
1.262248600E1,-2.378316083E0,-1.509338268E0,-1.673250926E0,3.276317759E0
1.263242400E1,-2.643554555E0,-1.245049383E0,-1.814187534E0,3.439448366E0
1.264236300E1,-2.629984337E0,-2.882437581E-1,-1.357297797E0,2.973576868E0
1.265230100E1,-2.242465967E0,6.828670800E-1,-9.402275991E-1,2.525666051E0
1.266223900E1,-1.560079236E0,1.315019504E0,-8.999847221E-1,2.230043950E0
1.267217800E1,-1.271698653E0,2.155529273E0,-1.763567019E0,3.061648663E0
1.268211600E1,-5.146738221E-1,2.745134432E0,-2.719893172E0,3.898521651E0
1.269205500E1,7.886225266E-1,3.076173962E0,-2.861885787E0,4.274945847E0
1.270199300E1,1.862973485E0,3.369339906E0,-2.216242082E0,4.442392438E0
1.271193100E1,2.164850027E0,3.213275381E0,-1.811887239E0,4.277224530E0
1.272187000E1,2.028228079E0,2.967604616E0,-1.234963667E0,3.800726451E0
1.273180800E1,1.984013773E0,3.025419545E0,-1.082020094E0,3.776273502E0
1.274174700E1,2.095885334E0,3.140788618E0,-7.493370581E-1,3.849518737E0
1.275168500E1,2.490627939E0,3.024542463E0,-2.504923797E-1,3.926045220E0
1.276162300E1,2.211849361E0,2.956293762E0,-2.475462601E-2,3.692230111E0
1.277156200E1,2.355916861E0,1.998498788E0,2.694141157E-1,3.101116836E0
1.278150000E1,3.092657847E0,1.564593287E0,2.776806168E-1,3.477008950E0
1.279143800E1,2.000925675E0,1.644539927E0,-9.903499317E-1,2.772906078E0
1.280137700E1,1.071939932E0,1.520435114E0,-1.073599080E0,2.147881081E0
1.281131500E1,3.721635453E-1,1.671604934E0,5.060393849E-1,1.785733636E0
1.282125400E1,-1.404050964E0,1.172243947E0,2.008013377E0,2.716179800E0
1.283119200E1,-2.431206195E0,5.618694770E-1,3.034042726E0,3.928342670E0
1.284113000E1,-1.730870558E0,-1.004868568E0,3.326937360E0,3.882548895E0
1.285106900E1,-1.946754620E-1,-2.740221602E0,3.054078211E0,4.107810448E0
1.286100700E1,-3.157560772E-1,-3.968092450E0,2.548478537E0,4.726542335E0
1.287094600E1,-5.898241380E-1,-5.245600312E0,2.994728680E0,6.068987972E0
1.288088400E1,-1.441172305E0,-5.199720134E0,4.135984430E0,6.798561193E0
1.289082200E1,-1.973047320E0,-4.954945747E0,4.985269407E0,7.300500951E0
1.290076100E1,-1.589331102E0,-4.238613297E0,5.235360668E0,6.921041638E0
1.291069900E1,-7.619088641E-1,-3.263516997E0,5.548348088E0,6.481914441E0
1.292063800E1,-2.622093593E-1,-3.032724472E0,5.708413278E0,6.469324047E0
1.293057600E1,-8.889592854E-1,-4.092520030E0,5.324427795E0,6.774105118E0
1.294051400E1,-1.660145561E0,-5.075842777E0,4.556071207E0,7.019832478E0
1.295045300E1,-1.958604113E0,-6.207903489E0,3.288836903E0,7.293191617E0
1.296039100E1,-7.951560592E-1,-6.371113311E0,1.738348854E0,6.651707654E0
1.297033000E1,1.795956939E-1,-5.304751330E0,-1.620482728E-1,5.310263734E0
1.298026800E1,5.256555509E-1,-3.853516844E0,-8.057917790E-1,3.971801382E0
1.299020600E1,1.127056810E0,-2.760975124E0,-5.621906354E-1,3.034682685E0
1.300014500E1,1.614693692E0,-2.182979611E0,-6.357817912E-1,2.788701165E0
1.301008300E1,1.528147299E0,-1.706428027E0,-1.030043170E0,2.511597044E0
1.302002200E1,1.642203088E0,-8.583081079E-1,-1.497612408E0,2.382512689E0
1.302996000E1,1.830204812E0,1.661761147E-1,-2.312247662E0,2.953600075E0
1.303989800E1,1.845556092E0,1.939229071E-1,-3.833228760E0,4.258793973E0
1.304983700E1,2.706376163E0,-1.639816546E-1,-4.888833618E0,5.590353841E0
1.305977500E1,3.543066823E0,-1.639535880E-1,-4.726358206E0,5.909201738E0
1.306971300E1,3.935306527E0,2.447322875E-1,-4.332268735E0,5.857907796E0
1.307965200E1,3.906076004E0,7.278701752E-1,-3.498766855E0,5.294203835E0
1.308959000E1,3.305350901E0,1.016838988E0,-2.496157651E0,4.264986416E0
1.309952900E1,2.552846991E0,1.209979538E0,-1.473052640E0,3.186057489E0
1.310946700E1,2.293614925E0,1.013138285E0,-1.250249166E0,2.801828257E0
1.311940500E1,2.185267627E0,1.239362381E0,-1.481028389E0,2.916309106E0
1.312934400E1,1.857119545E0,1.404711699E0,-1.491387316E0,2.765202360E0
1.313928200E1,1.605506254E0,1.862551609E0,-1.058420804E0,2.677125964E0
1.314922100E1,5.306455647E-1,1.761681876E0,2.308738383E-1,1.854295143E0
1.315915900E1,-9.593317683E-1,1.057376565E0,1.797128867E0,2.295219991E0
1.316909700E1,-2.084498466E0,8.377247393E-2,2.449926056E0,3.217808161E0
1.317903600E1,-3.082142215E0,-8.366570377E-1,2.742401444E0,4.209555952E0
1.318897400E1,-3.366208430E0,-4.975565368E-1,2.215060945E0,4.060223724E0
1.319891300E1,-2.355305973E0,1.309549434E0,5.902775165E-1,2.758770287E0
1.320885100E1,-2.186340883E0,1.720796975E0,1.999904897E-1,2.789484698E0
1.321878900E1,-1.888860863E0,2.883197134E0,-4.215234375E-1,3.472506743E0
1.322872800E1,-2.775073931E0,2.658793277E0,-2.087426752E-1,3.848868731E0
1.323866600E1,-2.080301042E0,2.468823087E0,-7.813961720E-1,3.321644147E0
1.324860500E1,-1.950428243E0,2.165987602E0,-1.670492209E0,3.359496517E0
1.325854300E1,-9.506834440E-1,2.669387847E0,-2.167397074E0,3.567497801E0
1.326848100E1,-3.377457011E-1,3.080509672E0,-2.042479790E0,3.711513935E0
1.327842000E1,-2.424890763E-1,2.275836319E0,-8.658711889E-1,2.447031839E0
1.328835800E1,1.621747919E-1,1.416329532E0,-5.538754562E-1,1.529401199E0
1.329829600E1,7.592781287E-1,8.125162232E-1,-5.983791992E-1,1.262831563E0
1.330823500E1,1.469930373E0,7.972152293E-2,-7.109269908E-1,1.634768488E0
1.331817300E1,1.693239632E0,-2.008892798E-1,-5.763965920E-1,1.799902771E0
1.332811200E1,1.649327335E0,3.499938637E-1,-1.091979510E0,2.008779633E0
1.333805000E1,1.549219202E0,1.214426345E0,-1.374756706E0,2.401013845E0
1.334798800E1,1.406212095E0,1.764284472E0,-1.267297162E0,2.587696707E0
1.335792700E1,8.904449898E-1,2.182756248E0,-2.832081360E-1,2.374347061E0
1.336786500E1,1.376343202E-1,2.352141314E0,1.439635657E0,2.761170547E0
1.337780400E1,-1.047449747E-1,1.670790417E0,2.288731184E0,2.835630893E0
1.338774200E1,9.304703504E-2,9.181414962E-1,2.863451087E0,3.008486943E0
1.339768000E1,3.905516133E-1,1.134793700E0,3.192027184E0,3.410179592E0
1.340761900E1,9.993838799E-1,1.569480974E0,3.103321999E0,3.618376169E0
1.341755713E1,1.592623377E0,2.082512752E0,2.168251060E0,3.402149503E0
1.342749612E1,2.173093724E0,2.864686019E0,-1.650002396E-1,3.599442651E0
1.343743412E1,2.538462841E0,3.426508718E0,-2.610425109E0,4.999907483E0
1.344737212E1,7.553944811E-1,2.963839594E0,-3.163029088E0,4.399968064E0
1.345731113E1,-4.463500720E0,5.724389040E-1,3.336967966E0,5.602310254E0
1.346724913E1,-7.199924555E0,-2.944399356E0,7.262990284E0,1.064234133E1
1.347718812E1,8.950993735E-1,-6.749527566E0,-1.623246707E0,6.999446773E0
1.348712612E1,3.245641182E0,-8.301548170E0,-3.099753151E0,9.437073609E0
1.349706412E1,-3.869541869E-1,-8.397875785E0,5.708598635E-1,8.426145752E0
1.350700313E1,-8.623912185E-1,-5.893740193E0,3.334164226E-1,5.965824217E0
1.351694113E1,-1.491331914E0,-3.892627115E0,-5.361168775E-1,4.202860697E0
1.352687912E1,-1.641626844E0,-3.055143281E0,-1.328264617E0,3.713909808E0
1.353681812E1,-1.852004840E0,-3.484347621E0,-8.206657800E-1,4.030396084E0
1.354675612E1,-4.737800038E-1,-2.835875618E0,-1.380474406E0,3.189414930E0
1.355669513E1,3.498853248E-1,-1.680669288E0,-2.261288008E0,2.839100641E0
1.356663313E1,6.095788830E-1,-1.113279455E0,-2.039056976E0,2.401818251E0
1.357657112E1,4.584529898E-1,-1.128355916E0,-2.561420764E0,2.836237392E0
1.358651012E1,-7.060004193E-1,-8.922927099E-1,-2.406144444E0,2.661607401E0
1.359644812E1,-1.112215846E0,-7.814230692E-1,-2.481873488E0,2.829724741E0
1.360638713E1,-2.923672877E-1,-8.923120058E-1,-2.970871455E0,3.115730500E0
1.361632513E1,-4.726090989E-1,-8.796995616E-1,-2.534722377E0,2.724343629E0
1.362626312E1,-7.757416221E-1,-2.442300117E-1,-2.127401826E0,2.277556123E0
1.363620212E1,-7.426267203E-1,3.395396268E-1,-1.645811112E0,1.837246804E0
1.364614012E1,-4.453493795E-1,9.462326896E-1,-1.299089935E0,1.667731103E0
1.365607913E1,-4.063519594E-1,1.530323925E0,-1.062151401E0,1.906614494E0
1.366601713E1,-5.328789818E-1,1.957165990E0,-8.264694339E-1,2.190321996E0
1.367595512E1,-5.037595555E-1,2.185799139E0,-8.249661148E-1,2.389991769E0
1.368589412E1,-1.942010153E-1,2.362521876E0,-1.037146368E0,2.587449756E0
1.369583212E1,-1.035439566E-1,2.560072396E0,-1.180946943E0,2.821228049E0
1.370577113E1,7.515075445E-2,2.808899488E0,-1.290902663E0,3.092247348E0
1.371570913E1,1.261264516E-1,3.178097363E0,-1.292674370E0,3.433251775E0
1.372564712E1,6.844964066E-1,3.451715480E0,-1.273773830E0,3.742375563E0
1.373558612E1,1.192890758E0,3.644331535E0,-1.130301869E0,3.997714723E0
1.374552412E1,1.273879372E0,3.688138289E0,-1.157142928E0,4.069903248E0
1.375546313E1,1.245413957E0,3.386092179E0,-1.239573466E0,3.814868090E0
1.376540113E1,1.549410991E0,3.190955390E0,-1.450150412E0,3.832206536E0
1.377533912E1,1.702473848E0,3.126698583E0,-1.081802650E0,3.720881375E0
1.378527812E1,1.826664323E0,2.764244887E0,-5.023261837E-1,3.351131740E0
1.379521612E1,1.811599556E0,2.326055716E0,5.772827375E-1,3.004277534E0
1.380515413E1,1.679625560E0,2.668497316E0,1.475686373E0,3.481331673E0
1.381509312E1,1.608773679E0,3.081806585E0,1.614149609E0,3.832905364E0
1.382503112E1,1.103621536E0,3.265810275E0,1.382569756E0,3.714161598E0
1.383497012E1,6.582171922E-1,3.518113537E0,1.137718770E0,3.755632667E0
1.384490813E1,3.651624547E-1,3.649299329E0,1.612527299E0,4.006366621E0
1.385484613E1,-3.359871510E-1,3.375812774E0,1.778365152E0,3.830350097E0
1.386478512E1,-1.073643226E0,2.741801519E0,1.915489083E0,3.512731669E0
1.387472312E1,-1.542621204E0,1.926392094E0,1.976454785E0,3.161809639E0
1.388466212E1,-1.889218420E0,1.053093479E0,2.074652925E0,2.997054700E0
1.389460013E1,-1.995662304E0,2.602969909E-1,2.238370285E0,3.010103667E0
1.390453813E1,-1.872066490E0,-4.437603986E-1,2.559794361E0,3.202202899E0
1.391447712E1,-1.300590038E0,-6.936318040E-1,2.753014140E0,3.122778632E0
1.392441512E1,-7.598260859E-1,-1.237330474E0,3.087561122E0,3.411943151E0
1.393435412E1,-2.349715122E-1,-1.959079199E0,3.388423756E0,3.921048134E0
1.394429213E1,5.133118594E-1,-2.587964784E0,3.530537994E0,4.407465180E0
1.395423013E1,1.457578130E0,-3.209005744E0,3.480564180E0,4.953441116E0
1.396416912E1,1.823857074E0,-4.015018694E0,3.002480333E0,5.334952474E0
1.397410712E1,1.021401570E0,-4.848312998E0,2.268973735E0,5.449554285E0
1.398404512E1,-8.224230145E-1,-6.503983685E0,1.346656449E0,6.692657692E0
1.399398413E1,-2.919109271E0,-8.823936662E0,5.285590589E-3,9.294250109E0
1.400392213E1,-1.690978806E0,-1.061679648E1,-1.823356260E0,1.090414622E1
1.401386112E1,4.457274020E-2,-1.086553118E1,-2.168215392E0,1.107984263E1
1.402379912E1,9.934942719E-1,-8.958064188E0,-1.440342000E0,9.127350653E0
1.403373712E1,7.131016434E-1,-7.029080023E0,-2.204052392E-1,7.068596635E0
1.404367613E1,1.744475859E-1,-5.606128519E0,-2.432161045E-1,5.614112842E0
1.405361413E1,9.135631263E-1,-4.519265031E0,-4.373693919E-1,4.631376252E0
1.406355312E1,8.317090508E-1,-3.682496896E0,-3.824956119E-3,3.775253364E0
1.407349112E1,-1.200371978E-1,-2.841556188E0,-4.217736983E-1,2.875194524E0
1.408342912E1,-3.723168520E-1,-1.925696275E0,-1.057246610E0,2.228159864E0
1.409336813E1,-8.981988363E-2,-7.982174420E-1,-1.318481933E0,1.543895497E0
1.410330613E1,3.862194843E-1,-3.051205766E-1,-1.215947498E0,1.311789760E0
1.411324512E1,5.279596462E-1,-3.374556792E-1,-8.238595292E-1,1.035066301E0
1.412318312E1,5.284414568E-1,-2.876795018E-1,-7.167139801E-1,9.357824524E-1
1.413312112E1,7.930686032E-1,3.751573563E-3,-9.918069117E-1,1.269902687E0
1.414306013E1,1.284188598E0,3.062110823E-1,-1.261300403E0,1.825865354E0
1.415299813E1,1.566056260E0,7.595714396E-1,-1.371940248E0,2.216235779E0
1.416293712E1,1.641162575E0,1.396392281E0,-1.739143199E0,2.769105463E0
1.417287512E1,1.881263868E0,1.279688873E0,-2.366616096E0,3.282929957E0
1.418281312E1,2.232321633E0,1.318784527E0,-2.194210797E0,3.396617953E0
1.419275213E1,2.185511163E0,1.782578655E0,-1.921341415E0,3.412564804E0
1.420269013E1,2.399897863E0,2.337993391E0,-1.482331148E0,3.663745145E0
1.421262813E1,2.663397959E0,3.006935327E0,-8.751340556E-1,4.111107924E0
1.422256712E1,2.232752573E0,3.609307882E0,-1.176539238E0,4.404149409E0
1.423250512E1,1.763438087E0,3.954525740E0,-1.645184290E0,4.631913111E0
1.424244413E1,1.237591259E0,4.064870886E0,-1.871421250E0,4.642954333E0
1.425238213E1,8.142725806E-1,4.286170456E0,-1.758405097E0,4.703858576E0
1.426232013E1,7.051453371E-1,4.613628566E0,-1.754890920E0,4.986225089E0
1.427225912E1,5.736707662E-1,4.538653228E0,-1.427660851E0,4.792357122E0
1.428219712E1,-1.647603576E-1,4.069755650E0,2.934191287E-1,4.083644427E0
1.429213613E1,-8.721275635E-1,3.296036287E0,1.586707456E0,3.760598655E0
1.430207413E1,-1.491679238E0,2.617192676E0,2.352703232E0,3.822305188E0
1.431201213E1,-1.813846787E0,1.844391911E0,2.352774568E0,3.496765628E0
1.432195112E1,-2.138117141E0,1.572572397E0,2.357369310E0,3.549889987E0
1.433188912E1,-2.369700210E0,1.011038550E0,1.652257082E0,3.060658672E0
1.434182813E1,-2.271164979E0,2.425653094E-1,5.223116013E-1,2.343040268E0
1.435176613E1,-2.045284992E0,-3.440782356E-1,-1.619841288E0,2.631628076E0
1.436170413E1,-1.661115029E0,-2.160675992E0,-2.682216053E0,3.823886353E0
1.437164312E1,-1.226320020E0,-2.940270052E0,-2.903853008E0,4.310616089E0
1.438158112E1,-5.015770823E-1,-2.910047548E0,-2.197135720E0,3.680674079E0
1.439152013E1,1.382132676E-1,-2.527039136E0,-1.641318696E0,3.016447706E0
1.440145813E1,9.446624199E-1,-2.471759559E0,-1.093477274E0,2.863158213E0
1.441139613E1,1.703207965E0,-1.971071838E0,-7.317024404E-1,2.705814115E0
1.442133537E1,1.670530508E0,-1.575618212E0,-9.347797483E-1,2.479326140E0
1.443127337E1,1.582618791E0,-4.096208453E-1,-1.131363723E0,1.988078305E0
1.444121138E1,1.344488887E0,5.175814962E-1,-1.759086005E0,2.273746807E0
1.445115038E1,1.332894443E0,1.538490146E0,-1.863256783E0,2.759580650E0
1.446108837E1,9.621420132E-1,2.813239877E0,-2.191307508E0,3.693489468E0
1.447102737E1,7.423092896E-1,4.327812572E0,-2.490810957E0,5.048279307E0
1.448096537E1,6.349529484E-1,5.454656982E0,-2.167683295E0,5.903837643E0
1.449090338E1,4.535581394E-1,5.505806086E0,-1.255758851E0,5.665381358E0
1.450084238E1,-7.168686390E-4,5.216837273E0,-6.313425851E-1,5.254901056E0
1.451078037E1,-1.883101648E-1,5.017962944E0,-1.330241561E-2,5.021512698E0
1.452071937E1,-3.127988479E-1,4.664157865E0,3.345624769E-1,4.686591913E0
1.453065737E1,-1.461930359E-1,4.090651844E0,7.343462589E-1,4.158613873E0
1.454059538E1,-5.493780702E-2,3.342538608E0,6.646337074E-1,3.408419058E0
1.455053438E1,1.101497754E-1,3.163820216E0,1.070856151E-1,3.167547736E0
1.456047237E1,7.253726833E-2,3.462128786E0,-2.752831122E-1,3.473813205E0
1.457041137E1,-4.252016285E-1,3.453194826E0,-3.357249033E-1,3.495434471E0
1.458034937E1,-9.026829929E-1,3.164963931E0,4.281126648E-2,3.291453490E0
1.459028738E1,-1.480771988E0,2.806179364E0,8.243653134E-1,3.278247470E0
1.460022638E1,-1.042577043E0,2.576590195E0,1.878368619E0,3.354706037E0
1.461016437E1,-1.646294530E-1,2.710051138E0,2.640441498E0,3.787269641E0
1.462010237E1,6.400748900E-1,2.888802860E0,2.086497922E0,3.620545733E0
1.463004137E1,5.182357997E-1,2.725472585E0,8.950894332E-1,2.915125083E0
1.463997938E1,-8.322350809E-1,-9.394955277E-1,6.285029433E0,6.409123345E0
1.464991837E1,-4.079917526E0,-1.306721955E1,1.802335929E1,2.263270717E1
1.465985637E1,-2.026340890E0,-2.338640912E1,4.784493271E0,2.395666013E1
1.466979437E1,5.640026582E0,-1.654212976E1,-1.276820112E1,2.164437379E1
1.467973338E1,3.932354853E-1,-9.697974365E0,-3.868033141E0,1.044830232E1
1.468967138E1,-7.324949574E-1,-3.158552459E0,3.431258704E0,4.720862082E0
1.469961037E1,3.770562395E-1,3.575216861E0,1.727396142E0,3.988514064E0
1.470954837E1,-1.793695528E-1,5.800268943E0,1.172972218E0,5.920401766E0
1.471948637E1,-1.254143704E-1,4.979247944E0,-3.625054434E-1,4.994001307E0
1.472942538E1,1.333789651E0,3.397953256E0,-3.175257078E0,4.838113131E0
1.473936338E1,1.574422164E0,1.624683368E0,-4.513942603E0,5.049166170E0
1.474930237E1,7.064475851E-1,3.120325702E-1,-3.793005763E0,3.870830045E0
1.475924037E1,-2.206340115E-1,-7.225702590E-1,-7.494564874E-1,1.064176758E0
1.476917837E1,-1.000747158E0,-4.304541239E0,1.549001101E0,4.682945073E0
1.477911738E1,1.210942574E0,-8.700437036E0,6.128139281E-1,8.805653152E0
1.478905538E1,5.556620729E-1,-7.945401866E0,1.078882624E0,8.037546819E0
1.479899338E1,-2.085786608E-1,-5.606150154E0,3.239990433E-1,5.619377188E0
1.480893237E1,-1.308228110E0,-4.791329543E0,-1.730069489E0,5.259414417E0
1.481887037E1,-1.959190881E0,-3.569993543E0,-1.988481338E0,4.531814298E0
1.482880938E1,-1.467131165E0,-2.225432736E0,-1.256416955E0,2.946796274E0
1.483874738E1,-5.879775873E-1,-1.827189403E0,-1.823118571E0,2.647281640E0
1.484868538E1,-8.456032777E-1,-9.202815771E-1,-2.463691571E0,2.762560269E0
1.485862437E1,-6.986146550E-1,-1.958489799E-1,-1.617502548E0,1.772775720E0
1.486856237E1,-3.135730923E-1,9.620002913E-1,-1.555591790E-1,1.023704695E0
1.487850138E1,-5.366179108E-1,1.747854381E0,2.280750758E0,2.923145179E0
1.488843938E1,-7.879131863E-1,1.570274441E0,1.257008693E0,2.160240696E0
1.489837738E1,-2.116703614E0,1.979398273E0,-7.165455803E-1,2.985278762E0
1.490831637E1,-3.001297734E0,2.247985446E0,-2.359692993E0,4.430505352E0
1.491825437E1,-3.300424622E0,3.390131435E0,-3.259823896E0,5.745628396E0
1.492819237E1,-2.885130516E0,4.269369067E0,-3.266624207E0,6.101010083E0
1.493813138E1,-2.689649034E0,4.999225541E0,-2.227506158E0,6.098217086E0
1.494806938E1,-2.713800081E0,5.322488274E0,-1.514855701E0,6.163471432E0
1.495800837E1,-2.236855856E0,4.853002465E0,-1.080305544E0,5.451808610E0
1.496794637E1,-1.720781772E0,4.739764702E0,-8.664801764E-1,5.116370514E0
1.497788437E1,-1.170114902E0,4.456118610E0,-7.342399858E-1,4.665326388E0
1.498782338E1,-5.724134321E-1,3.898694186E0,-5.253924993E-1,3.975362974E0
1.499776138E1,4.687440528E-1,3.093786945E0,-4.595547514E-1,3.162661730E0
1.500770037E1,1.373491369E0,2.374486449E0,-1.602207255E-1,2.747787313E0
1.501763837E1,1.993110286E0,2.090604129E0,5.456969556E-1,2.939540679E0
1.502757637E1,2.213331923E0,1.714555072E0,9.287536079E-1,2.949766187E0
1.503751538E1,2.917960293E0,1.312389427E0,9.986123398E-1,3.351728641E0
1.504745338E1,3.185732949E0,1.451393530E0,9.083032635E-1,3.616690811E0
1.505739237E1,2.668882940E0,1.592740613E0,4.703032494E-1,3.143396881E0
1.506733037E1,1.332556474E0,2.103904790E0,1.062510420E0,2.707591275E0
1.507726837E1,-3.913003492E-1,2.635205609E0,2.180272350E0,3.442529896E0
1.508720738E1,-1.787308176E0,1.863397116E0,2.257220539E0,3.429542810E0
1.509714538E1,-1.714899181E0,6.777039886E-1,1.835997648E0,2.602123990E0
1.510708337E1,-8.432342783E-1,-1.474977690E-1,1.606071388E0,1.819962896E0
1.511702237E1,-1.018330320E0,-6.418196261E-1,1.967174377E0,2.306231580E0
1.512696037E1,-1.041136216E0,-8.557195455E-1,2.236887724E0,2.611491384E0
1.513689938E1,-8.746922985E-1,-1.136527984E0,2.718094861E0,3.073242937E0
1.514683738E1,-4.324790731E-1,-1.613038638E0,2.711885702E0,3.184847855E0
1.515677537E1,3.599317914E-1,-2.266449199E0,2.783328445E0,3.607389652E0
1.516671437E1,8.408363351E-1,-3.198464384E0,2.822224123E0,4.347657894E0
1.517665237E1,5.254313833E-1,-4.228436803E0,3.145114681E0,5.295989265E0
1.518659138E1,-5.098321813E-1,-5.153480937E0,3.540138245E0,6.273027452E0
1.519652938E1,-1.315631123E0,-5.696535244E0,3.668926970E0,6.902349176E0
1.520646737E1,-1.703069971E0,-5.709083953E0,3.238449107E0,6.780976296E0
1.521640637E1,-1.934936630E0,-5.443515113E0,3.010411204E0,6.514477122E0
1.522634437E1,-2.577335131E0,-5.003740761E0,2.618928422E0,6.207967788E0
1.523628238E1,-4.601766905E0,-5.058001753E0,1.257488457E0,6.952763307E0
1.524622138E1,-3.248071285E0,-4.916154149E0,2.622528845E-1,5.898077251E0
1.525615937E1,-1.314498518E0,-4.585070765E0,5.322372499E-1,4.799380873E0
1.526609837E1,-8.318178821E-1,-4.022669776E0,1.840563154E-1,4.111893705E0
1.527603637E1,-5.854177494E-2,-3.054878402E0,-7.392842326E-1,3.143604678E0
1.528597438E1,2.786950357E-1,-2.669954442E0,-9.012222853E-1,2.831700770E0
1.529591338E1,1.005460379E0,-2.572973692E0,-2.854952744E-1,2.777166136E0
1.530585137E1,1.441266445E0,-2.347188722E0,1.966664207E-1,2.761380370E0
1.531579037E1,1.287407783E0,-2.105616855E0,2.723749995E-1,2.482987974E0
1.532572837E1,1.415772585E0,-1.400426275E0,-6.544437647E-2,1.992457962E0
1.533566638E1,9.488217636E-1,-8.518475193E-1,-5.504858252E-1,1.388863413E0
1.534560538E1,5.538177149E-1,-6.581035370E-1,-1.441486739E0,1.678600115E0
1.535554337E1,7.550076147E-1,-4.896054929E-1,-2.087780801E0,2.273450837E0
1.536548137E1,4.818232144E-1,-6.621866477E-1,-2.364407311E0,2.502212361E0
1.537542037E1,9.569264431E-1,-5.374234378E-1,-2.102593552E0,2.371799278E0
1.538535838E1,1.563800989E0,-2.559794068E-2,-1.593267740E0,2.232628692E0
1.539529737E1,1.725483226E0,2.584364069E-1,-2.053995881E0,2.694991803E0
1.540523537E1,1.870666082E0,2.093572176E-1,-3.556342049E0,4.023778175E0
1.541517337E1,2.730411143E0,-7.890396523E-1,-3.675987775E0,4.646570209E0
1.542511250E1,3.004759870E0,-1.648381548E0,-2.886936429E0,4.481087541E0
1.543505050E1,3.181417412E0,-1.238251995E0,-2.325069290E0,4.130451786E0
1.544498950E1,3.696925777E0,-1.155779357E0,-1.535623841E0,4.166680538E0
1.545492750E1,3.797530339E0,-1.322082941E0,-1.237628682E0,4.207239562E0
1.546486550E1,4.048103702E0,-8.698107505E-1,-1.263706094E0,4.329049251E0
1.547480450E1,4.066313978E0,-5.346471798E-1,-5.795175433E-1,4.142052337E0
1.548474250E1,3.960684905E0,-2.748466176E-1,2.493358004E-1,3.978031413E0
1.549468050E1,3.736544757E0,1.168753159E-1,-4.223139811E-1,3.762150403E0
1.550461950E1,3.941185610E0,7.321205163E-1,-3.782750916E-1,4.026417329E0
1.551455750E1,3.996820990E0,1.700291374E0,-1.046005484E0,4.467627587E0
1.552449650E1,3.622788638E0,3.002134763E0,-1.597366930E0,4.968801843E0
1.553443450E1,2.950168219E0,4.336536033E0,-1.399342786E0,5.428369692E0
1.554437250E1,2.292776288E0,5.508166022E0,-1.638809656E0,6.187278329E0
1.555431150E1,2.003993124E0,5.934518675E0,-1.771273649E0,6.509370990E0
1.556424950E1,1.789125929E0,6.520845301E0,-1.702874236E0,6.972960325E0
1.557418850E1,3.909465196E-1,6.531779010E0,-7.021851841E-1,6.581036411E0
1.558412650E1,-3.445334121E0,4.545032541E0,2.116767495E0,6.083449074E0
1.559406450E1,-7.197390372E0,1.150968853E0,5.276208147E0,8.998084789E0
1.560400350E1,-8.505351702E0,-1.419233844E0,5.275491278E0,1.010871112E1
1.561394150E1,-6.874510632E0,-1.126435690E0,2.577004763E0,7.427564024E0
1.562387950E1,-3.938012618E0,9.781216496E-1,1.857882607E-1,4.061918589E0
1.563381850E1,-3.295584297E0,1.654322319E0,-1.108675357E0,3.850560900E0
1.564375650E1,-2.746177576E0,1.400290035E0,-2.122579920E0,3.742679385E0
1.565369550E1,-1.495276007E0,1.605057188E0,-1.838000904E0,2.861871108E0
1.566363350E1,-3.038017737E-1,2.821437088E0,-7.810181496E-1,2.943262155E0
1.567357150E1,6.478583381E-1,3.512086812E0,2.200728250E-1,3.578114902E0
1.568351050E1,1.056866103E0,2.914011376E0,4.590365419E-1,3.133551149E0
1.569344850E1,1.308336429E0,1.776750151E0,4.668738574E-2,2.206980975E0
1.570338750E1,2.234219931E0,9.215229410E-1,-1.154269606E0,2.678298257E0
1.571332550E1,2.472552441E0,2.243722826E-1,-1.469599421E0,2.885061690E0
1.572326350E1,1.965005937E0,-3.952156448E-1,-1.859865983E0,2.734327195E0
1.573320250E1,1.908000554E0,7.609373492E-1,-2.264418169E0,3.057299692E0
1.574314050E1,1.353329877E0,1.382451349E0,-2.331546836E0,3.029650828E0
1.575307850E1,7.157173222E-1,1.970120496E0,-1.367752619E0,2.502873005E0
1.576301750E1,1.561408308E-1,2.555865324E0,3.409160614E-2,2.560857230E0
1.577295550E1,-6.608526054E-1,2.549098341E0,6.484474450E-1,2.712031086E0
1.578289450E1,-8.934182990E-1,2.206590668E0,1.357769375E0,2.740579557E0
1.579283250E1,-1.221343309E0,1.895272043E0,1.777497425E0,2.871103044E0
1.580277050E1,-8.639152953E-1,1.625563374E0,2.810647806E0,3.359843301E0
1.581270950E1,-4.941595969E-1,1.638116176E0,3.119808809E0,3.558205350E0
1.582264750E1,3.874005488E-1,1.597331262E0,2.619641490E0,3.092582720E0
1.583258650E1,1.623419784E0,6.628906524E-1,1.671804617E0,2.422776607E0
1.584252450E1,8.760976768E-1,-5.495371145E-1,6.311671686E-1,1.211573429E0
1.585246250E1,-3.425735424E0,-2.837509330E0,3.887952559E0,5.907901276E0
1.586240150E1,-8.102303127E0,-8.186996537E0,8.790361365E0,1.448946794E1
1.587233950E1,-4.656886852E0,-1.231723345E1,1.744826108E0,1.328326967E1
1.588227750E1,4.988511103E0,-5.632484259E0,-7.005662509E0,1.028053642E1
1.589221650E1,3.041654339E0,-2.656150335E0,-2.599007835E0,4.802253372E0
1.590215450E1,-1.048187665E0,-3.056101055E0,4.681313011E-1,3.264597671E0
1.591209350E1,-4.709163665E-1,-9.353451741E-1,5.697687730E-1,1.192169985E0
1.592203150E1,-1.504999049E0,9.880332649E-2,1.236154891E0,1.950093113E0
1.593196950E1,-2.176146555E0,-3.589325023E-1,1.541316690E0,2.690744044E0
1.594190850E1,3.523554810E-1,-1.387840728E0,9.661830971E-1,1.727358112E0
1.595184650E1,1.504817639E0,-2.305006324E0,-6.900939462E-1,2.837914716E0
1.596178550E1,1.624444216E0,-2.900175110E0,-1.542799544E0,3.664705324E0
1.597172350E1,1.287798084E0,-3.257792573E0,-1.706059653E0,3.896444006E0
1.598166150E1,6.207579553E-1,-3.026487247E0,-1.710315256E0,3.531309073E0
1.599160050E1,-4.113798340E-1,-2.170316296E0,-1.355767142E0,2.591835399E0
1.600153850E1,-8.343421251E-1,-1.598932815E0,-1.670350122E0,2.458207163E0
1.601147650E1,-1.082143908E0,-1.068112053E0,-1.706051466E0,2.285281252E0
1.602141550E1,-1.322482890E0,-6.038442993E-1,-1.851826061E0,2.354325528E0
1.603135350E1,-1.430296192E0,-3.644698155E-1,-1.778785567E0,2.311420242E0
1.604129250E1,-2.098451385E0,-2.350346804E-1,-1.656295754E0,2.683664498E0
1.605123050E1,-2.241152683E0,8.953899801E-2,-1.247200574E0,2.566377184E0
1.606116850E1,-1.940800803E0,-9.075580359E-2,-7.991541660E-1,2.100855005E0
1.607110750E1,-2.157590708E0,4.544543713E-1,-9.351685882E-1,2.395050465E0
1.608104550E1,-2.344844135E0,1.164965333E0,-1.302718717E0,2.924468208E0
1.609098450E1,-1.377822109E0,1.025799261E0,-2.041130837E0,2.667746799E0
1.610092250E1,-1.359527341E0,1.263794972E0,-2.491437778E0,3.106888238E0
1.611086050E1,-1.114149667E0,1.394341078E0,-3.091027644E0,3.569309235E0
1.612079950E1,-5.131864366E-1,1.913707144E0,-2.257367889E0,3.003555416E0
1.613073750E1,1.608941786E-1,2.673434705E0,-1.798187213E0,3.225928906E0
1.614067550E1,4.067659423E-1,3.487555404E0,-1.336072404E0,3.756805917E0
1.615061450E1,5.899074608E-1,3.071844099E0,-1.330954921E0,3.399361408E0
1.616055250E1,4.660160708E-1,2.821229512E0,-1.041824141E0,3.043337720E0
1.617049150E1,1.257916473E0,3.174122425E0,-1.649848176E-1,3.418278370E0
1.618042950E1,1.896615294E0,3.500662522E0,-3.077828139E-3,3.981431544E0
1.619036750E1,1.266679842E0,3.922099421E0,1.021971820E0,4.246382942E0
1.620030650E1,1.396148306E0,3.404038453E0,1.758241228E0,4.077759201E0
1.621024450E1,9.812680364E-1,3.427033798E0,1.881389583E0,4.030765979E0
1.622018350E1,1.291687506E0,3.534868149E0,1.576276170E0,4.080244601E0
1.623012150E1,1.970689284E0,3.897524743E0,6.973409852E-1,4.422736690E0
1.624005950E1,8.654177374E-1,5.082829031E0,1.239537213E0,5.302881417E0
1.624999850E1,-8.412573346E-1,5.656515731E0,2.175660067E0,6.118609388E0
1.625993650E1,-1.583906640E0,4.928101180E0,2.234668120E0,5.638145359E0
1.626987450E1,-1.101236822E0,3.286336341E0,1.719731612E0,3.869135033E0
1.627981350E1,-7.470136669E-1,1.946943887E0,1.594589503E0,2.625135349E0
1.628975150E1,-5.181974273E-1,7.163073063E-1,1.047434544E0,1.370672774E0
1.629969050E1,-8.119421728E-1,1.432959598E-1,9.364532214E-1,1.247689248E0
1.630962850E1,-9.865554542E-1,-1.170473410E0,5.963698035E-1,1.642850148E0
1.631956650E1,6.037799799E-1,-2.773503953E0,1.026431930E0,3.018350038E0
1.632950550E1,2.102528794E0,-4.712214376E0,1.680449725E0,5.426739623E0
1.633944350E1,2.239782388E0,-6.635965868E0,2.594190022E0,7.468767637E0
1.634938150E1,1.059348684E0,-8.029980671E0,3.717079376E0,8.911761234E0
1.635932050E1,-2.580359091E-1,-7.259503589E0,4.622765718E0,8.610280935E0
1.636925850E1,-1.319153194E0,-5.205738673E0,5.574888600E0,7.740753399E0
1.637919750E1,-1.369604286E0,-3.192786738E0,5.971980032E0,6.908997652E0
1.638913550E1,-4.619635119E-1,-2.613866195E0,5.772901050E0,6.353903785E0
1.639907350E1,-3.194015969E-1,-2.541718571E0,5.250907245E0,5.842463313E0
1.640901250E1,-5.519460212E-1,-3.352573015E0,4.144757592E0,5.359422145E0
1.641894962E1,-3.042145798E0,-5.735797543E0,2.671941618E0,7.020918495E0
1.642888862E1,-3.420542219E0,-7.262997301E0,-1.899380296E-2,8.028175361E0
1.643882663E1,-2.017733058E-1,-7.620760360E0,-1.728734570E0,7.816983059E0
1.644876463E1,1.881895952E0,-6.788165967E0,-3.076297338E0,7.686633521E0
1.645870362E1,2.315190420E0,-5.717302800E0,-4.153266461E0,7.436214109E0
