"Time (s)","Linear Acceleration x (m/s^2)","Linear Acceleration y (m/s^2)","Linear Acceleration z (m/s^2)","Absolute acceleration (m/s^2)"
6.207333325E-3,-1.797094222E0,3.815980643E0,1.090034434E0,4.356538876E0
1.614433333E-2,-2.342810474E0,3.350023044E0,-6.315513307E-1,4.136456502E0
2.608033332E-2,-3.096423454E0,2.801562402E0,-1.989725626E0,4.625537608E0
3.601733333E-2,-3.058090863E0,2.024193208E0,-2.459221374E0,4.415546131E0
4.595333333E-2,-2.274907635E0,1.055078609E0,-2.597110999E0,3.610177442E0
5.588933332E-2,-7.985469326E-1,5.975456786E-1,-2.340322045E0,2.543982177E0
6.582633333E-2,1.251033716E0,2.742694974E-2,-1.527421952E0,1.974551953E0
7.576233333E-2,2.590319165E0,1.938287669E-1,-1.405196434E0,2.953286303E0
8.569933333E-2,4.937245055E0,7.262195063E-1,-1.398680297E0,5.182672099E0
9.563533333E-2,6.965416124E0,-3.698726428E-1,-1.702592254E-2,6.975250349E0
1.055713333E-1,8.623471305E0,-1.340899281E0,-6.675754416E-1,8.752595341E0
1.155083333E-1,1.014623244E1,-1.792504889E-1,-1.999239630E0,1.034287787E1
1.254443333E-1,8.772743120E0,3.724325538E-1,-2.607682472E0,9.159679892E0
1.353813333E-1,7.493181131E0,-4.474090612E-1,-3.912322584E0,8.464880763E0
1.453173333E-1,8.168207679E0,-2.451102515E0,-1.771555192E0,8.710104938E0
1.552533333E-1,6.197093157E0,-3.823894265E0,2.908241343E-1,7.287709490E0
1.651903333E-1,8.133737174E0,-5.268452400E-1,-2.619592666E0,8.561396618E0
1.751263333E-1,1.202341203E1,1.202923118E0,2.065072554E0,1.225862902E1
1.850633333E-1,6.318167943E0,4.670884502E-1,3.085049450E0,7.046626703E0
1.949993333E-1,5.703201070E0,1.021730769E0,-3.705392253E-1,5.805836333E0
2.049353333E-1,2.160281889E0,2.098863906E-1,-4.951062611E-1,2.226207616E0
2.148723333E-1,-3.422381169E-1,-1.407152327E0,-3.113473350E0,3.433791040E0
2.248083333E-1,-3.510525606E0,-2.260912471E0,-4.133436506E0,5.875441479E0
2.347443333E-1,-6.012454458E0,-2.765449998E0,-4.007908188E0,7.736966482E0
2.446813333E-1,-6.353592714E0,-3.428790886E0,-2.781716368E0,7.737098505E0
2.546173333E-1,-5.258962369E0,-4.509075673E0,-8.838230181E-1,6.983522875E0
2.645543333E-1,-3.198751482E0,-6.096828026E0,-7.036372671E-1,6.920869052E0
2.744903333E-1,-2.717433833E0,-6.308861514E0,-2.132848800E0,7.192720226E0
2.844263333E-1,-2.490085317E0,-6.471528130E0,-3.519152295E0,7.775965156E0
2.943633333E-1,-1.306844512E0,-6.242390367E0,-3.160368605E0,7.117809339E0
3.042993333E-1,-1.741153179E-1,-5.983963900E0,-2.694417730E0,6.564908759E0
3.142363333E-1,-6.958516994E-1,-5.613410057E0,-2.927869277E0,6.369222916E0
3.241723333E-1,-2.932383035E-1,-4.739175888E0,-1.600225926E0,5.010638663E0
3.341083333E-1,-7.318654315E-1,-3.461787309E0,-6.707045791E-1,3.601311291E0
3.440453333E-1,-1.792661302E0,-2.961266819E0,-5.054590487E-1,3.498317390E0
3.539813333E-1,-2.069161950E0,-2.754395252E0,-6.226463136E-1,3.500830304E0
3.639183333E-1,-2.291519867E0,-2.882833437E0,-4.794395238E-2,3.682945907E0
3.738543333E-1,-3.246064228E0,-2.114872413E0,-1.349426275E0,4.102507717E0
3.837903333E-1,-2.356153966E0,-1.271007512E0,7.865908384E-2,2.678266017E0
3.937273333E-1,-2.392121651E0,6.301234406E-1,5.042381501E-1,2.524590592E0
4.036633333E-1,-2.538162002E0,3.088325061E0,-7.745467436E-1,4.071847331E0
4.136003333E-1,-2.331058886E0,4.686378454E0,-1.209524624E0,5.372050666E0
4.235363333E-1,-1.842496390E0,5.711933302E0,-6.817382750E-1,6.040342876E0
4.334723333E-1,-1.603096178E0,6.368709521E0,4.045755753E-1,6.579822164E0
4.434093333E-1,-1.295334853E0,6.679880211E0,1.150049086E0,6.900819148E0
4.533453333E-1,-1.233464879E0,6.827092052E0,1.353921907E0,7.068502389E0
4.632813333E-1,-1.140193457E0,6.786632828E0,1.554477019E0,7.055127572E0
4.732183333E-1,-1.067753618E0,6.488154688E0,2.016805251E0,6.877772347E0
4.831543333E-1,-1.146386536E0,6.478636590E0,2.453505136E0,7.021867388E0
4.930913333E-1,-1.188565938E0,6.874840999E0,2.918390063E0,7.562613855E0
5.030273333E-1,-1.285275888E0,7.216873294E0,3.296899628E0,8.037707472E0
5.129633333E-1,-1.404341278E0,6.657704646E0,3.631347500E0,7.712579999E0
5.229003333E-1,-1.611131861E0,5.898757104E0,3.589875538E0,7.090718414E0
5.328363333E-1,-1.863499150E0,5.716336840E0,3.593841704E0,7.004629479E0
5.427733333E-1,-2.424006518E0,5.687406571E0,3.405369279E0,7.058253398E0
5.527093333E-1,-2.650453685E0,5.126753315E0,2.948909898E0,6.481093571E0
5.626453333E-1,-2.587600502E0,4.289703344E0,2.684165515E0,5.683482704E0
5.725823333E-1,-2.256065714E0,3.319141560E0,1.646736141E0,4.338003356E0
5.825183333E-1,-1.404526927E0,2.718703848E0,7.024201691E-1,3.139656127E0
5.924543333E-1,-1.322374498E-1,2.284912952E0,6.891880663E-1,2.390249806E0
6.023913333E-1,1.241510940E0,9.997300351E-1,6.262788963E-1,1.712610526E0
6.123273333E-1,2.915053350E0,-2.308241004E-1,6.809374988E-1,3.002414308E0
6.222643333E-1,4.584856465E0,-1.377552552E0,6.554812069E-1,4.831999115E0
6.322003333E-1,5.662207995E0,-1.820587311E0,7.370815864E-1,5.993198378E0
6.421363333E-1,6.980698407E0,-2.689080099E0,7.779087465E-1,7.521066683E0
6.520733333E-1,8.032891999E0,-3.191364695E0,1.204104986E0,8.727086072E0
6.620093333E-1,8.963108581E0,-3.567546483E0,1.535785078E0,9.768487045E0
6.719437917E-1,9.214702576E0,-3.715400348E0,1.767788708E0,1.009158165E1
6.818797917E-1,8.314806731E0,-3.494359224E0,2.063216940E0,9.252211709E0
6.918157917E-1,5.943211731E0,-2.438753196E0,1.953237830E0,6.714493343E0
7.017527917E-1,4.057797509E0,-2.056724777E0,1.365901683E0,4.749897350E0
7.116887917E-1,2.316316301E0,-2.522561923E0,2.094589591E-1,3.431109575E0
7.216257917E-1,9.115893987E-1,-3.719292254E0,-1.270377767E0,4.034599085E0
7.315617917E-1,-7.055279642E-1,-5.036533701E0,-2.642024047E0,5.731032411E0
7.414977917E-1,-2.525755087E0,-5.948827981E0,-3.907496000E0,7.552252518E0
7.514347917E-1,-4.560111925E0,-6.686983994E0,-4.972362263E0,9.499197975E0
7.613707917E-1,-6.556329714E0,-7.076794472E0,-5.217492746E0,1.096762098E1
7.713077917E-1,-7.722376782E0,-7.206391575E0,-4.796104964E0,1.160042264E1
7.812437917E-1,-7.592667997E0,-7.509907091E0,-3.493001208E0,1.123602996E1
7.911797917E-1,-6.201736431E0,-8.009589091E0,-1.763668468E0,1.028229442E1
8.011167917E-1,-4.664527994E0,-8.686476808E0,-8.440970349E-1,9.895716273E0
8.110527917E-1,-3.425686600E0,-8.781774729E0,-1.165682055E0,9.498089846E0
8.209887917E-1,-2.234201805E0,-7.920800875E0,-2.022844255E0,8.474824074E0
8.309257917E-1,-1.591387860E0,-7.493784564E0,-2.057190800E0,7.932298305E0
8.408617917E-1,-1.495635318E0,-6.283081141E0,-1.579976141E0,6.649087022E0
8.507987917E-1,-1.626691594E0,-4.282993664E0,-1.383799425E0,4.785923225E0
8.607347917E-1,-1.804391986E0,-2.289927524E0,-1.092756897E0,3.113473324E0
8.706707917E-1,-1.832810623E0,-5.766945076E-1,-7.801612401E-1,2.073746102E0
8.806077917E-1,-1.760610666E0,9.206008351E-1,-3.321101546E-1,2.014336856E0
8.905437917E-1,-1.683703116E0,2.282441334E0,2.283692931E-1,2.845443227E0
9.004807917E-1,-1.552439556E0,3.468432670E0,7.111889461E-1,3.865990620E0
9.104167917E-1,-1.322634041E0,4.687249689E0,1.064486779E0,4.985258525E0
9.203527917E-1,-1.231810994E0,5.788818340E0,1.451319855E0,6.093775958E0
9.302897917E-1,-1.398773267E0,6.649025039E0,1.667918265E0,6.996288442E0
9.402257917E-1,-1.613178386E0,7.546187895E0,1.660990191E0,7.893426675E0
9.501627917E-1,-1.444697007E0,8.338706641E0,1.615536276E0,8.615749262E0
9.600987917E-1,-1.238261643E0,8.662323714E0,1.638041332E0,8.902377404E0
9.700347917E-1,-9.815627360E-1,8.885653439E0,1.623625606E0,9.085948632E0
9.799717917E-1,-4.966263179E-1,9.045430360E0,1.706702554E0,9.218420782E0
9.899077917E-1,1.095622033E-4,9.062492536E0,2.046939169E0,9.290787423E0
9.998437917E-1,2.191047453E-1,8.900601261E0,2.219875250E0,9.175868123E0
1.009780792E0,7.460097731E-1,8.234104046E0,2.656881237E0,8.684239628E0
1.019716792E0,1.102933172E0,7.579866103E0,2.714352350E0,8.126410056E0
1.029653792E0,1.063992835E0,6.851194859E0,2.553733137E0,7.388674082E0
1.039589792E0,7.714522509E-1,6.271662698E0,1.811951705E0,6.573588103E0
1.049525792E0,5.052734727E-1,5.666913249E0,1.038315957E0,5.783364686E0
1.059462792E0,3.836082640E-1,5.057691266E0,8.606589809E-1,5.144718663E0
1.069398792E0,1.862032668E-1,4.392054176E0,5.364421289E-1,4.428609455E0
1.079335792E0,-4.069472060E-2,3.560456150E0,1.375933166E-1,3.563346177E0
1.089271792E0,-1.103681689E-1,2.012739682E0,-5.794576094E-2,2.016596110E0
1.099207792E0,-3.204127997E-3,4.383441228E-1,2.074999957E-1,4.849866850E-1
1.109144792E0,6.664204703E-1,-1.427192490E0,7.967110531E-1,1.765146778E0
1.119080792E0,1.682997065E0,-3.072107223E0,1.258250642E0,3.722031245E0
1.129017792E0,3.078406429E0,-4.064725875E0,1.847404543E0,5.423235761E0
1.138953792E0,5.112394307E0,-6.092819760E0,2.262458621E0,8.269083818E0
1.148889792E0,6.212314044E0,-8.789482529E0,2.031602068E0,1.095332168E1
1.158826792E0,6.826564633E0,-1.039666167E1,5.524114595E-1,1.244980791E1
1.168762792E0,7.099404486E0,-1.080031719E1,-8.317923005E-1,1.295145837E1
1.178698792E0,6.516528887E0,-9.413690926E0,-2.214638776E0,1.166136143E1
1.188635792E0,5.121780258E0,-5.927264619E0,-2.376643779E0,8.186179483E0
1.198571792E0,4.724930316E0,-3.223934271E0,-1.404544615E0,5.889946031E0
1.208508792E0,4.491541042E0,-1.734661893E0,-4.005331028E-1,4.831502829E0
1.218444792E0,4.005079305E0,-9.267070824E-1,5.643008955E-1,4.149443548E0
1.228380792E0,4.128386266E0,-7.042240351E-1,8.688145311E-1,4.277188719E0
1.238317792E0,4.463341675E0,-1.297965515E0,1.244501645E0,4.811955708E0
1.248253792E0,3.798108921E0,-2.666233274E0,8.613416433E-1,4.719781846E0
1.258190792E0,1.898480410E0,-4.019001818E0,-4.615020204E-1,4.468734451E0
1.268126792E0,-5.536168630E-1,-5.114524448E0,-1.449537478E0,5.344718034E0
1.278062792E0,-2.991859451E0,-6.078961274E0,-2.868343452E0,7.357471529E0
1.287999792E0,-5.781739701E0,-6.879832183E0,-4.680478613E0,1.013249648E1
1.297935792E0,-8.124810230E0,-6.969620272E0,-6.628133522E0,1.259048458E1
1.307871792E0,-9.169953834E0,-5.588536001E0,-7.914772396E0,1.334029273E1
1.317808792E0,-7.826351970E0,-2.998117141E0,-6.558805425E0,1.064229393E1
1.327744792E0,-5.683418770E0,-6.498841059E-1,-4.102931582E0,7.039719158E0
1.337681792E0,-4.118749762E0,9.876286376E-1,-3.034576285E0,5.210389924E0
1.347617792E0,-2.374149942E0,1.232324672E0,-2.688973095E0,3.792860181E0
1.357553792E0,-5.802518074E-1,6.808199698E-1,-1.876027540E0,2.078385749E0
1.367490792E0,7.476439968E-1,-3.529759437E-1,3.506809115E-1,8.980760906E-1
1.377426792E0,1.565038113E0,-8.005697769E-1,1.435445688E0,2.269528715E0
1.387363792E0,1.913054595E0,-2.507496572E-1,1.433559669E0,2.403694365E0
1.397299792E0,1.586596359E0,1.703013253E-1,1.142889901E0,1.962775554E0
1.407235792E0,6.634228952E-1,7.626359653E-1,1.042385766E0,1.452002630E0
1.417172792E0,1.145356257E-1,1.357071510E0,8.119573756E-1,1.585571276E0
1.427108792E0,-3.289979741E-1,2.142064304E0,5.976029813E-1,2.248067720E0
1.437044792E0,-6.298804157E-1,2.886975605E0,5.331504388E-1,3.002603349E0
1.446981792E0,-8.901586955E-1,3.498720662E0,4.972473653E-1,3.644267240E0
1.456917792E0,-1.119690050E0,3.925701306E0,4.127268863E-1,4.103069587E0
1.466854792E0,-1.273357801E0,4.272314894E0,4.064563322E-1,4.476530062E0
1.476790792E0,-1.421816998E0,4.562380060E0,4.213553300E-1,4.797334229E0
1.486726792E0,-1.461029157E0,4.828289208E0,4.595981669E-1,5.065393702E0
1.496663792E0,-1.431282324E0,4.931446956E0,5.811946709E-1,5.167738908E0
1.506599792E0,-1.333685863E0,4.808504570E0,7.286287053E-1,5.042948936E0
1.516536792E0,-1.216925884E0,4.552847929E0,7.876350050E-1,4.778043718E0
1.526472792E0,-1.084611287E0,4.232441561E0,7.852727298E-1,4.439211245E0
1.536408792E0,-9.362637717E-1,3.862964775E0,8.039266634E-1,4.055290962E0
1.546345792E0,-8.295987175E-1,3.423548858E0,8.659771697E-1,3.627511168E0
1.556281792E0,-7.612267864E-1,2.976846725E0,9.008407545E-1,3.201967631E0
1.566218792E0,-7.368114451E-1,2.604729336E0,8.995800948E-1,2.852498969E0
1.576154792E0,-6.954548196E-1,2.287663482E0,9.830606465E-1,2.585240772E0
1.586090792E0,-5.555482715E-1,1.961153791E0,1.101758247E0,2.317030278E0
1.596027792E0,-3.482764634E-1,1.676686165E0,1.192482476E0,2.086764827E0
1.605963792E0,-1.251774850E-1,1.393896105E0,1.275889353E0,1.893808172E0
1.615899792E0,1.811865020E-1,1.085107570E0,1.374799683E0,1.760784244E0
1.625836792E0,5.391867388E-1,7.402206641E-1,1.560557684E0,1.809416828E0
1.635772792E0,9.598733667E-1,4.264912319E-1,1.793586624E0,2.078510194E0
1.645709792E0,1.533316238E0,4.028205335E-2,2.011156694E0,2.529314646E0
1.655645792E0,2.219813561E0,-4.282670313E-1,2.298835026E0,3.224225082E0
1.665580417E0,3.094647363E0,-8.510692549E-1,2.573740847E0,4.114037326E0
1.675517417E0,3.928582521E0,-1.159774759E0,2.814550530E0,4.969963059E0
1.685453417E0,4.758775462E0,-1.648563981E0,2.836782521E0,5.780228557E0
1.695389417E0,5.521455574E0,-2.096919706E0,2.690176745E0,6.490038122E0
1.705326417E0,6.160445148E0,-2.355283023E0,2.174039218E0,6.944414235E0
1.715262417E0,6.294664475E0,-2.059960041E0,1.661389264E0,6.828356355E0
1.725199417E0,5.756311330E0,-1.435117806E0,1.309766512E0,6.075374191E0
1.735135417E0,4.978831623E0,-2.377223530E0,1.233175588E0,5.653377581E0
1.745071417E0,4.054383027E0,-3.665169257E0,1.425935631E-1,5.467341249E0
1.755008417E0,2.615000555E0,-4.816832174E0,-1.954848007E0,5.819066147E0
1.764944417E0,1.046360995E0,-5.901578386E0,-4.068243560E0,7.243901189E0
1.774881417E0,-4.708651302E-1,-6.161292409E0,-5.695152962E0,8.403451992E0
1.784817417E0,-2.466748203E0,-5.010307184E0,-6.669138876E0,8.698588284E0
1.794753417E0,-4.506986755E0,-4.157880791E0,-6.477168939E0,8.919339647E0
1.804690417E0,-6.028802689E0,-3.965480499E0,-5.773962904E0,9.241760929E0
1.814626417E0,-7.008207802E0,-4.120586080E0,-5.299340901E0,9.704494847E0
1.824562417E0,-6.905496197E0,-4.312049063E0,-4.782614268E0,9.442088968E0
1.834499417E0,-5.889141943E0,-4.526158898E0,-4.023637490E0,8.447352594E0
1.844435417E0,-4.786834788E0,-3.964165460E0,-3.643667876E0,7.204492395E0
1.854372417E0,-4.124461614E0,-3.147056834E0,-3.143251758E0,6.065903225E0
1.864308417E0,-3.644929705E0,-2.180671130E0,-2.391707668E0,4.874536358E0
1.874244417E0,-3.149959976E0,-1.114660567E0,-1.511745713E0,3.667436589E0
1.884181417E0,-2.514439263E0,-2.953083640E-1,-8.432151286E-1,2.668449660E0
1.894117417E0,-1.924636760E0,4.535778737E-1,-4.397636805E-1,2.025673132E0
1.904054417E0,-1.423949039E0,8.805631953E-1,-3.689544837E-1,1.714394884E0
1.913990417E0,-8.625230733E-1,1.202095737E0,-3.798139326E-1,1.527494300E0
1.923926417E0,-2.960629472E-1,1.655642620E0,-2.862422562E-1,1.706089208E0
1.933863417E0,1.845100594E-1,2.082133852E0,-2.162005064E-1,2.101444265E0
1.943799417E0,5.542330134E-1,2.595031729E0,-2.300804807E-1,2.663512894E0
1.953735417E0,8.200901216E-1,2.960777407E0,-3.706880370E-1,3.094537167E0
1.963672417E0,1.053321228E0,3.325885738E0,-3.699407628E-1,3.508255652E0
1.973608417E0,1.297269697E0,3.828768504E0,-1.626812339E-1,4.045842570E0
1.983545417E0,1.519186441E0,4.349968257E0,2.469489670E-1,4.614231796E0
1.993481417E0,1.674607772E0,4.684785672E0,3.924430414E-1,4.990545013E0
2.003417417E0,1.753188795E0,4.806722338E0,4.168152595E-1,5.133418505E0
2.013354417E0,1.915120709E0,4.861244701E0,5.424809870E-1,5.252968017E0
2.023290417E0,2.179524491E0,4.886636235E0,7.248457029E-1,5.399531645E0
2.033226417E0,2.445477202E0,4.829013094E0,7.827188122E-1,5.469220689E0
2.043163417E0,2.689793460E0,4.597341732E0,8.038681912E-1,5.386719217E0
2.053099417E0,2.837935592E0,4.213748013E0,8.319161153E-1,5.147973889E0
2.063036417E0,2.895735026E0,3.760345556E0,8.252488276E-1,4.817314155E0
2.072972417E0,2.847141741E0,3.288791587E0,6.650827736E-1,4.400534205E0
2.082908417E0,2.676910874E0,2.809514031E0,5.307125884E-1,3.916743133E0
2.092845417E0,2.468645332E0,2.292843531E0,4.261208108E-1,3.396015338E0
2.102781417E0,2.327806080E0,1.777471697E0,3.779184115E-1,2.953118539E0
2.112718417E0,2.287443335E0,1.246947389E0,4.528118885E-1,2.644298283E0
2.122654417E0,2.290961312E0,7.068318933E-1,7.508777994E-1,2.512355972E0
2.132590417E0,2.341916727E0,2.241775703E-1,1.033506476E0,2.569623547E0
2.142527417E0,2.354979260E0,-5.865342021E-2,1.289180951E0,2.685396631E0
2.152463417E0,2.367439677E0,-3.043914288E-1,1.588583243E0,2.867232374E0
2.162399417E0,2.319014206E0,-5.592464161E-1,1.743405527E0,2.954665171E0
2.172336417E0,2.303693624E0,-7.092304212E-1,1.799424630E0,3.007979572E0
2.182272417E0,2.231969046E0,-9.284039444E-1,1.715851838E0,2.964416846E0
2.192209417E0,2.141825446E0,-1.142125524E0,1.543054629E0,2.876262252E0
2.202145417E0,2.058634185E0,-1.264815311E0,1.399563957E0,2.792223442E0
2.212081417E0,2.029908276E0,-1.316001252E0,1.355013582E0,2.772805207E0
2.222018417E0,1.979888270E0,-1.280876443E0,1.481206290E0,2.784703592E0
2.231954417E0,2.040844616E0,-1.096376324E0,1.656799200E0,2.848169829E0
2.241890417E0,2.203300732E0,-9.994049299E-1,1.930020876E0,3.094886898E0
2.251827417E0,2.348223972E0,-1.302623407E0,2.025735411E0,3.363716325E0
2.261763417E0,2.240127373E0,-2.074047738E0,1.634318117E0,3.462779285E0
2.271700417E0,1.603647132E0,-3.019760025E0,1.012829845E0,3.566014446E0
2.281636417E0,3.776245889E-1,-4.033781240E0,2.431482768E-1,4.058708231E0
2.291572417E0,-1.928431310E0,-5.049717418E0,-8.778214359E-1,5.476227150E0
2.301509417E0,-4.902822789E0,-6.261309033E0,-2.562790182E0,8.355211285E0
2.311445417E0,-8.065456313E0,-7.121161975E0,-4.429403851E0,1.163538362E1
2.321381417E0,-1.028573414E1,-6.963081331E0,-5.577385361E0,1.361572826E1
2.331318417E0,-1.078799009E1,-5.809408141E0,-6.359333510E0,1.380474831E1
2.341254417E0,-8.500219601E0,-3.390366493E0,-6.141808902E0,1.102134905E1
2.351191417E0,-4.058277565E0,-2.280295991E0,-3.465111451E0,5.803133978E0
2.361127417E0,-1.098742107E0,-1.527941769E0,-1.481346477E0,2.395042307E0
2.371063417E0,4.056474065E-1,-5.460124129E-1,-6.994192319E-1,9.756365283E-1
2.381000417E0,1.558618309E0,-2.473723054E-2,-9.182315433E-1,1.809157851E0
2.390936417E0,1.925453908E0,1.807140470E-2,-1.053419169E0,2.194855639E0
2.400872417E0,2.007823927E0,-3.241012233E-1,-6.756326124E-1,2.143100080E0
2.410809417E0,1.814955273E0,-5.370977479E-1,-3.123442268E-1,1.918357514E0
2.420745417E0,1.423999033E0,-4.292324066E-2,-2.554015557E-1,1.447358147E0
2.430682417E0,1.038668691E0,5.080289000E-1,-9.451073930E-2,1.160111327E0
2.440618417E0,6.286221680E-1,1.131621001E0,2.073282337E-1,1.310998442E0
2.450554417E0,2.747013143E-1,1.774880211E0,3.750766647E-1,1.834759679E0
2.460491417E0,-1.315556279E-1,2.316117203E0,5.610321558E-1,2.386726390E0
2.470427417E0,-5.320978304E-1,2.725989479E0,6.289696388E-1,2.847762200E0
2.480364417E0,-8.942056996E-1,3.072094944E0,6.549827318E-1,3.265941450E0
2.490300417E0,-1.285604355E0,3.290463890E0,5.961524333E-1,3.582642725E0
2.500236417E0,-1.650364631E0,3.454420402E0,4.168702233E-1,3.851039407E0
2.510173417E0,-1.968225121E0,3.488455875E0,1.480902381E-1,4.008137378E0
2.520109417E0,-2.079409050E0,3.510592849E0,5.426333070E-2,4.080581901E0
2.530045417E0,-1.840786810E0,3.604709047E0,1.114455914E-1,4.049054645E0
2.539982417E0,-1.424165094E0,3.605544614E0,3.612610097E-1,3.893418510E0
2.549918417E0,-9.356685251E-1,3.538384080E0,5.584324837E-1,3.702361993E0
2.559855417E0,-5.240222774E-1,3.457911775E0,7.971226971E-1,3.587082071E0
2.569791417E0,-1.236144512E-1,3.245468397E0,9.567122157E-1,3.385800335E0
2.579727417E0,2.002498868E-1,2.985868394E0,1.117011148E0,3.194248579E0
2.589664417E0,4.819727569E-1,2.582604057E0,1.395025056E0,2.974598520E0
2.599600417E0,6.843888178E-1,2.100907508E0,1.558840796E0,2.704105219E0
2.609536417E0,7.568513149E-1,1.635048727E0,1.606368134E0,2.413840681E0
2.619473417E0,7.790684686E-1,1.139502463E0,1.685568816E0,2.178659169E0
2.629409417E0,7.474937233E-1,6.793049562E-1,1.758408605E0,2.027856729E0
2.639346417E0,6.115689097E-1,3.179417664E-1,1.776811254E0,1.905823111E0
2.649282417E0,4.176973850E-1,6.039589047E-3,1.696195546E0,1.746879192E0
2.659218417E0,1.961729888E-1,-2.854096127E-1,1.599891904E0,1.636947340E0
2.669155542E0,-3.183165729E-2,-5.082002234E-1,1.470612159E0,1.556271455E0
2.679091542E0,-1.976165932E-1,-6.893457949E-1,1.260495973E0,1.450206896E0
2.689027542E0,-3.301301412E-2,-9.452667296E-1,1.265991478E0,1.580301703E0
2.698964542E0,6.122973997E-1,-1.180363390E0,1.504746011E0,2.008090236E0
2.708900542E0,1.405924997E0,-1.319552266E0,1.712072052E0,2.578572084E0
2.718837542E0,2.218008234E0,-1.521892240E0,1.891997310E0,3.288673035E0
2.728773542E0,2.981639395E0,-1.741031265E0,1.807407249E0,3.897189283E0
2.738709542E0,3.577862141E0,-1.834696643E0,1.550079035E0,4.309286981E0
2.748646542E0,3.957992554E0,-1.841599281E0,1.433123467E0,4.594674726E0
2.758582542E0,4.141236399E0,-1.938728549E0,1.193908758E0,4.725878270E0
2.768518542E0,4.216067603E0,-2.320176340E0,9.661028440E-1,4.908339739E0
2.778455542E0,3.879258918E0,-3.012391949E0,5.197399959E-1,4.938955828E0
2.788391542E0,3.026419419E0,-3.451353537E0,-2.353530613E-1,4.596351467E0
2.798328542E0,1.721963494E0,-3.816923799E0,-1.193676185E0,4.354185159E0
2.808264542E0,-1.464870869E-1,-3.936265470E0,-2.498639502E0,4.664637572E0
2.818200542E0,-2.333818187E0,-3.789564092E0,-3.702499051E0,5.789300697E0
2.828137542E0,-4.198425969E0,-3.423859345E0,-4.094338806E0,6.790670341E0
2.838073542E0,-6.017397695E0,-3.169775605E0,-4.214445293E0,8.001131266E0
2.848009542E0,-7.273797108E0,-3.215839970E0,-3.956758207E0,8.882887289E0
2.857946542E0,-6.993240684E0,-3.426477728E0,-2.742372208E0,8.256316988E0
2.867882542E0,-5.393053057E0,-3.257200835E0,-1.732759209E0,6.534281371E0
2.877819542E0,-4.068315773E0,-2.461205335E0,-1.544914775E0,4.999548638E0
2.887755542E0,-3.837004307E0,-2.035668368E0,-1.319470990E0,4.539554103E0
2.897691542E0,-3.830731999E0,-1.389892516E0,-9.133143273E-1,4.176176710E0
2.907628542E0,-3.745168815E0,-6.914753509E-1,-5.726578823E-1,3.851280912E0
2.917564542E0,-3.675577008E0,-1.457827806E-2,-2.537489864E-1,3.684354410E0
2.927500542E0,-3.364543435E0,4.819386238E-1,-1.469031072E-1,3.402057890E0
2.937437542E0,-2.939500851E0,8.653925943E-1,-2.259364128E-2,3.064323754E0
2.947373542E0,-2.421753586E0,9.661927450E-1,-2.314880517E-1,2.617633582E0
2.957309542E0,-1.921951134E0,1.160216809E0,-3.127889076E-1,2.266679533E0
2.967246542E0,-1.382524732E0,1.582226150E0,-1.967368796E-1,2.110336377E0
2.977182542E0,-9.417551842E-1,2.188045054E0,-1.296646383E-1,2.385635535E0
2.987119542E0,-6.977134529E-1,2.776183147E0,-1.755266896E-1,2.867892353E0
2.997055542E0,-4.968361233E-1,3.352750770E0,-1.790917370E-1,3.394091589E0
3.006991542E0,-2.682819486E-1,3.781632929E0,-7.098870635E-2,3.791801974E0
3.016928542E0,-4.598248562E-2,4.187318598E0,2.033313695E-1,4.192504630E0
3.026864542E0,1.582946344E-1,4.583058153E0,4.825318238E-1,4.611107913E0
3.036801542E0,3.609606090E-1,4.971056580E0,5.839134800E-1,5.018231863E0
3.046737542E0,5.336853129E-1,5.205432279E0,7.537389882E-1,5.286725611E0
3.056673542E0,7.269603485E-1,5.166253011E0,8.065767677E-1,5.279129436E0
3.066610542E0,9.845831153E-1,5.051594374E0,8.853304303E-1,5.222242775E0
3.076546542E0,1.238333856E0,4.731721272E0,8.359530330E-1,4.962003065E0
3.086482542E0,1.512557453E0,4.029354898E0,6.744541061E-1,4.356422762E0
3.096419542E0,1.704907751E0,3.160494320E0,4.146542747E-1,3.614882149E0
3.106355542E0,1.887564828E0,2.333005131E0,8.399291396E-2,3.002144023E0
3.116291542E0,2.048179071E0,1.388157063E0,-1.755322444E-1,2.480489691E0
3.126228542E0,2.112976453E0,5.687955040E-1,-4.440359487E-1,2.232793260E0
3.136164542E0,2.175726725E0,-7.905552506E-2,-5.664779601E-1,2.249651937E0
3.146101542E0,2.148797081E0,-6.082373124E-1,-3.186370003E-1,2.255839325E0
3.156037542E0,2.130283042E0,-7.628195679E-1,2.431414063E-1,2.275767404E0
3.165973542E0,2.144208771E0,-6.823864388E-1,7.438099775E-1,2.369923161E0
3.175910542E0,2.132854647E0,-6.645471686E-1,1.125480693E0,2.501479298E0
3.185846542E0,2.050577599E0,-5.618952048E-1,1.482021392E0,2.591714127E0
3.195782542E0,1.992102226E0,-5.460913503E-1,1.490403960E0,2.547153511E0
3.205719542E0,1.886511452E0,-7.089538479E-1,1.275305508E0,2.384941332E0
3.215655542E0,1.785692005E0,-9.270070446E-1,9.202394772E-1,2.212437275E0
3.225592542E0,1.751245181E0,-1.167779013E0,6.442123067E-1,2.201267136E0
3.235528542E0,1.814611749E0,-1.474452025E0,5.037915690E-1,2.391783962E0
3.245464542E0,1.942583326E0,-1.868433323E0,5.187100089E-1,2.744764678E0
3.255401542E0,2.087749811E0,-2.155085469E0,6.825665331E-1,3.077172358E0
3.265337542E0,2.216732371E0,-2.258055521E0,7.594925022E-1,3.254158263E0
3.275273542E0,2.130318418E0,-2.112255199E0,8.546591529E-1,3.119346222E0
3.285210542E0,1.981413808E0,-1.731887974E0,9.758127303E-1,2.806714648E0
3.295146542E0,2.030661105E0,-1.277277482E0,1.239980724E0,2.700476714E0
3.305083542E0,2.247013054E0,-9.527950197E-1,1.510373518E0,2.870211522E0
3.315019542E0,2.291175320E0,-1.213631124E0,1.315443720E0,2.907365996E0
3.324955542E0,1.939809700E0,-2.189795710E0,6.787165801E-1,3.003118899E0
3.334892542E0,1.105700586E0,-2.897944397E0,2.413904576E-1,3.111097052E0
3.344828542E0,-6.913499281E-1,-3.412992294E0,-5.367090543E-1,3.523426987E0
3.354764542E0,-3.068020312E0,-3.681833237E0,-1.845000021E0,5.135432766E0
3.364701542E0,-5.635641755E0,-3.975721897E0,-3.169020145E0,7.590092969E0
3.374637542E0,-7.854929652E0,-4.134513563E0,-4.609611529E0,1.000213181E1
3.384574542E0,-8.468099676E0,-3.690374849E0,-5.665813973E0,1.083646744E1
3.394510542E0,-6.471046904E0,-2.499254336E0,-5.149677908E0,8.639438803E0
3.404446542E0,-3.029003596E0,-1.280517424E0,-3.307709084E0,4.664282050E0
3.414383542E0,-1.164855113E0,-5.109794050E-1,-1.710733771E0,2.131806140E0
3.424319542E0,4.689556489E-2,-3.300437486E-1,-1.227613425E0,1.272070277E0
3.434255542E0,8.696984839E-1,-6.793283451E-1,-1.232034066E0,1.654016443E0
3.444192542E0,1.188172347E0,-1.541461117E0,-1.059054716E0,2.215728501E0
3.454128542E0,1.248612969E0,-2.150729293E0,-1.216675623E0,2.768568296E0
3.464065542E0,8.999815062E-1,-2.074210290E0,-1.600387602E0,2.770118322E0
3.474001542E0,4.276761702E-1,-1.337479244E0,-1.119341702E0,1.795740371E0
3.483937542E0,5.047669211E-2,-3.704614574E-1,-4.294322352E-1,5.693870674E-1
3.493874542E0,-3.404436064E-1,5.752180856E-1,-1.676535599E-1,6.891193012E-1
3.503810542E0,-5.676874566E-1,1.491695464E0,1.270309062E-1,1.601112506E0
3.513746542E0,-7.607566702E-1,2.135713643E0,4.895755260E-1,2.319419685E0
3.523683542E0,-1.003176092E0,2.616117373E0,6.847463751E-1,2.884321407E0
3.533619542E0,-1.218413562E0,2.985118196E0,6.569991441E-1,3.290457434E0
3.543555542E0,-1.438965858E0,3.267734009E0,6.496560645E-1,3.629154350E0
3.553492542E0,-1.520650584E0,3.457101935E0,6.599917491E-1,3.833995448E0
3.563428542E0,-1.637233539E0,3.599870476E0,5.195810978E-1,3.988679684E0
3.573365542E0,-1.573893283E0,3.671193058E0,3.800924063E-1,4.012389410E0
3.583301542E0,-1.313568810E0,3.730614803E0,4.166092913E-1,3.976998005E0
3.593237542E0,-9.724340630E-1,3.751361893E0,6.156952898E-1,3.923955243E0
3.603174542E0,-6.514423889E-1,3.695247919E0,7.693066151E-1,3.830282893E0
3.613110542E0,-3.980348799E-1,3.647472659E0,8.828979886E-1,3.773857101E0
3.623046542E0,-2.047110200E-1,3.461273339E0,1.047556751E0,3.622111936E0
3.632983542E0,-3.686048202E-2,3.141911868E0,1.177900689E0,3.355654767E0
3.642919542E0,1.242577180E-1,2.731524453E0,1.231124239E0,2.998721846E0
3.652856542E0,2.580011182E-1,2.258779407E0,1.307688996E0,2.622727492E0
3.662792542E0,3.776342368E-1,1.744924926E0,1.345544894E0,2.235589782E0
3.672728917E0,3.823391989E-1,1.231875021E0,1.328371621E0,1.851558937E0
3.682665917E0,3.975627903E-1,7.045421237E-1,1.267108296E0,1.503329375E0
3.692601917E0,3.947548112E-1,2.074972183E-1,1.248845834E0,1.326085357E0
3.702537917E0,4.013668426E-1,-1.614603353E-1,1.241493545E0,1.314713278E0
3.712474917E0,3.438350280E-1,-3.449488860E-1,1.282766994E0,1.372116402E0
3.722410917E0,3.078126713E-1,-4.136437297E-1,1.264652320E0,1.365721518E0
3.732347917E0,3.783303478E-1,-4.740366966E-1,1.275977061E0,1.412785228E0
3.742283917E0,5.497139197E-1,-4.988610506E-1,1.257294914E0,1.460081588E0
3.752219917E0,7.783056262E-1,-6.761287487E-1,1.137866704E0,1.535464219E0
3.762156917E0,1.119811964E0,-9.471816927E-1,1.079004538E0,1.820819263E0
3.772092917E0,1.562245483E0,-1.199403094E0,1.245210912E0,2.330177879E0
3.782028917E0,2.168564470E0,-1.621542828E0,1.337442992E0,3.020070655E0
3.791965917E0,2.873217984E0,-2.253560182E0,1.220891612E0,3.850258615E0
3.801901917E0,3.511760245E0,-2.683200139E0,1.131273822E0,4.561995558E0
3.811837917E0,4.100927741E0,-2.976955483E0,1.147030753E0,5.195724380E0
3.821774917E0,4.631636821E0,-2.908202167E0,1.134969116E0,5.585503951E0
3.831710917E0,5.096453628E0,-2.480308188E0,1.301067171E0,5.815371362E0
3.841647917E0,4.971644225E0,-2.039962564E0,1.715970683E0,5.641209883E0
3.851583917E0,4.148483731E0,-2.340513541E0,1.755141473E0,5.076262650E0
3.861519917E0,3.400919548E0,-3.120673612E0,8.248855694E-1,4.688847808E0
3.871456917E0,2.268085543E0,-3.731262090E0,-1.407062280E-1,4.368790113E0
3.881392917E0,6.619974902E-1,-4.296509503E0,-1.449765666E0,4.582581704E0
3.891328917E0,-1.728818478E0,-4.375841017E0,-3.129221656E0,5.650559805E0
3.901265917E0,-4.383993497E0,-3.998401492E0,-4.653899218E0,7.540914494E0
3.911201917E0,-6.479357552E0,-3.162525058E0,-5.142881105E0,8.856233121E0
3.921138917E0,-7.469047333E0,-1.812067333E0,-4.474726204E0,8.893448751E0
3.931074917E0,-7.344886971E0,-7.757518548E-1,-2.815429951E0,7.904163546E0
3.941010917E0,-6.326095013E0,-9.157090545E-2,-1.505460395E0,6.503404827E0
3.950947917E0,-4.889379163E0,4.368811494E-1,-1.039640790E0,5.017743189E0
3.960883917E0,-3.152289507E0,-1.328709590E-1,-5.417234802E-1,3.201257277E0
3.970819917E0,-2.123612246E0,-3.195678771E-1,5.258181766E-2,2.148166066E0
3.980756917E0,-1.519426762E0,-3.040856194E-1,3.500393258E-1,1.588601044E0
3.990692917E0,-1.319294111E0,-1.876003128E-1,5.157875705E-1,1.428904352E0
4.000628917E0,-1.404833614E0,3.189012945E-2,4.618502221E-1,1.479148434E0
4.010565917E0,-1.628439327E0,1.900140435E-1,3.557302746E-1,1.677636434E0
4.020501917E0,-1.879946491E0,1.581005251E-1,-1.041412497E-1,1.889454943E0
4.030438917E0,-2.014706393E0,1.031285119E-1,-7.198529117E-1,2.141930333E0
4.040374917E0,-1.826374593E0,1.352934605E-1,-9.802105674E-1,2.077200335E0
4.050310917E0,-1.637693422E0,3.940327531E-1,-9.551391685E-1,1.936386425E0
4.060247917E0,-1.438413881E0,9.550549686E-1,-9.414154610E-1,1.966577625E0
4.070183917E0,-1.256038640E0,1.523730020E0,-1.010409097E0,2.218177807E0
4.080119917E0,-9.649467033E-1,2.071021219E0,-9.013013689E-1,2.456134196E0
4.090056917E0,-5.075231159E-1,2.662841304E0,-5.752980463E-1,2.771149827E0
4.099992917E0,4.892074803E-2,3.302730764E0,9.229610637E-2,3.304382289E0
4.109929917E0,5.316738707E-1,3.857706959E0,7.344689043E-1,3.962830384E0
4.119865917E0,8.402334872E-1,4.400605145E0,1.019862876E0,4.594718515E0
4.129801917E0,1.080701400E0,4.733197110E0,1.228100936E0,5.007923952E0
4.139738917E0,1.220854774E0,4.817762466E0,1.443972390E0,5.175555798E0
4.149674917E0,1.453205582E0,4.790827267E0,1.502575086E0,5.227003373E0
4.159610917E0,1.597068430E0,4.693707939E0,1.388057660E0,5.148613974E0
4.169547917E0,1.725965621E0,4.240783784E0,1.163859332E0,4.724169024E0
4.179483917E0,1.962375567E0,3.534425515E0,9.853759977E-1,4.161015194E0
4.189419917E0,2.167443559E0,2.823673064E0,7.419131407E-1,3.636121046E0
4.199356917E0,2.221356057E0,2.151335649E0,3.837594876E-1,3.116077527E0
4.209292917E0,2.194765844E0,1.515493047E0,8.748691767E-2,2.668589561E0
4.219229917E0,2.090963002E0,9.441370475E-1,-8.164642632E-2,2.295688824E0
4.229165917E0,2.007811064E0,5.184936619E-1,-1.161669257E-1,2.076929392E0
4.239101917E0,2.031719744E0,2.806359458E-1,3.532861385E-1,2.081214248E0
4.249038917E0,2.117106926E0,8.997695446E-3,8.963971630E-1,2.299076025E0
4.258974917E0,2.232677728E0,-2.455128908E-1,1.212361986E0,2.552439618E0
4.268910917E0,2.227835649E0,-3.909506857E-1,1.445966291E0,2.684569357E0
4.278847917E0,2.156563060E0,-5.651591206E-1,1.507692862E0,2.691339226E0
4.288783917E0,2.055769342E0,-8.734886491E-1,1.441979513E0,2.658660362E0
4.298719917E0,1.939796543E0,-1.088638119E0,1.400843474E0,2.628746093E0
4.308656917E0,1.791501214E0,-1.440198451E0,1.252561301E0,2.617739099E0
4.318592917E0,1.675564084E0,-1.974111221E0,1.059227793E0,2.797604981E0
4.328529917E0,1.508024399E0,-2.407189926E0,9.653405133E-1,3.000097204E0
4.338465917E0,1.473340470E0,-2.702205344E0,1.012316898E0,3.239973976E0
4.348401917E0,1.522986546E0,-2.803538761E0,1.194869163E0,3.406909145E0
4.358338917E0,1.468507161E0,-2.997734733E0,1.223712455E0,3.555333878E0
4.368274917E0,1.167821113E0,-3.473794566E0,9.422789486E-1,3.784038115E0
4.378210917E0,5.656233895E-1,-4.002092839E0,4.893944085E-1,4.071385980E0
4.388147917E0,-3.026899622E-1,-4.485419592E0,2.886858076E-2,4.495713906E0
4.398083917E0,-1.643414631E0,-5.187524596E0,-5.982869594E-1,5.474410505E0
4.408019917E0,-3.501482010E0,-5.794566738E0,-1.281682628E0,6.890579823E0
4.417956917E0,-5.240536623E0,-5.749674740E0,-2.040605757E0,8.042764175E0
4.427892917E0,-6.196516621E0,-5.108513510E0,-3.081909496E0,8.601854141E0
4.437829917E0,-5.464230044E0,-3.533713909E0,-4.075737351E0,7.678318756E0
4.447765917E0,-3.833662331E0,-1.996758072E0,-3.600009055E0,5.625306646E0
4.457701917E0,-2.055915668E0,-6.424511254E-1,-2.608275380E0,3.382696135E0
4.467638917E0,-4.973153391E-1,8.744125092E-1,-1.759730076E0,2.026960710E0
4.477574917E0,2.513951898E-1,2.057083796E0,-1.383432512E0,2.491722055E0
4.487510917E0,7.057182180E-1,2.307007241E0,-1.350563267E0,2.764840276E0
4.497447917E0,1.005670733E0,1.798988281E0,-1.364815270E0,2.471933086E0
4.507383917E0,1.238729420E0,1.008652886E0,-1.441180784E0,2.151472350E0
4.517320917E0,1.236622083E0,8.698201060E-2,-1.628122115E0,2.046358148E0
4.527256917E0,8.706989425E-1,-4.160744172E-1,-1.853408318E0,2.089582963E0
4.537192917E0,3.633547515E-1,-2.268976951E-1,-1.350904452E0,1.417198672E0
4.547129917E0,-5.054771751E-2,1.112929791E-1,-7.006344295E-1,7.112171277E-1
4.557065917E0,-4.575466713E-1,5.787609136E-1,-5.125072825E-1,8.983189112E-1
4.567001917E0,-8.258986726E-1,1.079032897E0,-4.278077325E-1,1.424584173E0
4.576938917E0,-1.050234702E0,1.495731212E0,-2.229669043E-1,1.841173276E0
4.586874917E0,-1.273909632E0,1.808534446E0,1.947970659E-2,2.212243669E0
4.596810917E0,-1.471222608E0,2.111831861E0,3.815439776E-2,2.574060125E0
4.606747917E0,-1.637653369E0,2.371151197E0,1.704451668E-1,2.886748709E0
4.616683917E0,-1.695851583E0,2.602736020E0,3.003647438E-1,3.120956001E0
4.626620917E0,-1.647841850E0,2.769841842E0,5.383987534E-1,3.267610719E0
4.636556917E0,-1.515865807E0,2.733920642E0,6.586616537E-1,3.194684084E0
4.646492917E0,-1.304522583E0,2.728611370E0,6.552343082E-1,3.094580937E0
4.656429917E0,-8.951092406E-1,2.772933265E0,7.106321450E-1,2.999229483E0
4.666365917E0,-5.370515549E-1,2.770936441E0,8.819834840E-1,2.957094520E0
4.676301667E0,-2.178690094E-1,2.723734792E0,1.006725644E0,2.911991526E0
4.686238667E0,-5.254753835E-2,2.547878612E0,1.075140260E0,2.765930810E0
4.696174667E0,5.765771247E-2,2.296616154E0,1.072523338E0,2.535365158E0
4.706110667E0,1.485035632E-1,1.975509875E0,1.100294104E0,2.266128789E0
4.716047667E0,2.288834095E-1,1.626349239E0,1.057742600E0,1.953514492E0
4.725983667E0,2.811662883E-1,1.317137951E0,1.010313495E0,1.683638982E0
4.735919667E0,2.969453651E-1,9.922695726E-1,9.688019188E-1,1.418221637E0
4.745856667E0,2.808452761E-1,8.094283086E-1,9.322239304E-1,1.266131791E0
4.755792667E0,2.165685155E-1,6.601184875E-1,8.462087569E-1,1.094864192E0
4.765729667E0,1.553540149E-1,4.992878973E-1,9.109467897E-1,1.050355810E0
4.775665667E0,1.593135300E-1,4.900680077E-1,8.773840642E-1,1.017521621E0
4.785601667E0,1.578472676E-1,4.205545539E-1,9.319698688E-1,1.034577077E0
4.795538667E0,2.376021928E-1,3.680717003E-1,9.864498389E-1,1.079358542E0
4.805474667E0,4.059230661E-1,2.862972200E-1,1.047547395E0,1.159351189E0
4.815410667E0,7.554827741E-1,1.377709258E-1,1.208790214E0,1.432099449E0
4.825347667E0,1.339406779E0,-1.848831117E-2,1.372396624E0,1.917765583E0
4.835283667E0,2.096994551E0,-1.339141023E-1,1.671064359E0,2.684730010E0
4.845219667E0,2.975269438E0,-2.228841662E-1,2.022646765E0,3.604581185E0
4.855156667E0,3.776325411E0,-2.962246227E-1,2.232263745E0,4.396746987E0
4.865092667E0,4.254520940E0,-3.875283104E-1,2.116382310E0,4.767620025E0
4.875029667E0,4.502601343E0,-4.707739502E-1,1.829431371E0,4.882813340E0
4.884965667E0,4.802179052E0,-4.056119943E-1,1.792410310E0,5.141807022E0
4.894901667E0,4.810823283E0,-1.027133596E-1,1.828837440E0,5.147739026E0
4.904838667E0,4.204753533E0,-5.064098060E-1,1.908100542E0,4.645131951E0
4.914774667E0,3.456612523E0,-1.750767463E0,1.266696360E0,4.076502976E0
4.924710667E0,2.598111165E0,-2.807330680E0,2.648953874E-1,3.834247872E0
4.934647667E0,1.209061233E0,-4.077713710E0,-9.125784552E-1,4.349985931E0
4.944583667E0,-8.312223431E-1,-5.308283048E0,-2.690314739E0,6.008876176E0
4.954519667E0,-3.490933340E0,-5.961824588E0,-4.586407731E0,8.292472724E0
4.964456667E0,-6.012390139E0,-6.031351490E0,-5.806453543E0,1.030732452E1
4.974392667E0,-8.258598617E0,-5.495079954E0,-6.414214307E0,1.181281084E1
4.984329667E0,-9.482572880E0,-5.086780579E0,-6.263221657E0,1.245080201E1
4.994265667E0,-8.542373348E0,-4.753648916E0,-4.421451345E0,1.072933141E1
5.004201667E0,-5.587280604E0,-3.826410906E0,-2.486208029E0,7.213900147E0
5.014138667E0,-3.939797481E0,-2.687847506E0,-2.039387051E0,5.187063519E0
5.024074667E0,-3.307915783E0,-2.139555264E0,-1.548355861E0,4.232896104E0
5.034010667E0,-2.876771044E0,-1.480957637E0,-8.014578228E-1,3.333373937E0
5.043947667E0,-2.439289678E0,-6.224343520E-1,-2.194493656E-1,2.526997562E0
5.053883667E0,-2.185111506E0,4.688531399E-2,1.113581756E-1,2.188449490E0
5.063819667E0,-1.959886699E0,5.636078542E-1,3.046143539E-1,2.061940734E0
5.073756667E0,-1.778523027E0,8.241118366E-1,4.799125636E-1,2.018073473E0
5.083692667E0,-1.389962098E0,9.287881064E-1,2.860507599E-1,1.696015041E0
5.093628667E0,-1.001115533E0,1.046381460E0,-7.902628899E-2,1.450307424E0
5.103565667E0,-6.369772545E-1,1.320366198E0,-1.701963678E-1,1.475829843E0
5.113501667E0,-3.471626784E-1,1.796829489E0,-2.156011668E-1,1.842715931E0
5.123438667E0,-1.569869229E-1,2.346584705E0,-3.458324003E-1,2.377121099E0
5.133374667E0,1.665140837E-2,2.907050850E0,-3.633003724E-1,2.929711432E0
5.143310667E0,2.479985605E-1,3.391249423E0,-1.226147966E-1,3.402515294E0
5.153247667E0,5.426081640E-1,3.874223589E0,4.464208817E-1,3.937426017E0
5.163183667E0,7.588726974E-1,4.389145187E0,6.750682099E-1,4.505130445E0
5.173119667E0,9.352381700E-1,4.773075120E0,7.334954891E-1,4.918834432E0
5.183056667E0,1.079872558E0,4.995269900E0,8.714745757E-1,5.184429964E0
5.192992667E0,1.258305021E0,5.044026908E0,9.867188108E-1,5.291422586E0
5.202928667E0,1.484399016E0,4.996807718E0,9.845117792E-1,5.304789463E0
5.212865667E0,1.709392565E0,4.768054701E0,8.649373886E-1,5.138529484E0
5.222801667E0,1.976185228E0,4.171301905E0,7.241776586E-1,4.672205145E0
5.232737667E0,2.168386569E0,3.365375494E0,4.113030893E-1,4.024527644E0
5.242674667E0,2.302878815E0,2.572614673E0,3.368493229E-2,3.452930895E0
5.252610667E0,2.383469234E0,1.761224039E0,-2.409158099E-1,2.973361083E0
5.262547667E0,2.317854411E0,1.122682362E0,-5.777765349E-1,2.639448897E0
5.272483667E0,2.358130910E0,5.323123866E-1,-7.898956847E-1,2.543240660E0
5.282419667E0,2.335812672E0,4.690870285E-2,-5.680806819E-1,2.404357903E0
5.292356667E0,2.368218526E0,-1.996514243E-1,-1.661319682E-1,2.382418836E0
5.302292667E0,2.489434522E0,-2.992932415E-1,2.623600347E-1,2.521050074E0
5.312228667E0,2.646969914E0,-3.352887011E-1,7.097096005E-1,2.760897672E0
5.322165667E0,2.755417053E0,-3.886018592E-1,1.066541637E0,2.980074765E0
5.332101667E0,2.782079187E0,-3.672080666E-1,1.233812935E0,3.065469088E0
5.342037667E0,2.749978266E0,-4.543690020E-1,1.285580528E0,3.069454177E0
5.351974667E0,2.731029779E0,-6.062855119E-1,1.309012660E0,3.088627514E0
5.361910667E0,2.720189626E0,-9.223228401E-1,1.300204853E0,3.152878634E0
5.371846667E0,2.681257987E0,-1.304001011E0,1.255034819E0,3.234915057E0
5.381783667E0,2.638199383E0,-1.690455773E0,1.278510221E0,3.384128409E0
5.391719667E0,2.518886363E0,-2.035686495E0,1.193144673E0,3.451434807E0
5.401656667E0,2.287678100E0,-2.200435889E0,1.127094086E0,3.368342363E0
5.411592667E0,2.027831345E0,-2.275818778E0,1.016815599E0,3.213310604E0
5.421528667E0,1.759300013E0,-2.211619858E0,9.297518738E-1,2.975035711E0
5.431465667E0,1.558043236E0,-2.365740768E0,7.521450372E-1,2.930861693E0
5.441401667E0,1.204560923E0,-2.793849340E0,3.249229033E-1,3.059760782E0
5.451337667E0,6.057174914E-1,-3.346519977E0,-1.070003919E-1,3.402578246E0
5.461274667E0,-4.860316017E-1,-3.920738189E0,-6.278072123E-1,4.000319557E0
5.471210667E0,-2.300667690E0,-4.413102983E0,-1.402293145E0,5.170587571E0
5.481146667E0,-4.462148843E0,-4.696713992E0,-2.267910272E0,6.863913725E0
5.491083667E0,-6.553249401E0,-4.716917292E0,-3.447689087E0,8.779575530E0
5.501019667E0,-7.663452051E0,-4.284519787E0,-4.348607025E0,9.797754345E0
5.510955667E0,-6.838513418E0,-2.895739412E0,-4.780477695E0,8.831961249E0
5.520892667E0,-4.245717664E0,-1.444212565E0,-3.896998494E0,5.941251188E0
5.530828667E0,-1.809619981E0,-1.832610941E-1,-2.233245785E0,2.880224964E0
5.540765667E0,-3.662915155E-1,6.600500751E-1,-1.440159860E0,1.626006149E0
5.550701667E0,4.682848271E-1,1.083696052E0,-1.222942669E0,1.699787217E0
5.560637667E0,1.064733531E0,6.537233877E-1,-1.227133953E0,1.751247983E0
5.570574667E0,1.330230451E0,-3.039616585E-1,-1.200023045E0,1.817129894E0
5.580510667E0,1.317182974E0,-1.094642040E0,-1.440686109E0,2.238032316E0
5.590446667E0,1.084698557E0,-1.377856023E0,-1.841264966E0,2.542698341E0
5.600383667E0,6.565540248E-1,-1.034660132E0,-1.459764258E0,1.905910928E0
5.610319667E0,2.892325588E-1,-2.560957664E-1,-7.541643731E-1,8.473514125E-1
5.620255667E0,-7.741095912E-2,5.355733788E-1,-4.677373450E-1,7.152688477E-1
5.630192667E0,-3.559726052E-1,1.131697015E0,-2.241072576E-1,1.207343651E0
5.640128667E0,-5.140283991E-1,1.775776590E0,1.016037042E-1,1.851467257E0
5.650064667E0,-6.260526091E-1,2.241179287E0,3.198169684E-1,2.348852776E0
5.660001667E0,-8.035226208E-1,2.588453611E0,4.526176147E-1,2.747836131E0
5.669937708E0,-9.894106496E-1,2.868746910E0,5.476184969E-1,3.083590162E0
5.679874708E0,-1.166773877E0,3.120101754E0,6.006612213E-1,3.384847137E0
5.689810708E0,-1.283448341E0,3.224251190E0,5.165548714E-1,3.508541622E0
5.699746708E0,-1.394239921E0,3.282718084E0,3.228013873E-1,3.581109285E0
5.709683708E0,-1.360504703E0,3.315930269E0,2.375384581E-1,3.592045533E0
5.719619708E0,-1.029828870E0,3.344583964E0,3.169132411E-1,3.513861608E0
5.729555708E0,-6.662244424E-1,3.384549099E0,5.331445916E-1,3.490454235E0
5.739492708E0,-3.814534188E-1,3.289485651E0,6.626437537E-1,3.377176232E0
5.749428708E0,-1.090181199E-1,3.140355340E0,7.790175247E-1,3.237373150E0
5.759364708E0,1.130459744E-1,2.901360340E0,9.714189863E-1,3.061752123E0
5.769301708E0,3.093397813E-1,2.611495149E0,1.133188347E0,2.863514247E0
5.779237708E0,4.896339250E-1,2.315049502E0,1.304648444E0,2.702092363E0
5.789173708E0,6.077785984E-1,2.004134334E0,1.444464580E0,2.544096535E0
5.799110708E0,7.415564606E-1,1.690211359E0,1.556255157E0,2.414259832E0
5.809046708E0,8.505840822E-1,1.332223182E0,1.615560249E0,2.260165217E0
5.818982708E0,9.456424863E-1,9.655594915E-1,1.571223006E0,2.072507317E0
5.828919708E0,9.226082573E-1,6.282698733E-1,1.464551081E0,1.841423064E0
5.838855708E0,8.050740333E-1,3.898578411E-1,1.342139768E0,1.612908085E0
5.848792708E0,5.921588581E-1,2.631416613E-1,1.200753509E0,1.364442976E0
5.858728708E0,4.524294806E-1,7.984840751E-2,1.094963636E0,1.187439922E0
5.868664708E0,5.420961671E-1,-1.514697826E-1,1.015097395E0,1.160704127E0
5.878601708E0,9.551157065E-1,-4.408584255E-1,1.165156829E0,1.569774697E0
5.888537708E0,1.606568401E0,-7.126504576E-1,1.346990325E0,2.214343162E0
5.898473708E0,2.366406766E0,-1.214026396E0,1.477932873E0,3.042700552E0
5.908410708E0,3.200945650E0,-1.740429586E0,1.434541562E0,3.915744845E0
5.918346708E0,3.806973884E0,-2.195745252E0,1.107591283E0,4.532229674E0
5.928282708E0,4.300275110E0,-2.444621462E0,1.059644407E0,5.058792977E0
5.938219708E0,4.698817821E0,-2.387478962E0,1.187852797E0,5.402771416E0
5.948155708E0,4.942574208E0,-2.143167674E0,1.339685691E0,5.551303021E0
5.958091708E0,4.510225528E0,-2.227229585E0,1.627844665E0,5.287018459E0
5.968028708E0,3.838108554E0,-2.899665817E0,1.223790369E0,4.963547319E0
5.977964708E0,3.141205817E0,-3.451461126E0,5.384790064E-1,4.697841795E0
5.987900708E0,2.020965545E0,-4.240390851E0,-4.356807160E-1,4.717524137E0
5.997837708E0,1.946649371E-1,-4.806508915E0,-2.001078287E0,5.210061103E0
6.007773708E0,-2.248507603E0,-4.869982195E0,-3.753808076E0,6.547028951E0
6.017710708E0,-4.817596990E0,-4.518988457E0,-4.954661572E0,8.257067804E0
6.027646708E0,-6.776791964E0,-3.951671714E0,-5.032168754E0,9.320050484E0
6.037582708E0,-7.943120867E0,-3.333614003E0,-4.465407204E0,9.702886835E0
6.047519708E0,-8.332057772E0,-3.008715219E0,-3.638222071E0,9.576649405E0
6.057455708E0,-7.210989241E0,-2.559694666E0,-2.360266313E0,8.007575144E0
6.067391708E0,-5.113212333E0,-1.833489193E0,-1.421367201E0,5.614882697E0
6.077328708E0,-3.550427298E0,-1.444944052E0,-8.440084496E-1,3.925015614E0
6.087264708E0,-3.027332754E0,-9.829578817E-1,-3.121872291E-1,3.198188654E0
6.097200708E0,-2.739340426E0,-4.107926273E-1,1.098574877E-1,2.772148124E0
6.107137708E0,-2.523102790E0,8.201129258E-2,2.839714900E-1,2.540356933E0
6.117073708E0,-2.306837672E0,4.484539586E-1,3.952086282E-1,2.383023470E0
6.127009708E0,-2.300088816E0,6.431691635E-1,3.816954204E-1,2.418629059E0
6.136946708E0,-2.029027978E0,7.438523698E-1,4.239933014E-2,2.161496839E0
6.146882708E0,-1.763498606E0,7.840087080E-1,-3.322972655E-1,1.958320316E0
6.156818708E0,-1.384404027E0,9.153699160E-1,-4.906039050E-1,1.730655594E0
6.166755708E0,-1.043882360E0,1.311662033E0,-5.240021776E-1,1.756338792E0
6.176691708E0,-7.709735832E-1,1.814754714E0,-6.059707855E-1,2.062749507E0
6.186628708E0,-5.965270936E-1,2.312995960E0,-6.451138012E-1,2.474260839E0
6.196564708E0,-2.635722904E-1,2.763820379E0,-5.201305899E-1,2.824660913E0
6.206500708E0,9.517046968E-2,3.287681785E0,-5.101564094E-2,3.289454595E0
6.216437708E0,4.248756097E-1,3.837497812E0,4.141615006E-1,3.883096508E0
6.226373708E0,6.295910516E-1,4.304983873E0,5.972511251E-1,4.391580575E0
6.236309708E0,7.908645684E-1,4.566073161E0,7.037007093E-1,4.687183117E0
6.246246708E0,1.006906030E0,4.694608995E0,8.816440532E-1,4.881650295E0
6.256182708E0,1.248554496E0,4.668869551E0,9.517165008E-1,4.925748219E0
6.266118708E0,1.551753093E0,4.571491191E0,9.478851128E-1,4.919853205E0
6.276055708E0,1.856397414E0,4.270254920E0,8.726583445E-1,4.737385463E0
6.285991708E0,2.069781609E0,3.741891743E0,7.202997851E-1,4.336424968E0
6.295927708E0,2.186934960E0,3.134906319E0,4.350726056E-1,3.847026166E0
6.305864708E0,2.196377921E0,2.522750203E0,9.363263369E-2,3.346208545E0
6.315800708E0,2.216421445E0,1.931012564E0,-9.343675196E-2,2.941099109E0
6.325736708E0,2.103517412E0,1.402811354E0,-2.973051882E-1,2.545791738E0
6.335673708E0,1.973681158E0,1.012372300E0,-3.224047999E-1,2.241486079E0
6.345609708E0,1.988865500E0,7.255681264E-1,-5.040285274E-2,2.117681641E0
6.355546708E0,2.138334365E0,4.867462045E-1,5.771295404E-1,2.267702413E0
6.365482708E0,2.380412456E0,1.700949186E-1,9.822087072E-1,2.580703331E0
6.375418708E0,2.591691507E0,-5.212792754E-3,1.323017911E0,2.909857115E0
6.385355708E0,2.773066581E0,-1.748943132E-1,1.572239106E0,3.192557297E0
6.395291708E0,2.879255818E0,-2.671598679E-1,1.582099996E0,3.296138477E0
6.405227708E0,2.822963212E0,-3.335082239E-1,1.439937665E0,3.186498001E0
6.415164708E0,2.749256719E0,-4.091402042E-1,1.331515962E0,3.082003078E0
6.425100708E0,2.699380262E0,-6.494245148E-1,1.209902354E0,3.028575525E0
6.435036708E0,2.543380934E0,-8.551944655E-1,1.079449950E0,2.892292576E0
6.444973708E0,2.398230384E0,-1.014608860E0,9.935768639E-1,2.787137438E0
6.454909708E0,2.244798129E0,-1.165895040E0,1.036500982E0,2.733635705E0
6.464845708E0,2.196365788E0,-1.349110526E0,1.146861476E0,2.821243189E0
6.474782708E0,2.154272121E0,-1.383082849E0,1.305443812E0,2.873671882E0
6.484718708E0,2.212096991E0,-1.394055734E0,1.475350742E0,3.002236549E0
6.494654708E0,2.270746318E0,-1.568524954E0,1.515883495E0,3.148723891E0
6.504591708E0,1.945381804E0,-2.188389455E0,8.865314484E-1,3.059329466E0
6.514527708E0,1.275404911E0,-3.103068815E0,1.280528533E-1,3.357393526E0
6.524463708E0,1.719107714E-1,-4.226073359E0,-6.072777843E-1,4.272942271E0
6.534400708E0,-2.090274638E0,-5.092950561E0,-1.646429601E0,5.746139914E0
6.544336708E0,-4.494181060E0,-5.600868949E0,-2.730359688E0,7.682594640E0
6.554273708E0,-6.928438332E0,-5.782046095E0,-3.970140145E0,9.858870500E0
6.564209708E0,-8.466589925E0,-5.411305726E0,-5.327647272E0,1.137317898E1
6.574145708E0,-7.910396340E0,-3.816567703E0,-5.886438775E0,1.057311311E1
6.584082708E0,-4.828725411E0,-2.036040836E0,-4.614613237E0,6.982600283E0
6.594018708E0,-2.098205509E0,-5.115512627E-1,-2.480366660E0,3.288824991E0
6.603954708E0,-3.745939405E-1,3.290450442E-1,-1.601387330E0,1.677209778E0
6.613891708E0,8.297999348E-1,4.239015001E-1,-1.260739363E0,1.567713033E0
6.623827708E0,1.665465650E0,-3.108485091E-1,-1.061938709E0,1.999529057E0
6.633763708E0,1.881167097E0,-1.374894993E0,-1.025657759E0,2.545800410E0
6.643700708E0,1.678437991E0,-2.109240375E0,-1.454760211E0,3.063066489E0
6.653636708E0,9.869991848E-1,-2.353738773E0,-2.096364806E0,3.302877382E0
6.663572708E0,1.294638596E-1,-1.888357126E0,-1.905649535E0,2.685917660E0
6.673509042E0,-4.754449984E-1,-8.561013687E-1,-1.210925617E0,1.557336942E0
6.683445042E0,-8.806780931E-1,1.924739671E-1,-8.713894987E-1,1.253778206E0
6.693381042E0,-1.159236742E0,9.696542966E-1,-4.699464230E-1,1.582690406E0
6.703318042E0,-1.264613290E0,1.743563109E0,-2.584571645E-2,2.154048999E0
6.713254042E0,-1.242423983E0,2.303070896E0,2.462285900E-1,2.628380000E0
6.723190042E0,-1.275888914E0,2.687460421E0,5.464202562E-1,3.024716702E0
6.733127042E0,-1.247059363E0,2.938084363E0,7.235240860E-1,3.272763951E0
6.743063042E0,-1.338251077E0,3.129605818E0,7.990338595E-1,3.496255659E0
6.753000042E0,-1.322795717E0,3.213766547E0,7.584283090E-1,3.557147372E0
6.762936042E0,-1.297190759E0,3.330498607E0,7.275688975E-1,3.647503439E0
6.772872042E0,-1.173248206E0,3.439701791E0,6.672246087E-1,3.695030235E0
6.782809042E0,-9.699335743E-1,3.558079841E0,7.954468851E-1,3.772723027E0
6.792745042E0,-7.758668257E-1,3.553123741E0,8.554591982E-1,3.736103330E0
6.802681042E0,-5.749263827E-1,3.548823114E0,9.325325172E-1,3.714068219E0
6.812618042E0,-3.777233338E-1,3.424297301E0,1.030101789E0,3.595774829E0
6.822554042E0,-3.116750861E-1,3.249902925E0,1.163138516E0,3.465819036E0
6.832490042E0,-2.145600700E-1,3.045001870E0,1.233659592E0,3.292413765E0
6.842427042E0,-1.088806372E-1,2.767771928E0,1.372639868E0,3.091368086E0
6.852363042E0,6.946068272E-2,2.415232771E0,1.479455780E0,2.833189639E0
6.862299042E0,2.270500881E-1,1.987389078E0,1.573062540E0,2.544757915E0
6.872236042E0,4.298408094E-1,1.587654705E0,1.599642667E0,2.294399103E0
6.882172042E0,5.680237446E-1,1.244918990E0,1.543941067E0,2.063062841E0
6.892108042E0,6.328512398E-1,9.570956469E-1,1.487433575E0,1.878560994E0
6.902045042E0,6.097798810E-1,7.379209542E-1,1.361005078E0,1.663939200E0
6.911981042E0,4.487820605E-1,5.319937134E-1,1.197153232E0,1.384773811E0
6.921917042E0,2.215640842E-1,2.775831145E-1,9.481609552E-1,1.012498013E0
6.931854042E0,5.332229443E-2,-1.590857810E-1,7.622174509E-1,7.804658834E-1
6.941790042E0,4.918476809E-2,-7.102004743E-1,6.596853550E-1,9.705609835E-1
6.951726042E0,3.088733196E-1,-1.344960757E0,7.031463933E-1,1.548785658E0
6.961663042E0,7.571439680E-1,-1.896125152E0,9.403961451E-1,2.247866208E0
6.971599042E0,1.447508933E0,-2.340224104E0,1.333197913E0,3.057670297E0
6.981536042E0,2.235002289E0,-2.698047389E0,1.698970342E0,3.893737943E0
6.991472042E0,2.846013520E0,-2.826976156E0,1.797084574E0,4.395577335E0
7.001408042E0,3.274777857E0,-2.761497865E0,1.707708714E0,4.611540906E0
7.011345042E0,3.629894467E0,-2.441858068E0,1.682393632E0,4.687136972E0
7.021281042E0,3.866917200E0,-2.017933763E0,1.698767005E0,4.680909596E0
7.031217042E0,3.954074627E0,-1.588909518E0,1.669858517E0,4.576873068E0
7.041154042E0,3.807457157E0,-1.455908166E0,1.638940780E0,4.393463948E0
7.051090042E0,3.695696108E0,-2.206460860E0,1.477393759E0,4.550750660E0
7.061026042E0,3.182085164E0,-3.067724150E0,9.751949720E-1,4.526323308E0
7.070963042E0,2.166773761E0,-3.556860112E0,2.137250876E-1,4.170352599E0
7.080899042E0,4.240915346E-1,-4.000548005E0,-9.454528172E-1,4.132568088E0
7.090835042E0,-1.844097211E0,-3.894842625E0,-2.435375844E0,4.949903949E0
7.100772042E0,-4.406588600E0,-3.253593687E0,-3.739549348E0,6.632354356E0
7.110708042E0,-6.877624859E0,-2.472654768E0,-4.536186873E0,8.601903082E0
7.120644042E0,-8.392960031E0,-2.139495623E0,-4.878094914E0,9.940574913E0
7.130581042E0,-9.081972535E0,-2.103282647E0,-4.789789971E0,1.048084496E1
7.140517042E0,-7.784057890E0,-2.766414789E0,-4.076018018E0,9.211869023E0
7.150453042E0,-3.907002787E0,-3.275569863E0,-1.955439746E0,5.460565292E0
7.160390042E0,-1.594486299E0,-3.142515886E0,-7.124048746E-1,3.595179183E0
7.170326042E0,-9.481628555E-1,-2.536291185E0,-8.512923262E-1,2.838394687E0
7.180262042E0,-1.289903082E0,-1.935875108E0,-7.195080721E-1,2.434985475E0
7.190199042E0,-1.704762155E0,-1.134292009E0,-8.548711145E-1,2.218926991E0
7.200135042E0,-1.859934103E0,-5.515099651E-1,-1.074058671E0,2.217458035E0
7.210071042E0,-1.939812331E0,-1.414400536E-1,-9.893219912E-1,2.182117130E0
7.220008042E0,-1.816163893E0,3.002878529E-1,-9.248576081E-1,2.060093608E0
7.229944042E0,-1.680762551E0,6.278213918E-1,-9.504453161E-1,2.030386355E0
7.239881042E0,-1.402154712E0,9.779064721E-1,-8.824267030E-1,1.923802430E0
7.249817042E0,-9.985412961E-1,1.440587876E0,-6.748145869E-1,1.878231316E0
7.259753042E0,-5.027740073E-1,2.049483585E0,-1.379021958E-1,2.114753338E0
7.269690042E0,-8.509043634E-2,2.819767123E0,5.058016956E-1,2.866036003E0
7.279626042E0,1.674645486E-1,3.594391050E0,7.466166410E-1,3.674932354E0
7.289562042E0,3.473371813E-1,4.170322496E0,9.030802381E-1,4.281096443E0
7.299499042E0,5.090512857E-1,4.467700190E0,1.191721899E0,4.651846868E0
7.309435042E0,6.212143305E-1,4.651663535E0,1.408835156E0,4.899867078E0
7.319371042E0,7.314723524E-1,4.748114526E0,1.411531599E0,5.007201295E0
7.329308042E0,7.260677710E-1,4.685331802E0,1.099524465E0,4.867079469E0
7.339244042E0,8.728758609E-1,4.419896278E0,9.074375832E-1,4.595741327E0
7.349180042E0,1.270338591E0,3.975634773E0,9.107704961E-1,4.271877208E0
7.359117042E0,1.684224395E0,3.319348551E0,7.196660931E-1,3.791121985E0
7.369053042E0,2.012430656E0,2.586469651E0,3.585818155E-1,3.296707952E0
7.378989042E0,2.251899573E0,1.877622807E0,6.577971429E-2,2.932719908E0
7.388926042E0,2.427658981E0,1.254977371E0,-2.070545840E-1,2.740687492E0
7.398862042E0,2.508529775E0,7.809447670E-1,-5.009616628E-1,2.674613794E0
7.408798042E0,2.465965845E0,4.320934492E-1,-5.473274517E-1,2.562666509E0
7.418735042E0,2.503678632E0,2.911258507E-1,-2.128784108E-1,2.529521332E0
7.428671042E0,2.658919576E0,2.794121236E-1,4.498100741E-1,2.711135104E0
7.438607042E0,2.826079777E0,3.514106441E-1,1.029301451E0,3.028147590E0
7.448544042E0,2.921836412E0,4.803856033E-1,1.453708735E0,3.298661461E0
7.458480042E0,2.925026945E0,6.069754833E-1,1.791776764E0,3.483484727E0
7.468416042E0,2.870935231E0,6.159398496E-1,1.994628223E0,3.549675020E0
7.478353042E0,2.757613560E0,4.725626135E-1,2.011241917E0,3.445699061E0
7.488289042E0,2.640652290E0,2.428611785E-1,1.961425979E0,3.298365950E0
7.498226042E0,2.469716542E0,-1.294398129E-1,1.758920090E0,3.034807135E0
7.508162042E0,2.337902759E0,-6.309151536E-1,1.543585410E0,2.871671841E0
7.518098042E0,2.170263087E0,-1.068871021E0,1.355146022E0,2.772895214E0
7.528035042E0,1.956910174E0,-1.467655807E0,1.231558102E0,2.738657765E0
7.537971042E0,1.720385331E0,-1.687169638E0,1.152280383E0,2.670958097E0
7.547907042E0,1.482325594E0,-1.748159021E0,1.129187097E0,2.555075855E0
7.557844042E0,1.310413653E0,-1.782372833E0,1.052017007E0,2.449648269E0
7.567780042E0,1.147007876E0,-2.075913584E0,8.816452226E-1,2.530285078E0
7.577716042E0,8.205327559E-1,-2.853475152E0,3.968727458E-1,2.995513716E0
7.587653042E0,1.784195995E-1,-3.612267158E0,-2.385663986E-3,3.616671573E0
7.597589042E0,-1.197103457E0,-4.387644791E0,-5.487989035E-1,4.581011213E0
7.607525042E0,-3.253512996E0,-4.974918081E0,-1.354486456E0,6.096703231E0
7.617462042E0,-5.572279572E0,-4.886105892E0,-2.166139484E0,7.721171588E0
7.627398042E0,-7.424098032E0,-4.292958489E0,-3.212507057E0,9.157888718E0
7.637334042E0,-8.031163563E0,-3.181225038E0,-4.362841487E0,9.677508293E0
7.647271042E0,-6.328293566E0,-1.634668073E0,-4.488884068E0,7.929030164E0
7.657207042E0,-3.717180240E0,-6.144464707E-1,-3.057185129E0,4.851943355E0
7.667143042E0,-1.803399713E0,1.158824587E-1,-1.925420579E0,2.640629409E0
7.677080917E0,-3.766782536E-1,3.683330709E-1,-1.630865775E0,1.713849157E0
7.687016917E0,5.407971716E-1,1.256940866E-1,-1.674840637E0,1.764469253E0
7.696952917E0,1.242637407E0,-5.409972560E-1,-1.652023048E0,2.136821449E0
7.706889917E0,1.552772263E0,-1.346103888E0,-1.550382214E0,2.574253753E0
7.716825917E0,1.452721141E0,-1.824669837E0,-1.667472853E0,2.867103843E0
7.726761917E0,1.155913258E0,-1.563031495E0,-1.521342748E0,2.468539380E0
7.736698917E0,7.147788441E-1,-9.327671367E-1,-9.655154912E-1,1.520915346E0
7.746634917E0,1.979776588E-1,-2.455596685E-1,-7.057191682E-1,7.730033949E-1
7.756570917E0,-1.868463509E-1,4.180542845E-1,-4.917474742E-1,6.719349091E-1
7.766507917E0,-3.978089215E-1,1.048185326E0,-1.927922018E-1,1.137590985E0
7.776443917E0,-5.504779315E-1,1.588140609E0,-6.774584055E-3,1.680851701E0
7.786379917E0,-6.863279738E-1,2.053121138E0,1.178474155E-1,2.168003807E0
7.796316917E0,-7.895105725E-1,2.389312064E0,3.387704256E-1,2.539075518E0
7.806252917E0,-8.608229953E-1,2.647121065E0,4.761808705E-1,2.824006796E0
7.816188917E0,-9.011550424E-1,2.938048110E0,5.777025676E-1,3.126970957E0
7.826125917E0,-9.445159471E-1,3.138201225E0,6.447888422E-1,3.340085322E0
7.836061917E0,-1.009479682E0,3.200456530E0,4.811311233E-1,3.390200347E0
7.845997917E0,-8.794227690E-1,3.325847731E0,3.469116502E-1,3.457599634E0
7.855934917E0,-6.564426354E-1,3.467338656E0,4.143301928E-1,3.553170949E0
7.865870917E0,-3.695331753E-1,3.556983488E0,5.665883262E-1,3.620733163E0
7.875807917E0,-1.088918200E-1,3.619049343E0,7.199033439E-1,3.691562867E0
7.885743917E0,1.355372894E-1,3.539560540E0,8.911519182E-1,3.652534861E0
7.895679917E0,4.124514824E-1,3.350850425E0,1.065973141E0,3.540425615E0
7.905616917E0,6.470800737E-1,3.054198371E0,1.281216166E0,3.374663713E0
7.915552917E0,8.124013985E-1,2.701301365E0,1.446004883E0,3.169850977E0
7.925488917E0,9.735377249E-1,2.271042187E0,1.568039782E0,2.926458111E0
7.935425917E0,1.080880544E0,1.847924799E0,1.717471956E0,2.744601744E0
7.945361917E0,1.108319481E0,1.379146503E0,1.808596134E0,2.530106149E0
7.955297917E0,1.018697745E0,9.362193328E-1,1.818737545E0,2.285182266E0
7.965234917E0,7.537973873E-1,5.588523138E-1,1.685489440E0,1.929093327E0
7.975170917E0,4.001170003E-1,2.399428332E-1,1.552573458E0,1.621157154E0
7.985106917E0,-7.025612332E-3,-4.073755145E-3,1.476796466E0,1.476818797E0
7.995043917E0,-3.852918235E-1,-2.488785481E-1,1.373859158E0,1.448405782E0
8.004979917E0,-5.380339602E-1,-5.089586073E-1,1.361956566E0,1.550304839E0
8.014915917E0,-4.509700886E-1,-7.786854029E-1,1.426009305E0,1.686187272E0
8.024852917E0,-4.748143762E-2,-1.036638830E0,1.621807122E0,1.925391620E0
8.034788917E0,7.401388031E-1,-1.371411806E0,1.886118811E0,2.446634415E0
8.044724917E0,1.664641193E0,-1.830337543E0,2.266113862E0,3.355061528E0
8.054661917E0,2.523324984E0,-2.250192186E0,2.400308630E0,4.146325526E0
8.064597917E0,3.182864305E0,-2.434229205E0,2.200687319E0,4.571555718E0
8.074533917E0,3.778314342E0,-2.655561520E0,1.890514894E0,4.990161602E0
8.084470917E0,4.270265445E0,-2.415428653E0,1.977695856E0,5.289682736E0
8.094406917E0,4.540271153E0,-1.977374552E0,2.133409402E0,5.392170985E0
8.104342917E0,4.497428896E0,-1.896513407E0,2.112366588E0,5.318432324E0
8.114279917E0,4.013392876E0,-2.554505847E0,1.696873384E0,5.050960481E0
8.124215917E0,3.387227708E0,-3.329440845E0,6.746051104E-1,4.797247121E0
8.134151917E0,2.298733723E0,-3.933629546E0,-4.985415003E-1,4.583247949E0
8.144088917E0,4.113179997E-1,-4.388821836E0,-2.128605037E0,4.895089274E0
8.154024917E0,-2.087562115E0,-4.435474430E0,-4.009929278E0,6.333315231E0
8.163960917E0,-4.732678462E0,-4.181433375E0,-5.370810249E0,8.290249286E0
8.173897917E0,-6.722498227E0,-3.459999231E0,-6.064594080E0,9.692413448E0
8.183833917E0,-8.280139759E0,-2.316535864E0,-5.713239570E0,1.032318552E1
8.193769917E0,-8.112710586E0,-1.928393596E0,-4.172594140E0,9.324447263E0
8.203706917E0,-6.232585171E0,-1.743566617E0,-2.282629907E0,6.862619161E0
8.213642917E0,-3.822612555E0,-1.451892883E0,-1.237217330E0,4.272126685E0
8.223578917E0,-2.677414027E0,-1.389245229E0,-1.167909113E0,3.234588054E0
8.233515917E0,-2.570687139E0,-1.401995083E0,-9.379031847E-1,3.074684531E0
8.243451917E0,-2.459830947E0,-1.088350435E0,-8.352130678E-1,2.816532589E0
8.253387917E0,-2.507396877E0,-6.727578288E-1,-7.197067313E-1,2.693997025E0
8.263324917E0,-2.456109779E0,-3.770957083E-1,-6.067424718E-1,2.557892266E0
8.273260917E0,-2.419004517E0,-2.454181659E-1,-6.466789547E-1,2.515950437E0
8.283196917E0,-2.260803713E0,-2.731877625E-2,-8.657963446E-1,2.421070642E0
8.293133917E0,-1.918966130E0,1.442724448E-1,-1.007541915E0,2.172184674E0
8.303069917E0,-1.470635840E0,4.632462448E-1,-9.918605599E-1,1.833345092E0
8.313005917E0,-1.024805819E0,9.738432419E-1,-9.351123087E-1,1.695002259E0
8.322942917E0,-6.814809975E-1,1.576647906E0,-8.544889989E-1,1.918433324E0
8.332878917E0,-2.719834919E-1,2.221490543E0,-7.024666545E-1,2.345731155E0
8.342814917E0,1.456866305E-1,2.907312221E0,-3.509706411E-1,2.932041837E0
8.352751917E0,5.827376415E-1,3.533306943E0,4.979050308E-2,3.581385235E0
8.362687917E0,9.965403789E-1,4.155352455E0,6.151586616E-1,4.317229080E0
8.372624917E0,1.277967453E0,4.636886451E0,1.078504601E0,4.929207740E0
8.382560917E0,1.477353414E0,5.033090860E0,1.283338413E0,5.400142054E0
8.392496917E0,1.610520242E0,5.245062953E0,1.387549244E0,5.659483522E0
8.402433917E0,1.716506873E0,5.224514083E0,1.480665861E0,5.695113224E0
8.412369917E0,1.841828784E0,4.950746861E0,1.364429208E0,5.455629644E0
8.422305917E0,2.037428673E0,4.420325464E0,1.160995073E0,5.003828770E0
8.432242917E0,2.263871747E0,3.704408752E0,9.284021902E-1,4.439559675E0
8.442178917E0,2.493662059E0,2.859873176E0,6.168809590E-1,3.844186151E0
8.452114917E0,2.479282879E0,2.107404349E0,1.172609398E-1,3.256032373E0
8.462051917E0,2.338321128E0,1.375539941E0,-4.126251447E-1,2.744105562E0
8.471987917E0,2.127900009E0,7.390635002E-1,-8.573583739E-1,2.410235816E0
8.481923917E0,1.954078952E0,2.776228756E-1,-1.064833811E0,2.242625706E0
8.491860917E0,1.947213152E0,-8.047756791E-2,-1.049577256E0,2.213532948E0
8.501796917E0,2.125121705E0,-1.378948867E-1,-6.183658594E-1,2.217551261E0
8.511732917E0,2.532978445E0,4.319338202E-2,2.138163042E-1,2.542353808E0
8.521669917E0,2.908010378E0,2.404760993E-1,9.905373350E-1,3.081479730E0
8.531605917E0,3.143383320E0,3.710607970E-1,1.451791287E0,3.482275514E0
8.541541917E0,3.324926502E0,3.136826545E-1,1.711289548E0,3.752605091E0
8.551478917E0,3.400532170E0,3.625507593E-2,1.724567552E0,3.813012813E0
8.561414917E0,3.420282311E0,-3.529391062E-1,1.601669312E0,3.793183581E0
8.571350917E0,3.446963740E0,-7.691871858E-1,1.448348300E0,3.817187545E0
8.581287917E0,3.455750351E0,-1.133410249E0,1.414801801E0,3.902370231E0
8.591223917E0,3.367494817E0,-1.324924688E0,1.375847504E0,3.871485907E0
8.601159917E0,3.203575143E0,-1.353925123E0,1.409501885E0,3.752692700E0
8.611096917E0,2.968136712E0,-1.246978964E0,1.406057875E0,3.513088503E0
8.621032917E0,2.746105070E0,-1.044992747E0,1.337295350E0,3.228228887E0
8.630968917E0,2.659902786E0,-9.111224985E-1,1.274727803E0,3.087095400E0
8.640905917E0,2.638661605E0,-1.399561472E0,9.030919325E-1,3.120397798E0
8.650841917E0,2.457430372E0,-2.517176052E0,4.540362954E-2,3.518124614E0
8.660777917E0,1.375910946E0,-3.731029955E0,-6.173351415E-1,4.024278586E0
8.670714917E0,-9.622119606E-1,-5.013484561E0,-1.620121955E0,5.355900900E0
8.680650458E0,-4.416214871E0,-6.045526895E0,-3.193480217E0,8.139389727E0
8.690586458E0,-8.051035910E0,-6.512379118E0,-4.730054816E0,1.138436118E1
8.700523458E0,-1.063494857E1,-6.432157073E0,-5.675134435E0,1.366315947E1
8.710459458E0,-1.083614191E1,-4.945727026E0,-6.419201982E0,1.353101406E1
8.720395458E0,-7.348037451E0,-2.286701031E0,-5.217252426E0,9.297439371E0
8.730332458E0,-2.771005146E0,-1.036994340E0,-2.074571941E0,3.613540579E0
8.740268458E0,-4.971699993E-1,-5.158980829E-1,-6.775822203E-1,9.861270229E-1
8.750204458E0,7.647663253E-1,-1.820448732E-1,-9.415538938E-1,1.226593495E0
8.760141458E0,1.345588455E0,-5.269078052E-1,-1.540164789E0,2.111953528E0
8.770077458E0,1.396043787E0,-1.467285093E0,-1.377675344E0,2.449459767E0
8.780013458E0,1.326597869E0,-2.152413291E0,-1.382171706E0,2.881517570E0
8.789950458E0,9.393929091E-1,-1.822888775E0,-1.663520135E0,2.640583603E0
8.799886458E0,3.959301380E-1,-1.229220386E0,-1.241376893E0,1.791301209E0
8.809822458E0,-1.169973034E-2,-4.632620323E-1,-9.217318328E-1,1.031667662E0
8.819759458E0,-3.427127280E-1,3.133020008E-1,-7.392440329E-1,8.729787500E-1
8.829695458E0,-5.975813466E-1,1.013416028E0,-4.640420508E-1,1.264693851E0
8.839631458E0,-7.227804664E-1,1.706923871E0,-1.756643915E-1,1.861950236E0
8.849568458E0,-9.837541994E-1,2.352992669E0,1.042596558E-1,2.552492292E0
8.859504458E0,-1.194540550E0,2.827961411E0,2.526207662E-1,3.080277604E0
8.869440458E0,-1.362995909E0,3.127628875E0,4.339150031E-1,3.439200846E0
8.879377458E0,-1.415746857E0,3.414049471E0,5.020793581E-1,3.729900352E0
8.889313458E0,-1.521276528E0,3.562414967E0,3.829983263E-1,3.892527507E0
8.899249458E0,-1.487994469E0,3.638187865E0,2.309790516E-1,3.937497912E0
8.909186458E0,-1.274289847E0,3.727001808E0,3.376439595E-1,3.953272130E0
8.919122458E0,-9.484455684E-1,3.773732171E0,4.488708651E-1,3.916897822E0
8.929058458E0,-6.190662827E-1,3.809999526E0,4.979431839E-1,3.891951550E0
8.938995458E0,-2.569830083E-1,3.813561065E0,6.923303600E-1,3.884405951E0
8.948931458E0,5.343755767E-2,3.769463119E0,8.619219795E-1,3.867120023E0
8.958867458E0,4.050434256E-1,3.703635750E0,1.001476160E0,3.857969990E0
8.968804458E0,6.227592380E-1,3.623083922E0,1.226603318E0,3.875451184E0
8.978740458E0,7.094008675E-1,3.428086882E0,1.331847206E0,3.745510144E0
8.988676458E0,7.910472938E-1,3.095023046E0,1.384578567E0,3.481663580E0
8.998613458E0,7.588794217E-1,2.679457921E0,1.378420279E0,3.107319616E0
9.008549458E0,6.751613268E-1,2.162643580E0,1.357559752E0,2.641181280E0
9.018486458E0,5.575657070E-1,1.579970294E0,1.243760218E0,2.086654051E0
9.028422458E0,4.005050727E-1,9.919713646E-1,1.145213584E0,1.567139322E0
9.038358458E0,2.724352624E-1,3.801970714E-1,1.070143522E0,1.167894662E0
9.048294458E0,1.638661721E-1,-1.887878823E-1,1.048095864E0,1.077496138E0
9.058231458E0,1.557759646E-1,-7.542381942E-1,1.111990728E0,1.352651021E0
9.068167458E0,3.631483813E-1,-1.226340632E0,1.276595842E0,1.807065311E0
9.078103458E0,8.476269259E-1,-1.684296316E0,1.556453670E0,2.444969021E0
9.088040458E0,1.455022605E0,-2.086553178E0,1.794902393E0,3.113273124E0
9.097976458E0,2.084399941E0,-2.300343754E0,1.907596950E0,3.643518989E0
9.107912458E0,2.530415610E0,-2.417355895E0,1.759624972E0,3.917000476E0
9.117849458E0,3.033160382E0,-2.536561326E0,1.574101005E0,4.255819456E0
9.127785458E0,3.473701011E0,-2.227455872E0,1.555938238E0,4.410113624E0
9.137721458E0,3.848758087E0,-1.802977252E0,1.718431191E0,4.584394349E0
9.147658458E0,4.067824607E0,-1.512199311E0,1.739752625E0,4.675540929E0
9.157594458E0,4.128197401E0,-1.427541568E0,1.656675531E0,4.671665926E0
9.167530458E0,4.134354811E0,-1.911537827E0,1.593592114E0,4.825598657E0
9.177467458E0,3.993969595E0,-2.884734367E0,1.251711116E0,5.083332196E0
9.187403458E0,3.273770674E0,-3.455686909E0,6.079234631E-1,4.798845421E0
9.197339458E0,1.747983019E0,-3.937358315E0,-5.726868260E-1,4.345826197E0
9.207276458E0,-5.653096864E-1,-3.833931595E0,-2.158829733E0,4.436119062E0
9.217212458E0,-3.371837837E0,-3.428983845E0,-3.740115651E0,6.092264414E0
9.227149458E0,-6.018330325E0,-2.903872889E0,-4.564742627E0,8.092567758E0
9.237085458E0,-8.103614073E0,-2.790655006E0,-5.000435915E0,9.922735295E0
9.247021458E0,-9.272599366E0,-3.135798604E0,-5.083592677E0,1.102983438E1
9.256958458E0,-9.343082289E0,-3.896510251E0,-5.028903669E0,1.130335574E1
9.266894458E0,-6.558627670E0,-4.722788481E0,-3.564940964E0,8.833409989E0
9.276830458E0,-2.691916291E0,-4.011785769E0,-1.568434761E0,5.079451346E0
9.286766458E0,-1.376195413E0,-3.046099977E0,-8.337571111E-1,3.444965865E0
9.296703458E0,-1.326431223E0,-2.041362387E0,-9.737084636E-1,2.621962692E0
9.306639458E0,-1.839511240E0,-1.235835925E0,-9.598356521E-1,2.415031370E0
9.316575458E0,-2.088726296E0,-6.421763062E-1,-1.202650638E0,2.494300804E0
9.326512458E0,-2.213482781E0,-3.768606502E-1,-1.400276002E0,2.646186474E0
9.336448458E0,-2.247394585E0,-7.799717903E-2,-1.379080722E0,2.637940413E0
9.346384458E0,-2.031140869E0,2.586662024E-1,-1.320181134E0,2.436251149E0
9.356321458E0,-1.764761020E0,5.434443158E-1,-1.221279721E0,2.213873831E0
9.366257458E0,-1.343416507E0,8.907513839E-1,-1.127066897E0,1.966846646E0
9.376193458E0,-8.646786493E-1,1.353930970E0,-9.716271472E-1,1.877460400E0
9.386130458E0,-4.306924564E-1,1.793522304E0,-8.616877985E-1,2.035859551E0
9.396066458E0,5.004192422E-2,2.307376201E0,-5.279307756E-1,2.367530365E0
9.406002458E0,5.148794979E-1,2.950022038E0,1.802319440E-1,3.000035746E0
9.415939458E0,8.219279015E-1,3.542166644E0,5.632390411E-1,3.679639687E0
9.425875458E0,9.486508057E-1,4.018293135E0,7.847477961E-1,4.202671433E0
9.435811458E0,1.014480806E0,4.349060769E0,9.459771663E-1,4.564906755E0
9.445748458E0,1.089917197E0,4.652487407E0,1.087058493E0,4.900536169E0
9.455684458E0,1.183741912E0,4.849191835E0,1.184840019E0,5.130277988E0
9.465620458E0,1.317970887E0,4.934923126E0,1.227437862E0,5.253295844E0
9.475557458E0,1.481145625E0,4.837372273E0,1.261719210E0,5.214009804E0
9.485493458E0,1.651901864E0,4.621099554E0,1.188769055E0,5.049407165E0
9.495429458E0,1.780554057E0,4.314762172E0,1.113325063E0,4.798649606E0
9.505366458E0,1.846730797E0,3.910176948E0,9.810376561E-1,4.434222963E0
9.515302458E0,1.738560524E0,3.432957028E0,7.592255768E-1,3.922271042E0
9.525238458E0,1.604369263E0,2.917735468E0,4.505253348E-1,3.360082450E0
9.535175458E0,1.519664743E0,2.348117845E0,2.236422578E-1,2.805896328E0
9.545111458E0,1.506161768E0,1.699719517E0,1.056451535E-1,2.273484244E0
9.555047458E0,1.536061213E0,1.087323664E0,3.147219971E-2,1.882218718E0
9.564984458E0,1.706663378E0,4.979705197E-1,1.014386666E-1,1.780720171E0
9.574920458E0,1.953573753E0,7.477127016E-2,2.546509194E-1,1.971519272E0
9.584856458E0,2.238440159E0,-1.343696004E-1,5.190035391E-1,2.301745905E0
9.594793458E0,2.462154922E0,-1.899918240E-1,8.496328864E-1,2.611547395E0
9.604729458E0,2.644074958E0,-1.612024730E-1,1.172185621E0,2.896746062E0
9.614665458E0,2.722165985E0,-1.472469234E-1,1.414170594E0,3.071115070E0
9.624602458E0,2.764082335E0,-2.260808390E-1,1.629373565E0,3.216538810E0
9.634538458E0,2.790450061E0,-4.669720906E-1,1.689563780E0,3.295345239E0
9.644474458E0,2.847488188E0,-8.313781714E-1,1.749066216E0,3.443633441E0
9.654411458E0,2.861270075E0,-1.134489060E0,1.897382595E0,3.615797642E0
9.664347458E0,2.971057104E0,-1.425476916E0,2.036270632E0,3.873701439E0
9.674283833E0,2.978674857E0,-1.619053668E0,2.138090537E0,4.008150425E0
9.684220833E0,3.005301907E0,-1.661067667E0,2.126047319E0,4.038695650E0
9.694156833E0,2.874384211E0,-1.478684825E0,2.072621602E0,3.839837719E0
9.704092833E0,2.753543606E0,-1.197393406E0,1.940756656E0,3.575232825E0
9.714029833E0,2.693090705E0,-1.208241161E0,1.590444996E0,3.352924027E0
9.723965833E0,2.508629470E0,-1.985215668E0,1.038704066E0,3.363511439E0
9.733901833E0,1.885878783E0,-2.828674772E0,2.647033064E-1,3.409986450E0
9.743838833E0,2.736078667E-1,-3.415062793E0,-5.352098282E-1,3.467558898E0
9.753774833E0,-2.298720567E0,-4.011154270E0,-1.838979582E0,4.975471910E0
9.763710833E0,-5.213606687E0,-4.460222186E0,-3.177519658E0,7.561210737E0
9.773647833E0,-8.105997983E0,-4.786513776E0,-4.303337882E0,1.035068280E1
9.783583833E0,-9.866505153E0,-5.204097944E0,-5.480560148E0,1.242847935E1
9.793519833E0,-9.586220040E0,-4.151506741E0,-5.979472654E0,1.203680672E1
9.803456833E0,-6.535435274E0,-2.227346529E0,-4.816557355E0,8.418563508E0
9.813392833E0,-3.190944572E0,-1.024757288E0,-2.555760659E0,4.214755901E0
9.823328833E0,-1.465538237E0,-4.275028002E-1,-1.036441048E0,1.845202161E0
9.833265833E0,-2.756833724E-1,-3.818746376E-1,-7.699229117E-1,9.025579486E-1
9.843201833E0,2.690344852E-1,-1.012866974E0,-8.186711486E-1,1.329850184E0
9.853137833E0,4.211617872E-1,-2.107016094E0,-7.258547862E-1,2.267985723E0
9.863074833E0,4.703155285E-1,-2.924437546E0,-1.136497725E0,3.172563433E0
9.873010833E0,1.631685993E-1,-2.779324272E0,-1.180721240E0,3.024131288E0
9.882946833E0,-3.037944281E-1,-2.092533710E0,-6.001805802E-1,2.198000253E0
9.892883833E0,-7.106629890E-1,-1.290975169E0,-3.135278495E-1,1.506638139E0
9.902819833E0,-1.064043268E0,-4.226309001E-1,-1.807666719E-1,1.159086512E0
9.912755833E0,-1.312045318E0,5.036487508E-1,-5.409259200E-2,1.406432007E0
9.922692833E0,-1.527432769E0,1.430311394E0,1.251178434E-1,2.096305327E0
9.932628833E0,-1.721660316E0,2.048156267E0,2.521496268E-1,2.687496562E0
9.942564833E0,-1.882595279E0,2.633021089E0,3.100955339E-1,3.251634094E0
9.952501833E0,-1.914824547E0,3.095211326E0,3.465584783E-1,3.656089302E0
9.962437833E0,-1.947573048E0,3.418377580E0,2.870480025E-1,3.944710713E0
9.972373833E0,-1.886997063E0,3.530031332E0,1.052944668E-1,4.004118636E0
9.982310833E0,-1.589661469E0,3.710510321E0,1.401545432E-1,4.039127842E0
9.992246833E0,-1.221305010E0,3.850466352E0,2.918077822E-1,4.050040596E0
1.000218283E1,-8.361164626E-1,3.935956737E0,4.497036548E-1,4.048836815E0
1.001211983E1,-4.138094983E-1,3.930948597E0,6.322103119E-1,4.002909573E0
1.002205583E1,-5.112220645E-2,3.821178233E0,8.694610870E-1,3.919180929E0
1.003199183E1,2.406202331E-1,3.606557937E0,1.145259047E0,3.791671997E0
1.004192883E1,4.481797608E-1,3.248756871E0,1.356719069E0,3.549080576E0
1.005186483E1,5.402096361E-1,2.853337743E0,1.457717879E0,3.249354419E0
1.006180083E1,5.919595777E-1,2.433864924E0,1.624718012E0,2.985602657E0
1.007173783E1,5.924790663E-1,1.942530994E0,1.767384081E0,2.692230413E0
1.008167383E1,5.498695287E-1,1.428396431E0,1.739236754E0,2.316811894E0
1.009160983E1,4.297695099E-1,8.665018111E-1,1.675891674E0,1.934978068E0
1.010154683E1,3.318666912E-1,4.741314214E-1,1.555430992E0,1.659608893E0
1.011148283E1,2.407816163E-1,1.968090928E-1,1.440173893E0,1.473367044E0
1.012141883E1,1.161900953E-1,1.493484128E-1,1.294466103E0,1.308223061E0
1.013135583E1,2.954572488E-2,2.393937796E-1,1.144066361E0,1.169217760E0
1.014129183E1,1.646488585E-1,3.147749144E-1,1.103975511E0,1.159721701E0
1.015122783E1,5.825537466E-1,2.777187699E-1,1.135328282E0,1.305935255E0
1.016116383E1,1.248939243E0,9.004653633E-2,1.346890630E0,1.839041050E0
1.017110083E1,2.125859039E0,-2.507806474E-1,1.639839935E0,2.696524170E0
1.018103683E1,3.121710323E0,-6.035595399E-1,1.789748804E0,3.648638135E0
1.019097283E1,4.019896442E0,-9.991529149E-1,1.861111439E0,4.541102260E0
1.020090983E1,4.944737678E0,-1.455142180E0,1.892854804E0,5.490971569E0
1.021084583E1,5.670967124E0,-1.849722233E0,1.958934480E0,6.278436490E0
1.022078183E1,6.172051286E0,-1.895164454E0,1.906970129E0,6.732191356E0
1.023071883E1,6.027464261E0,-1.663303058E0,2.035614574E0,6.575760730E0
1.024065483E1,5.011309397E0,-1.395960757E0,2.095329556E0,5.608238071E0
1.025059083E1,4.363774995E0,-1.907338357E0,1.698446285E0,5.056203279E0
1.026052783E1,3.533316883E0,-2.480125170E0,1.111804933E0,4.457741498E0
1.027046383E1,2.274627407E0,-3.149575814E0,1.989667153E-1,3.890160074E0
1.028039983E1,4.047530383E-1,-3.840293366E0,-1.164708055E0,4.033388527E0
1.029033683E1,-1.984568381E0,-4.383996128E0,-2.812881150E0,5.574068001E0
1.030027283E1,-4.700422004E0,-4.848757972E0,-4.184438260E0,7.944428515E0
1.031020883E1,-7.019353180E0,-4.840859553E0,-4.745794351E0,9.758473461E0
1.032014583E1,-8.823972330E0,-4.526900325E0,-4.957422627E0,1.108744124E1
1.033008183E1,-9.526405948E0,-3.881957116E0,-4.457885638E0,1.121136681E1
1.034001783E1,-9.126354656E0,-3.204415680E0,-3.487402207E0,1.028205248E1
1.034995483E1,-6.745015270E0,-2.538906645E0,-2.224170760E0,7.542427561E0
1.035989083E1,-3.555787733E0,-2.452149167E0,-9.362327814E-1,4.419637288E0
1.036982683E1,-2.075018960E0,-1.979660813E0,-6.591379094E-1,2.942655842E0
1.037976383E1,-1.451867155E0,-1.685511367E0,-5.468105578E-1,2.290822689E0
1.038969983E1,-1.416090089E0,-1.244548277E0,-5.757554448E-1,1.971219390E0
1.039963583E1,-1.439857266E0,-9.239378411E-1,-1.089777010E0,2.028414162E0
1.040957283E1,-1.425761676E0,-6.812099791E-1,-1.309232369E0,2.052055747E0
1.041950883E1,-1.279542108E0,-4.900323397E-1,-1.322553496E0,1.904339111E0
1.042944483E1,-1.132655081E0,-2.708325040E-1,-1.357881496E0,1.788882314E0
1.043938183E1,-7.895331573E-1,-1.808894634E-2,-1.490236730E0,1.686563171E0
1.044931783E1,-4.751587772E-1,3.317359328E-1,-1.500718449E0,1.608720130E0
1.045925383E1,-1.513908452E-1,7.855003327E-1,-1.489109241E0,1.690377559E0
1.046919083E1,2.543620670E-1,1.412150527E0,-1.034324502E0,1.768812129E0
1.047912683E1,6.985709471E-1,2.235974681E0,-2.042713094E-1,2.351448683E0
1.048906283E1,9.738818336E-1,2.866510350E0,1.577075922E-1,3.031534116E0
1.049899983E1,1.057524499E0,3.468177731E0,3.697589144E-1,3.644631188E0
1.050893583E1,1.114309442E0,3.930562681E0,6.243899533E-1,4.132901080E0
1.051887183E1,1.163233972E0,4.292582513E0,9.608238316E-1,4.550006631E0
1.052880883E1,1.249671899E0,4.593840419E0,1.137677693E0,4.894829944E0
1.053874483E1,1.278941014E0,4.709517640E0,1.103999631E0,5.003405012E0
1.054868083E1,1.299875216E0,4.687035681E0,1.132224433E0,4.993987507E0
1.055861783E1,1.421025431E0,4.473677214E0,1.059740009E0,4.812083746E0
1.056855383E1,1.514398448E0,4.127356571E0,9.042976284E-1,4.488455093E0
1.057848983E1,1.579316283E0,3.666752098E0,6.522779560E-1,4.045340209E0
1.058842583E1,1.554352473E0,3.129629792E0,3.665537632E-1,3.513538943E0
1.059836283E1,1.491377376E0,2.622832316E0,6.445385814E-2,3.017881729E0
1.060829883E1,1.409795561E0,2.073839577E0,-1.628437865E-1,2.512936970E0
1.061823483E1,1.387271794E0,1.592802594E0,-2.965579140E-1,2.132953288E0
1.062817183E1,1.485756447E0,1.125879620E0,-2.480532137E-1,1.880587019E0
1.063810783E1,1.611497604E0,7.747677684E-1,1.132254839E-1,1.791649975E0
1.064804383E1,1.846278808E0,5.051070464E-1,4.818938926E-1,1.973854171E0
1.065798083E1,2.101922292E0,3.572046500E-1,8.266435347E-1,2.286703307E0
1.066791683E1,2.356809731E0,2.983056468E-1,1.112406027E0,2.623163269E0
1.067785283E1,2.554191559E0,2.813914061E-1,1.323516093E0,2.890461986E0
1.068778983E1,2.712047963E0,3.398752570E-1,1.462166587E0,3.099782326E0
1.069772583E1,2.867164069E0,3.742112768E-1,1.565407219E0,3.288033400E0
1.070766183E1,3.030366582E0,1.875418407E-1,1.578818539E0,3.422128218E0
1.071759883E1,3.200532252E0,-8.644055843E-2,1.668263543E0,3.610260644E0
1.072753483E1,3.347374256E0,-3.885328621E-1,1.663006604E0,3.757853530E0
1.073747083E1,3.388021175E0,-6.526276195E-1,1.718688469E0,3.854672534E0
1.074740783E1,3.369490179E0,-8.436362743E-1,1.796874074E0,3.910747073E0
1.075734383E1,3.242991516E0,-1.008812515E0,1.793054235E0,3.840539044E0
1.076727983E1,3.034812220E0,-1.262920228E0,1.634326011E0,3.670977285E0
1.077721683E1,2.733826210E0,-1.878068365E0,1.366797184E0,3.587350146E0
1.078715283E1,2.262272533E0,-2.845877865E0,9.450338642E-1,3.756326243E0
1.079708883E1,1.134366561E0,-3.898818147E0,2.833876455E-1,4.070365954E0
1.080702583E1,-1.063413815E0,-5.042173925E0,-8.652041678E-1,5.225222013E0
1.081696183E1,-3.837709189E0,-6.005461189E0,-2.064420297E0,7.419933091E0
1.082689783E1,-6.701072860E0,-6.298179236E0,-3.244989510E0,9.751994467E0
1.083683483E1,-8.837433205E0,-6.291129248E0,-4.272559308E0,1.165904352E1
1.084677083E1,-8.995653598E0,-5.406710984E0,-5.258924947E0,1.173927591E1
1.085670683E1,-6.538865250E0,-3.319700553E0,-5.241177478E0,9.013717983E0
1.086664283E1,-3.368823304E0,-1.816694235E0,-3.427724354E0,5.137960943E0
1.087657983E1,-1.248600982E0,-7.789081818E-1,-1.841403838E0,2.357216677E0
1.088651583E1,1.131535266E-1,2.821246469E-1,-1.198237305E0,1.236192007E0
1.089645183E1,8.753530338E-1,5.379526109E-1,-1.206814878E0,1.584941039E0
1.090638883E1,1.204410065E0,-1.986889726E-1,-1.052726859E0,1.611928892E0
1.091632483E1,1.144172049E0,-1.254704306E0,-9.144552653E-1,1.928637085E0
1.092626083E1,6.661311793E-1,-1.847948772E0,-1.429754155E0,2.429576580E0
1.093619783E1,1.458973861E-1,-1.759449409E0,-1.173550215E0,2.119945371E0
1.094613383E1,-2.732336997E-1,-1.297423478E0,-4.955926032E-1,1.415477434E0
1.095606983E1,-6.537956008E-1,-5.861172956E-1,-3.537530386E-1,9.466379373E-1
1.096600683E1,-9.380866411E-1,2.347054821E-1,-2.069412942E-1,9.888973197E-1
1.097594283E1,-1.001751418E0,8.941024232E-1,8.931490347E-2,1.345697662E0
1.098587883E1,-1.103810181E0,1.531140196E0,3.949256229E-1,1.928406976E0
1.099581583E1,-1.129933202E0,2.068137957E0,5.538155222E-1,2.420879031E0
1.100575183E1,-1.291318985E0,2.412358280E0,6.364520283E-1,2.809278978E0
1.101568783E1,-1.411414363E0,2.662995670E0,6.003444484E-1,3.073117294E0
1.102562483E1,-1.539687364E0,2.831380863E0,4.533102174E-1,3.254665102E0
1.103556083E1,-1.503481697E0,3.034156455E0,3.045836560E-1,3.399902029E0
1.104549683E1,-1.289657207E0,3.271097912E0,3.305596192E-1,3.531652152E0
1.105543383E1,-9.476328785E-1,3.436306897E0,5.069815175E-1,3.600450447E0
1.106536983E1,-5.011999369E-1,3.608175861E0,6.896358168E-1,3.707523699E0
1.107530583E1,-6.794201463E-2,3.699041592E0,9.015447593E-1,3.807926965E0
1.108524283E1,3.138294927E-1,3.711921254E0,1.120271701E0,3.889968770E0
1.109517883E1,6.903781939E-1,3.629804712E0,1.354688916E0,3.935388971E0
1.110511483E1,9.346152223E-1,3.410086813E0,1.597796262E0,3.880096723E0
1.111505183E1,1.119958729E0,3.083498769E0,1.792476968E0,3.738348017E0
1.112498783E1,1.193040154E0,2.679421084E0,1.946127762E0,3.519951054E0
1.113492383E1,1.204142482E0,2.242371535E0,2.047414109E0,3.266510944E0
1.114485983E1,1.133611978E0,1.787988499E0,2.096292300E0,2.979332207E0
1.115479683E1,9.992985106E-1,1.352076234E0,2.081798368E0,2.675928269E0
1.116473283E1,7.155783778E-1,9.598578715E-1,1.946951927E0,2.285607437E0
1.117466883E1,3.253139724E-1,5.868961447E-1,1.753466684E0,1.877477478E0
1.118460583E1,-1.955414164E-1,3.624911177E-1,1.440122437E0,1.497861439E0
1.119454183E1,-7.135002773E-1,2.546526736E-1,1.131597904E0,1.361779882E0
1.120447783E1,-1.092928221E0,2.769767582E-2,8.613031979E-1,1.391798281E0
1.121441483E1,-1.134793115E0,-2.775965631E-1,7.203430545E-1,1.372482926E0
1.122435083E1,-7.053285742E-1,-6.660966808E-1,8.159684193E-1,1.267666221E0
1.123428683E1,1.742051823E-1,-9.994341660E-1,1.192125357E0,1.565368635E0
1.124422383E1,1.318009771E0,-1.338742828E0,1.688410417E0,2.525888329E0
1.125415983E1,2.423433783E0,-1.547053978E0,2.117859463E0,3.570957297E0
1.126409583E1,3.285464813E0,-1.588813038E0,2.315564057E0,4.322087784E0
1.127403283E1,3.901725968E0,-1.624861708E0,2.221962998E0,4.775014205E0
1.128396883E1,4.417316194E0,-1.598454512E0,2.180260364E0,5.178925993E0
1.129390483E1,4.643166946E0,-1.476976268E0,2.095141568E0,5.303779442E0
1.130384183E1,4.428361877E0,-1.975233302E0,1.904206734E0,5.209408680E0
1.131377783E1,3.707158113E0,-2.790852642E0,1.369312364E0,4.838067392E0
1.132371383E1,2.832251806E0,-3.568328256E0,4.384571202E-1,4.576774135E0
1.133365083E1,1.502506674E0,-4.375807103E0,-6.218747735E-1,4.668184052E0
1.134358683E1,-3.054448047E-1,-5.118618668E0,-2.121632671E0,5.549313362E0
1.135352283E1,-2.453322119E0,-5.327011095E0,-3.609019614E0,6.886280506E0
1.136345983E1,-4.771142616E0,-4.798706975E0,-4.528196068E0,8.142232502E0
1.137339583E1,-6.660428279E0,-3.897760386E0,-4.691359112E0,9.031206520E0
1.138333183E1,-7.736624692E0,-3.289123124E0,-4.332941457E0,9.457699203E0
1.139326783E1,-7.941543288E0,-2.873707103E0,-3.551869221E0,9.161990901E0
1.140320483E1,-6.877465230E0,-2.927400330E0,-2.424255902E0,7.857876135E0
1.141314083E1,-4.253713732E0,-2.822694240E0,-1.269245746E0,5.260481731E0
1.142307683E1,-2.757569998E0,-2.436108500E0,-9.044461477E-1,3.789042063E0
1.143301383E1,-2.359253575E0,-2.038554554E0,-9.978726670E-1,3.273764188E0
1.144294983E1,-2.327764272E0,-1.567867143E0,-7.727817616E-1,2.910993908E0
1.145288583E1,-2.439477374E0,-1.039215113E0,-9.406002130E-1,2.813493677E0
1.146282283E1,-2.459721311E0,-7.657215410E-1,-1.280672083E0,2.876921860E0
1.147275883E1,-2.367760689E0,-3.910319620E-1,-1.234075621E0,2.698543925E0
1.148269483E1,-2.188466931E0,-3.521836460E-2,-1.151501388E0,2.473172717E0
1.149263183E1,-1.855265393E0,3.944929290E-1,-1.022587678E0,2.154836400E0
1.150256783E1,-1.360304143E0,8.285405177E-1,-9.005915169E-1,1.829746385E0
1.151250383E1,-9.047183356E-1,1.369400364E0,-7.201661763E-1,1.792320269E0
1.152244083E1,-5.088960421E-1,1.888041376E0,-6.175946116E-1,2.050633688E0
1.153237683E1,-1.223196584E-1,2.395511282E0,-4.318974213E-1,2.437205733E0
1.154231283E1,3.074153164E-1,3.008064424E0,4.590532064E-2,3.024080531E0
1.155224983E1,6.376175246E-1,3.636691563E0,6.335548791E-1,3.746127789E0
1.156218583E1,7.928225085E-1,4.188200943E0,8.804854274E-1,4.352568122E0
1.157212183E1,8.651671842E-1,4.568426081E0,9.679049559E-1,4.749302172E0
1.158205883E1,9.356293488E-1,4.812682405E0,1.118966457E0,5.028856743E0
1.159199483E1,1.014014783E0,4.895232811E0,1.182761041E0,5.137163997E0
1.160193083E1,1.148877304E0,4.865040713E0,1.197254827E0,5.140229501E0
1.161186783E1,1.362381659E0,4.646722637E0,1.157795915E0,4.978815766E0
1.162180383E1,1.634854307E0,4.120012468E0,1.070324639E0,4.559917343E0
1.163173983E1,1.824450859E0,3.437800276E0,8.256131092E-1,3.978533484E0
1.164167583E1,1.872448606E0,2.688404161E0,4.086434832E-1,3.301601159E0
1.165161283E1,1.802510059E0,1.941084393E0,-2.038792536E-2,2.649012420E0
1.166154883E1,1.630935211E0,1.246416462E0,-5.292722730E-1,2.119819048E0
1.167148483E1,1.459921987E0,6.280903637E-1,-9.806444308E-1,1.867493832E0
1.168142158E1,1.349333597E0,2.118949091E-1,-1.129217503E0,1.772211268E0
1.169135758E1,1.428150556E0,-9.164984286E-2,-9.703699958E-1,1.729055127E0
1.170129358E1,1.581380643E0,-1.823208618E-1,-6.018729106E-1,1.701839192E0
1.171123058E1,1.930905852E0,-1.306121796E-1,2.581077933E-2,1.935490415E0
1.172116658E1,2.326886897E0,2.328127384E-2,8.111254629E-1,2.464319210E0
1.173110258E1,2.600353572E0,1.301683760E-1,1.302506024E0,2.911237615E0
1.174103958E1,2.722592247E0,2.647888219E-1,1.562643094E0,3.150313492E0
1.175097558E1,2.855163828E0,2.356258339E-1,1.844410330E0,3.407246613E0
1.176091158E1,2.903621751E0,6.520581007E-2,1.947639998E0,3.496937608E0
1.177084858E1,2.902701984E0,-2.394119060E-1,1.860225294E0,3.455927518E0
1.178078458E1,2.841786568E0,-6.483176368E-1,1.731127982E0,3.390113677E0
1.179072058E1,2.776144263E0,-1.116286678E0,1.623636131E0,3.404301280E0
1.180065758E1,2.715538166E0,-1.638652366E0,1.493506493E0,3.505694047E0
1.181059358E1,2.589224274E0,-2.159686058E0,1.292852271E0,3.611065384E0
1.182052958E1,2.293210444E0,-2.600963729E0,1.000175593E0,3.608902558E0
1.183046658E1,1.802438577E0,-2.985221107E0,5.048645331E-1,3.523523532E0
1.184040258E1,1.048051352E0,-3.645881631E0,-1.789531580E-1,3.797747851E0
1.185033858E1,2.841907606E-1,-4.454753870E0,-4.748196387E-1,4.488992105E0
1.186027458E1,-1.006373934E0,-4.887500453E0,-4.810913622E-1,5.013172456E0
1.187021158E1,-2.539462130E0,-5.262649623E0,-6.291829160E-1,5.877092828E0
1.188014758E1,-4.275917656E0,-5.436558096E0,-9.247140589E-1,6.978161063E0
1.189008358E1,-5.592872881E0,-5.000749910E0,-1.125301622E0,7.586437272E0
1.190002058E1,-5.909245255E0,-4.000954971E0,-1.471766107E0,7.286488567E0
1.190995658E1,-5.045302770E0,-2.342376464E0,-2.238045034E0,5.995886349E0
1.191989258E1,-4.092496056E0,-1.187543771E0,-2.217305398E0,4.803668120E0
1.192982958E1,-3.156918455E0,-1.723560369E-1,-2.099484880E0,3.795217714E0
1.193976558E1,-2.197435390E0,8.691178554E-1,-1.876254412E0,3.017352939E0
1.194970158E1,-1.654699757E0,1.698010960E0,-1.665638143E0,2.897520135E0
1.195963858E1,-1.184747633E0,2.146961932E0,-1.566133735E0,2.909612924E0
1.196957458E1,-6.245273629E-1,1.793080255E0,-1.610435457E0,2.489713556E0
1.197951058E1,3.136183351E-2,1.046278549E0,-1.413080235E0,1.758544318E0
1.198944758E1,6.779799771E-1,1.838996100E-1,-1.194388960E0,1.385655406E0
1.199938358E1,1.154595003E0,-3.619847488E-1,-1.124365045E0,1.651762493E0
1.200931958E1,1.484715935E0,-5.731627893E-1,-1.094418822E0,1.931488946E0
1.201925658E1,1.563128559E0,-2.574564135E-1,-9.130487175E-1,1.828472766E0
1.202919258E1,1.436619078E0,5.234111702E-1,-5.638575304E-1,1.629653013E0
1.203912858E1,1.253115032E0,1.353167909E0,-7.728498816E-2,1.845896433E0
1.204906458E1,9.639193475E-1,1.919454957E0,2.131193161E-1,2.158441031E0
1.205900158E1,6.461933434E-1,2.334297366E0,3.155135639E-1,2.442551707E0
1.206893758E1,2.095884749E-1,2.566874462E0,3.186802697E-1,2.595058563E0
1.207887358E1,-2.091464254E-1,2.710637029E0,2.982512677E-1,2.735004415E0
1.208881058E1,-5.565634212E-1,2.841256810E0,2.638415730E-1,2.907252222E0
1.209874658E1,-8.099036872E-1,2.960556967E0,3.002229488E-1,3.083986925E0
1.210868258E1,-9.343119711E-1,3.029022599E0,4.373775780E-1,3.199877484E0
1.211861958E1,-8.869802222E-1,3.045207692E0,6.043647015E-1,3.228820295E0
1.212855558E1,-7.319676116E-1,2.981156707E0,7.826205790E-1,3.167896284E0
1.213849158E1,-4.917493746E-1,2.838832555E0,9.066739368E-1,3.020404832E0
1.214842858E1,-2.903943640E-1,2.657332642E0,1.010260870E0,2.857686596E0
1.215836458E1,-4.462298971E-2,2.421959408E0,1.048978940E0,2.639741541E0
1.216830058E1,9.238074481E-2,2.165250853E0,1.075309975E0,2.419325733E0
1.217823758E1,9.391742963E-2,1.826744429E0,1.075914723E0,2.122123509E0
1.218817358E1,1.416996700E-1,1.530328603E0,1.030141404E0,1.850182624E0
1.219810958E1,1.892621281E-1,1.197967018E0,1.007109367E0,1.576456281E0
1.220804658E1,2.355407934E-1,8.818168384E-1,1.035709269E0,1.380497769E0
1.221798258E1,2.781652048E-1,6.181360638E-1,1.029478329E0,1.232596327E0
1.222791858E1,3.341210852E-1,3.609188014E-1,1.115091214E0,1.218740209E0
1.223785458E1,3.690344078E-1,1.837744796E-1,1.141170527E0,1.213354699E0
1.224779158E1,3.387619472E-1,1.383492154E-1,1.131929734E0,1.189607113E0
1.225772758E1,3.287509292E-1,2.056898439E-1,1.180426540E0,1.242494387E0
1.226766358E1,3.517769721E-1,3.537647331E-1,1.224694641E0,1.322411996E0
1.227760058E1,3.855870714E-1,3.251209778E-1,1.272157806E0,1.368490600E0
1.228753658E1,5.109788203E-1,1.450629884E-1,1.292446328E0,1.397340380E0
1.229747258E1,8.378846607E-1,-1.887808657E-1,1.387303369E0,1.631655465E0
1.230740958E1,1.325486605E0,-6.152218115E-1,1.536885817E0,2.120714651E0
1.231734558E1,2.032300372E0,-1.038984733E0,1.807063286E0,2.911221702E0
1.232728158E1,2.932128389E0,-1.541271082E0,2.173138455E0,3.961745093E0
1.233721858E1,3.822166120E0,-1.860455967E0,2.540395346E0,4.952156981E0
1.234715458E1,4.386094109E0,-1.823900344E0,2.640174865E0,5.434607375E0
1.235709058E1,4.789669811E0,-1.793957922E0,2.502100761E0,5.693832641E0
1.236702758E1,4.921229532E0,-1.536122609E0,2.387940892E0,5.681587320E0
1.237696358E1,4.531602363E0,-1.051354517E0,2.219662703E0,5.154383456E0
1.238689958E1,4.078760069E0,-1.306351007E0,1.996758657E0,4.725450432E0
1.239683558E1,3.549142957E0,-2.453396378E0,1.494288851E0,4.566012340E0
1.240677258E1,2.614478691E0,-3.334098153E0,5.445523632E-1,4.271796647E0
1.241670858E1,1.120158704E0,-4.175372736E0,-9.066691129E-1,4.417073906E0
1.242664458E1,-1.132175024E0,-4.670825445E0,-2.721647336E0,5.523205125E0
1.243658158E1,-3.538441967E0,-4.580830949E0,-4.261823820E0,7.188026573E0
1.244651758E1,-5.800424479E0,-3.959780048E0,-4.949003806E0,8.591706515E0
1.245645358E1,-7.172391186E0,-3.069225131E0,-4.914616331E0,9.220455081E0
1.246639058E1,-8.487791344E0,-2.389996188E0,-4.846983926E0,1.006220338E1
1.247632658E1,-8.612436440E0,-2.176814307E0,-4.196663326E0,9.824691600E0
1.248626258E1,-6.721103082E0,-2.153870417E0,-2.665626333E0,7.544398462E0
1.249619958E1,-4.543512557E0,-2.234804068E0,-1.824697465E0,5.382134931E0
1.250613558E1,-3.253296064E0,-2.519394486E0,-1.977058364E0,4.565089663E0
1.251607158E1,-3.011471597E0,-2.433352708E0,-1.532994933E0,4.164161385E0
1.252600858E1,-2.699610350E0,-1.934759459E0,-1.102166090E0,3.499422852E0
1.253594458E1,-2.649897615E0,-1.325073207E0,-8.889488335E-1,3.093219424E0
1.254588058E1,-2.728502320E0,-7.832731283E-1,-6.649091113E-1,2.915535256E0
1.255581758E1,-2.696786730E0,-5.050544214E-1,-5.100035048E-1,2.790670566E0
1.256575358E1,-2.390266330E0,-2.099887168E-1,-4.998847519E-1,2.450990239E0
1.257568958E1,-1.912774221E0,-8.889288068E-2,-7.489923647E-1,2.056112041E0
1.258562558E1,-1.209578419E0,3.093568844E-1,-6.884978025E-1,1.425766761E0
1.259556258E1,-6.300252074E-1,1.009517105E0,-3.736628079E-1,1.247269193E0
1.260549858E1,-1.877391842E-1,1.746345799E0,-2.411765957E-1,1.772889111E0
1.261543458E1,1.581122196E-1,2.499253752E0,-5.507170826E-2,2.504855621E0
1.262537158E1,4.737168539E-1,3.238959861E0,3.203081346E-1,3.289052438E0
1.263530758E1,8.305276939E-1,3.957121904E0,9.787779996E-1,4.160119756E0
1.264524358E1,1.063940064E0,4.543568982E0,1.337676880E0,4.854417266E0
1.265518058E1,1.222580580E0,4.969819309E0,1.398831447E0,5.305707932E0
1.266511658E1,1.337536255E0,5.185280435E0,1.444928556E0,5.546526387E0
1.267505258E1,1.433879365E0,5.172813587E0,1.526695143E0,5.580753399E0
1.268498908E1,1.577376177E0,5.064944737E0,1.551275668E0,5.527045955E0
1.269492508E1,1.747386019E0,4.845580010E0,1.398408401E0,5.337466589E0
1.270486108E1,1.972644739E0,4.327331346E0,1.182395883E0,4.900528938E0
1.271479808E1,2.128736453E0,3.539527211E0,8.355051363E-1,4.214005291E0
1.272473408E1,2.217664710E0,2.802047136E0,4.642057729E-1,3.603469428E0
1.273467008E1,2.272832020E0,2.009610837E0,4.707476377E-2,3.034224306E0
1.274460608E1,2.176287180E0,1.322470611E0,-4.915660644E-1,2.593605908E0
1.275454308E1,2.021043897E0,7.527570945E-1,-9.511347029E-1,2.357099680E0
1.276447908E1,1.823869646E0,3.271955699E-1,-1.178491697E0,2.195996381E0
1.277441508E1,1.773719247E0,2.434692889E-1,-1.247285797E0,2.181989716E0
1.278435208E1,1.849649143E0,4.012061173E-1,-7.413797285E-1,2.032685957E0
1.279428808E1,2.049304952E0,6.499232823E-1,9.290801749E-2,2.151902173E0
1.280422408E1,2.316481485E0,8.802679110E-1,7.760108864E-1,2.596757779E0
1.281416108E1,2.454985359E0,1.066194166E0,1.340796955E0,2.993569706E0
1.282409708E1,2.598870426E0,1.091964599E0,1.912838248E0,3.406679371E0
1.283403308E1,2.728003260E0,8.752948540E-1,2.189705517E0,3.605960776E0
1.284397008E1,2.855756736E0,4.128818375E-1,2.274083909E0,3.673863848E0
1.285390608E1,2.849612482E0,-1.852339447E-1,2.166304668E0,3.584337990E0
1.286384208E1,2.775714493E0,-8.773331934E-1,1.877252240E0,3.463867845E0
1.287377908E1,2.705852838E0,-1.479611024E0,1.675632789E0,3.509791105E0
1.288371508E1,2.558861437E0,-2.029704208E0,1.487198078E0,3.588764293E0
1.289365108E1,2.215025861E0,-2.287988588E0,1.119497091E0,3.375574778E0
1.290358708E1,1.828975435E0,-2.455933485E0,7.152521762E-1,3.144574073E0
1.291352408E1,1.735687494E0,-2.707719269E0,3.573350430E-1,3.236053623E0
1.292346008E1,1.622168480E0,-3.253099598E0,-1.388199162E-1,3.637768346E0
1.293339608E1,1.186857016E0,-4.003609607E0,-6.873181267E-1,4.232012012E0
1.294333308E1,2.849506062E-1,-4.854943156E0,-1.125011454E0,4.991725220E0
1.295326908E1,-1.343709745E0,-5.405199478E0,-1.721900783E0,5.829809567E0
1.296320508E1,-3.338995196E0,-5.466616877E0,-2.431078287E0,6.851491125E0
1.297314208E1,-5.416885139E0,-5.272876403E0,-3.313377374E0,8.253747016E0
1.298307808E1,-6.697342921E0,-4.687946677E0,-4.215555972E0,9.197943161E0
1.299301408E1,-6.448740946E0,-3.334810928E0,-4.783464453E0,8.694179426E0
1.300295108E1,-4.776828448E0,-1.803387142E0,-4.445600638E0,6.770056148E0
1.301288708E1,-2.638673885E0,-7.520560133E-1,-3.219661710E0,4.230178441E0
1.302282308E1,-8.451065567E-1,1.758678746E-1,-2.247632275E0,2.407692971E0
1.303276008E1,2.321806544E-1,6.349204963E-1,-1.784439093E0,1.908207214E0
1.304269608E1,8.928192517E-1,4.962783355E-1,-1.623350641E0,1.917990017E0
1.305263208E1,1.334776369E0,-2.160932100E-1,-1.334790549E0,1.899997379E0
1.306256808E1,1.286106777E0,-1.075517551E0,-1.192483499E0,2.057383178E0
1.307250508E1,8.646371341E-1,-1.550238372E0,-1.417055172E0,2.271317183E0
1.308244108E1,3.775059270E-1,-1.484641383E0,-1.153794081E0,1.917788190E0
1.309237708E1,-1.614103233E-1,-1.090386436E0,-7.680061944E-1,1.343439387E0
1.310231408E1,-6.066383913E-1,-5.222510827E-1,-6.385415308E-1,1.023958797E0
1.311225008E1,-9.999262092E-1,1.400630343E-1,-3.861010051E-1,1.080992166E0
1.312218608E1,-1.179510282E0,9.175006413E-1,-1.409178972E-2,1.494406407E0
1.313212308E1,-1.252871788E0,1.572567134E0,2.179233885E-1,2.022410867E0
1.314205908E1,-1.463812432E0,2.140760960E0,3.511184295E-1,2.617038111E0
1.315199508E1,-1.616214553E0,2.560951232E0,4.059442623E-1,3.055390554E0
1.316193208E1,-1.723216260E0,2.945467642E0,5.089548066E-1,3.450259252E0
1.317186808E1,-1.802802128E0,3.192740545E0,4.490813649E-1,3.693962882E0
1.318180408E1,-1.754401216E0,3.303958095E0,3.079096985E-1,3.753514500E0
1.319174108E1,-1.396606582E0,3.402749727E0,3.913116051E-1,3.698964777E0
1.320167708E1,-9.688657996E-1,3.382762774E0,6.119462013E-1,3.571591113E0
1.321161308E1,-4.519707665E-1,3.237711480E0,8.106929152E-1,3.368126513E0
1.322154908E1,-4.860969443E-2,3.133332249E0,1.039962241E0,3.301765489E0
1.323148608E1,1.796533803E-1,3.017092525E0,1.222624872E0,3.260357990E0
1.324142208E1,2.184084150E-1,2.933540491E0,1.338177402E0,3.231730312E0
1.325135808E1,1.338188292E-1,2.816903157E0,1.417857556E0,3.156449101E0
1.326129508E1,-1.937968265E-2,2.607321407E0,1.411475905E0,2.964922380E0
1.327123108E1,-2.491887247E-1,2.325434741E0,1.331558500E0,2.691243169E0
1.328116708E1,-3.735032155E-1,2.062967849E0,1.232479477E0,2.431942980E0
1.329110408E1,-4.702137870E-1,1.847343001E0,1.140561540E0,2.221408966E0
1.330104008E1,-5.200115625E-1,1.666116153E0,1.087357724E0,2.056380772E0
1.331097608E1,-5.090629801E-1,1.397026119E0,1.083767388E0,1.839939903E0
1.332091308E1,-4.695147523E-1,1.080612230E0,1.046760360E0,1.576031137E0
1.333084908E1,-3.707961739E-1,7.606917661E-1,1.149596657E0,1.427485285E0
1.334078508E1,-1.705419382E-1,3.882597971E-1,1.265400617E0,1.334566950E0
1.335072108E1,1.247549872E-1,1.577169478E-2,1.374190111E0,1.379931525E0
1.336065808E1,5.636867551E-1,-4.527738816E-1,1.551399337E0,1.711603590E0
1.337059408E1,1.167661484E0,-8.164695257E-1,1.814172331E0,2.306789343E0
1.338053008E1,1.914281048E0,-1.134626470E0,2.101324414E0,3.060623049E0
1.339046708E1,2.728749657E0,-1.386134511E0,2.439611713E0,3.913968432E0
1.340040308E1,3.538200185E0,-1.618971807E0,2.582130140E0,4.669831509E0
1.341033908E1,4.077535955E0,-1.678971257E0,2.491824864E0,5.065020740E0
1.342027608E1,4.492907537E0,-1.884071701E0,2.257308393E0,5.369486520E0
1.343021208E1,4.894265097E0,-1.985855938E0,2.003328588E0,5.648962743E0
1.344014808E1,5.021543194E0,-2.194414426E0,1.659612880E0,5.725876844E0
1.345008508E1,4.796635014E0,-2.377252182E0,1.269955890E0,5.501983584E0
1.346002108E1,4.375264774E0,-2.620683464E0,7.279725015E-1,5.151782955E0
1.346995708E1,3.579249393E0,-2.994555602E0,-8.519042373E-2,4.667509709E0
1.347989408E1,2.572192797E0,-3.493116106E0,-1.085101722E0,4.471630761E0
1.348983008E1,1.080016107E0,-3.946428516E0,-2.144803433E0,4.619622775E0
1.349976608E1,-7.813300985E-1,-4.249520109E0,-3.331860423E0,5.456206719E0
1.350970208E1,-2.805329179E0,-4.367619247E0,-4.272375705E0,6.723032341E0
1.351963908E1,-4.665185221E0,-4.375666770E0,-4.445863763E0,7.789487623E0
1.352957508E1,-6.523689972E0,-4.083081454E0,-4.242222784E0,8.787863173E0
1.353951108E1,-7.907843446E0,-3.553427796E0,-3.957292643E0,9.530005358E0
1.354944808E1,-8.222992582E0,-2.747417185E0,-3.286929249E0,9.271990729E0
1.355938408E1,-6.998807234E0,-1.878095847E0,-2.369841567E0,7.624086552E0
1.356932008E1,-5.206698786E0,-8.407699692E-1,-1.631228010E0,5.520644094E0
1.357925708E1,-3.540325648E0,-7.410071146E-1,-1.275794774E0,3.835446459E0
1.358919308E1,-2.621928336E0,-5.435279310E-1,-6.650342417E-1,2.759021811E0
1.359912908E1,-2.330319213E0,-5.703257203E-2,-2.153960757E-1,2.340947632E0
1.360906608E1,-1.998989954E0,3.608503890E-1,-1.275251421E-1,2.035297644E0
1.361900208E1,-1.923745352E0,6.199451923E-1,5.038677290E-2,2.021797974E0
1.362893808E1,-1.795861191E0,7.781065285E-1,1.581554890E-1,1.963563175E0
1.363887408E1,-1.605423224E0,7.211704355E-1,1.022239476E-2,1.759992904E0
1.364881108E1,-1.316410849E0,5.502212387E-1,-5.093825305E-1,1.514975742E0
1.365874708E1,-7.897343747E-1,6.360449159E-1,-7.569002853E-1,1.265358273E0
1.366868308E1,-3.636783949E-1,9.868825328E-1,-6.602007870E-1,1.241798771E0
1.367862017E1,-1.593000814E-4,1.484261899E0,-6.276679024E-1,1.611521147E0
1.368855617E1,3.404479918E-1,2.070751662E0,-5.678324676E-1,2.174017248E0
1.369849217E1,7.085313866E-1,2.723674566E0,-3.364707157E-2,2.814525181E0
1.370842917E1,1.067375888E0,3.234673267E0,3.653774495E-1,3.425770441E0
1.371836517E1,1.400469252E0,3.613283989E0,4.786136046E-1,3.904639073E0
1.372830117E1,1.634992594E0,3.844913836E0,6.598509774E-1,4.229889655E0
1.373823817E1,1.826694143E0,3.936918020E0,8.279306531E-1,4.418325945E0
1.374817417E1,2.077469236E0,3.980307283E0,9.676487017E-1,4.592936806E0
1.375811017E1,2.288815676E0,3.965637789E0,1.022351743E0,4.691499052E0
1.376804617E1,2.481930791E0,3.882841215E0,9.321935248E-1,4.701640258E0
1.377798317E1,2.590049901E0,3.610969661E0,7.394599414E-1,4.504915247E0
1.378791917E1,2.581909700E0,3.121634309E0,5.042510140E-1,4.082294397E0
1.379785517E1,2.465184657E0,2.495795708E0,1.054735377E-1,3.509594888E0
1.380779217E1,2.244836136E0,1.828529000E0,-4.515966909E-1,2.930315197E0
1.381772817E1,1.978777884E0,1.173038583E0,-9.022873557E-1,2.470972259E0
1.382766417E1,1.736439154E0,5.472181088E-1,-1.333087986E0,2.256499982E0
1.383760117E1,1.571689906E0,1.008364034E-1,-1.529750459E0,2.195566808E0
1.384753717E1,1.682296422E0,-1.373201054E-1,-1.247676098E0,2.098969678E0
1.385747317E1,2.028309940E0,-5.257056177E-2,-5.956722307E-1,2.114622965E0
1.386741017E1,2.412669644E0,2.110757142E-1,1.940857521E-1,2.429649573E0
1.387734617E1,2.681609112E0,4.574405444E-1,8.108303247E-1,2.838613235E0
1.388728217E1,2.887639264E0,6.958169085E-1,1.304133889E0,3.243977017E0
1.389721817E1,3.038096309E0,7.209792316E-1,1.512578941E0,3.469543959E0
1.390715517E1,3.089104494E0,6.343211567E-1,1.710124345E0,3.587402289E0
1.391709117E1,3.098001910E0,4.322741282E-1,1.957671482E0,3.690115769E0
1.392702717E1,3.082048659E0,1.266998076E-1,1.983352160E0,3.667255455E0
1.393696417E1,3.038853523E0,-2.070575076E-1,2.026173806E0,3.658262407E0
1.394690017E1,2.912266274E0,-6.562903154E-1,2.100021362E0,3.649945418E0
1.395683617E1,2.781282504E0,-1.252970606E0,1.993018046E0,3.643842565E0
1.396677317E1,2.277121830E0,-1.782143038E0,1.609088259E0,3.309151350E0
1.397670917E1,1.453402634E0,-2.560070642E0,8.786764450E-1,3.072200059E0
1.398664517E1,6.488325573E-1,-3.669183370E0,5.062431604E-2,3.726453155E0
1.399658217E1,-4.927787769E-1,-4.495052880E0,-6.630321550E-1,4.570332915E0
1.400651817E1,-2.121551979E0,-5.270151016E0,-1.408905176E0,5.853245965E0
1.401645417E1,-4.388962753E0,-6.069132689E0,-2.295440279E0,7.833671663E0
1.402639017E1,-6.699380676E0,-6.267652093E0,-3.086437579E0,9.679424628E0
1.403632717E1,-7.983104128E0,-5.351387553E0,-3.696831930E0,1.029727472E1
1.404626317E1,-7.402794871E0,-3.288171197E0,-4.021681012E0,9.043636431E0
1.405619917E1,-4.902616383E0,-1.515227584E0,-3.339123834E0,6.122198135E0
1.406613617E1,-2.687029773E0,-5.574302709E-1,-1.932489570E0,3.356392922E0
1.407607217E1,-8.713912529E-1,4.011435521E-1,-1.051642639E0,1.423443397E0
1.408600817E1,4.004746671E-1,8.454085654E-1,-7.497579114E-1,1.198846332E0
1.409594517E1,1.216198271E0,6.719281089E-1,-8.145827754E-1,1.610642951E0
1.410588117E1,1.647605038E0,-6.966665089E-2,-8.065976715E-1,1.835771120E0
1.411581717E1,1.517355970E0,-9.470606554E-1,-9.053419411E-1,2.004728674E0
1.412575417E1,9.922110274E-1,-1.394096079E0,-1.590397195E0,2.336097139E0
1.413569017E1,3.448118054E-1,-1.338613020E0,-1.940213596E0,2.382269673E0
1.414562617E1,-3.186630935E-1,-6.783699864E-1,-1.356362389E0,1.549661555E0
1.415556217E1,-7.097209295E-1,1.289866537E-1,-8.871860442E-1,1.143433615E0
1.416549917E1,-7.725779861E-1,8.311495453E-1,-4.187729073E-1,1.209568956E0
1.417543517E1,-6.728867599E-1,1.406888618E0,9.004712105E-3,1.559549057E0
1.418537117E1,-6.291694674E-1,1.771466022E0,3.035782273E-1,1.904233659E0
1.419530817E1,-6.086985847E-1,2.081867804E0,5.139997843E-1,2.229099212E0
1.420524417E1,-6.406688941E-1,2.285136316E0,6.337469602E-1,2.456407911E0
1.421518017E1,-7.190008262E-1,2.458216823E0,5.759953268E-1,2.625178613E0
1.422511717E1,-8.007570340E-1,2.617110815E0,5.278354660E-1,2.787308940E0
1.423505317E1,-8.028791347E-1,2.747454023E0,5.881000865E-1,2.922153354E0
1.424498917E1,-7.492443797E-1,2.854639918E0,6.779869938E-1,3.028201209E0
1.425492517E1,-6.074371941E-1,2.951741120E0,6.779856782E-1,3.088918931E0
1.426486217E1,-4.686738862E-1,3.107629058E0,7.061391445E-1,3.221124969E0
1.427479817E1,-3.725150726E-1,3.195331446E0,7.556285159E-1,3.304524925E0
1.428473417E1,-2.650262189E-1,3.174688436E0,7.933923197E-1,3.283040806E0
1.429467117E1,-1.951715800E-1,3.083454915E0,8.332375860E-1,3.200011099E0
1.430460717E1,-1.949574257E-1,2.795928610E0,8.896578084E-1,2.940529919E0
1.431454317E1,-1.399758011E-1,2.435584005E0,9.072472563E-1,2.602836963E0
1.432448017E1,-5.384521823E-2,2.059915017E0,9.682347389E-1,2.276758155E0
1.433441617E1,8.990094066E-4,1.664130439E0,1.062553689E0,1.974424288E0
1.434435217E1,8.906478882E-2,1.320435196E0,1.099807470E0,1.720772534E0
1.435428917E1,2.126524525E-1,1.025010472E0,1.218751677E0,1.606618556E0
1.436422517E1,2.621838874E-1,7.706829035E-1,1.296408402E0,1.530806086E0
1.437416117E1,2.967964804E-1,6.531053370E-1,1.294719726E0,1.480180361E0
1.438409717E1,2.772723350E-1,6.257982552E-1,1.266851896E0,1.439936502E0
1.439403417E1,2.878139877E-1,6.044103098E-1,1.244991496E0,1.413560235E0
1.440397017E1,3.936029828E-1,5.078271711E-1,1.220425004E0,1.379220408E0
1.441390617E1,6.751373532E-1,2.637947953E-1,1.189527147E0,1.392972711E0
1.442384317E1,1.142245465E0,-9.350574911E-2,1.271337003E0,1.711655865E0
1.443377917E1,1.700204543E0,-4.494117326E-1,1.423469860E0,2.262505875E0
1.444371517E1,2.425623273E0,-8.424060202E-1,1.617045150E0,3.034490267E0
1.445365217E1,3.151165380E0,-1.328869219E0,1.772302905E0,3.851855947E0
1.446358817E1,3.632841463E0,-1.696692998E0,1.516352588E0,4.286680464E0
1.447352417E1,4.023324080E0,-2.118456756E0,1.359465652E0,4.745855301E0
1.448346117E1,4.290892668E0,-2.170122753E0,1.378634287E0,5.002182039E0
1.449339717E1,4.480740358E0,-1.862277959E0,1.523513234E0,5.085883004E0
1.450333317E1,4.058539228E0,-1.813521536E0,1.689229173E0,4.755428080E0
1.451326917E1,3.549881460E0,-2.476416866E0,1.413565700E0,4.553291871E0
1.452320617E1,2.919241710E0,-3.174439344E0,7.609554756E-1,4.379279684E0
1.453314217E1,1.945416302E0,-3.856932203E0,-1.298783541E-1,4.321740274E0
1.454307817E1,3.788571820E-1,-4.497875916E0,-1.293562854E0,4.695500546E0
1.455301517E1,-1.637501926E0,-4.612479004E0,-2.650892519E0,5.566291967E0
1.456295117E1,-3.816720023E0,-4.384073896E0,-3.823475604E0,6.957472340E0
1.457288717E1,-5.657669971E0,-3.761629604E0,-4.132671690E0,7.952236294E0
1.458282417E1,-6.874744520E0,-2.762481952E0,-4.172605834E0,8.503179299E0
1.459276017E1,-7.524483030E0,-1.719103621E0,-3.666234912E0,8.544848774E0
1.460269617E1,-6.703640372E0,-1.255981922E0,-2.076919305E0,7.129507601E0
1.461263217E1,-5.112410095E0,-1.225224398E0,-1.172027892E0,5.386238129E0
1.462256917E1,-3.618740026E0,-1.513614337E0,-8.507608142E-1,4.013739117E0
1.463250517E1,-3.044979359E0,-1.599601151E0,-6.383871643E-1,3.498308350E0
1.464244117E1,-3.016441730E0,-1.492884203E0,-3.058330598E-1,3.379520353E0
1.465237817E1,-3.039101445E0,-1.207830101E0,-4.943215647E-1,3.307468058E0
1.466231417E1,-3.104858940E0,-1.129910690E0,-9.572102523E-1,3.439927132E0
1.467225017E1,-3.002457529E0,-1.022976226E0,-1.416058514E0,3.473680079E0
1.468218733E1,-2.676391641E0,-8.414985323E-1,-1.449243948E0,3.157768202E0
1.469212333E1,-2.137380392E0,-4.578744078E-1,-1.459022977E0,2.628077617E0
1.470205933E1,-1.553412533E0,1.675168812E-2,-1.394133209E0,2.087337664E0
1.471199533E1,-9.447518823E-1,4.957643652E-1,-1.200323153E0,1.605962047E0
1.472193233E1,-3.191129271E-1,1.086321452E0,-9.902911672E-1,1.504195450E0
1.473186833E1,1.917026828E-1,1.651136756E0,-7.392544118E-1,1.819203010E0
1.474180433E1,6.053704957E-1,2.205811234E0,-3.974324705E-1,2.321643643E0
1.475174133E1,9.855291948E-1,2.758321073E0,8.913495541E-3,2.929109487E0
1.476167733E1,1.217274816E0,3.259468385E0,4.273216827E-1,3.505495108E0
1.477161333E1,1.422662652E0,3.587633423E0,6.409226632E-1,3.912271011E0
1.478155033E1,1.557179602E0,3.784563553E0,7.639197215E-1,4.163088150E0
1.479148633E1,1.631877782E0,3.847514677E0,8.330665550E-1,4.261501399E0
1.480142233E1,1.710646501E0,3.859548247E0,8.343204904E-1,4.303314397E0
1.481135933E1,1.809118290E0,3.797472451E0,8.557541902E-1,4.292554163E0
1.482129533E1,1.873841997E0,3.664901454E0,8.241640230E-1,4.197860507E0
1.483123133E1,1.904709156E0,3.360266197E0,6.746238215E-1,3.921023232E0
1.484116833E1,1.857782912E0,2.965452840E0,4.292386924E-1,3.525551553E0
1.485110433E1,1.755794899E0,2.608020149E0,1.475509787E-1,3.147436436E0
1.486104033E1,1.601273455E0,2.233317706E0,-9.060611486E-2,2.749544348E0
1.487097633E1,1.445857094E0,1.902897981E0,-2.763648471E-1,2.405805685E0
1.488091333E1,1.409892479E0,1.637360131E0,-1.814714076E-1,2.168335046E0
1.489084933E1,1.627103823E0,1.471130807E0,2.797495079E-1,2.211323696E0
1.490078533E1,1.846519420E0,1.344604661E0,6.933980615E-1,2.387131445E0
1.491072233E1,1.997785720E0,1.214198304E0,1.016598375E0,2.549293541E0
1.492065833E1,2.170144973E0,1.135061502E0,1.351314634E0,2.797131577E0
1.493059433E1,2.263980505E0,1.022824783E0,1.560437086E0,2.933724963E0
1.494053133E1,2.272310156E0,8.535052049E-1,1.645200809E0,2.932328474E0
1.495046733E1,2.168974068E0,7.117610961E-1,1.756947970E0,2.880610792E0
1.496040333E1,2.154841640E0,5.154659736E-1,1.695787410E0,2.790115160E0
1.497033933E1,2.179750486E0,2.480336255E-1,1.799555461E0,2.837469422E0
1.498027633E1,2.253948729E0,-1.646131539E-1,1.828209303E0,2.906842208E0
1.499021233E1,2.277213339E0,-5.813044524E-1,1.853616478E0,2.993243977E0
1.500014833E1,2.235458079E0,-9.126807815E-1,1.791376669E0,3.006541103E0
1.501008533E1,2.189960310E0,-1.094591169E0,1.715087900E0,2.989244468E0
1.502002133E1,2.140291429E0,-1.084241597E0,1.590094310E0,2.878337568E0
1.502995733E1,2.197722781E0,-9.302639437E-1,1.481733563E0,2.809076499E0
1.503989433E1,2.352468174E0,-8.319839430E-1,1.330082517E0,2.827617953E0
1.504983033E1,2.561865152E0,-1.285275888E0,1.018927613E0,3.041923840E0
1.505976633E1,2.642256766E0,-2.340695974E0,4.564991426E-1,3.559321554E0
1.506970233E1,2.283252635E0,-3.413888673E0,-1.835825448E-1,4.111153246E0
1.507963933E1,8.586422762E-1,-4.372713341E0,-1.046269194E0,4.577397486E0
1.508957533E1,-2.012666884E0,-4.939038981E0,-2.263390667E0,5.793778677E0
1.509951133E1,-5.348951603E0,-5.272170060E0,-4.098542662E0,8.555998617E0
1.510944833E1,-8.598276823E0,-5.200913551E0,-5.424601709E0,1.141955208E1
1.511938433E1,-1.023099485E1,-4.784409363E0,-6.446624254E0,1.300472194E1
1.512932033E1,-9.439216946E0,-3.077317677E0,-6.578772497E0,1.191003561E1
1.513925733E1,-5.496366341E0,-1.397406188E0,-4.167894148E0,7.038048638E0
1.514919333E1,-2.030455868E0,-1.000379076E0,-1.637847350E0,2.793931508E0
1.515912933E1,-2.868024194E-1,-6.573714656E-1,-8.235649757E-1,1.092086142E0
1.516906633E1,8.218977883E-1,-7.688714361E-1,-1.151473467E0,1.610146082E0
1.517900233E1,1.141932273E0,-1.361786120E0,-9.886964853E-1,2.033713720E0
1.518893833E1,1.216210623E0,-2.099404773E0,-6.939453609E-1,2.523534990E0
1.519887433E1,1.046793689E0,-2.177497846E0,-6.897843361E-1,2.512583596E0
1.520881133E1,4.387776938E-1,-1.683763635E0,-6.147609048E-1,1.845404241E0
1.521874733E1,-4.371930984E-1,-1.032538762E0,-5.424438572E-1,1.245600032E0
1.522868333E1,-1.093435759E0,-1.868243873E-1,-5.213376014E-1,1.225682669E0
1.523862033E1,-1.492606168E0,7.618395746E-1,-3.498482680E-1,1.711918959E0
1.524855633E1,-1.758589284E0,1.515129350E0,-1.045202954E-1,2.323613072E0
1.525849233E1,-1.937735400E0,2.156369517E0,9.641927049E-2,2.900697270E0
1.526842933E1,-1.899287326E0,2.706864991E0,1.894053483E-1,3.312142027E0
1.527836533E1,-1.785597281E0,3.174139967E0,3.821365929E-1,3.661905317E0
1.528830133E1,-1.727042094E0,3.315644340E0,3.772845733E-1,3.757461301E0
1.529823733E1,-1.482494286E0,3.352969456E0,2.604310383E-1,3.675325538E0
1.530817433E1,-1.218911452E0,3.390398068E0,2.944495542E-1,3.614864414E0
1.531811033E1,-8.778042597E-1,3.312772772E0,3.571241046E-1,3.445655436E0
1.532804633E1,-5.206860754E-1,3.129243876E0,4.160095131E-1,3.199428877E0
1.533798333E1,-1.393543518E-1,2.874922155E0,5.689551330E-1,2.933991645E0
1.534791933E1,1.790314741E-1,2.552417221E0,7.625714998E-1,2.669906596E0
1.535785533E1,4.373422024E-1,2.230943152E0,9.212288260E-1,2.452965164E0
1.536779233E1,6.010692839E-1,1.893727208E0,1.094987464E0,2.268586470E0
1.537772833E1,7.089997485E-1,1.589945644E0,1.246933941E0,2.141366864E0
1.538766433E1,7.941100654E-1,1.325914037E0,1.371587077E0,2.066376040E0
1.539760033E1,8.579110819E-1,1.066180133E0,1.427810540E0,1.977724561E0
1.540753733E1,9.641982597E-1,7.675850487E-1,1.450739812E0,1.903552230E0
1.541747333E1,9.892499974E-1,6.168923610E-1,1.436239594E0,1.849852944E0
1.542740933E1,9.444275811E-1,5.989244521E-1,1.230148631E0,1.662504018E0
1.543734633E1,1.009457975E0,5.715746856E-1,1.111627909E0,1.606679691E0
1.544728233E1,1.137966984E0,6.129080683E-1,9.755414195E-1,1.619353642E0
1.545721833E1,1.450747705E0,5.617168647E-1,7.948647948E-1,1.746998793E0
1.546715533E1,1.954013464E0,4.140957195E-1,8.154915789E-1,2.157468516E0
1.547709133E1,2.535325810E0,2.471781778E-1,9.636936450E-1,2.723541712E0
1.548702733E1,3.081153451E0,-7.499755740E-2,9.994601861E-1,3.240069734E0
1.549696333E1,3.645213587E0,-4.354503357E-1,9.263392925E-1,3.786199093E0
1.550690033E1,4.115477952E0,-9.131450504E-1,9.567356046E-1,4.322769445E0
1.551683633E1,4.624857267E0,-1.408633427E0,9.996379414E-1,4.936884532E0
1.552677233E1,4.975432636E0,-1.580140448E0,1.000304232E0,5.315297010E0
1.553670933E1,5.099244504E0,-1.492302990E0,1.028361657E0,5.411727120E0
1.554664533E1,4.682596767E0,-1.014225283E0,1.074027096E0,4.910081426E0
1.555658133E1,4.036330918E0,-1.112310571E0,1.208827782E0,4.357805261E0
1.556651833E1,3.446256227E0,-1.881017116E0,9.557835317E-1,4.040845151E0
1.557645433E1,2.650791070E0,-2.841063852E0,1.842250076E-1,3.890022617E0
1.558639033E1,1.567708391E0,-3.852184848E0,-9.208452487E-1,4.259694082E0
1.559632633E1,1.690228316E-1,-4.652265798E0,-2.036473238E0,5.081276318E0
1.560626333E1,-1.533196662E0,-4.792690190E0,-3.173788257E0,5.949243915E0
1.561619933E1,-3.644957479E0,-4.093705260E0,-4.299897088E0,6.966581137E0
1.562613533E1,-5.407743017E0,-2.874215811E0,-4.475912312E0,7.585419704E0
1.563607233E1,-6.637165716E0,-1.857359866E0,-3.777861182E0,7.859643092E0
1.564600833E1,-7.324532229E0,-1.588943431E0,-3.114957081E0,8.116432173E0
1.565594433E1,-7.131956520E0,-1.471571102E0,-2.540587134E0,7.712645999E0
1.566588133E1,-6.122917718E0,-1.495799040E0,-1.993568416E0,6.610737567E0
1.567581733E1,-4.403427595E0,-1.740983902E0,-1.242765753E0,4.895474058E0
1.568575642E1,-2.969797906E0,-1.872414692E0,-8.206191485E-1,3.605419833E0
1.569569242E1,-2.426981289E0,-1.603477855E0,-2.404968569E-1,2.918769972E0
1.570562942E1,-2.236563203E0,-1.051383169E0,6.211058646E-3,2.471368064E0
1.571556542E1,-2.098880570E0,-5.373298824E-1,2.377208912E-1,2.179572039E0
1.572550142E1,-1.985873480E0,-3.241094095E-1,1.423680067E-1,2.017178484E0
1.573543842E1,-1.913332630E0,-3.596119487E-1,-5.054741053E-1,2.011384244E0
1.574537442E1,-1.510094021E0,-3.263506472E-1,-9.086961964E-1,1.792377603E0
1.575531042E1,-1.077842112E0,-2.597415054E-1,-9.460537648E-1,1.457472811E0
1.576524742E1,-7.089070702E-1,8.727787971E-2,-9.853515856E-1,1.216998114E0
1.577518342E1,-3.186925489E-1,5.563479513E-1,-1.112280604E0,1.283844276E0
1.578511942E1,-3.600978523E-2,1.027222474E0,-1.145961882E0,1.539386680E0
1.579505542E1,3.100953877E-1,1.548152086E0,-8.617184964E-1,1.798747563E0
1.580499242E1,6.612838376E-1,2.281516889E0,-1.908231519E-1,2.383071360E0
1.581492842E1,1.032217165E0,2.987864048E0,2.412034929E-1,3.170328528E0
1.582486442E1,1.181777247E0,3.512342336E0,5.183530363E-1,3.741902726E0
1.583480142E1,1.202876048E0,3.997103410E0,8.182314380E-1,4.253616008E0
1.584473742E1,1.298096785E0,4.367029848E0,9.672148383E-1,4.657414465E0
1.585467342E1,1.309222282E0,4.554940063E0,1.101151160E0,4.865601282E0
1.586461042E1,1.276587510E0,4.647675149E0,1.030562111E0,4.928754226E0
1.587454642E1,1.329066271E0,4.676404858E0,9.602525586E-1,4.955528683E0
1.588448242E1,1.326601084E0,4.411301456E0,8.546556446E-1,4.685070677E0
1.589441842E1,1.331960935E0,4.009827536E0,5.772628570E-1,4.264512775E0
1.590435542E1,1.367525747E0,3.431305189E0,1.580794752E-1,3.697157163E0
1.591429142E1,1.363059936E0,2.708349599E0,-2.433634543E-1,3.041761941E0
1.592422742E1,1.219088330E0,1.983066816E0,-6.843882331E-1,2.426338313E0
1.593416442E1,1.198341532E0,1.347216028E0,-9.284020440E-1,2.028039400E0
1.594410042E1,1.344804929E0,9.018242562E-1,-7.353084183E-1,1.778332296E0
1.595403642E1,1.632193239E0,5.257962495E-1,-2.154288201E-1,1.728272560E0
1.596397342E1,1.856349321E0,2.480254394E-1,2.661705190E-1,1.891664919E0
1.597390942E1,2.071758260E0,1.700276756E-1,6.993515503E-1,2.193213234E0
1.598384542E1,2.260063163E0,1.716035002E-1,1.153676991E0,2.543286036E0
1.599378142E1,2.356677292E0,3.151444584E-1,1.609691838E0,2.871297912E0
1.600371842E1,2.399122230E0,4.101365697E-1,1.826921892E0,3.043294774E0
1.601365442E1,2.361786589E0,3.247941184E-1,2.005436217E0,3.115333294E0
1.602359042E1,2.296966695E0,-7.488353670E-2,1.646951465E0,2.827386190E0
1.603352742E1,2.300482333E0,-5.585032350E-1,1.161825670E0,2.637040712E0
1.604346342E1,2.293472984E0,-1.210498770E0,8.193562961E-1,2.719682029E0
1.605339942E1,2.410018516E0,-2.043277350E0,4.558983412E-1,3.192336899E0
1.606333642E1,2.518279422E0,-2.839323721E0,2.007574251E-1,3.800499175E0
1.607327242E1,2.456951485E0,-3.247906685E0,1.306797150E-1,4.074627054E0
1.608320842E1,2.302347303E0,-3.273613969E0,1.820890197E-1,4.006308517E0
1.609314442E1,2.224774047E0,-2.951600786E0,2.391933663E-1,3.703887178E0
1.610308142E1,2.192736275E0,-2.659690239E0,3.911462751E-1,3.469155510E0
1.611301742E1,2.177433527E0,-2.917222082E0,4.776182623E-1,3.671446669E0
1.612295342E1,1.852107897E0,-3.289540615E0,4.587678623E-1,3.802873791E0
1.613289042E1,1.155091724E0,-3.743838866E0,4.195375769E-1,3.940377916E0
1.614282642E1,-1.072885500E-1,-4.462133641E0,1.176060717E-1,4.464972413E0
1.615276242E1,-1.868245335E0,-4.729229189E0,-3.662834756E-1,5.098049915E0
1.616269942E1,-3.931797613E0,-4.452934801E0,-1.237898677E0,6.067953028E0
1.617263542E1,-5.801026157E0,-3.952020208E0,-2.420347331E0,7.424853494E0
1.618257142E1,-6.758480238E0,-2.911471930E0,-3.501872896E0,8.149652613E0
1.619250742E1,-6.411475471E0,-1.363208163E0,-3.959428046E0,7.657834202E0
1.620244442E1,-4.548387088E0,-1.659568441E-1,-3.073638024E0,5.492050390E0
1.621238042E1,-2.899976889E0,7.616203040E-1,-1.933286984E0,3.567566398E0
1.622231642E1,-1.904425859E0,1.540686945E0,-1.389443304E0,2.816222081E0
1.623225342E1,-1.133556064E0,1.862662121E0,-1.138385937E0,2.459752440E0
1.624218942E1,-5.564213338E-1,1.604949600E0,-8.380042362E-1,1.894127508E0
1.625212542E1,-2.571211122E-1,9.247067499E-1,-5.940772565E-1,1.128769962E0
1.626206142E1,-3.195474118E-1,1.995958757E-1,-6.126478672E-1,7.192263004E-1
1.627199842E1,-4.556302464E-1,-9.861680031E-2,-5.555860591E-1,7.252586186E-1
1.628193442E1,-6.654768759E-1,-2.592591101E-1,-2.724955983E-1,7.644138994E-1
1.629187042E1,-9.424276140E-1,-1.743464291E-1,-5.662896797E-2,9.600902692E-1
1.630180742E1,-1.135070566E0,1.387129122E-1,1.142241883E-1,1.149205650E0
1.631174342E1,-1.205677156E0,6.527486569E-1,3.562135470E-1,1.416554378E0
1.632167942E1,-1.214638307E0,1.109188158E0,6.072884555E-1,1.753409209E0
1.633161642E1,-1.224874369E0,1.530815676E0,8.966905470E-1,2.155868222E0
1.634155242E1,-1.181924597E0,1.930488653E0,8.625040698E-1,2.422322329E0
1.635148842E1,-1.188944253E0,2.262666636E0,8.029827766E-1,2.679184592E0
1.636142442E1,-1.110305049E0,2.476437916E0,7.665837130E-1,2.820136990E0
1.637136142E1,-9.126717914E-1,2.610355527E0,7.028771290E-1,2.853237115E0
1.638129742E1,-5.935669042E-1,2.671309242E0,6.269000168E-1,2.807350773E0
1.639123342E1,-1.924897180E-1,2.807892013E0,6.872970767E-1,2.897186069E0
1.640117042E1,1.794882513E-1,2.883424006E0,7.993099943E-1,2.997540075E0
1.641110642E1,6.117225819E-1,2.901394254E0,9.719676013E-1,3.120418907E0
1.642104242E1,9.401156250E-1,2.902585332E0,1.127934916E0,3.252853543E0
1.643097942E1,1.155820287E0,2.765894971E0,1.203084647E0,3.230094147E0
