"Time (s)","Linear Acceleration x (m/s^2)","Linear Acceleration y (m/s^2)","Linear Acceleration z (m/s^2)","Absolute acceleration (m/s^2)"
2.258833338E-3,1.886797819E-2,-1.135992379E0,1.443106272E0,1.836679176E0
1.219400001E-2,2.146793532E-1,-1.133005037E0,1.645426365E0,2.009282350E0
2.213200000E-2,2.266494808E-1,-1.194761867E0,1.570917635E0,1.986607188E0
3.207000000E-2,1.505614542E-1,-1.211283174E0,1.270922143E0,1.762134721E0
4.200900000E-2,9.102364261E-2,-1.208516272E0,8.858800685E-1,1.501192985E0
5.194700000E-2,1.873535603E-2,-1.218698613E0,5.884363014E-1,1.353452845E0
6.188500000E-2,-5.030827403E-2,-1.255339021E0,2.325507832E-1,1.277688086E0
7.182300001E-2,-1.172799432E-1,-1.244131078E0,-2.201552707E-1,1.268891275E0
8.176100001E-2,-2.022952428E-1,-1.227907978E0,-6.523440295E-1,1.405074411E0
9.169900000E-2,-2.991612406E-1,-1.214536273E0,-1.049123220E0,1.632560975E0
1.016370000E-1,-3.292270388E-1,-1.227765598E0,-1.467335964E0,1.941358709E0
1.115760000E-1,-2.886803989E-1,-1.178672376E0,-1.801689695E0,2.172254750E0
1.215140000E-1,-1.854549694E-1,-1.075015568E0,-2.043739865E0,2.316662395E0
1.314520000E-1,-4.533488821E-2,-9.902496520E-1,-2.237903093E0,2.447623312E0
1.413900000E-1,9.963275403E-2,-9.036640826E-1,-2.472277038E0,2.634139178E0
1.513280000E-1,1.795419726E-1,-7.550129503E-1,-2.666316304E0,2.776962821E0
1.612660000E-1,2.617747284E-1,-6.415863222E-1,-2.727747737E0,2.814385676E0
1.712050000E-1,3.387677944E-1,-5.872469777E-1,-2.648044340E0,2.733452297E0
1.811430000E-1,4.314252587E-1,-5.014724171E-1,-2.563454425E0,2.647432894E0
1.910810000E-1,4.972130129E-1,-4.194353968E-1,-2.540209989E0,2.622177267E0
2.010190000E-1,4.778398718E-1,-4.231042323E-1,-2.611641914E0,2.688498024E0
2.109570000E-1,4.072400053E-1,-4.020127407E-1,-2.638766563E0,2.700101413E0
2.208950000E-1,4.273025331E-1,-3.916184378E-1,-2.435774040E0,2.503786658E0
2.308340000E-1,4.942626540E-1,-3.921517038E-1,-2.186953964E0,2.276147220E0
2.407720000E-1,5.796995379E-1,-3.445220393E-1,-1.979726302E0,2.091426121E0
2.507100000E-1,6.704955411E-1,-2.866079995E-1,-1.854163193E0,1.992392924E0
2.606480000E-1,6.943426792E-1,-2.975086713E-1,-1.711139129E0,1.870459912E0
2.705860000E-1,6.247584741E-1,-3.601417065E-1,-1.769394354E0,1.910701855E0
2.805240000E-1,5.209741604E-1,-4.727538174E-1,-1.962615595E0,2.084890937E0
2.904630000E-1,3.587307733E-1,-6.699374244E-1,-2.151308752E0,2.281585692E0
3.004010000E-1,1.775760656E-1,-8.422069225E-1,-2.427552854E0,2.575627811E0
3.103390000E-1,3.303238302E-3,-9.628858522E-1,-2.924938068E0,3.079354279E0
3.202770000E-1,-1.946628723E-1,-1.120810668E0,-3.415030634E0,3.599520026E0
3.302150000E-1,-4.419821142E-1,-1.321924774E0,-3.783140341E0,4.031747033E0
3.401530000E-1,-7.542412640E-1,-1.577977563E0,-4.065850879E0,4.426063312E0
3.500920000E-1,-1.083593579E0,-1.888150719E0,-4.200701120E0,4.731297717E0
3.600300000E-1,-1.224963613E0,-2.284059259E0,-4.102137530E0,4.852318504E0
3.699680000E-1,-1.149313652E0,-2.611943631E0,-3.736378403E0,4.701456686E0
3.799060000E-1,-1.016854776E0,-2.882515641E0,-3.537131606E0,4.674846528E0
3.898440000E-1,-8.672213110E-1,-3.230052505E0,-3.815393583E0,5.073710691E0
3.997820000E-1,-9.652887654E-1,-3.515806811E0,-4.640438635E0,5.901385486E0
4.097210000E-1,-1.147476311E0,-3.939620895E0,-5.614402329E0,6.954051207E0
4.196590000E-1,-1.167186982E0,-4.456838987E0,-6.218016833E0,7.738828887E0
4.295970000E-1,-1.187934073E0,-5.386962597E0,-6.105343911E0,8.228352062E0
4.395350000E-1,-1.416848765E0,-5.306054090E0,-5.410856075E0,7.709671451E0
4.494730000E-1,-4.591362369E-1,-5.584002655E0,-4.371085476E0,7.106214180E0
4.594110000E-1,7.241835058E-1,-5.846951943E0,-2.841901174E0,6.541230087E0
4.693490000E-1,1.621158081E0,-5.885949948E0,-1.061141002E0,6.196658821E0
4.792880000E-1,2.661084216E0,-5.715135822E0,3.834767747E-1,6.315948155E0
4.892260000E-1,3.776997256E0,-5.848311421E0,1.441940922E0,7.109686939E0
4.991640000E-1,4.702567640E0,-5.810232013E0,2.217630211E0,7.796846940E0
5.091020000E-1,5.600097116E0,-5.450988439E0,2.748241058E0,8.284153040E0
5.190400000E-1,6.379666033E0,-4.772228444E0,2.694039708E0,8.410240957E0
5.289780000E-1,6.860224714E0,-3.834681500E0,2.067111771E0,8.126525482E0
5.389170000E-1,6.863949975E0,-2.980882181E0,1.241679048E0,7.585593892E0
5.488550000E-1,6.559591291E0,-2.228242615E0,5.100736713E-1,6.946472357E0
5.587930000E-1,6.058963796E0,-1.495852542E0,-2.599794871E-1,6.246295418E0
5.687310000E-1,5.369732022E0,-1.096470172E0,-8.297906524E-1,5.542997506E0
5.786690000E-1,4.710323387E0,-9.145226544E-1,-1.069213668E0,4.915965415E0
5.886070000E-1,4.069500126E0,-9.796895805E-1,-9.931501633E-1,4.301972826E0
5.985460000E-1,3.381117368E0,-1.197290203E0,-6.285049313E-1,3.641493778E0
6.084840000E-1,2.672066456E0,-1.324318624E0,-2.247231156E-1,2.990695478E0
6.184220000E-1,2.098754563E0,-1.186487399E0,1.600584653E-1,2.416224694E0
6.283600000E-1,1.619738962E0,-9.191171041E-1,5.067635626E-1,1.930062140E0
6.382980000E-1,1.274649158E0,-6.305904870E-1,8.823936662E-1,1.673616868E0
6.482360000E-1,1.033415844E0,-3.816929354E-1,1.334792157E0,1.730695787E0
6.581750000E-1,8.599780726E-1,-2.388704538E-2,1.521493460E0,1.747877348E0
6.681130000E-1,6.547448963E-1,2.311739101E-1,1.774771161E0,1.905766231E0
6.780510000E-1,4.049997908E-1,4.914912200E-1,1.668690390E0,1.786089602E0
6.879890000E-1,1.445215362E-1,6.161284223E-1,1.629171983E0,1.747770596E0
6.979270000E-1,-4.866871476E-2,6.897325882E-1,1.691253625E0,1.827139434E0
7.078650000E-1,-2.620634347E-1,9.099603644E-1,1.585838268E0,1.847048489E0
7.178040000E-1,-4.681701851E-1,1.009501902E0,1.628117437E0,1.972065872E0
7.277420000E-1,-5.009052372E-1,1.015963952E0,1.684790990E0,2.030174744E0
7.376800000E-1,-4.241587776E-1,1.097029750E0,1.718574448E0,2.082518445E0
7.476180000E-1,-2.707295930E-1,1.297619945E0,1.637458364E0,2.106746764E0
7.575560000E-1,6.668457091E-2,1.360388051E0,1.620998891E0,2.117248187E0
7.674940000E-1,4.137460560E-1,1.562455544E0,1.399660728E0,2.138107407E0
7.774330000E-1,7.911645305E-1,1.632956885E0,1.311272609E0,2.238732981E0
7.873710000E-1,1.230592142E0,1.587890933E0,1.549523989E0,2.537080847E0
7.973090000E-1,1.639646392E0,1.765277037E0,1.409497061E0,2.791294551E0
8.072470000E-1,1.739509819E0,1.783378555E0,1.196134647E0,2.763525208E0
8.171850000E-1,1.882365484E0,1.683268960E0,1.147171013E0,2.773570900E0
8.271230000E-1,2.088185136E0,1.625784398E0,1.197816818E0,2.904902270E0
8.370620000E-1,2.311873879E0,1.608481318E0,1.111536473E0,3.027785711E0
8.470000000E-1,2.606243180E0,1.627392967E0,9.959504680E-1,3.229988966E0
8.569380000E-1,2.926421506E0,1.599086012E0,1.124613698E0,3.519342961E0
8.668760000E-1,3.358195698E0,1.598765584E0,1.255601853E0,3.925565660E0
8.768140000E-1,3.735529972E0,1.591765882E0,1.471339552E0,4.318882133E0
8.867520000E-1,4.134358027E0,1.532537096E0,1.827730855E0,4.773068858E0
8.966910000E-1,4.475069436E0,1.455081369E0,2.249691664E0,5.215804907E0
9.066290000E-1,4.746819368E0,1.303025696E0,2.535353876E0,5.536983778E0
9.165670000E-1,4.946716960E0,1.090852459E0,2.810204587E0,5.792859190E0
9.265050000E-1,5.018585088E0,8.512078339E-1,3.107596314E0,5.963883459E0
9.364430000E-1,4.971267080E0,6.653359580E-1,3.355328808E0,6.034434499E0
9.463810000E-1,4.809946493E0,6.297924882E-1,3.510222720E0,5.987811569E0
9.563200000E-1,4.592973277E0,6.726005387E-1,3.657666110E0,5.909849099E0
9.662580000E-1,4.491163312E0,7.137023717E-1,3.608836012E0,5.805481576E0
9.761960000E-1,4.609272391E0,6.010627788E-1,3.626013962E0,5.895307090E0
9.861340000E-1,4.810827084E0,4.544672352E-1,3.637825338E0,6.048501540E0
9.960720000E-1,4.892431995E0,4.284307534E-1,3.657945607E0,6.123725157E0
1.006009625E0,5.005165143E0,5.382338619E-1,3.578925165E0,6.176575033E0
1.015948625E0,5.190880314E0,7.464157891E-1,3.341773793E0,6.218506818E0
1.025886625E0,5.431727711E0,1.002105174E0,2.886096768E0,6.231968811E0
1.035824625E0,5.449676909E0,1.327460040E0,2.388801602E0,6.096515535E0
1.045762625E0,5.198984554E0,1.797960341E0,2.024936389E0,5.861950969E0
1.055700625E0,4.812084820E0,2.250093952E0,1.721301005E0,5.584080968E0
1.065638625E0,4.366755028E0,2.641937508E0,1.533826407E0,5.329259491E0
1.075577625E0,3.881660662E0,3.005957088E0,1.328271049E0,5.085997591E0
1.085515625E0,3.444895288E0,3.113907799E0,1.194489094E0,4.794844056E0
1.095453625E0,3.219045998E0,2.974642324E0,1.106378571E0,4.520489757E0
1.105391625E0,2.995363103E0,2.494792326E0,1.072588681E0,4.043097247E0
1.115329625E0,2.681340725E0,1.781112174E0,1.100581641E0,3.401944827E0
1.125267625E0,2.313042737E0,1.043967730E0,1.089266109E0,2.761618363E0
1.135206625E0,1.924810422E0,4.495590824E-1,1.028867880E0,2.228355368E0
1.145144625E0,1.480058920E0,6.658282936E-2,9.018511534E-1,1.734457605E0
1.155082625E0,1.010019380E0,-2.671364790E-1,7.270293456E-1,1.272820772E0
1.165020625E0,6.809942168E-1,-5.208430731E-1,5.711081143E-1,1.030143247E0
1.174958625E0,4.270209897E-1,-7.697099268E-1,4.725099885E-1,9.990325252E-1
1.184896625E0,2.204493856E-1,-9.925332820E-1,4.092764809E-1,1.096005240E0
1.194835625E0,8.695745230E-2,-1.208165147E0,4.454186690E-1,1.290589947E0
1.204773625E0,-7.636463642E-4,-1.444223675E0,5.708168864E-1,1.552937385E0
1.214711625E0,-8.943082452E-2,-1.595147912E0,8.036828345E-1,1.788407345E0
1.224649625E0,-1.947257298E-1,-1.703440100E0,1.095108647E0,2.034426021E0
1.234587625E0,-3.030652803E-1,-1.702442565E0,1.429422033E0,2.243525484E0
1.244525625E0,-4.395849019E-1,-1.622557612E0,1.707089932E0,2.395847267E0
1.254464625E0,-5.848285693E-1,-1.578677475E0,1.864608074E0,2.512172426E0
1.264402625E0,-7.087497801E-1,-1.502052930E0,1.867351588E0,2.499098079E0
1.274340625E0,-9.284817123E-1,-1.438425575E0,1.831227490E0,2.506898591E0
1.284278625E0,-1.123531378E0,-1.434902336E0,1.760097281E0,2.533615975E0
1.294216625E0,-1.346567572E0,-1.595474771E0,1.499057693E0,2.570205817E0
1.304154625E0,-1.599938536E0,-1.832184387E0,1.119816057E0,2.677814584E0
1.314093625E0,-1.851253034E0,-2.041651824E0,7.187070036E-1,2.848160762E0
1.324031625E0,-2.100324540E0,-2.224098401E0,3.001726627E-1,3.073773007E0
1.333969625E0,-2.449222636E0,-2.374825295E0,-9.035651185E-2,3.412719004E0
1.343907625E0,-2.838902721E0,-2.529042392E0,-4.091151343E-1,3.823976892E0
1.353845625E0,-3.177099828E0,-2.684977108E0,-7.388009602E-1,4.224794935E0
1.363783625E0,-3.521875051E0,-2.829044023E0,-1.002308438E0,4.627279564E0
1.373722625E0,-3.878103216E0,-2.932199725E0,-1.199279791E0,5.007569450E0
1.383660625E0,-4.149252055E0,-3.016764497E0,-1.395594721E0,5.316469248E0
1.393598625E0,-4.393937564E0,-3.075049835E0,-1.568253059E0,5.587668249E0
1.403536625E0,-4.489603275E0,-3.086021258E0,-1.700617795E0,5.707202963E0
1.413474625E0,-4.530501625E0,-3.062392659E0,-1.794373805E0,5.755299395E0
1.423412625E0,-4.603290689E0,-3.111674747E0,-1.873238419E0,5.863601885E0
1.433351625E0,-4.613609855E0,-3.142919051E0,-1.899289080E0,5.896663045E0
1.443289625E0,-4.519491903E0,-3.150872142E0,-1.846032055E0,5.810476457E0
1.453227625E0,-4.374917157E0,-3.149904135E0,-1.797415234E0,5.682648829E0
1.463165625E0,-4.182753092E0,-3.225117747E0,-1.733321565E0,5.558885820E0
1.473103625E0,-3.883765660E0,-3.299858904E0,-1.679022712E0,5.365801129E0
1.483041625E0,-3.535321893E0,-3.347147968E0,-1.671210393E0,5.147314308E0
1.492980625E0,-3.194753156E0,-3.346174407E0,-1.730184095E0,4.939318566E0
1.502918625E0,-2.813284900E0,-3.355202800E0,-1.836746238E0,4.748220141E0
1.512856625E0,-2.560768214E0,-3.280721552E0,-2.025125839E0,4.628369304E0
1.522794625E0,-2.475701167E0,-3.206741118E0,-2.280408111E0,4.648929556E0
1.532732625E0,-2.513504001E0,-3.162441735E0,-2.441422450E0,4.720093608E0
1.542670625E0,-2.510660500E0,-3.186406841E0,-2.518662999E0,4.774962618E0
1.552609625E0,-2.433750318E0,-3.132618012E0,-2.559242676E0,4.720821887E0
1.562547625E0,-2.123502903E0,-3.138640351E0,-2.537436655E0,4.560582486E0
1.572485625E0,-1.601169375E0,-3.315269533E0,-2.671569443E0,4.548850265E0
1.582423625E0,-1.044410949E0,-3.730795482E0,-2.936448312E0,4.861312358E0
1.592361625E0,-5.623232210E-1,-4.088346872E0,-3.117383968E0,5.171931008E0
1.602299625E0,-3.866459656E-1,-4.220862028E0,-3.221583105E0,5.323886650E0
1.612238625E0,-3.995612955E-1,-4.233211055E0,-3.085825376E0,5.253764680E0
1.622176625E0,-3.639248550E-1,-4.097158041E0,-2.859855634E0,5.009782387E0
1.632114625E0,-4.139594793E-2,-3.838888280E0,-2.583989262E0,4.627718375E0
1.642052625E0,7.042854309E-1,-3.604976850E0,-2.237989631E0,4.301217693E0
1.651990625E0,1.688577647E0,-3.290756251E0,-1.715418706E0,4.077135332E0
1.661928625E0,2.584626024E0,-2.716414078E0,-1.154056036E0,3.923141912E0
1.671867625E0,3.530504372E0,-2.016597090E0,-7.099958217E-1,4.127374348E0
1.681805625E0,4.520179535E0,-1.062202272E0,-5.099146271E-1,4.671221427E0
1.691743625E0,5.501293205E0,-1.320412391E-1,-6.543817111E-1,5.541649325E0
1.701681625E0,6.412568901E0,7.279888737E-1,-1.078590848E0,6.543268749E0
1.711619625E0,7.088808746E0,1.628302209E0,-1.627359053E0,7.453245938E0
1.721558625E0,7.201361216E0,2.515844641E0,-2.181288012E0,7.933920532E0
1.731496625E0,6.668017380E0,3.276690189E0,-3.017505924E0,8.019008441E0
1.741434625E0,5.941454058E0,3.640194045E0,-3.650809665E0,7.866403258E0
1.751372625E0,5.328841859E0,3.355378509E0,-4.179883863E0,7.558210741E0
1.761310625E0,4.676640501E0,2.728680952E0,-4.466286918E0,7.018859234E0
1.771248625E0,3.792886480E0,1.907780991E0,-4.418773613E0,6.127901468E0
1.781187625E0,2.800414009E0,1.019631034E0,-3.484623610E0,4.585255475E0
1.791125625E0,1.911606824E0,1.503506255E-1,-2.286375926E0,2.984017566E0
1.801063625E0,9.557455248E-1,-6.272314078E-1,-1.239118552E0,1.685907332E0
1.811001625E0,8.598622978E-2,-1.206199898E0,-2.454263155E-1,1.233914868E0
1.820939625E0,-6.592168468E-1,-1.538963186E0,6.282880727E-1,1.788217113E0
1.830877625E0,-1.272238351E0,-1.580058587E0,1.247290621E0,2.381367140E0
1.840816625E0,-1.812985346E0,-1.380569715E0,1.650498240E0,2.813722276E0
1.850754625E0,-2.204320194E0,-1.087244727E0,1.834084439E0,3.066756323E0
1.860692625E0,-2.482321385E0,-7.811774862E-1,1.939350693E0,3.245495160E0
1.870630625E0,-2.632013029E0,-4.685689652E-1,1.973394352E0,3.322850392E0
1.880568625E0,-2.717373022E0,-1.320318836E-1,1.973035333E0,3.360716737E0
1.890506625E0,-2.709313220E0,2.078691012E-1,1.913744566E0,3.323553212E0
1.900445625E0,-2.679097148E0,3.664643008E-1,1.925132604E0,3.319336252E0
1.910383625E0,-2.616784540E0,3.925680256E-1,2.027476419E0,3.333516404E0
1.920321625E0,-2.654650524E0,4.487314090E-1,2.106928532E0,3.418724487E0
1.930259625E0,-2.684440919E0,5.292446449E-1,2.257843852E0,3.547419034E0
1.940197625E0,-2.641092001E0,5.011046273E-1,2.373004618E0,3.585752881E0
1.950135625E0,-2.613100795E0,4.128654653E-1,2.370109223E0,3.551925025E0
1.960074625E0,-2.528012697E0,3.160867372E-1,2.453632021E0,3.537098969E0
1.970012625E0,-2.457873591E0,3.284109136E-1,2.416232206E0,3.462249903E0
1.979950625E0,-2.428888943E0,2.688561451E-1,2.334303067E0,3.379460894E0
1.989888625E0,-2.287437780E0,1.796533620E-1,2.288956887E0,3.240982961E0
1.999826625E0,-2.132358511E0,1.949207345E-1,2.213275497E0,3.079534923E0
2.009764500E0,-1.967759390E0,2.513057274E-1,2.006732983E0,2.821738622E0
2.019703500E0,-1.755083293E0,2.954533750E-1,1.749649622E0,2.495773199E0
2.029641500E0,-1.498924377E0,3.276580846E-1,1.531321460E0,2.167736036E0
2.039579500E0,-1.176470314E0,4.386873543E-1,1.324835225E0,1.825299255E0
2.049517500E0,-7.918439770E-1,6.117994362E-1,1.106031246E0,1.491516192E0
2.059455500E0,-3.654644269E-1,7.760629267E-1,8.614596109E-1,1.215709906E0
2.069393500E0,3.914593935E-2,9.138092941E-1,4.572781380E-1,1.022586488E0
2.079332500E0,3.678804964E-1,1.072669957E0,-5.737141818E-3,1.134014908E0
2.089270500E0,5.853723603E-1,1.127707459E0,-4.891421011E-1,1.361486287E0
2.099208500E0,7.312791020E-1,1.134882578E0,-8.907414436E-1,1.617451053E0
2.109146500E0,7.267632973E-1,1.007203361E0,-1.051151765E0,1.627133533E0
2.119084500E0,7.793666035E-1,8.078355271E-1,-9.309691179E-1,1.458325766E0
2.129022500E0,7.751759040E-1,5.072447884E-1,-6.980993691E-1,1.159973141E0
2.138961500E0,8.476223212E-1,1.849649727E-1,-4.279534744E-1,9.673778046E-1
2.148899500E0,9.466992974E-1,-2.167562842E-3,-1.063231382E-1,9.526535928E-1
2.158837500E0,1.156148316E0,-1.696388358E-1,3.250725920E-1,1.212900843E0
2.168775500E0,1.470175956E0,-2.637357384E-1,7.877336767E-1,1.688637980E0
2.178713500E0,1.947812784E0,-3.889357352E-1,1.178835367E0,2.309739914E0
2.188652500E0,2.548108993E0,-5.411644864E-1,1.424665908E0,2.969072479E0
2.198590500E0,3.223377031E0,-6.543817842E-1,1.498514780E0,3.614404729E0
2.208528500E0,3.859990881E0,-7.898822361E-1,1.360574723E0,4.168285874E0
2.218466500E0,4.360006172E0,-8.039442050E-1,1.209647124E0,4.595565936E0
2.228404500E0,4.575839766E0,-5.840871423E-1,1.082951263E0,4.738380608E0
2.238342500E0,4.723242810E0,-1.471346569E-1,9.016165338E-1,4.810777860E0
2.248281500E0,5.030040368E0,2.377670842E-1,5.904532984E-1,5.070155263E0
2.258219500E0,5.292514862E0,6.386492658E-1,2.421381703E-1,5.336404908E0
2.268157500E0,5.225330939E0,1.143440562E0,-2.727053672E-2,5.349045094E0
2.278095500E0,4.874576937E0,1.600956536E0,-1.921690348E-1,5.134344270E0
2.288033500E0,4.236806508E0,2.030372545E0,-2.753199497E-1,4.706245120E0
2.297971500E0,3.512486762E0,2.431718996E0,-2.535121742E-1,4.279613177E0
2.307910500E0,2.818902320E0,2.791397603E0,-4.180104303E-1,3.989090571E0
2.317848500E0,2.154721772E0,3.018190632E0,-6.282144709E-1,3.761243681E0
2.327786500E0,1.684759415E0,3.065232067E0,-7.921645506E-1,3.586305423E0
2.337724500E0,1.299778737E0,2.909630057E0,-8.268171971E-1,3.292263433E0
2.347662500E0,9.816329026E-1,2.604006035E0,-7.538885307E-1,2.883192415E0
2.357600500E0,7.909405822E-1,2.162835953E0,-7.078393686E-1,2.409249455E0
2.367539500E0,6.698301280E-1,1.654280219E0,-5.974684954E-1,1.882095653E0
2.377477500E0,3.970914316E-1,1.117160836E0,-4.452467608E-1,1.266481195E0
2.387415500E0,1.350297511E-1,6.071848136E-1,-3.193338422E-1,6.991999245E-1
2.397353500E0,-1.823664701E-1,2.218895549E-1,-1.613009986E-1,3.294093443E-1
2.407291500E0,-4.831834960E-1,-1.288357955E-1,3.508329391E-2,5.012941158E-1
2.417229500E0,-6.193704110E-1,-4.858381319E-1,2.546265073E-1,8.273409543E-1
2.427168500E0,-6.349193269E-1,-8.080097741E-1,5.159151860E-1,1.149856872E0
2.437106500E0,-5.178153849E-1,-1.020649619E0,8.819659424E-1,1.444895270E0
2.447044500E0,-2.735736787E-1,-1.088307751E0,1.302796046E0,1.719457431E0
2.456982500E0,4.943470001E-2,-1.028371451E0,1.751565024E0,2.031741043E0
2.466920500E0,2.754102892E-1,-9.609144634E-1,2.191078151E0,2.408325330E0
2.476858500E0,2.953352612E-1,-9.255668753E-1,2.489178414E0,2.672060279E0
2.486797500E0,3.633869112E-1,-9.098980916E-1,2.691251463E0,2.864052901E0
2.496735500E0,4.052512211E-1,-8.924184251E-1,2.736099315E0,2.906351434E0
2.506673500E0,3.314108276E-1,-8.619608635E-1,2.723263507E0,2.875582340E0
2.516611500E0,1.849427533E-1,-8.181371516E-1,2.640651705E0,2.770666643E0
2.526549500E0,3.513007164E-2,-7.488283503E-1,2.502260975E0,2.612142417E0
2.536488500E0,-2.235916793E-1,-7.162014717E-1,2.401614167E0,2.516085928E0
2.546426500E0,-5.324825406E-1,-7.279684085E-1,2.349531556E0,2.516699066E0
2.556364500E0,-7.658630437E-1,-8.032016087E-1,2.311272054E0,2.563914494E0
2.566302500E0,-9.536925673E-1,-8.878318691E-1,2.257160751E0,2.606252021E0
2.576240500E0,-1.191339784E0,-9.382383764E-1,2.126313221E0,2.611664152E0
2.586178500E0,-1.454927003E0,-1.000582559E0,2.009442875E0,2.675039945E0
2.596117500E0,-1.680300329E0,-1.079365604E0,1.827030504E0,2.706747082E0
2.606055500E0,-1.894837595E0,-1.121278738E0,1.579185744E0,2.709520831E0
2.615993500E0,-2.090634534E0,-1.178651326E0,1.324213228E0,2.741078688E0
2.625931500E0,-2.206365550E0,-1.375378265E0,1.115646554E0,2.829201574E0
2.635869500E0,-2.341780048E0,-1.512908578E0,9.845917399E-1,2.956729114E0
2.645807500E0,-2.541427379E0,-1.643019944E0,9.141924329E-1,3.161347096E0
2.655746500E0,-2.823451454E0,-1.777485146E0,8.280243547E-1,3.437579947E0
2.665684500E0,-3.036940899E0,-1.825187608E0,6.698934241E-1,3.605977957E0
2.675622500E0,-3.104072782E0,-1.817750827E0,5.264473370E-1,3.635468705E0
2.685560500E0,-3.122310247E0,-1.799123937E0,4.090187283E-1,3.626701606E0
2.695498500E0,-3.021166865E0,-1.802653609E0,3.316786301E-1,3.533697776E0
2.705437500E0,-2.878659695E0,-1.834553386E0,2.383607228E-1,3.421853825E0
2.715375500E0,-2.719918900E0,-1.871460719E0,1.387779625E-1,3.304479288E0
2.725313500E0,-2.606120389E0,-1.902028208E0,4.982295513E-2,3.226771933E0
2.735251500E0,-2.489255598E0,-1.962410065E0,-6.722660780E-2,3.170483577E0
2.745189500E0,-2.260090352E0,-2.090107700E0,-1.945976758E-1,3.084546458E0
2.755127500E0,-1.995118513E0,-2.185393927E0,-3.124050379E-1,2.975574130E0
2.765066500E0,-1.788426456E0,-2.187358591E0,-3.770669838E-1,2.850471242E0
2.775004500E0,-1.687216415E0,-2.082723836E0,-4.386044700E-1,2.716028662E0
2.784942500E0,-1.644137639E0,-1.907417879E0,-5.419830966E-1,2.575883774E0
2.794880500E0,-1.527540650E0,-1.710373436E0,-5.660771334E-1,2.362033245E0
2.804818500E0,-1.319062269E0,-1.516765986E0,-6.866068860E-1,2.124131197E0
2.814756500E0,-9.168790823E-1,-1.524168853E0,-9.000607359E-1,1.993456113E0
2.824695500E0,-2.497655708E-1,-1.819013241E0,-1.188772783E0,2.187320905E0
2.834633500E0,3.599826622E-1,-2.265912717E0,-1.380724082E0,2.677750352E0
2.844571500E0,7.590013361E-1,-2.696204932E0,-1.403331757E0,3.132881115E0
2.854509500E0,9.338465327E-1,-2.984607149E0,-1.357641613E0,3.409272640E0
2.864447500E0,8.963623720E-1,-3.155708374E0,-1.286463457E0,3.523769157E0
2.874385500E0,8.428644419E-1,-3.111255502E0,-1.141388190E0,3.419517256E0
2.884324500E0,9.257890695E-1,-2.943657929E0,-1.053658905E0,3.260736802E0
2.894262500E0,1.280210445E0,-2.636258107E0,-1.210588818E0,3.170854913E0
2.904200500E0,1.951588916E0,-2.061829396E0,-1.592490352E0,3.255129072E0
2.914138500E0,2.833932588E0,-1.176437570E0,-2.101323829E0,3.718970436E0
2.924076500E0,3.639169613E0,9.843202829E-3,-2.396695343E0,4.357499389E0
2.934015500E0,4.106515340E0,1.318428431E0,-2.611556545E0,5.042018381E0
2.943953500E0,4.310094339E0,2.596575978E0,-3.112665850E0,5.916739703E0
2.953891500E0,4.470820849E0,3.439590109E0,-3.667117549E0,6.728058435E0
2.963829500E0,4.491729323E0,3.835286395E0,-4.278643920E0,7.293274151E0
2.973767500E0,4.442589322E0,3.739180389E0,-5.022782804E0,7.677656997E0
2.983705500E0,4.148338720E0,3.326017300E0,-5.548053389E0,7.684530019E0
2.993644500E0,3.541272020E0,2.822000760E0,-5.647557796E0,7.238729506E0
3.003582500E0,2.746755280E0,2.328039676E0,-5.468615456E0,6.547532994E0
3.013521125E0,2.090919878E0,1.806131240E0,-4.954096146E0,5.672488398E0
3.023459125E0,1.516083031E0,1.282303163E0,-4.170239466E0,4.618842535E0
3.033397125E0,9.154096770E-1,7.250301826E-1,-3.217753179E0,3.423094969E0
3.043335125E0,3.941263086E-1,1.204731077E-1,-2.170550770E0,2.209330206E0
3.053274125E0,-1.213811803E-1,-3.876616269E-1,-1.101505501E0,1.174022699E0
3.063212125E0,-7.306914568E-1,-8.089868438E-1,-2.682410181E-1,1.122641066E0
3.073150125E0,-1.407903110E0,-1.035172933E0,5.503820372E-1,1.832128422E0
3.083088125E0,-2.008971736E0,-1.039463620E0,1.171454573E0,2.547304039E0
3.093026125E0,-2.493267957E0,-9.390751129E-1,1.582042547E0,3.098565119E0
3.102964125E0,-2.907181828E0,-7.119791973E-1,1.784751481E0,3.484818275E0
3.112903125E0,-3.173407896E0,-5.239555460E-1,1.905666053E0,3.738530486E0
3.122841125E0,-3.376183487E0,-2.926320934E-1,1.978578494E0,3.924158679E0
3.132779125E0,-3.502364062E0,-7.844916880E-2,2.019503156E0,4.043649502E0
3.142717125E0,-3.526578552E0,8.243813932E-2,2.050477027E0,4.080197099E0
3.152655125E0,-3.481053885E0,1.943140858E-1,2.103146406E0,4.071697302E0
3.162594125E0,-3.402126414E0,2.150085515E-1,2.128006428E0,4.018594801E0
3.172532125E0,-3.399831381E0,1.372759590E-1,2.172667608E0,4.037100772E0
3.182470125E0,-3.413831955E0,-1.005984217E-2,2.163281657E0,4.041551354E0
3.192408125E0,-3.477297633E0,-1.808684134E-1,2.049832664E0,4.040560130E0
3.202346125E0,-3.553875108E0,-4.084815153E-1,1.956684179E0,4.077437726E0
3.212284125E0,-3.493952258E0,-6.752347094E-1,1.922833478E0,4.044865001E0
3.222223125E0,-3.271810103E0,-8.121323535E-1,2.014352928E0,3.927074997E0
3.232161125E0,-2.991962947E0,-8.112590718E-1,2.077288849E0,3.731636708E0
3.242099125E0,-2.561070516E0,-7.990769827E-1,2.074997910E0,3.391640095E0
3.252037125E0,-2.109668975E0,-7.019418669E-1,2.017244961E0,3.002116388E0
3.261975125E0,-1.795689282E0,-5.973246539E-1,1.898604956E0,2.680671095E0
3.271913125E0,-1.550619026E0,-5.055379862E-1,1.720080252E0,2.370372142E0
3.281852125E0,-1.264857411E0,-4.156545871E-1,1.460186719E0,1.976051179E0
3.291790125E0,-8.828430247E-1,-3.318137008E-1,1.224530992E0,1.545635238E0
3.301728125E0,-4.633760530E-1,-2.356626713E-1,1.096702452E0,1.213676452E0
3.311666125E0,-7.129393101E-2,-1.053171247E-1,9.694378035E-1,9.777444330E-1
3.321604125E0,2.257153881E-1,-4.162574351E-2,7.470085506E-1,7.814741925E-1
3.331543125E0,5.088679755E-1,3.012953281E-2,4.107236302E-1,6.546360100E-1
3.341481125E0,6.745903462E-1,4.624095082E-2,9.436017349E-3,6.762391583E-1
3.351419125E0,7.571536160E-1,1.943029761E-3,-4.232844727E-1,8.674417089E-1
3.361357125E0,8.086009276E-1,-4.470020950E-2,-8.610468706E-1,1.182047073E0
3.371295125E0,9.625464213E-1,-1.196960127E-1,-1.228256764E0,1.565067867E0
3.381233125E0,1.180983195E0,-3.685839164E-1,-1.507420381E0,1.950100412E0
3.391172125E0,1.369217346E0,-7.350394464E-1,-1.694659921E0,2.299328462E0
3.401110125E0,1.576070201E0,-1.107531642E0,-1.755846355E0,2.606457373E0
3.411048125E0,1.942371950E0,-1.357313585E0,-1.725896039E0,2.931522829E0
3.420986125E0,2.236143665E0,-1.503025029E0,-1.627046227E0,3.147491407E0
3.430924125E0,2.449375248E0,-1.642164788E0,-1.576390629E0,3.343822919E0
3.440862125E0,2.708044374E0,-1.667617718E0,-1.558549458E0,3.541684571E0
3.450801125E0,3.005840728E0,-1.560682669E0,-1.469975982E0,3.692104855E0
3.460739125E0,3.412452596E0,-1.293809314E0,-1.475950667E0,3.936649036E0
3.470677125E0,3.875736263E0,-9.555660152E-1,-1.628726717E0,4.311286202E0
3.480615125E0,4.230849364E0,-5.050362951E-1,-1.821752661E0,4.633997277E0
3.490553125E0,4.450790627E0,-6.007955611E-2,-2.100490747E0,4.921911025E0
3.500492125E0,4.658558571E0,2.848324925E-1,-2.451379673E0,5.271864928E0
3.510430125E0,4.758203312E0,4.705611116E-1,-2.810313345E0,5.546150703E0
3.520368125E0,4.710221645E0,7.331309152E-1,-3.065229728E0,5.667389361E0
3.530306125E0,4.405114517E0,1.172897666E0,-3.130836657E0,5.530177304E0
3.540244125E0,3.859288630E0,1.801363420E0,-3.108748215E0,5.272886721E0
3.550182125E0,3.229662788E0,2.432182095E0,-3.043682739E0,5.060655697E0
3.560121125E0,2.662983976E0,2.982344862E0,-2.988632373E0,4.991772029E0
3.570059125E0,2.370384042E0,3.230258034E0,-2.959458275E0,4.981132477E0
3.579997125E0,2.230930288E0,3.186164766E0,-2.888998157E0,4.845101260E0
3.589935125E0,2.081086616E0,2.940067738E0,-2.720687224E0,4.514095566E0
3.599873125E0,1.961592332E0,2.578778808E0,-2.390677389E0,4.026572115E0
3.609811125E0,1.863481316E0,2.151000019E0,-1.884239516E0,3.413168946E0
3.619750125E0,1.714725811E0,1.703345375E0,-1.315841038E0,2.751927999E0
3.629688125E0,1.560637645E0,1.241189051E0,-8.179390772E-1,2.155264358E0
3.639626125E0,1.404946758E0,8.746721256E-1,-3.710714681E-1,1.696060363E0
3.649564125E0,1.314016122E0,6.410542256E-1,3.778485373E-2,1.462537721E0
3.659502125E0,1.330944396E0,4.909293026E-1,4.536527181E-1,1.489370792E0
3.669440125E0,1.462618430E0,3.277346832E-1,8.340176046E-1,1.715298242E0
3.679379125E0,1.665634927E0,2.505824268E-1,1.291501565E0,2.122523864E0
3.689317125E0,1.797414796E0,2.286699861E-1,1.788725395E0,2.546080998E0
3.699255125E0,1.806694327E0,2.564471841E-1,2.227289665E0,2.879362569E0
3.709193125E0,1.791443034E0,3.070150745E-1,2.614894428E0,3.184524968E0
3.719131125E0,1.706768920E0,4.422909933E-1,2.960043873E0,3.445365177E0
3.729070125E0,1.573612032E0,6.642045218E-1,3.263062084E0,3.683068915E0
3.739008125E0,1.505012498E0,8.347865134E-1,3.455534004E0,3.860394591E0
3.748946125E0,1.419944866E0,9.602812099E-1,3.636369089E0,4.020144720E0
3.758884125E0,1.245162819E0,9.949353182E-1,3.697765145E0,4.026635544E0
3.768822125E0,9.509788746E-1,1.049179938E0,3.656672083E0,3.921274039E0
3.778760125E0,5.625992095E-1,9.992458856E-1,3.550379643E0,3.730979204E0
3.788699125E0,1.325195414E-1,8.801223153E-1,3.268123141E0,3.387153021E0
3.798637125E0,-1.826605850E-1,7.451791030E-1,3.128628749E0,3.221331189E0
3.808575125E0,-5.053321642E-1,6.039752769E-1,2.849066352E0,2.955896786E0
3.818513125E0,-8.491349959E-1,4.759054667E-1,2.582390049E0,2.759756260E0
3.828451125E0,-1.098945590E0,3.526672107E-1,2.500326131E0,2.753849366E0
3.838389125E0,-1.322076509E0,2.160171962E-1,2.306252950E0,2.667086874E0
3.848328125E0,-1.546451715E0,3.913249075E-2,2.111176972E0,2.617271952E0
3.858266125E0,-1.769842250E0,-1.094686478E-1,1.967050562E0,2.648322656E0
3.868204125E0,-1.982764515E0,-1.898117298E-1,1.775992059E0,2.668619758E0
3.878142125E0,-2.257559677E0,-2.606431460E-1,1.622488030E0,2.792306924E0
3.888080125E0,-2.459262890E0,-3.545687252E-1,1.491574427E0,2.898014357E0
3.898019125E0,-2.585588475E0,-4.943797445E-1,1.507482800E0,3.033510094E0
3.907957125E0,-2.740469524E0,-5.123920923E-1,1.592127533E0,3.210543404E0
3.917895125E0,-2.844807240E0,-4.511401695E-1,1.605679040E0,3.297675069E0
3.927833125E0,-2.895399688E0,-4.312374169E-1,1.723527332E0,3.397035698E0
3.937771125E0,-2.957370819E0,-4.515143913E-1,1.821678694E0,3.502630536E0
3.947709125E0,-2.959997973E0,-5.493862563E-1,1.816375854E0,3.516053825E0
3.957648125E0,-2.781572526E0,-8.059077001E-1,1.961957491E0,3.497986583E0
3.967586125E0,-2.578532640E0,-1.202344244E0,2.155895601E0,3.569642573E0
3.977524125E0,-2.325632962E0,-1.745461115E0,2.313915142E0,3.716100976E0
3.987462125E0,-1.928439204E0,-2.433688338E0,2.537595991E0,4.010125946E0
3.997400125E0,-1.621027688E0,-2.980005975E0,2.852917036E0,4.432527720E0
4.007338000E0,-1.375629988E0,-3.342426926E0,2.996123825E0,4.694777268E0
4.017277000E0,-1.145692325E0,-3.620307664E0,2.956827320E0,4.812698442E0
4.027215000E0,-9.584253037E-1,-3.782410024E0,2.775633217E0,4.788459502E0
4.037153000E0,-6.958736265E-1,-3.809314232E0,2.462103467E0,4.588798155E0
4.047091000E0,-2.888629782E-1,-4.041790756E0,1.909829563E0,4.479616423E0
4.057029000E0,9.954943120E-2,-4.390204702E0,1.235548242E0,4.561840295E0
4.066968000E0,4.074380797E-1,-4.683502793E0,7.120250979E-1,4.754806404E0
4.076906000E0,6.073812801E-1,-4.948026152E0,4.432810731E-1,5.004834955E0
4.086844000E0,5.216400486E-1,-5.070422409E0,1.534794706E-1,5.099494847E0
4.096782000E0,4.468670243E-1,-5.147156589E0,-1.203044155E-1,5.167918753E0
4.106720000E0,5.896624625E-1,-5.142265393E0,-1.459489878E-1,5.178020500E0
4.116658000E0,8.712409794E-1,-5.133773482E0,-1.394186711E-1,5.209042961E0
4.126597000E0,1.610819035E0,-5.062912830E0,-4.631322241E-1,5.333133763E0
4.136535000E0,2.537737786E0,-4.900383623E0,-1.278870263E0,5.664749057E0
4.146473000E0,2.811786844E0,-4.277817124E0,-2.288375673E0,5.607363714E0
4.156411000E0,2.698351445E0,-3.218626753E0,-3.520479906E0,5.480368369E0
4.166349000E0,2.448634406E0,-2.108565021E0,-4.740552907E0,5.737133323E0
4.176287000E0,2.397385315E0,-5.553849149E-1,-6.091602370E0,6.569895599E0
4.186226000E0,2.484800019E0,1.242142147E0,-7.401201505E0,7.905373613E0
4.196164000E0,2.483569765E0,2.571889034E0,-8.465355577E0,9.189394813E0
4.206102000E0,2.647840857E0,3.361479494E0,-9.214839985E0,1.015991543E1
4.216040000E0,2.568888243E0,4.008428298E0,-9.517538061E0,1.064190843E1
4.225978000E0,2.295011678E0,4.556850933E0,-9.500840167E0,1.078415193E1
4.235916000E0,2.012488836E0,4.738981760E0,-8.919295979E0,1.029863584E1
4.245855000E0,1.666246546E0,4.615151181E0,-7.949130635E0,9.341556392E0
4.255793000E0,1.285156020E0,4.209581872E0,-6.864663920E0,8.154496690E0
4.265731000E0,1.124130133E0,3.517095537E0,-5.766615878E0,6.847443921E0
4.275669000E0,9.886828905E-1,2.710745203E0,-4.703576285E0,5.518085110E0
4.285607000E0,8.524275631E-1,1.713905447E0,-3.623944632E0,4.098424005E0
4.295545000E0,6.137874895E-1,5.695626587E-1,-2.492264575E0,2.629167057E0
4.305484000E0,1.211700958E-1,-3.018274248E-1,-1.057684713E0,1.106561764E0
4.315422000E0,-2.210773766E-1,-1.252288236E0,4.502367747E-1,1.349004887E0
4.325360000E0,-9.220105988E-1,-2.105636736E0,1.686200169E0,2.850803504E0
4.335298000E0,-1.905880061E0,-2.118767243E0,2.805401684E0,3.998978876E0
4.345236000E0,-2.788147720E0,-1.666819573E0,4.174902620E0,5.289788945E0
4.355175000E0,-2.473383331E0,-1.283741578E0,3.563927057E0,4.524068258E0
4.365113000E0,-2.879816859E0,-6.806936699E-1,3.775972824E0,4.797359668E0
4.375051000E0,-3.086229419E0,-3.612070692E-1,4.213079091E0,5.235008883E0
4.384989000E0,-3.006547072E0,-2.532739002E-1,4.413918085E0,5.346601334E0
4.394927000E0,-3.096907604E0,-6.225588977E-2,4.505015366E0,5.467163428E0
4.404865000E0,-3.113254665E0,1.035635448E-1,4.529560808E0,5.497272153E0
4.414804000E0,-2.914603114E0,1.924809837E-1,4.394790673E0,5.276944694E0
4.424742000E0,-2.692608309E0,9.976870179E-2,4.238146105E0,5.022148515E0
4.434680000E0,-2.497987245E0,-9.234098375E-2,4.057597242E0,4.765769876E0
4.444618000E0,-2.324033749E0,-2.560548359E-1,3.881879933E0,4.531632019E0
4.454556000E0,-2.344508359E0,-3.487741345E-1,3.675310668E0,4.373359275E0
4.464494000E0,-2.460480280E0,-2.883115858E-1,3.297674092E0,4.124529209E0
4.474433000E0,-2.433154487E0,-9.155394852E-2,2.808490183E0,3.717020311E0
4.484371000E0,-2.178991810E0,1.697902787E-1,2.269821289E0,3.151019316E0
4.494309000E0,-1.788582577E0,4.152563918E-1,1.818563590E0,2.584306297E0
4.504247000E0,-1.358767202E0,5.832112294E-1,1.472302004E0,2.086637688E0
4.514185000E0,-9.141934562E-1,7.273784244E-1,1.219537396E0,1.688816304E0
4.524124000E0,-5.779803103E-1,9.190413827E-1,1.013343449E0,1.485113884E0
4.534062000E0,-2.812996048E-1,1.071760131E0,7.799424811E-1,1.355031187E0
4.544000000E0,-9.412964702E-2,1.099053764E0,5.509503500E-1,1.233014945E0
4.553938000E0,7.433799148E-2,1.077416727E0,3.297034041E-1,1.129184341E0
4.563876000E0,2.045443743E-1,9.733766341E-1,1.344029113E-1,1.003675553E0
4.573814000E0,1.847410244E-1,7.056899321E-1,-6.035028219E-2,7.319628972E-1
4.583753000E0,1.253958786E-1,3.477081871E-1,-1.372546166E-1,3.942891572E-1
4.593691000E0,1.152497900E-1,-1.051534027E-1,-2.087538032E-1,2.606106339E-1
4.603629000E0,9.142764866E-2,-3.248122448E-1,-2.110032270E-1,3.979753398E-1
4.613567000E0,1.409559041E-1,-5.427461582E-1,-1.314734745E-1,5.759576666E-1
4.623505000E0,3.556095296E-1,-8.202743089E-1,-4.954937853E-2,8.954123186E-1
4.633444000E0,5.623869556E-1,-1.022359344E0,1.388526607E-1,1.175065010E0
4.643382000E0,7.462468046E-1,-1.148294336E0,3.653989381E-1,1.417385113E0
4.653320000E0,1.136053775E0,-1.176237010E0,4.663737743E-1,1.700487042E0
4.663258000E0,1.886035781E0,-1.340337363E0,2.797576940E-1,2.330643598E0
4.673196000E0,2.925675986E0,-1.860020934E0,-1.755192344E-1,3.471320333E0
4.683134000E0,3.950837317E0,-2.542257099E0,-7.436816311E-1,4.756600575E0
4.693073000E0,4.590361326E0,-3.172943627E0,-1.238676503E0,5.716057018E0
4.703011000E0,4.585699925E0,-3.452142327E0,-1.684778419E0,5.982007086E0
4.712949000E0,4.267537719E0,-3.182678656E0,-2.173792466E0,5.750364797E0
4.722887000E0,3.843653176E0,-2.276532138E0,-2.539813548E0,5.138766503E0
4.732825000E0,3.351522270E0,-8.748077810E-1,-2.794242858E0,4.450368898E0
4.742763000E0,3.242264707E0,4.200511086E-1,-2.924739847E0,4.386664626E0
4.752702000E0,3.765779958E0,1.437018735E0,-2.877180349E0,4.952200349E0
4.762640000E0,4.613335621E0,2.117578504E0,-2.721400584E0,5.759602886E0
4.772578000E0,5.351631966E0,2.259706190E0,-2.584015574E0,6.357937815E0
4.782516000E0,5.839968613E0,1.939518508E0,-2.384371898E0,6.599408670E0
4.792454000E0,5.917348911E0,1.413032287E0,-2.282114621E0,6.497670777E0
4.802392000E0,5.535861944E0,6.814134622E-1,-2.174143299E0,5.986400492E0
4.812331000E0,4.883541888E0,-1.186546236E-1,-2.015314357E0,5.284368671E0
4.822269000E0,3.996632125E0,-7.745303714E-1,-1.832775979E0,4.464530594E0
4.832207000E0,3.069112864E0,-1.153292536E0,-1.656717923E0,3.673452290E0
4.842145000E0,2.221353718E0,-1.461391684E0,-1.238545379E0,2.933269959E0
4.852083000E0,1.808498778E0,-1.537603709E0,-7.587803113E-1,2.492115678E0
4.862022000E0,1.671351750E0,-1.434061214E0,-3.415738732E-1,2.228591696E0
4.871960000E0,1.463572696E0,-1.318003923E0,2.282391194E-1,1.982743673E0
4.881898000E0,1.441883619E0,-1.284276599E0,7.773943377E-1,2.081522690E0
4.891836000E0,1.281945314E0,-1.152881477E0,1.234715599E0,2.120623045E0
4.901774000E0,9.357310903E-1,-9.427185130E-1,1.672794843E0,2.136013449E0
4.911712000E0,5.625015610E-1,-7.525647211E-1,2.003805721E0,2.213142343E0
4.921651000E0,1.531052488E-1,-5.158700162E-1,2.243556765E0,2.307186609E0
4.931589000E0,-2.729065114E-1,-4.029912722E-1,2.262341530E0,2.314102230E0
4.941527000E0,-6.894188851E-1,-4.796202028E-1,2.072170197E0,2.235894287E0
4.951465000E0,-1.106297294E0,-5.698047334E-1,1.802846274E0,2.190622247E0
4.961403000E0,-1.484750142E0,-6.691530204E-1,1.508268812E0,2.219712494E0
4.971342000E0,-1.901037982E0,-8.066046882E-1,1.217979698E0,2.397505178E0
4.981280000E0,-2.427410182E0,-9.131444657E-1,9.844085759E-1,2.774024739E0
4.991218000E0,-2.965015469E0,-1.037459194E0,7.528108889E-1,3.230226392E0
5.001156000E0,-3.477969478E0,-1.036988493E0,5.968966377E-1,3.678029693E0
5.011094083E0,-3.927347882E0,-1.023224732E0,4.797909415E-1,4.086716235E0
5.021032083E0,-4.272928852E0,-9.218954086E-1,5.026143783E-1,4.400049242E0
5.030971083E0,-4.604842540E0,-9.513221061E-1,6.330517262E-1,4.744506619E0
5.040909083E0,-5.049844303E0,-1.204948593E0,4.559074044E-1,5.211590943E0
5.050847083E0,-5.262859538E0,-1.358806964E0,3.140656471E-1,5.444509538E0
5.060785083E0,-5.483926390E0,-1.333811871E0,3.132382661E-1,5.652488033E0
5.070723083E0,-5.967106962E0,-1.353610543E0,2.565980422E-1,6.124089284E0
5.080661083E0,-6.223260031E0,-1.309490377E0,2.130169898E-1,6.363105115E0
5.090600083E0,-6.303901906E0,-1.265959611E0,3.038411876E-1,6.436936573E0
5.100538083E0,-6.266428855E0,-1.239065927E0,4.615779976E-1,6.404410138E0
5.110476083E0,-6.114053923E0,-1.153848022E0,5.537816083E-1,6.246574638E0
5.120414083E0,-6.046093490E0,-1.145405227E0,7.326643074E-1,6.197095821E0
5.130352083E0,-5.835180913E0,-1.276444253E0,7.859838974E-1,6.024650771E0
5.140291083E0,-5.509189285E0,-1.524143418E0,7.983811641E-1,5.771619549E0
5.150229083E0,-5.195415999E0,-1.884727759E0,8.748007643E-1,5.595518073E0
5.160167083E0,-4.805569267E0,-2.262943794E0,9.804739845E-1,5.401457195E0
5.170105083E0,-4.384028288E0,-2.643513333E0,9.777766639E-1,5.211901186E0
5.180043083E0,-3.917212903E0,-3.014807433E0,1.037682558E0,5.050782700E0
5.189981083E0,-3.460607341E0,-3.300013563E0,1.215525037E0,4.933902492E0
5.199920083E0,-3.056597484E0,-3.524650140E0,1.352831694E0,4.857581742E0
5.209858083E0,-2.709775150E0,-3.650303296E0,1.458134201E0,4.774280141E0
5.219796083E0,-2.369300553E0,-3.708570215E0,1.566656184E0,4.671347745E0
5.229734083E0,-1.934972298E0,-3.764759034E0,1.602527683E0,4.526104655E0
5.239672083E0,-1.295520794E0,-3.889017044E0,1.501812901E0,4.365577819E0
5.249611083E0,-5.426929486E-1,-4.185042277E0,1.350201616E0,4.430816956E0
5.259549083E0,5.849846900E-2,-4.597337054E0,1.078062844E0,4.722409296E0
5.269487083E0,3.268149161E-1,-5.021244986E0,8.396391177E-1,5.101441272E0
5.279425083E0,3.095738161E-1,-5.161951799E0,6.463383543E-1,5.211461944E0
5.289363083E0,2.185829544E-1,-5.061817061E0,4.948282260E-1,5.090640966E0
5.299301083E0,1.694552332E-1,-4.838502540E0,4.165544736E-1,4.859355877E0
5.309240083E0,3.654603338E-1,-4.577664682E0,3.765466182E-1,4.607641756E0
5.319178083E0,9.103611910E-1,-4.357391297E0,3.243924147E-1,4.463277591E0
5.329116083E0,1.585489481E0,-4.110703116E0,2.910988804E-1,4.415472292E0
5.339054083E0,2.267954857E0,-3.754493662E0,2.377523931E-1,4.392763150E0
5.348992083E0,2.795525737E0,-3.162890509E0,-1.089641062E-1,4.222642975E0
5.358930083E0,2.853813121E0,-2.093019029E0,-4.382049590E-1,3.566090517E0
5.368869083E0,2.254519710E0,5.465977192E-3,-7.374205057E-1,2.372061973E0
5.378807083E0,2.054567739E0,1.344638575E0,-1.231646834E0,2.747044851E0
5.388745083E0,2.780741637E0,1.773663990E0,-2.081018203E0,3.899877532E0
5.398683083E0,3.476066210E0,2.279359267E0,-3.292797514E0,5.302926591E0
5.408621083E0,4.248721964E0,2.400760912E0,-4.255112970E0,6.474664291E0
5.418560083E0,4.803182141E0,2.602495115E0,-4.456533762E0,7.050122884E0
5.428498083E0,4.996991905E0,2.990239772E0,-4.487493015E0,7.351806278E0
5.438436083E0,5.134737103E0,3.211691955E0,-4.777696760E0,7.714070045E0
5.448374083E0,5.347803794E0,2.931972853E0,-5.173698270E0,7.997663660E0
5.458312083E0,5.371267501E0,2.438861369E0,-5.442142187E0,8.025924927E0
5.468250083E0,5.383504554E0,1.915270690E0,-5.475911611E0,7.914290308E0
5.478189083E0,5.319826037E0,1.111694859E0,-5.349960247E0,7.626171331E0
5.488127083E0,5.308405840E0,-4.619493324E-1,-4.948279336E0,7.271728690E0
5.498065083E0,5.004275782E0,-1.995554130E0,-4.434336562E0,6.977704001E0
5.508003083E0,2.865935861E0,-1.611410773E0,-3.428482153E0,4.750233985E0
5.517941083E0,1.080884126E-1,-3.189925110E-1,-1.868249136E0,1.898366182E0
5.527880083E0,-1.036842605E0,-3.525391567E-1,2.140933160E-1,1.115868448E0
5.537818083E0,-9.907554361E-1,-7.860739446E-1,2.218364621E0,2.553556378E0
5.547756083E0,-8.280844349E-1,-5.663361651E-1,3.466362755E0,3.608619020E0
5.557694083E0,-5.201808760E-1,3.244046938E-1,4.538953190E0,4.580166221E0
5.567632083E0,2.048794198E-1,1.215338511E0,5.413188529E0,5.551723455E0
5.577570083E0,9.709161258E-1,2.013800367E0,5.749040902E0,6.168431026E0
5.587509083E0,1.205244755E0,2.797921341E0,5.424270757E0,6.221229138E0
5.597447083E0,8.742286143E-1,3.265626673E0,4.609851265E0,5.716583063E0
5.607385083E0,6.588215750E-1,3.079805667E0,3.302012726E0,4.563171798E0
5.617323083E0,9.628437522E-1,2.176292735E0,1.398986691E0,2.760522038E0
5.627261083E0,5.873995900E-1,1.729802856E0,-5.611838910E-1,1.911068696E0
5.637199083E0,-5.105081195E-1,1.846387566E0,-2.203185542E0,2.919553410E0
5.647138083E0,-1.277954881E0,1.734407539E0,-3.655784476E0,4.243359321E0
5.657076083E0,-2.075970887E0,1.731098015E0,-4.707828672E0,5.428628396E0
5.667014083E0,-3.198975431E0,2.112793728E0,-5.013855860E0,6.311583931E0
5.676952083E0,-3.759997939E0,2.257393032E0,-4.708628279E0,6.434639700E0
5.686890083E0,-3.264637616E0,1.748764792E0,-4.094525040E0,5.520975671E0
5.696829083E0,-2.314719134E0,1.088885456E0,-3.346731939E0,4.212387788E0
5.706767083E0,-1.549150205E0,4.839927506E-1,-2.496516085E0,2.977701782E0
5.716705083E0,-1.390490102E0,1.660620940E-1,-1.548919240E0,2.088106835E0
5.726643083E0,-1.602873546E0,2.314228553E-1,-6.632119569E-1,1.750031497E0
5.736581083E0,-1.747498870E0,4.199271476E-1,5.894446537E-2,1.798211767E0
5.746519083E0,-1.571737415E0,4.614189899E-1,6.110398829E-1,1.748323689E0
5.756458083E0,-1.088161863E0,3.611790025E-1,9.574571510E-1,1.493743856E0
5.766396083E0,-4.318583912E-1,1.470726764E-1,1.053385840E0,1.147934567E0
5.776334083E0,4.114551169E-1,-2.538592064E-1,8.830463617E-1,1.006732679E0
5.786272083E0,1.469036042E0,-7.716453552E-1,6.549361002E-1,1.783940790E0
5.796210083E0,2.335685787E0,-1.243679380E0,5.067793500E-1,2.694251623E0
5.806148083E0,2.796362473E0,-1.454632303E0,4.087864476E-1,3.178475197E0
5.816087083E0,3.015934777E0,-1.599881818E0,5.026166441E-1,3.450812643E0
5.826025083E0,3.047737783E0,-1.885886677E0,5.299224834E-1,3.622994892E0
5.835963083E0,3.039816852E0,-2.073654220E0,3.092463720E-1,3.692717378E0
5.845901083E0,2.909646429E0,-2.273299212E0,1.907975703E-1,3.697341662E0
5.855839083E0,3.095168934E0,-2.954296353E0,-7.954376757E-2,4.279516898E0
5.865778083E0,3.366597562E0,-3.483239574E0,-3.306824107E-1,4.855541981E0
5.875716083E0,3.378376778E0,-3.631768792E0,-3.466738147E-1,4.972258736E0
5.885654083E0,3.094507029E0,-3.625488882E0,-1.500758064E-1,4.768927147E0
5.895592083E0,2.816303818E0,-3.151676134E0,2.282314450E-2,4.226718649E0
5.905530083E0,2.847135601E0,-2.422113190E0,3.176631466E-2,3.738157639E0
5.915468083E0,2.941397980E0,-1.588944601E0,-4.243616760E-2,3.343406623E0
5.925407083E0,2.980981583E0,-6.650962222E-1,-1.801737642E-1,3.059586046E0
5.935345083E0,2.775117492E0,1.154579508E-1,-5.047898349E-1,2.823016191E0
5.945283083E0,2.423805082E0,6.833050364E-1,-9.697696330E-1,2.698553314E0
5.955221083E0,2.012668638E0,1.095082920E0,-1.548116856E0,2.765268061E0
5.965159083E0,1.631654710E0,1.300608457E0,-2.296421442E0,3.102810160E0
5.975098083E0,1.269243992E0,1.304410316E0,-3.069944923E0,3.568897367E0
5.985036083E0,1.060002842E0,1.120770907E0,-3.798109798E0,4.099435508E0
5.994974083E0,8.945014957E-1,8.860016906E-1,-4.428765920E0,4.604247984E0
6.004912083E0,6.716082662E-1,6.477720916E-1,-4.760363274E0,4.850950921E0
6.014849708E0,2.411073062E-1,3.499044013E-1,-4.692005522E0,4.711208087E0
6.024787708E0,-2.359474307E-1,-6.236406326E-2,-4.282110150E0,4.289059081E0
6.034726708E0,-5.616449440E-1,-5.588827193E-1,-3.701229328E0,3.785088305E0
6.044664708E0,-8.135120040E-1,-1.038401765E0,-2.947563869E0,3.229274341E0
6.054602708E0,-9.845079786E-1,-1.385671996E0,-2.136063892E0,2.729855635E0
6.064540708E0,-1.064998410E0,-1.633154229E0,-1.325406060E0,2.357565603E0
6.074478708E0,-1.097360410E0,-1.783848086E0,-4.818001179E-1,2.149056820E0
6.084417708E0,-1.114008018E0,-1.765385503E0,3.990015708E-1,2.125276944E0
6.094355708E0,-1.342121349E0,-1.528589056E0,1.640480205E0,2.613245018E0
6.104293708E0,-1.258270522E0,-1.116053959E0,2.631731193E0,3.123272357E0
6.114231708E0,-7.407878441E-1,-8.950835860E-1,2.850228193E0,3.077944446E0
6.124169708E0,-6.798487473E-1,-6.752920121E-1,3.180488289E0,3.321704288E0
6.134107708E0,-7.145782846E-1,-4.056119943E-1,3.548848842E0,3.642728554E0
6.144046708E0,-8.351806158E-1,-1.609919733E-1,3.684700127E0,3.781594915E0
6.153984708E0,-1.047229891E0,8.569913149E-2,3.714900995E0,3.860637796E0
6.163922708E0,-1.296371564E0,2.754272461E-1,3.564936286E0,3.803315675E0
6.173860708E0,-1.568079396E0,4.094559538E-1,3.133001297E0,3.527353724E0
6.183798708E0,-1.837433140E0,4.410531378E-1,2.531754330E0,3.159187934E0
6.193737708E0,-2.075620639E0,4.477329969E-1,1.859395866E0,2.822413659E0
6.203675708E0,-2.403406193E0,4.467149967E-1,1.272508492E0,2.755937858E0
6.213613708E0,-2.728447648E0,3.582080323E-1,7.748519683E-1,2.858869556E0
6.223551708E0,-2.990919219E0,2.639140785E-1,3.342888272E-1,3.021092093E0
6.233489708E0,-3.223136711E0,6.696055949E-2,-1.252748412E-1,3.226265296E0
6.243427708E0,-3.445573565E0,-1.641950780E-1,-4.551145220E-1,3.479377307E0
6.253366708E0,-3.651320711E0,-3.268190092E-1,-7.202647018E-1,3.736005198E0
6.263304708E0,-3.831933601E0,-5.122277856E-1,-9.629849625E-1,3.984147646E0
6.273242708E0,-3.981572621E0,-7.236163259E-1,-1.199087344E0,4.220705105E0
6.283180708E0,-4.148663825E0,-8.353940392E-1,-1.313338430E0,4.431044184E0
6.293118708E0,-4.281167579E0,-8.460839188E-1,-1.281808489E0,4.548327917E0
6.303057708E0,-4.248012112E0,-8.675513864E-1,-1.217262830E0,4.503330002E0
6.312995708E0,-4.104683992E0,-1.042075571E0,-1.153339314E0,4.389139294E0
6.322933708E0,-3.834295292E0,-1.105296836E0,-9.296932554E-1,4.097295575E0
6.332871708E0,-3.561119224E0,-1.211072967E0,-6.637396681E-1,3.819531150E0
6.342809708E0,-3.222222206E0,-1.469612870E0,-3.546961580E-1,3.559253755E0
6.352747708E0,-3.124940325E0,-1.776105203E0,5.147651117E-2,3.594781156E0
6.362686708E0,-3.004609889E0,-2.080028855E0,4.150481578E-1,3.677834362E0
6.372624708E0,-2.754311053E0,-2.329608484E0,7.134942108E-1,3.677278756E0
6.382562708E0,-2.526005348E0,-2.605718100E0,1.010439211E0,3.767155058E0
6.392500708E0,-2.371050040E0,-2.891355754E0,1.120220173E0,3.903422809E0
6.402438708E0,-2.299605836E0,-3.203336869E0,1.142399831E0,4.105439254E0
6.412377708E0,-2.256942796E0,-3.390838364E0,1.132230792E0,4.227708855E0
6.422315708E0,-2.060130780E0,-3.784431406E0,1.530520391E0,4.572587076E0
6.432253708E0,-1.484909770E0,-4.350655890E0,1.416052959E0,4.810235927E0
6.442191708E0,-8.039547300E-1,-5.219864962E0,5.362042934E-3,5.281416683E0
6.452129708E0,5.478197873E-2,-6.253253324E0,-6.734787905E-1,6.289654353E0
6.462067708E0,5.305991524E-1,-6.649909138E0,-1.899337904E-1,6.673747212E0
6.472006708E0,1.343986026E0,-6.785983787E0,3.563035941E-1,6.926963739E0
6.481944708E0,2.515035387E0,-6.576904896E0,6.172218516E-1,7.068383396E0
6.491882708E0,3.971614813E0,-6.172719623E0,7.698286253E-1,7.380299985E0
6.501820708E0,5.429212239E0,-5.372448054E0,7.342003709E-1,7.673238808E0
6.511758708E0,6.580477545E0,-4.079240418E0,6.448037526E-1,7.769083536E0
6.521696708E0,7.148510572E0,-2.368883647E0,1.974116483E-1,7.533378027E0
6.531635708E0,7.508395001E0,-8.031396282E-1,-1.097337606E0,7.630542483E0
6.541573708E0,7.666634690E0,7.783655602E-1,-2.099135801E0,7.986833636E0
6.551511708E0,7.658349770E0,2.202535039E0,-2.945909107E0,8.495873249E0
6.561449708E0,7.627116868E0,3.128017130E0,-3.854161499E0,9.100107897E0
6.571387708E0,8.413207769E0,4.307419823E0,-4.581082087E0,1.050343961E1
6.581326708E0,8.712773491E0,5.153771544E0,-4.914571892E0,1.125285741E1
6.591264708E0,6.478833057E0,4.884846402E0,-5.657831354E0,9.891817719E0
6.601202708E0,5.863008982E0,4.766902215E0,-6.163692691E0,9.751376243E0
6.611140708E0,5.203662912E0,4.607336962E0,-6.007861471E0,9.186950584E0
6.621078708E0,4.261537599E0,3.936467784E0,-5.774227198E0,8.185241662E0
6.631017708E0,3.446290433E0,3.111814495E0,-5.256807085E0,7.013866832E0
6.640955708E0,2.556139266E0,2.260410195E0,-4.708558112E0,5.814965322E0
6.650893708E0,1.681362475E0,1.333417184E0,-4.091463145E0,4.620070544E0
6.660831708E0,6.691272926E-1,4.300942862E-1,-3.267316518E0,3.362747338E0
6.670769708E0,-1.644745749E-1,-5.285935575E-1,-2.267999004E0,2.334584014E0
6.680707708E0,-9.046092850E-1,-1.632809243E0,-1.647910847E0,2.489978743E0
6.690646708E0,-2.027438997E0,-2.238922847E0,-1.148455135E0,3.231444506E0
6.700584708E0,-3.336318340E0,-2.492845788E0,-1.726311484E-1,4.168345200E0
6.710522708E0,-4.523433511E0,-2.446515375E0,7.833377400E-1,5.201971378E0
6.720460708E0,-5.261802946E0,-2.371801992E0,1.373023884E0,5.932723617E0
6.730398708E0,-5.471135606E0,-1.862649257E0,1.470725595E0,5.963708649E0
6.740337708E0,-5.485206345E0,-1.079646270E0,1.233757825E0,5.724970139E0
6.750275708E0,-5.381139940E0,-3.975785047E-1,9.427534501E-1,5.477546877E0
6.760213708E0,-5.290674743E0,1.933756077E-1,7.131389925E-1,5.342022144E0
6.770151708E0,-5.241724777E0,6.339562905E-1,6.556868827E-1,5.320479725E0
6.780089708E0,-5.194766958E0,9.030545104E-1,7.115862644E-1,5.320476126E0
6.790027708E0,-5.072650198E0,9.729234749E-1,7.389173198E-1,5.217696707E0
6.799966708E0,-4.983819882E0,9.244518113E-1,7.550370701E-1,5.124758799E0
6.809904708E0,-4.901429690E0,8.227704853E-1,8.289346200E-1,5.038660227E0
6.819842708E0,-4.590585859E0,7.975070053E-1,9.141652434E-1,4.748177971E0
6.829780708E0,-4.062727296E0,7.650976431E-1,1.195780159E0,4.303605195E0
6.839718708E0,-3.381746528E0,6.495525688E-1,1.686056328E0,3.834177103E0
6.849657708E0,-2.742428341E0,5.325971460E-1,2.165581075E0,3.534729737E0
6.859595708E0,-2.177345234E0,3.475403720E-1,2.453018648E0,3.298320340E0
6.869533708E0,-1.731051822E0,5.709572196E-2,2.527987554E0,3.064395765E0
6.879471708E0,-1.470369499E0,-2.111534822E-1,2.414094903E0,2.834506387E0
6.889409708E0,-1.429036117E0,-3.362646013E-1,2.189957532E0,2.636499971E0
6.899347708E0,-1.567866558E0,-2.481733739E-1,1.861953439E0,2.446766473E0
6.909286708E0,-1.711779399E0,-8.078980923E-2,1.461675128E0,2.252378717E0
6.919224708E0,-1.713771545E0,-9.850511849E-2,8.962729096E-1,1.936497172E0
6.929162708E0,-1.450417045E0,-3.051503974E-1,2.638825035E-1,1.505476784E0
6.939100708E0,-1.106812434E0,-7.224579924E-1,-2.638959521E-1,1.347820607E0
6.949038708E0,-7.886274236E-1,-1.228101228E0,-7.508200581E-1,1.641309416E0
6.958977708E0,-4.664604592E-1,-1.812039267E0,-1.246755747E0,2.248437581E0
6.968915708E0,-7.111676037E-2,-2.477341311E0,-1.714964670E0,3.013864858E0
6.978853708E0,3.448290181E-1,-3.164415463E0,-2.110222122E0,3.819092782E0
6.988791708E0,7.351669157E-1,-3.830544888E0,-2.422028990E0,4.591270952E0
6.998729708E0,1.194389691E0,-4.432671860E0,-2.590410674E0,5.271183360E0
7.008667708E0,1.773242991E0,-4.788391317E0,-2.426931880E0,5.653590051E0
7.018607250E0,2.438790618E0,-4.801275657E0,-1.906518577E0,5.712684194E0
7.028545250E0,3.151322377E0,-4.365373331E0,-1.104656712E0,5.496142602E0
7.038483250E0,3.814113042E0,-3.658249662E0,-1.204269147E-1,5.286279555E0
7.048421250E0,4.412041129E0,-2.850813500E0,8.938622488E-1,5.328436380E0
7.058359250E0,4.947868277E0,-1.780424541E0,1.804679230E0,5.559512493E0
7.068298250E0,5.362980827E0,-4.070819843E-1,2.581450401E0,5.965833158E0
7.078236250E0,5.678565581E0,9.612150103E-1,2.898462460E0,6.447567447E0
7.088174250E0,5.980837394E0,2.045730842E0,2.627715910E0,6.845459920E0
7.098112250E0,6.139103980E0,2.707526895E0,1.873238419E0,6.966227224E0
7.108050250E0,5.978503186E0,3.033729608E0,6.899784636E-1,6.739590934E0
7.117988250E0,5.383621498E0,3.057315522E0,-6.209732790E-1,6.222231629E0
7.127927250E0,4.511992556E0,2.820127312E0,-1.715254838E0,5.590464564E0
7.137865250E0,3.539703212E0,2.427626529E0,-2.456347468E0,4.945352594E0
7.147803250E0,2.559354065E0,1.959439972E0,-2.876254735E0,4.320016150E0
7.157741250E0,1.786500968E0,1.409018174E0,-3.105600075E0,3.849892173E0
7.167679250E0,1.336480832E0,1.033729255E0,-3.090587933E0,3.522287745E0
7.177618250E0,1.128699147E0,8.079062784E-1,-2.959664682E0,3.268989040E0
7.187556250E0,9.156798184E-1,6.569247383E-1,-2.808197823E0,3.025887416E0
7.197494250E0,1.104855956E0,4.883962888E-1,-2.465859718E0,2.745851738E0
7.207432250E0,1.638068521E0,2.570523709E-1,-1.947558430E0,2.557797537E0
7.217370250E0,2.204931521E0,4.271332562E-2,-1.265716951E0,2.542751824E0
7.227309250E0,2.557376537E0,1.908648133E-2,-5.297939909E-1,2.611746680E0
7.237247250E0,2.688508242E0,2.098635864E-1,7.605933867E-2,2.697759128E0
7.247185250E0,2.813091357E0,5.894642419E-1,6.967015922E-1,2.957421882E0
7.257123250E0,2.864346880E0,1.066742050E0,1.228026384E0,3.294005230E0
7.267061250E0,2.874926248E0,1.509258746E0,1.654883067E0,3.644406791E0
7.276999250E0,2.887643357E0,1.936136479E0,1.935165841E0,3.978941499E0
7.286938250E0,2.850894191E0,2.259819041E0,2.197846742E0,4.250283531E0
7.296876250E0,2.733372173E0,2.481141416E0,2.435650663E0,4.422644042E0
7.306814250E0,2.521864935E0,2.586001289E0,2.568683006E0,4.432306149E0
7.316752250E0,2.168181478E0,2.547506729E0,2.723151240E0,4.313508333E0
7.326690250E0,1.776575612E0,2.425784072E0,2.787868223E0,4.100348582E0
7.336629250E0,1.340646096E0,2.132488319E0,2.815784000E0,3.778025665E0
7.346567250E0,9.386523592E-1,1.810300305E0,2.739054497E0,3.414773050E0
7.356505250E0,5.970346320E-1,1.414504616E0,2.598676883E0,3.018343122E0
7.366443250E0,2.384728432E-1,1.003064117E0,2.478729440E0,2.684605475E0
7.376381250E0,-9.557390928E-2,6.185868841E-1,2.354798874E0,2.436567635E0
7.386319250E0,-3.440899301E-1,2.094420022E-1,2.285661396E0,2.320886005E0
7.396258250E0,-6.374587727E-1,-1.728021795E-1,2.302977340E0,2.395812787E0
7.406196250E0,-9.153816104E-1,-3.559562695E-1,2.346965944E0,2.544185036E0
7.416134250E0,-1.136500502E0,-4.563395137E-1,2.274561042E0,2.583313197E0
7.426072250E0,-1.287976717E0,-5.134913689E-1,2.168263339E0,2.573698373E0
7.436010250E0,-1.411853489E0,-5.341156679E-1,2.117488457E0,2.600455188E0
7.445949250E0,-1.487094875E0,-5.244765329E-1,2.148811845E0,2.665317832E0
7.455887250E0,-1.532124867E0,-4.980693376E-1,2.153714297E0,2.689603121E0
7.465825250E0,-1.477645774E0,-5.575062847E-1,2.171550643E0,2.685122435E0
7.475763250E0,-1.359219777E0,-7.361363840E-1,2.209715420E0,2.696704918E0
7.485701250E0,-1.250893675E0,-8.965231705E-1,2.254659312E0,2.729831020E0
7.495640250E0,-1.168454951E0,-1.039931397E0,2.293832295E0,2.776402507E0
7.505578250E0,-1.117580082E0,-1.270693517E0,2.343185134E0,2.890357041E0
7.515516250E0,-1.103644997E0,-1.529230496E0,2.386177372E0,3.041450417E0
7.525454250E0,-1.118633165E0,-1.754081081E0,2.472267097E0,3.231136827E0
7.535392250E0,-1.252427984E0,-1.869374725E0,2.581832516E0,3.424762307E0
7.545330250E0,-1.501337523E0,-1.833293896E0,2.665057983E0,3.566162492E0
7.555269250E0,-1.723412434E0,-1.780283039E0,2.626683877E0,3.610959194E0
7.565207250E0,-1.775414647E0,-1.933872437E0,2.465970815E0,3.601801193E0
7.575145250E0,-1.639589674E0,-2.422540621E0,2.240054283E0,3.684399619E0
7.585083250E0,-1.625538231E0,-3.059198910E0,1.901860832E0,3.951980153E0
7.595021250E0,-1.874123833E0,-3.613148333E0,1.469149332E0,4.327306412E0
7.604960250E0,-2.382296575E0,-4.039115070E0,1.026565247E0,4.800377457E0
7.614898250E0,-2.921603401E0,-4.382541341E0,5.645426778E-1,5.297276987E0
7.624836250E0,-3.401163962E0,-4.596331333E0,1.239422607E-1,5.719225446E0
7.634774250E0,-3.884579592E0,-4.559709052E0,-2.768142056E-1,5.996459902E0
7.644712250E0,-3.981300141E0,-4.222224721E0,-6.340030682E-1,5.837798583E0
7.654650250E0,-3.388124671E0,-3.718349683E0,-9.682708454E-1,5.122798218E0
7.664589250E0,-2.384892738E0,-2.999735066E0,-1.374647655E0,4.071336392E0
7.674527250E0,-1.198897310E0,-2.147727917E0,-2.103620031E0,3.236557925E0
7.684465250E0,1.643973917E-1,-1.401180566E0,-3.050804647E0,3.361211460E0
7.694403250E0,1.228303542E0,-1.000060987E0,-3.926733924E0,4.234157635E0
7.704341250E0,1.798667269E0,-9.221509320E-1,-4.865573394E0,5.268716233E0
7.714280250E0,2.160701720E0,-6.769707477E-1,-5.720761428E0,6.152563094E0
7.724218250E0,2.226391094E0,-1.478257978E-1,-6.345998935E0,6.726839693E0
7.734156250E0,1.901749588E0,3.138820446E-1,-6.714665297E0,6.985835919E0
7.744094250E0,1.415854738E0,7.927099496E-1,-6.895932491E0,7.084272625E0
7.754032250E0,1.046452212E0,1.095289326E0,-6.523197051E0,6.696776890E0
7.763971250E0,9.242027199E-1,1.370938767E0,-5.856146105E0,6.085069512E0
7.773909250E0,9.808131230E-1,1.481044176E0,-4.829270371E0,5.145613525E0
7.783847250E0,1.123633704E0,1.464594204E0,-3.659228486E0,4.098480450E0
7.793785250E0,1.100526677E0,1.371269719E0,-2.244608095E0,2.851281310E0
7.803723250E0,6.529813761E-1,1.317143798E0,-6.262297797E-1,1.597941238E0
7.813661250E0,2.502275008E-1,8.384322524E-1,-2.188612819E-2,8.752493625E-1
7.823600250E0,-2.307083255E-1,4.604951298E-1,6.772245169E-1,8.508320294E-1
7.833538250E0,-1.143366888E0,3.359681475E-1,1.792716558E0,2.152671618E0
7.843476250E0,-1.935728343E0,3.718694669E-1,2.552336529E0,3.224864785E0
7.853414250E0,-2.140841652E0,4.301966125E-1,2.654444118E0,3.437200267E0
7.863352250E0,-2.718921949E0,5.306079233E-1,3.017144566E0,4.096003255E0
7.873291250E0,-3.196636544E0,6.912601733E-1,3.452793707E0,4.755850103E0
7.883229250E0,-3.312252955E0,8.961407626E-1,3.642565091E0,5.004235041E0
7.893167250E0,-3.415066302E0,1.163946163E0,3.701309435E0,5.168862549E0
7.903105250E0,-3.379362618E0,1.439549995E0,3.591884934E0,5.137512362E0
7.913043250E0,-3.157288291E0,1.601214398E0,3.428876256E0,4.928442886E0
7.922982250E0,-2.871520829E0,1.669482395E0,3.248869722E0,4.646284301E0
7.932920250E0,-2.573225123E0,1.687599993E0,3.020342993E0,4.311838710E0
7.942858250E0,-2.250382220E0,1.611071050E0,2.728876834E0,3.886713115E0
7.952796250E0,-1.947894060E0,1.350940120E0,2.460887246E0,3.416913302E0
7.962734250E0,-1.631907603E0,9.448252648E-1,2.125281626E0,2.841239024E0
7.972672250E0,-1.355243086E0,5.293373233E-1,1.774301629E0,2.294564903E0
7.982611250E0,-5.730937922E-1,3.247625434E-1,1.661164877E0,1.787001945E0
7.992549250E0,-4.582334268E-1,2.770668054E-1,1.668596542E0,1.752414993E0
8.002487250E0,-5.446734005E-1,2.164750332E-1,1.707161268E0,1.804973725E0
8.012425375E0,-3.873476315E-1,5.681388617E-2,1.687626890E0,1.732440627E0
8.022363375E0,-1.325288969E-1,5.360025644E-2,1.521662006E0,1.528362574E0
8.032302375E0,4.456239063E-1,2.640590894E-1,1.258675150E0,1.361091841E0
8.042240375E0,1.065419995E0,4.477020067E-1,1.007127713E0,1.532926313E0
8.052178375E0,1.646237374E0,4.718697184E-1,7.614339240E-1,1.874177191E0
8.062116375E0,2.073348995E0,2.429202354E-1,5.584500253E-1,2.160937928E0
8.072054375E0,2.193805146E0,-8.216858268E-2,3.678156654E-1,2.225942735E0
8.081993375E0,2.086934709E0,-3.634874833E-1,7.348561361E-2,2.119627270E0
8.091931375E0,1.882985289E0,-7.048806775E-1,-2.275081444E-1,2.023425393E0
8.101869375E0,1.574839070E0,-9.882437646E-1,-4.236283620E-1,1.906883537E0
8.111807375E0,1.250830818E0,-1.137154806E0,-5.066974159E-1,1.764777906E0
8.121745375E0,1.050682965E0,-1.225506819E0,-5.702204704E-1,1.712002640E0
8.131683375E0,9.001013741E-1,-1.435057579E0,-5.305809895E-1,1.775130679E0
8.141622375E0,7.869694456E-1,-1.779404202E0,-5.162962051E-1,2.012998260E0
8.151560375E0,7.244495541E-1,-2.506489096E0,-5.571706180E-1,2.667911888E0
8.161498375E0,6.252322447E-1,-3.455199836E0,-7.074066746E-1,3.581863407E0
8.171436375E0,5.970486653E-1,-4.154022213E0,-9.798869240E-1,4.309587688E0
8.181374375E0,6.506758189E-1,-4.523821766E0,-1.072986292E0,4.694639706E0
8.191313375E0,7.937785283E-1,-4.141905028E0,-1.115220730E0,4.362244708E0
8.201251375E0,8.814139652E-1,-3.345375677E0,-1.288113542E0,3.691566808E0
8.211189375E0,9.245319182E-1,-2.653084640E0,-1.224111089E0,3.064647668E0
8.221127375E0,1.094279512E0,-1.618556655E0,-1.192132666E0,2.288744981E0
8.231065375E0,1.467151192E0,-3.835323232E-1,-1.267869312E0,1.976644190E0
8.241004375E0,2.030178125E0,6.828454453E-1,-1.364823748E0,2.539811998E0
8.250942375E0,2.716636273E0,1.388490354E0,-1.508248932E0,3.403356129E0
8.260880375E0,3.278433829E0,1.675730145E0,-1.831084818E0,4.112064141E0
8.270818375E0,3.577938740E0,1.639104940E0,-2.454000396E0,4.637933653E0
8.280756375E0,3.561780544E0,1.258167027E0,-3.309030554E0,5.021847082E0
8.290695375E0,3.250302582E0,6.201966226E-1,-4.069750972E0,5.245186717E0
8.300633375E0,2.703289126E0,3.481069672E-1,-4.379157557E0,5.158097660E0
8.310571375E0,2.253665432E0,4.504548758E-1,-4.525075409E0,5.075256144E0
8.320509375E0,2.143756489E0,5.609076101E-1,-4.585015216E0,5.092413354E0
8.330447375E0,2.343401481E0,8.709550506E-1,-4.571646727E0,5.210570698E0
8.340386375E0,2.758519878E0,1.247475393E0,-4.366209483E0,5.313135800E0
8.350324375E0,3.307423155E0,1.425094509E0,-3.909979897E0,5.315814620E0
8.360262375E0,3.800979611E0,1.505190253E0,-3.367088143E0,5.296255873E0
8.370200375E0,4.168400809E0,1.557580721E0,-2.673834654E0,5.191436676E0
8.380138375E0,4.257700656E0,1.520763143E0,-1.883623220E0,4.897833383E0
8.390076375E0,4.060737781E0,1.403704224E0,-1.024791786E0,4.417032384E0
8.400015375E0,3.715829533E0,1.288005368E0,-1.832774663E-1,3.936996009E0
8.409953375E0,3.138887396E0,1.104989857E0,5.833369446E-1,3.378446190E0
8.419891375E0,2.321188786E0,9.336412954E-1,1.323277527E0,2.830312149E0
8.429829375E0,1.615304726E0,7.247904468E-1,1.835438654E0,2.550169721E0
8.439767375E0,1.009482606E0,3.695697570E-1,2.360736136E0,2.593976107E0
8.449706375E0,3.777365631E-1,1.633653581E-1,2.735521610E0,2.766306496E0
8.459644375E0,1.050329500E-1,3.558440030E-2,2.634836065E0,2.637168796E0
8.469582375E0,-3.925042909E-1,1.003101540E-1,2.755472310E0,2.785094145E0
8.479520375E0,-7.031741676E-1,2.141186053E-1,2.970129736E0,3.059733867E0
8.489458375E0,-6.904398090E-1,2.408830655E-1,3.087421081E0,3.172837959E0
8.499397375E0,-8.057404697E-1,1.947292382E-1,3.233530136E0,3.338091419E0
8.509335375E0,-1.179354161E0,-2.368648589E-2,3.293537772E0,3.498403685E0
8.519273375E0,-1.847121976E0,-5.436290878E-1,3.139704545E0,3.683087944E0
8.529211375E0,-2.566627709E0,-1.019857906E0,2.777280085E0,3.916755368E0
8.539149375E0,-3.131848810E0,-1.312155538E0,2.266793747E0,4.082717602E0
8.549088375E0,-3.544224864E0,-1.387486972E0,1.921847784E0,4.263818580E0
8.559026375E0,-3.810711717E0,-1.459321770E0,1.710730262E0,4.424674208E0
8.568964375E0,-3.957316031E0,-1.536265866E0,1.545178192E0,4.517525720E0
8.578902375E0,-4.078840469E0,-1.561421172E0,1.401016113E0,4.586700534E0
8.588840375E0,-4.160990340E0,-1.547297223E0,1.231553278E0,4.607026458E0
8.598779375E0,-3.989497352E0,-1.545582234E0,1.001953146E0,4.394180660E0
8.608717375E0,-3.634960202E0,-1.509977953E0,8.514727128E-1,4.027154687E0
8.618655375E0,-3.331770961E0,-1.491034144E0,7.370006756E-1,3.723848889E0
8.628593375E0,-3.106609889E0,-1.493278890E0,7.705730490E-1,3.531952671E0
8.638531375E0,-2.903898032E0,-1.519475586E0,8.066409409E-1,3.375218429E0
8.648469375E0,-2.745258978E0,-1.627001204E0,8.699803197E-1,3.307634431E0
8.658408375E0,-2.589006758E0,-1.745785051E0,9.255031407E-1,3.256881561E0
8.668346375E0,-2.450832374E0,-1.840685946E0,9.238437740E-1,3.201279650E0
8.678284375E0,-2.260782663E0,-1.929434400E0,8.422820592E-1,3.089222300E0
8.688222375E0,-2.051542974E0,-2.053744451E0,6.992731977E-1,2.985913235E0
8.698160375E0,-1.797635236E0,-2.260252320E0,4.724282006E-1,2.926332414E0
8.708099375E0,-1.406332548E0,-2.637685413E0,1.746048760E-1,2.994268264E0
8.718037375E0,-9.825544238E-1,-3.191985084E0,-1.564456900E-1,3.343449899E0
8.727975375E0,-6.522112978E-1,-3.798334916E0,-4.294008064E-1,3.877771623E0
8.737913375E0,-5.775055164E-1,-4.244883267E0,-5.988565513E-1,4.325641656E0
8.747851375E0,-7.433758217E-1,-4.359902676E0,-5.774686790E-1,4.460361985E0
8.757790375E0,-9.401299506E-1,-4.426481997E0,-4.706598564E-1,4.549627226E0
8.767728375E0,-1.002923784E0,-4.517264113E0,-3.317464578E-1,4.639136439E0
8.777666375E0,-9.086073187E-1,-4.312311603E0,-1.120091899E-1,4.408417481E0
8.787604375E0,-4.702012154E-1,-3.791100740E0,1.906028763E-1,3.824900451E0
8.797542375E0,2.533350036E-1,-3.000147879E0,3.896993816E-1,3.035939974E0
8.807481375E0,1.182230991E0,-1.957698671E0,2.277630830E-1,2.298288543E0
8.817419375E0,2.218135411E0,-1.010401788E0,-2.204540634E-1,2.447373381E0
8.827357375E0,2.965952777E0,-5.975445092E-2,-6.312309033E-1,3.032968665E0
8.837295375E0,3.447796384E0,9.379343212E-1,-1.294839009E0,3.800477438E0
8.847233375E0,3.707287628E0,1.693784008E0,-2.234168476E0,4.648052775E0
8.857172375E0,3.620993543E0,2.213405013E0,-3.174572076E0,5.299873947E0
8.867110375E0,3.091555063E0,2.599193777E0,-3.964973545E0,5.659906025E0
8.877048375E0,2.841483682E0,2.868083251E0,-4.683102844E0,6.183153184E0
8.886986375E0,2.510396791E0,2.965161064E0,-5.132939669E0,6.437494996E0
8.896924375E0,1.789440363E0,2.932968634E0,-5.447328667E0,6.440325413E0
8.906862375E0,9.380012718E-1,2.753165583E0,-5.613418243E0,6.322201474E0
8.916801375E0,2.362181568E-1,2.499180077E0,-5.448814445E0,5.999273200E0
8.926739375E0,-3.065946597E-1,2.161430867E0,-4.880602493E0,5.346593717E0
8.936677375E0,-8.198954093E-1,1.785543779E0,-4.039294580E0,4.491803176E0
8.946615375E0,-1.191567825E0,1.312724472E0,-3.054740993E0,3.531928928E0
8.956553375E0,-1.466367373E0,7.946097100E-1,-2.091617451E0,2.675163813E0
8.966492375E0,-1.824751114E0,1.433614486E-1,-1.132932020E0,2.152627254E0
8.976430375E0,-2.321389638E0,-3.839334422E-1,-2.304025161E-1,2.364178516E0
8.986368375E0,-2.913855255E0,-6.231003499E-1,5.427911818E-1,3.028766871E0
8.996306375E0,-3.432674022E0,-7.146776873E-1,1.167852103E0,3.695658761E0
9.006244375E0,-3.876418049E0,-6.949409956E-1,1.911758852E0,4.377714219E0
9.016183708E0,-4.138917101E0,-5.387127489E-1,2.747572721E0,4.996999305E0
9.026121708E0,-3.563813621E0,-5.088258755E-1,2.585562748E0,4.432246159E0
9.036059708E0,-3.507117848E0,-1.174477583E-1,2.814626251E0,4.498420891E0
9.045997708E0,-3.374722853E0,2.169042188E-1,2.999871891E0,4.520512486E0
9.055935708E0,-2.890675723E0,2.882987219E-1,3.030686717E0,4.198116752E0
9.065874708E0,-2.476919727E0,3.393150938E-1,3.128130566E0,4.004430909E0
9.075812708E0,-2.237324803E0,4.079912263E-1,3.157684733E0,3.891407456E0
9.085750708E0,-2.064444271E0,4.946949095E-1,3.079541373E0,3.740351356E0
9.095688708E0,-1.872379024E0,5.148309660E-1,2.781269056E0,3.392095472E0
9.105626708E0,-1.715771878E0,4.091694403E-1,2.447004787E0,3.016475625E0
9.115564708E0,-1.587068229E0,4.112720990E-1,2.107794943E0,2.670342642E0
9.125503708E0,-1.553811606E0,5.943951988E-1,1.801176310E0,2.451911959E0
9.135441708E0,-1.443037859E0,7.657829368E-1,1.548016430E0,2.250585843E0
9.145379708E0,-1.185491983E0,8.163239300E-1,1.356628876E0,1.977932736E0
9.155317708E0,-8.204774997E-1,8.896263796E-1,1.199008992E0,1.703596485E0
9.165255708E0,-4.286786753E-1,1.012016789E0,9.048525292E-1,1.423622664E0
9.175194708E0,-2.229543328E-3,1.024952000E0,5.560146600E-1,1.166054834E0
9.185132708E0,4.881431043E-1,1.157157546E0,1.894918871E-1,1.270119857E0
9.195070708E0,8.859917504E-1,1.260202442E0,-1.426089485E-1,1.547071068E0
9.205008708E0,1.392996218E0,1.143898984E0,-4.160141909E-1,1.849867876E0
9.214946708E0,1.967636307E0,9.221105862E-1,-7.006730211E-1,2.283160803E0
9.224885708E0,2.370870823E0,5.434197575E-1,-9.800255030E-1,2.622362194E0
9.234823708E0,2.688663485E0,-5.648410320E-3,-1.251456762E0,2.965651239E0
9.244761708E0,2.872682379E0,-6.300784171E-1,-1.427345102E0,3.269039140E0
9.254699708E0,3.040857949E0,-1.147386848E0,-1.544715092E0,3.598535585E0
9.264637708E0,3.330126724E0,-1.485333694E0,-1.599295927E0,3.981671463E0
9.274576708E0,3.833151577E0,-1.682311771E0,-1.540358917E0,4.460485343E0
9.284514708E0,4.603520192E0,-1.833622509E0,-1.440056364E0,5.160264722E0
9.294452708E0,5.542707279E0,-1.985608601E0,-1.290030259E0,6.027306494E0
9.304390708E0,6.401022404E0,-2.177254018E0,-1.106481043E0,6.851118388E0
9.314328708E0,7.021366376E0,-2.399825943E0,-8.801989869E-1,7.472181783E0
9.324266708E0,7.344554265E0,-2.430703334E0,-7.175814146E-1,7.769537897E0
9.334205708E0,7.322200359E0,-2.134010934E0,-7.055876058E-1,7.659404326E0
9.344143708E0,7.163689944E0,-1.572767694E0,-8.511106239E-1,7.383524980E0
9.354081708E0,6.901151716E0,-7.181930333E-1,-1.221013234E0,7.045038648E0
9.364019708E0,6.457122930E0,2.200541139E-1,-1.804881105E0,6.708237932E0
9.373957708E0,6.017916927E0,1.054150656E0,-2.444523375E0,6.580444687E0
9.383896708E0,5.660515226E0,1.540539011E0,-3.040231127E0,6.607397247E0
9.393834708E0,5.282240134E0,1.348600649E0,-3.504561446E0,6.480951741E0
9.403772708E0,4.893587404E0,6.942615491E-1,-3.907455069E0,6.300587425E0
9.413710708E0,4.318005622E0,1.149562597E-3,-4.232921033E0,6.046717650E0
9.423648708E0,3.557515877E0,-5.998360330E-1,-4.304305596E0,5.616294966E0
9.433587708E0,2.593780717E0,-1.146171797E0,-4.156930618E0,5.032045346E0
9.443525708E0,1.800593927E0,-1.463517732E0,-3.854449475E0,4.498978039E0
9.453463708E0,1.242445910E0,-1.527470484E0,-3.365674871E0,3.899308305E0
9.463401708E0,9.763195378E-1,-1.382208105E0,-2.746272885E0,3.225788872E0
9.473339708E0,1.046870872E0,-1.087686777E0,-2.044308653E0,2.541298687E0
9.483278708E0,1.382685238E0,-7.864399803E-1,-1.369700911E0,2.099139561E0
9.493216708E0,1.790665355E0,-5.224715227E-1,-6.948491943E-1,1.990546233E0
9.503154708E0,2.133096722E0,-2.853739446E-1,1.642241679E-2,2.152163937E0
9.513092708E0,2.257971614E0,-3.850742340E-2,7.946132183E-1,2.394019381E0
9.523030708E0,2.308749127E0,3.934591413E-2,1.166469821E0,2.586991008E0
9.532968708E0,2.083938888E0,8.791814983E-2,1.473092548E0,2.553533345E0
9.542907708E0,1.593996010E0,1.236124778E-1,1.768684502E0,2.384187114E0
9.552845708E0,1.073148844E0,5.074213743E-2,1.864033878E0,2.151475193E0
9.562783708E0,5.669495380E-1,-1.333703113E-1,1.867348080E0,1.956069597E0
9.572721708E0,-1.772408009E-2,-3.310067850E-1,1.875065235E0,1.904140034E0
9.582659708E0,-6.572907740E-1,-4.675287455E-1,1.860090516E0,2.027449387E0
9.592598708E0,-1.245405478E0,-6.902871966E-1,1.823907945E0,2.313908255E0
9.602536708E0,-1.679996858E0,-1.043865404E0,1.801997112E0,2.675675245E0
9.612474708E0,-2.127102449E0,-1.378804441E0,1.790581155E0,3.103521772E0
9.622412708E0,-2.595137563E0,-1.663845094E0,1.771159189E0,3.555295254E0
9.632350708E0,-3.004294140E0,-1.926111428E0,1.820825439E0,4.006381633E0
9.642289708E0,-3.357073032E0,-2.198802761E0,1.956752007E0,4.464700588E0
9.652227708E0,-3.724188713E0,-2.484356800E0,2.139452207E0,4.961740222E0
9.662165708E0,-4.136515650E0,-2.686567551E0,2.440226694E0,5.503009472E0
9.672103708E0,-4.531236620E0,-2.836688381E0,2.726574200E0,6.001092663E0
9.682041708E0,-4.909535685E0,-2.958996930E0,2.952979560E0,6.448200660E0
9.691979708E0,-5.261981871E0,-3.052534254E0,3.098837185E0,6.827093853E0
9.701918708E0,-5.561375685E0,-3.142784858E0,3.101263779E0,7.100974102E0
9.711856708E0,-5.833907390E0,-3.206275095E0,3.079857123E0,7.334861642E0
9.721794708E0,-6.105318183E0,-3.221637484E0,3.015465245E0,7.533053089E0
9.731732708E0,-6.200678669E0,-3.236459007E0,2.958351982E0,7.594401182E0
9.741670708E0,-6.098431917E0,-3.378424725E0,2.857716722E0,7.534664580E0
9.751609708E0,-5.975506487E0,-3.501258938E0,2.757891887E0,7.454626724E0
9.761547708E0,-6.029066398E0,-3.423470505E0,2.688307682E0,7.436181152E0
9.771485708E0,-6.145920664E0,-3.230565013E0,2.661210515E0,7.435787283E0
9.781423708E0,-6.152249106E0,-3.052289255E0,2.658403852E0,7.364356713E0
9.791361708E0,-6.022808708E0,-2.900943434E0,2.623571988E0,7.181422388E0
9.801300708E0,-5.840283194E0,-2.852740157E0,2.567693657E0,6.988568158E0
9.811238708E0,-5.644347675E0,-2.821325406E0,2.455973246E0,6.771288083E0
9.821176708E0,-5.388595140E0,-2.778246045E0,2.214953210E0,6.454581814E0
9.831114708E0,-5.080167378E0,-2.786202351E0,1.817438440E0,6.072405340E0
9.841052708E0,-4.780333854E0,-2.922861722E0,1.412478995E0,5.778391585E0
9.850991708E0,-4.414102272E0,-3.279898556E0,1.028449366E0,5.594617191E0
9.860929708E0,-4.072145991E0,-3.867178863E0,7.523170915E-1,5.665988558E0
9.870867708E0,-3.773742696E0,-4.561695351E0,6.947473066E-1,5.960945582E0
9.880805708E0,-3.645851811E0,-4.894510680E0,6.788053116E-1,6.140785526E0
9.890743708E0,-3.582133532E0,-5.089118881E0,8.630535619E-1,6.282966901E0
9.900681708E0,-3.158078250E0,-5.384682183E0,1.097600584E0,6.338216428E0
9.910620708E0,-2.466054431E0,-5.822732776E0,1.245265291E0,6.444868275E0
9.920558708E0,-1.702348425E0,-5.923496674E0,1.240862192E0,6.286934228E0
9.930496708E0,-7.560139936E-1,-5.719231212E0,1.084825734E0,5.870094521E0
9.940434708E0,4.626264399E-1,-5.032783297E0,6.587870765E-1,5.096756944E0
9.950372708E0,2.020400704E0,-4.181604114E0,-1.916401176E-1,4.648070342E0
9.960311708E0,3.518587162E0,-3.359068687E0,-1.153766745E0,4.999497551E0
9.970249708E0,4.295275156E0,-2.001176228E0,-2.097825440E0,5.182177779E0
9.980187708E0,4.853004220E0,-4.823853511E-1,-3.112295136E0,5.785389062E0
9.990125708E0,5.485715053E0,9.900967473E-1,-4.090216227E0,6.913987995E0
1.000006371E1,5.824434316E0,2.101185835E0,-4.798428648E0,7.833513547E0
1.001000271E1,5.861861758E0,2.809971283E0,-5.167469816E0,8.304222190E0
1.001994021E1,5.579778042E0,3.063220625E0,-5.359115233E0,8.320898970E0
1.002987821E1,4.765062388E0,2.945958808E0,-5.129890931E0,7.596069630E0
1.003981621E1,3.728769714E0,2.585234134E0,-4.737442188E0,6.559765056E0
1.004975421E1,2.695149509E0,2.005177478E0,-4.217494909E0,5.391830014E0
1.005969221E1,1.703613178E0,1.379068151E0,-3.427289906E0,4.068223559E0
1.006963121E1,8.155371872E-1,8.147516137E-1,-2.587439704E0,2.832625164E0
1.007956921E1,7.819510728E-2,3.169220120E-1,-1.803630386E0,1.832931151E0
1.008950721E1,-6.838812795E-1,-9.553414822E-2,-1.091833037E0,1.291866773E0
1.009944521E1,-1.370193539E0,-3.063338739E-1,-5.185334229E-1,1.496712293E0
1.010938321E1,-1.966197599E0,-2.433412349E-1,-5.947729290E-2,1.982091195E0
1.011932221E1,-2.493503600E0,1.086535460E-1,6.887856317E-1,2.589168098E0
1.012926021E1,-2.054744325E0,2.665365547E-1,4.250054544E-1,2.115099433E0
1.013919821E1,-1.705745072E0,6.053815323E-1,2.709435829E-1,1.830153949E0
1.014913621E1,-1.551274499E0,1.078944604E0,3.980445278E-1,1.931065373E0
1.015907421E1,-1.165894455E0,1.398104346E0,5.233947980E-1,1.894187889E0
1.016901321E1,-8.142677566E-1,1.665636681E0,7.367345542E-1,1.995032666E0
1.017895121E1,-5.508392894E-1,1.801652858E0,1.011151401E0,2.138177752E0
1.018888921E1,-3.085602012E-1,1.795710332E0,1.278163335E0,2.225642942E0
1.019882721E1,-1.273041174E-1,1.677890106E0,1.473436949E0,2.236635417E0
1.020876521E1,4.328869164E-2,1.447713293E0,1.597901366E0,2.156626176E0
1.021870421E1,2.636696649E-1,1.112951426E0,1.726210327E0,2.070744953E0
1.022864221E1,4.811749774E-1,7.211002690E-1,1.835417604E0,2.029845496E0
1.023858021E1,5.912716162E-1,4.039689267E-1,1.961756054E0,2.088367744E0
1.024851821E1,5.395831069E-1,2.727445436E-1,2.038187349E0,2.125969704E0
1.025845621E1,4.352763811E-1,3.047557104E-1,2.032167056E0,2.100486732E0
1.026839421E1,3.260957086E-1,5.334555173E-1,1.965332211E0,2.062387912E0
1.027833321E1,2.936170569E-1,9.286255538E-1,1.902896812E0,2.137655883E0
1.028827121E1,3.041408756E-1,1.323595031E0,1.795670571E0,2.251408066E0
1.029820921E1,5.186731714E-1,1.622764896E0,1.693063631E0,2.401843506E0
1.030814721E1,8.275608167E-1,1.649022987E0,1.526547793E0,2.394677825E0
1.031808521E1,1.182578023E0,1.440056949E0,1.302704684E0,2.273608209E0
1.032802421E1,1.571377226E0,9.732860023E-1,1.019422288E0,2.110860922E0
1.033796221E1,2.010212223E0,4.194640481E-1,6.611774182E-1,2.157326782E0
1.034790021E1,2.438850845E0,-1.963775682E-1,2.753360295E-1,2.462187548E0
1.035783821E1,2.821693196E0,-7.835859543E-1,-8.714924097E-2,2.929770372E0
1.036777621E1,3.121111276E0,-1.273261029E0,-3.911699563E-1,3.393455934E0
1.037771521E1,3.300520517E0,-1.569113184E0,-6.546612811E-1,3.712698918E0
1.038765321E1,3.423980674E0,-1.678916878E0,-8.717192817E-1,3.911815441E0
1.039759121E1,3.677195225E0,-1.585930946E0,-9.610863715E-1,4.118328387E0
1.040752921E1,4.002254223E0,-1.447140266E0,-8.918383813E-1,4.348290412E0
1.041746721E1,4.380170295E0,-1.338175648E0,-7.364533031E-1,4.638854314E0
1.042740521E1,4.782213441E0,-1.246763202E0,-4.565477111E-1,4.963105852E0
1.043734421E1,5.070653374E0,-1.132149589E0,-2.014161505E-1,5.199409273E0
1.044728221E1,5.189906752E0,-9.149395609E-1,-1.801246476E-1,5.273015398E0
1.045722021E1,5.239074234E0,-6.928921312E-1,-4.682853752E-1,5.305401920E0
1.046715821E1,5.211454911E0,-4.497485322E-1,-9.878929317E-1,5.323294889E0
1.047709621E1,4.970548457E0,-1.481625974E-1,-1.498878769E0,5.193740625E0
1.048703521E1,4.599378902E0,1.648792022E-1,-1.976641896E0,5.008850628E0
1.049697321E1,4.328114581E0,3.107093453E-1,-2.404812448E0,4.961072367E0
1.050691121E1,4.007935085E0,3.528490591E-1,-2.731253727E0,4.862899652E0
1.051684921E1,3.625925377E0,2.751424867E-1,-3.008417011E0,4.719492678E0
1.052678721E1,3.397806491E0,2.072136283E-2,-3.220450500E0,4.681540317E0
1.053672621E1,3.231174001E0,-2.900803685E-1,-3.380988144E0,4.685692358E0
1.054666421E1,3.008993547E0,-6.342001194E-1,-3.515153092E0,4.670391120E0
1.055660221E1,2.786361688E0,-1.007396320E0,-3.499787194E0,4.585539140E0
1.056654021E1,2.498893856E0,-1.191050346E0,-3.242412642E0,4.263368524E0
1.057647821E1,2.277327652E0,-1.232577857E0,-2.906186632E0,3.892478663E0
1.058641721E1,2.247384645E0,-1.134517127E0,-2.531180134E0,3.569977552E0
1.059635521E1,2.406664846E0,-9.644473511E-1,-2.197757279E0,3.398872082E0
1.060629321E1,2.708291711E0,-8.241170990E-1,-1.841755986E0,3.377288572E0
1.061623121E1,2.913673407E0,-7.378753459E-1,-1.482806527E0,3.351517260E0
1.062616921E1,2.973246886E0,-6.881330824E-1,-1.083367438E0,3.238426963E0
1.063610821E1,2.853027256E0,-6.296772981E-1,-6.593916786E-1,2.995172016E0
1.064604621E1,2.563440392E0,-5.688007665E-1,-2.309024348E-1,2.635920501E0
1.065598421E1,2.181456411E0,-4.761153817E-1,1.616421837E-1,2.238652748E0
1.066592221E1,1.703844727E0,-2.736227953E-1,4.625790775E-1,1.786598917E0
1.067586021E1,1.142619029E0,-9.643169582E-2,6.417962372E-1,1.314069909E0
1.068579821E1,7.740994316E-1,1.519398987E-2,7.810710669E-1,1.099787615E0
1.069573721E1,4.595607448E-1,6.279383361E-2,8.180874503E-1,9.404287426E-1
1.070567521E1,1.119314951E-1,2.227713150E-1,7.852775538E-1,8.239032436E-1
1.071561321E1,-3.877043116E-1,3.591032410E-1,8.215619389E-1,9.768489087E-1
1.072555121E1,-8.943883520E-1,3.033354217E-1,8.424878812E-1,1.265594221E0
1.073548921E1,-1.317479428E0,1.151246595E-1,8.952075469E-1,1.596997897E0
1.074542821E1,-1.779153941E0,-6.758562684E-2,9.794320837E-1,2.032054077E0
1.075536621E1,-2.168451619E0,-2.917655361E-1,1.090140853E0,2.444527895E0
1.076530421E1,-2.583651293E0,-6.638180208E-1,1.220092882E0,2.933348770E0
1.077524221E1,-3.082146308E0,-1.113896336E0,1.283882350E0,3.519764878E0
1.078518021E1,-3.596094929E0,-1.576659601E0,1.289748423E0,4.132941474E0
1.079511921E1,-4.113637249E0,-1.977314910E0,1.298445572E0,4.745286775E0
1.080505721E1,-4.614384027E0,-2.337477082E0,1.301419758E0,5.333857182E0
1.081499521E1,-4.978708831E0,-2.561263474E0,1.341083468E0,5.757266459E0
1.082493321E1,-5.255174543E0,-2.773317427E0,1.400614117E0,6.104905317E0
1.083487121E1,-5.433808150E0,-2.898537304E0,1.500849280E0,6.338796264E0
1.084480921E1,-5.452768332E0,-2.976563135E0,1.619582841E0,6.419942302E0
1.085474821E1,-5.384378128E0,-3.082350376E0,1.728381837E0,6.440474784E0
1.086468621E1,-5.311324770E0,-3.132651048E0,1.799893577E0,6.423650854E0
1.087462421E1,-5.131498330E0,-3.082721674E0,1.774784463E0,6.243821580E0
1.088456221E1,-4.925024959E0,-3.025512516E0,1.785423911E0,6.049573156E0
1.089450021E1,-4.725747757E0,-2.933884308E0,1.818048889E0,5.851980071E0
1.090443921E1,-4.590907456E0,-2.933910035E0,1.784735255E0,5.733196255E0
1.091437721E1,-4.464628063E0,-3.009573006E0,1.747101405E0,5.660635719E0
1.092431521E1,-4.345806209E0,-3.252299699E0,1.710080198E0,5.691033229E0
1.093425321E1,-4.402176876E0,-3.480155752E0,1.768434095E0,5.883706694E0
1.094419121E1,-4.813802147E0,-3.527389560E0,1.847914128E0,6.247395845E0
1.095413021E1,-5.182217664E0,-3.492683997E0,1.858117665E0,6.519725659E0
1.096406821E1,-5.129016187E0,-3.464610929E0,1.835823255E0,6.456050106E0
1.097400621E1,-4.801148772E0,-3.531883146E0,1.760726295E0,6.214932435E0
1.098394421E1,-4.372801049E0,-3.730414828E0,1.580368051E0,5.961119608E0
1.099388221E1,-4.009204223E0,-4.063198582E0,1.284128079E0,5.850836363E0
1.100382121E1,-3.973139182E0,-4.339505834E0,1.051979731E0,5.976939618E0
1.101375858E1,-4.214076626E0,-4.350144843E0,9.134674513E-1,6.125081612E0
1.102369658E1,-4.125827524E0,-4.418902252E0,8.513839082E-1,6.105244010E0
1.103363458E1,-3.544955181E0,-4.700909370E0,8.235931885E-1,5.945045153E0
1.104357258E1,-2.658159438E0,-4.942915100E0,7.189082209E-1,5.658184366E0
1.105351158E1,-1.517553021E0,-5.203074682E0,5.109214445E-1,5.443895116E0
1.106344958E1,-3.907331693E-1,-5.262540865E0,1.480129087E-1,5.279101873E0
1.107338758E1,7.787736958E-1,-5.070936379E0,-4.155698025E-1,5.147191709E0
1.108332558E1,1.863018216E0,-4.399038675E0,-1.212351168E0,4.928709111E0
1.109326358E1,2.838173574E0,-3.352150261E0,-2.243277268E0,4.931980689E0
1.110320158E1,3.601719366E0,-2.371425431E0,-3.119585445E0,5.322391785E0
1.111314058E1,3.805001034E0,-9.254604560E-1,-3.530884441E0,5.272727459E0
1.112307858E1,4.219446124E0,6.428013736E-1,-3.962238802E0,5.823766438E0
1.113301658E1,4.780197906E0,2.046220838E0,-4.300018417E0,6.747404696E0
1.114295458E1,5.168550382E0,2.967091815E0,-4.422917535E0,7.421573041E0
1.115289258E1,5.340575466E0,3.417718014E0,-4.489077610E0,7.768806892E0
1.116283158E1,5.026971164E0,3.501501013E0,-4.366999442E0,7.523405649E0
1.117276958E1,4.336602107E0,3.423344790E0,-4.129874967E0,6.897918137E0
1.118270758E1,3.509867209E0,3.146361600E0,-3.957085066E0,6.154452158E0
1.119264558E1,2.661595847E0,2.671408644E0,-3.591936974E0,5.207929322E0
1.120258358E1,1.771403165E0,2.174323393E0,-3.105747424E0,4.184640779E0
1.121252258E1,7.969696462E-1,1.647198656E0,-2.561520166E0,3.147985005E0
1.122246058E1,-1.534806401E-1,1.135698264E0,-1.920954768E0,2.236835728E0
1.123239858E1,-1.012623730E0,8.634951729E-1,-1.443597438E0,1.963416485E0
1.124233658E1,-1.634934706E0,7.216808975E-1,-9.788689238E-1,2.037650407E0
1.125227458E1,-2.000090985E0,6.402660209E-1,-4.998562467E-1,2.158740557E0
1.126221358E1,-2.213226965E0,7.034913790E-1,-9.075638831E-2,2.324114981E0
1.127215158E1,-2.346893438E0,9.005314368E-1,3.286252141E-1,2.535125285E0
1.128208958E1,-2.401759617E0,1.083299611E0,7.274743187E-1,2.733350725E0
1.129202758E1,-2.334109671E0,1.295193935E0,1.070532800E0,2.876045159E0
1.130196558E1,-2.257293629E0,1.487670241E0,1.381566081E0,3.035994419E0
1.131190358E1,-2.236419654E0,1.628272389E0,1.815420127E0,3.308865981E0
1.132184258E1,-2.306664010E0,1.683932619E0,2.058858426E0,3.520685436E0
1.133178058E1,-2.193212239E0,1.500844018E0,1.921147141E0,3.279255865E0
1.134171858E1,-2.355697006E0,1.288309423E0,1.932196040E0,3.307934566E0
1.135165658E1,-2.484915209E0,9.611366576E-1,1.829709553E0,3.232092870E0
1.136159458E1,-2.443258476E0,6.392392498E-1,1.666279875E0,3.025661485E0
1.137153358E1,-2.370209211E0,3.513667899E-1,1.491886668E0,2.822600955E0
1.138147158E1,-2.070942866E0,3.161297143E-2,1.399597725E0,2.499735491E0
1.139140958E1,-1.699006156E0,-2.061722392E-1,1.408846850E0,2.216749503E0
1.140134758E1,-1.353538038E0,-3.850251174E-1,1.395042744E0,1.981528152E0
1.141128558E1,-9.178514743E-1,-5.591873592E-1,1.358584185E0,1.732308523E0
1.142122458E1,-4.548607528E-1,-6.041085935E-1,1.290314434E0,1.495579097E0
1.143116258E1,1.928996444E-3,-4.037742144E-1,1.155639024E0,1.224148231E0
1.144110058E1,4.757882300E-1,-2.048074991E-1,1.026601499E0,1.149883120E0
1.145103858E1,9.733278099E-1,-1.209063864E-1,9.592813361E-1,1.371935152E0
1.146097658E1,1.330839146E0,-1.356062865E-1,8.455576694E-1,1.582557952E0
1.147091558E1,1.658450161E0,-2.654922420E-1,6.394526732E-1,1.797176337E0
1.148085358E1,1.895712630E0,-5.581179035E-1,3.233545339E-1,2.002443539E0
1.149079158E1,2.049030133E0,-8.986907333E-1,-3.916757405E-2,2.237789896E0
1.150072958E1,2.016866646E0,-1.316455581E0,-5.097327787E-1,2.461835468E0
1.151066758E1,1.881683698E0,-1.907120256E0,-1.040365845E0,2.874056767E0
1.152060558E1,1.714628747E0,-2.483311318E0,-1.526958852E0,3.382068920E0
1.153054458E1,1.558216313E0,-2.856523306E0,-2.010296715E0,3.824794943E0
1.154048258E1,1.511153244E0,-3.083068414E0,-2.444782991E0,4.214956565E0
1.155042058E1,1.750719516E0,-3.400178121E0,-2.778842461E0,4.727387810E0
1.156035858E1,2.084199089E0,-3.630374231E0,-2.945202763E0,5.118371051E0
1.157029658E1,2.255448248E0,-3.476715251E0,-2.989772580E0,5.110120919E0
1.158023558E1,2.341866294E0,-3.044271553E0,-3.040608273E0,4.898696326E0
1.159017358E1,2.444177950E0,-2.400124151E0,-3.277265555E0,4.740788047E0
1.160011158E1,2.668406099E0,-1.593076243E0,-3.677115119E0,4.814505024E0
1.161004958E1,2.869439805E0,-6.278979903E-1,-4.049363485E0,5.002527892E0
1.161998758E1,2.922805004E0,4.043273610E-1,-4.298596959E0,5.213847478E0
1.162992658E1,2.855552668E0,1.434949406E0,-4.476762205E0,5.500423681E0
1.163986458E1,2.845114803E0,2.256079162E0,-4.639112486E0,5.891174424E0
1.164980258E1,2.959079668E0,2.645679141E0,-4.808165431E0,6.234919840E0
1.165974058E1,3.051552506E0,2.566007904E0,-4.905665413E0,6.321544306E0
1.166967858E1,2.975781947E0,2.264354727E0,-4.976271712E0,6.224617311E0
1.167961758E1,2.733185062E0,1.704700760E0,-4.939040735E0,5.896645542E0
1.168955558E1,2.329340681E0,1.087050015E0,-4.823704991E0,5.465860919E0
1.169949358E1,1.879521690E0,4.429903203E-1,-4.581171257E0,4.971516096E0
1.170943158E1,1.384005539E0,-2.165978247E-1,-4.189795479E0,4.417779092E0
1.171936958E1,9.129459527E-1,-8.115058243E-1,-3.605500760E0,3.806789690E0
1.172930858E1,6.158319685E-1,-1.289133881E0,-2.952707080E0,3.280182049E0
1.173924658E1,4.920569381E-1,-1.643189805E0,-2.186801351E0,2.779261218E0
1.174918458E1,5.216850722E-1,-1.883437278E0,-1.321134523E0,2.359001425E0
1.175912258E1,5.402020347E-1,-1.967923697E0,-4.048863548E-1,2.080498709E0
1.176906058E1,4.676041746E-1,-1.953990952E0,7.955078423E-1,2.160918099E0
1.177899858E1,4.762948912E-1,-1.706434459E0,1.816835153E0,2.537649574E0
1.178893758E1,7.085185227E-1,-1.401323823E0,2.296849458E0,2.782305588E0
1.179887558E1,4.478797621E-1,-8.627350348E-1,3.053962144E0,3.204932573E0
1.180881358E1,2.766425899E-1,-4.679158312E-1,3.667097669E0,3.707166257E0
1.181875158E1,7.805331230E-2,-8.721356034E-2,4.094992232E0,4.096664486E0
1.182868958E1,-2.047741699E-1,2.428027064E-1,4.425416050E0,4.436799841E0
1.183862858E1,-4.545894420E-1,4.854469532E-1,4.498602432E0,4.547497570E0
1.184856658E1,-7.221942830E-1,6.310221577E-1,4.323130707E0,4.428229065E0
1.185850458E1,-1.063419662E0,5.835755110E-1,3.936761899E0,4.119407239E0
1.186844258E1,-1.457802663E0,4.514319456E-1,3.354955755E0,3.685743823E0
1.187838058E1,-1.833031356E0,2.983933550E-1,2.737398566E0,3.307928877E0
1.188831958E1,-2.142772987E0,7.656753480E-2,2.153210121E0,3.038692562E0
1.189825758E1,-2.437792498E0,-1.163677776E-1,1.698678274E0,2.973530158E0
1.190819558E1,-2.675077187E0,-2.612869245E-1,1.321067280E0,2.994916956E0
1.191813358E1,-2.907278307E0,-4.042162639E-1,9.826887636E-1,3.095373184E0
1.192807158E1,-3.181641945E0,-5.094146901E-1,6.644284701E-1,3.289956532E0
1.193801058E1,-3.416590671E0,-5.648088723E-1,3.460956712E-1,3.480213081E0
1.194794858E1,-3.602304672E0,-5.801613218E-1,1.158674021E-1,3.650563157E0
1.195788658E1,-3.741287726E0,-6.100441021E-1,-7.767675161E-2,3.791493285E0
1.196782458E1,-3.872240213E0,-6.207041609E-1,-2.138478792E-1,3.927499057E0
1.197776258E1,-4.010768353E0,-6.004558378E-1,-2.737794276E-1,4.064697427E0
1.198770158E1,-4.163846705E0,-5.651445025E-1,-2.436768651E-1,4.209083761E0
1.199763958E1,-4.208086154E0,-5.274089116E-1,-1.567392202E-1,4.243903442E0
1.200757758E1,-4.200096518E0,-4.310994226E-1,-1.023133370E-1,4.223402123E0
1.201751596E1,-4.289144935E0,-4.379465121E-1,-1.078203177E-1,4.312793369E0
1.202745396E1,-4.284944295E0,-5.247373188E-1,-1.052919086E-1,4.318238443E0
1.203739196E1,-4.138210173E0,-7.264493018E-1,-9.852799572E-2,4.202644380E0
1.204733096E1,-4.023698886E0,-1.015577744E0,-1.345643858E-1,4.152066769E0
1.205726896E1,-4.021559975E0,-1.346540675E0,-9.443954945E-2,4.242055545E0
1.206720696E1,-4.148920518E0,-1.586463042E0,-6.003913723E-2,4.442297958E0
1.207714496E1,-4.271327884E0,-1.714062152E0,-5.864764608E-2,4.602791599E0
1.208708296E1,-4.260278401E0,-1.763498606E0,-7.480935015E-2,4.611452681E0
1.209702196E1,-4.058113843E0,-1.972892076E0,-1.249609188E-1,4.514001145E0
1.210695996E1,-3.571927217E0,-2.498777204E0,-2.745443896E-1,4.367828543E0
1.211689796E1,-2.794983700E0,-3.470979717E0,-5.585435808E-1,4.491280999E0
1.212683596E1,-2.075511881E0,-4.651042560E0,-7.218387723E-1,5.144025435E0
1.213677396E1,-1.527923058E0,-5.978056458E0,-7.309452260E-1,6.213371775E0
1.214671296E1,-1.137285199E0,-7.070753714E0,-6.394830787E-1,7.190126168E0
1.215665096E1,-9.429085475E-1,-7.524993492E0,-5.316896582E-1,7.602453386E0
1.216658896E1,-6.215917683E-1,-7.430711233E0,-6.782641518E-1,7.487448699E0
1.217652696E1,4.659660771E-1,-6.864723562E0,-1.101813065E0,6.968180968E0
1.218646496E1,2.078436658E0,-5.818774796E0,-1.639131253E0,6.392557417E0
1.219640396E1,3.750815763E0,-4.551578498E0,-2.120340729E0,6.267481992E0
1.220634196E1,4.914332156E0,-3.121454215E0,-2.473593830E0,6.325567437E0
1.221627996E1,5.934742624E0,-1.850464244E0,-2.997628899E0,6.901533666E0
1.222621796E1,7.035195041E0,-6.798581028E-1,-3.704563703E0,7.979972966E0
1.223615596E1,7.700885925E0,5.812453955E-1,-4.475389279E0,8.925838865E0
1.224609496E1,7.871921661E0,1.560254653E0,-5.060100904E0,9.487157971E0
1.225603296E1,7.753107993E0,2.287313234E0,-5.577885883E0,9.821165730E0
1.226597096E1,7.433594495E0,2.434200554E0,-5.980452062E0,9.846292009E0
1.227590896E1,6.808406689E0,2.246272797E0,-6.069817398E0,9.393765293E0
1.228584696E1,5.854079699E0,2.169263797E0,-5.957758434E0,8.629648898E0
1.229578496E1,4.743438216E0,1.771325104E0,-5.604136373E0,7.552757325E0
1.230572396E1,3.699626022E0,1.176880789E0,-4.919442038E0,6.266832618E0
1.231566196E1,2.794145209E0,6.769935519E-1,-3.898835104E0,4.844221598E0
1.232559996E1,1.866879133E0,2.794612402E-1,-2.652332103E0,3.255487962E0
1.233553796E1,8.544726267E-1,-4.415641844E-2,-1.413436915E0,1.652233994E0
1.234547596E1,-2.197246233E-1,-3.406201923E-1,-3.122050266E-1,5.116375710E-1
1.235541496E1,-1.379023127E0,-6.154890293E-1,6.208025403E-1,1.632766770E0
1.236535296E1,-2.764799203E0,-8.201848465E-1,1.439517835E0,3.223201734E0
1.237529096E1,-4.592686763E0,-7.264586574E-1,2.732199222E0,5.393090624E0
1.238522896E1,-5.190547022E0,-8.161251247E-1,2.489822778E0,5.814383551E0
1.239516696E1,-5.826745720E0,-6.539952832E-1,2.217620856E0,6.268693466E0
1.240510596E1,-6.830961739E0,-4.181566107E-1,2.133155487E0,7.168489768E0
1.241504396E1,-7.386368873E0,-3.219886243E-1,1.720737333E0,7.590985363E0
1.242498196E1,-7.816977714E0,-7.320129275E-3,1.222133560E0,7.911940635E0
1.243491996E1,-7.736153991E0,3.902583754E-1,6.391568041E-1,7.772316360E0
1.244485796E1,-7.187861749E0,6.691138440E-1,7.170968631E-2,7.219294435E0
1.245479696E1,-6.496588127E0,9.376279271E-1,-3.372978044E-1,6.572562151E0
1.246473496E1,-5.872424753E0,1.095700386E0,-4.185577297E-1,5.988415683E0
1.247467296E1,-5.304896341E0,1.070026431E0,-3.552330055E-1,5.423381993E0
1.248461096E1,-4.803794637E0,8.815180457E-1,-1.873564657E-1,4.887598534E0
1.249454896E1,-4.433664717E0,6.521575034E-1,-6.029590309E-2,4.481777307E0
1.250448796E1,-4.204481345E0,3.383415323E-1,7.389009476E-2,4.218719963E0
1.251442596E1,-3.805545702E0,7.926719427E-2,2.356673856E-1,3.813659725E0
1.252436396E1,-3.284134864E0,-1.847661674E-2,3.543611491E-1,3.303249160E0
1.253430196E1,-2.608037691E0,-5.455919981E-2,5.126593832E-1,2.658506525E0
1.254423996E1,-1.752718095E0,-9.704623818E-3,7.699298552E-1,1.914394651E0
1.255417896E1,-8.259291512E-1,3.695323348E-2,1.057029240E0,1.341952055E0
1.256411696E1,7.380121708E-2,1.351747620E-1,1.336571757E0,1.345415511E0
1.257405496E1,8.801591527E-1,1.490712547E-1,1.635243001E0,1.863041074E0
1.258399296E1,1.471310901E0,6.926611662E-3,1.889071655E0,2.394450973E0
1.259393096E1,1.918425847E0,-2.496287459E-1,2.034118856E0,2.807189300E0
1.260386896E1,2.163278587E0,-6.546981186E-1,2.184219221E0,3.143122250E0
1.261380796E1,2.065904905E0,-1.207168781E0,2.299759179E0,3.318751546E0
1.262374596E1,1.777395684E0,-1.702777026E0,2.339944607E0,3.396163391E0
1.263368396E1,1.530556059E0,-2.170532058E0,2.230399361E0,3.468211726E0
1.264362196E1,1.326544366E0,-2.517785917E0,2.033788050E0,3.497893611E0
1.265355996E1,1.264075053E0,-2.607830699E0,1.778736012E0,3.400377699E0
1.266349896E1,1.336590468E0,-2.570206790E0,1.461032227E0,3.244541907E0
1.267343696E1,1.649011585E0,-2.460014257E0,1.043580644E0,3.140058903E0
1.268337496E1,2.291713264E0,-2.586836271E0,5.533348811E-1,3.499978724E0
1.269331296E1,3.048570426E0,-2.875474716E0,1.283918457E-1,4.192686603E0
1.270325096E1,3.578677828E0,-2.939515761E0,-2.875765177E-1,4.640084930E0
1.271318996E1,3.720956957E0,-2.690796257E0,-6.896883687E-1,4.643444327E0
1.272312796E1,3.708416726E0,-2.374292321E0,-1.113546088E0,4.541982335E0
1.273306596E1,3.639266384E0,-2.202253203E0,-1.498229728E0,4.509863779E0
1.274300396E1,3.471659748E0,-2.151664263E0,-1.938918584E0,4.521226137E0
1.275294196E1,3.374302730E0,-2.013708565E0,-2.357906084E0,4.582647947E0
1.276288096E1,3.267744826E0,-1.598453343E0,-2.704727833E0,4.533074232E0
1.277281896E1,3.337323184E0,-9.044601810E-1,-3.169071016E0,4.690286277E0
1.278275696E1,3.764692668E0,-3.015023196E-1,-3.729169371E0,5.307590671E0
1.279269496E1,3.971886416E0,2.901569670E-1,-4.184212557E0,5.776478814E0
1.280263296E1,4.034699838E0,8.266185379E-1,-4.549898009E0,6.137073641E0
1.281257196E1,4.075150291E0,9.950510931E-1,-4.892739558E0,6.444833354E0
1.282250996E1,3.997956811E0,9.369800556E-1,-5.212478174E0,6.635624990E0
1.283244796E1,3.686983464E0,8.073063540E-1,-5.528973339E0,6.694410863E0
1.284238596E1,3.359978806E0,6.809000766E-1,-5.789839849E0,6.728694373E0
1.285232396E1,2.908782796E0,6.342381263E-1,-5.879977602E0,6.590706483E0
1.286226196E1,2.400413003E0,6.956309670E-1,-5.751219574E0,6.270758456E0
1.287220096E1,2.001053436E0,7.413515157E-1,-5.417990263E0,5.823095003E0
1.288213896E1,1.816242830E0,6.742108619E-1,-4.827862946E0,5.202072561E0
1.289207696E1,1.789459951E0,5.242590165E-1,-4.031909546E0,4.442218930E0
1.290201496E1,1.868543543E0,4.105447054E-1,-3.126784537E0,3.665621839E0
1.291195296E1,1.956656990E0,3.247145963E-1,-2.209908963E0,2.969451762E0
1.292189196E1,2.070619808E0,2.476605731E-1,-1.364715575E0,2.492238100E0
1.293182996E1,2.131729935E0,1.748463660E-1,-5.300355539E-1,2.203583776E0
1.294176796E1,2.148657332E0,1.648604912E-1,3.012497199E-1,2.175927091E0
1.295170596E1,2.045790191E0,3.046270716E-1,1.055671517E0,2.322175168E0
1.296164396E1,1.830333743E0,5.087293965E-1,1.987570342E0,2.749429590E0
1.297158296E1,1.657310246E0,6.043442363E-1,2.743478501E0,3.261684150E0
1.298152096E1,1.641411082E0,5.425245488E-1,2.857785720E0,3.339985396E0
1.299145896E1,1.139108068E0,5.720892406E-1,3.185553732E0,3.431123121E0
1.300139696E1,6.912590039E-1,2.981056720E-1,3.257048807E0,3.342913839E0
1.301133496E1,2.264816657E-1,-7.258499622E-2,3.150440032E0,3.159404204E0
1.302127387E1,-3.442337716E-1,-2.971876591E-1,3.071690902E0,3.105173488E0
1.303121188E1,-9.045917434E-1,-4.409473032E-1,3.001601497E0,3.165806736E0
1.304114988E1,-1.414504616E0,-6.585233670E-1,2.924410064E0,3.314611675E0
1.305108788E1,-1.958541255E0,-9.140852827E-1,2.904523684E0,3.620454886E0
1.306102588E1,-2.591305883E0,-1.078156400E0,2.888641477E0,4.027596924E0
1.307096488E1,-3.210121978E0,-1.190520589E0,2.757135258E0,4.395909145E0
1.308090288E1,-3.730248182E0,-1.291056445E0,2.548506603E0,4.698559796E0
1.309084087E1,-4.079885366E0,-1.293146240E0,2.271028154E0,4.845127519E0
1.310077887E1,-4.307739081E0,-1.206819118E0,2.106340156E0,4.944663509E0
1.311071688E1,-4.433284648E0,-9.915439332E-1,1.946283006E0,4.942184707E0
1.312065587E1,-4.511806322E0,-7.620249313E-1,1.810419588E0,4.920843157E0
1.313059388E1,-4.548771250E0,-5.082516789E-1,1.768592262E0,4.906888856E0
1.314053188E1,-4.428432044E0,-2.284296656E-1,1.700778447E0,4.749298665E0
1.315046988E1,-4.213965529E0,-8.397010982E-2,1.669804723E0,4.533520075E0
1.316040788E1,-4.062251918E0,-1.557452667E-1,1.690243080E0,4.402620686E0
1.317034587E1,-4.346636513E0,-4.383242422E-1,1.726888750E0,4.697608102E0
1.318028488E1,-4.842602023E0,-8.452120990E-1,1.534440365E0,5.149726699E0
1.319022287E1,-5.089342829E0,-1.301049337E0,1.202389852E0,5.388866408E0
1.320016087E1,-5.118184220E0,-1.710042776E0,8.882402971E-1,5.468914594E0
1.321009888E1,-4.952325609E0,-1.972336006E0,6.794221929E-1,5.373755928E0
1.322003688E1,-4.630917614E0,-2.105922080E0,6.081841028E-1,5.123494281E0
1.322997588E1,-4.387726067E0,-2.237150556E0,5.709595585E-1,4.958122373E0
1.323991388E1,-4.199449232E0,-2.301848828E0,5.235911183E-1,4.817471280E0
1.324985188E1,-3.732542630E0,-2.212288195E0,3.884890079E-1,4.356261844E0
1.325978988E1,-3.251289300E0,-2.197315230E0,6.054557920E-2,3.924632734E0
1.326972787E1,-2.900511909E0,-2.390930573E0,-4.943317243E-1,3.791290307E0
1.327966688E1,-2.402895146E0,-2.915548609E0,-1.164896336E0,3.953645438E0
1.328960487E1,-1.953776359E0,-3.725458728E0,-1.782638297E0,4.568816487E0
1.329954288E1,-1.670795680E0,-4.679923713E0,-2.211729201E0,5.439208602E0
1.330948088E1,-1.548087766E0,-5.407424344E0,-2.279701914E0,6.069090095E0
1.331941888E1,-1.576677727E0,-5.615026812E0,-2.063781635E0,6.186568790E0
1.332935788E1,-1.340300526E0,-5.538363968E0,-1.740444789E0,5.958106159E0
1.333929588E1,-4.337914807E-1,-5.606496894E0,-1.509436501E0,5.822317496E0
1.334923388E1,9.901920569E-1,-5.592867619E0,-1.633929570E0,5.910192412E0
1.335917188E1,2.309830569E0,-4.986635317E0,-2.030997612E0,5.858907777E0
1.336910987E1,3.474054475E0,-3.707293768E0,-2.475359105E0,5.651591305E0
1.337904888E1,4.582230772E0,-2.281944321E0,-3.069198818E0,5.968591971E0
1.338898687E1,5.484537424E0,-9.280788392E-1,-3.849775211E0,6.764780134E0
1.339892488E1,6.022075467E0,6.057832360E-2,-4.751790671E0,7.671282634E0
1.340886288E1,6.089367564E0,7.885490710E-1,-5.655631632E0,8.347956404E0
1.341880088E1,5.863430566E0,1.400364295E0,-6.370215763E0,8.770432546E0
1.342873988E1,5.608089091E0,1.640428165E0,-6.767490213E0,8.940950262E0
1.343867788E1,5.429860695E0,1.467261704E0,-6.693616490E0,8.743039849E0
1.344861588E1,5.067994645E0,1.206547222E0,-6.218643655E0,8.112450605E0
1.345855387E1,4.425760743E0,8.421475732E-1,-5.454653474E0,7.074589403E0
1.346849187E1,3.578656778E0,5.592814994E-1,-4.375216534E0,5.679973578E0
1.347842988E1,2.713399254E0,3.148807490E-1,-3.146070993E0,4.166467099E0
1.348836887E1,1.928823951E0,-1.393017268E-1,-1.984011580E0,2.770571918E0
1.349830688E1,1.077187224E0,-5.774020207E-1,-8.969582033E-1,1.516001130E0
1.350824488E1,1.650411701E-1,-7.668868911E-1,7.571311042E-2,7.880904559E-1
1.351818288E1,-9.687082171E-1,-8.065608341E-1,1.115960842E0,1.683539304E0
1.352812088E1,-2.303253329E0,-6.200808477E-1,2.492062261E0,3.449615988E0
1.353805988E1,-2.777551981E0,-6.005184031E-1,2.838736660E0,4.016695555E0
1.354799788E1,-3.425829856E0,-2.627265090E-1,3.377013792E0,4.817629871E0
1.355793587E1,-4.136648381E0,1.297415292E-1,3.809480586E0,5.625018669E0
1.356787387E1,-4.610276942E0,3.501967621E-1,3.837915888E0,6.008900866E0
1.357781188E1,-5.064666409E0,6.187476826E-1,3.777636942E0,6.348561679E0
1.358775087E1,-5.322756661E0,8.305683321E-1,3.630515149E0,6.496323766E0
1.359768888E1,-5.419776587E0,9.858089840E-1,3.412382430E0,6.479980822E0
1.360762688E1,-5.410580086E0,1.082959887E0,3.085145345E0,6.321811511E0
1.361756488E1,-5.420202264E0,1.140654364E0,2.722656566E0,6.171915727E0
1.362750288E1,-5.346151371E0,1.122135648E0,2.410083274E0,5.970680387E0
1.363744188E1,-5.166231961E0,8.855017537E-1,2.177642419E0,5.675930984E0
1.364737988E1,-5.006691851E0,6.578620470E-1,1.986052551E0,5.426246447E0
1.365731787E1,-4.782468672E0,5.448476475E-1,1.926165076E0,5.184493944E0
1.366725587E1,-4.433611507E0,3.536618221E-1,2.107551699E0,4.921764099E0
1.367719388E1,-4.056776585E0,1.232335782E-1,2.484768444E0,4.758854589E0
1.368713287E1,-3.606021162E0,-1.275687039E-2,2.863111364E0,4.604449809E0
1.369707088E1,-3.121315051E0,-1.090944260E-1,3.097328603E0,4.398630892E0
1.370700888E1,-2.491992095E0,-1.535923219E-1,3.163662049E0,4.030182720E0
1.371694688E1,-1.779554476E0,-5.688171387E-2,2.996734275E0,3.485751852E0
1.372688488E1,-1.196874758E0,6.683952212E-2,2.828195592E0,3.071753085E0
1.373682388E1,-6.562277502E-1,2.213504416E-1,2.664951564E0,2.753470123E0
1.374676188E1,-7.930870950E-2,2.444218004E-1,2.435482264E0,2.449000969E0
1.375669987E1,5.673717070E-1,1.122554308E-1,2.127195127E0,2.204420796E0
1.376663788E1,1.007870529E0,-3.047334909E-1,1.789031789E0,2.075885412E0
1.377657588E1,8.493770707E-1,-9.135531861E-1,1.652639490E0,2.070564686E0
1.378651487E1,1.041891968E0,-1.244854086E0,1.349597014E0,2.111069082E0
1.379645288E1,1.309094521E0,-1.462324315E0,9.912480640E-1,2.198793667E0
1.380639088E1,1.333214870E0,-1.872178465E0,7.302894607E-1,2.411604609E0
1.381632888E1,1.063803824E0,-2.259529604E0,5.079615109E-1,2.548563812E0
1.382626688E1,7.952932495E-1,-2.510560513E0,1.903352018E-1,2.640384996E0
1.383620487E1,7.896693975E-1,-2.705478031E0,-1.954772432E-1,2.825137251E0
1.384614388E1,9.318649113E-1,-2.687669166E0,-6.068181932E-1,2.908636464E0
1.385608187E1,1.120935799E0,-2.441640551E0,-1.080544403E0,2.895804181E0
1.386601988E1,1.381818681E0,-2.301361755E0,-1.552421576E0,3.100919467E0
1.387595788E1,1.821927201E0,-2.647661932E0,-1.936625891E0,3.752339573E0
1.388589588E1,2.289328769E0,-3.279540707E0,-2.058494729E0,4.498201197E0
1.389583488E1,2.423046405E0,-3.749894242E0,-1.931511916E0,4.864524539E0
1.390577288E1,2.363717047E0,-3.873627173E0,-1.793205385E0,4.879316684E0
1.391571088E1,2.412882190E0,-3.856888933E0,-1.784669620E0,4.886986634E0
1.392564887E1,2.675478014E0,-3.651525949E0,-1.924517477E0,4.918901491E0
1.393558687E1,3.068048671E0,-3.329174212E0,-2.318832065E0,5.086580947E0
1.394552588E1,3.286912584E0,-2.834244829E0,-2.656626883E0,5.088654487E0
1.395546387E1,3.192728266E0,-2.037068776E0,-3.059597105E0,4.868705929E0
1.396540188E1,2.894308306E0,-1.210866560E0,-3.454019868E0,4.666205272E0
1.397533988E1,2.675187992E0,-4.703453493E-1,-3.964107865E0,4.805414311E0
1.398527788E1,2.766993079E0,-6.622907281E-2,-4.625223595E0,5.390114126E0
1.399521688E1,2.805182706E0,2.375729567E-1,-5.366781517E0,6.060349394E0
1.400515488E1,2.692845706E0,5.929369032E-1,-6.080254093E0,6.676262578E0
1.401509288E1,2.436386535E0,8.891796523E-1,-6.854595015E0,7.328853432E0
1.402503108E1,2.089893107E0,9.637673199E-1,-7.486473790E0,7.832227681E0
1.403496908E1,1.725846338E0,1.020420408E0,-7.924793354E0,8.174481824E0
1.404490808E1,1.358362283E0,1.111493130E0,-8.132311038E0,8.319558154E0
1.405484608E1,1.059380990E0,1.165316750E0,-7.988568351E0,8.142326173E0
1.406478408E1,9.852339104E-1,1.152047079E0,-7.565232861E0,7.715610577E0
1.407472208E1,1.175238306E0,1.003662872E0,-6.868176343E0,7.039912678E0
1.408466008E1,1.566847973E0,7.706402189E-1,-5.917378147E0,6.169624223E0
1.409459808E1,2.003543766E0,4.791769838E-1,-4.849693526E0,5.269091525E0
1.410453708E1,2.420228632E0,1.711117494E-1,-3.807727883E0,4.515039036E0
1.411447508E1,2.723536864E0,-5.776639760E-2,-2.730908157E0,3.857311158E0
1.412441308E1,2.915259464E0,-1.778559279E-1,-1.679739142E0,3.369257197E0
1.413435108E1,3.020338022E0,-1.296801335E-1,-7.099736754E-1,3.105369757E0
1.414428908E1,3.097592897E0,-3.099433601E-2,1.728851734E-1,3.102568563E0
1.415422808E1,3.114545730E0,1.047329879E-1,9.360281289E-1,3.253845841E0
1.416416608E1,2.958344965E0,2.968485206E-1,1.570862671E0,3.362667618E0
1.417410408E1,2.553731090E0,5.435057116E-1,2.002819880E0,3.290627359E0
1.418404208E1,2.534821487E0,7.762529612E-2,2.473820118E0,3.542757631E0
1.419398008E1,2.459892635E0,-3.763560355E-1,3.033757675E0,3.923824826E0
1.420391908E1,1.792266030E0,-3.329656023E-1,3.550796549E0,3.991395714E0
1.421385708E1,9.341087803E-1,-1.971499854E-1,3.919110324E0,4.033714549E0
1.422379508E1,7.174182773E-2,-2.290208191E-1,4.123067638E0,4.130046510E0
1.423373308E1,-6.995918709E-1,-4.779280186E-1,4.149568974E0,4.235182008E0
1.424367108E1,-1.337197409E0,-7.972321862E-1,4.009638087E0,4.301264192E0
1.425361008E1,-1.661538368E0,-1.278760335E0,3.410976759E0,4.003835685E0
1.426354808E1,-1.711737884E0,-1.840900539E0,2.581456833E0,3.603176481E0
1.427348608E1,-2.316180938E0,-2.056365173E0,2.126337633E0,3.756946046E0
1.428342408E1,-3.725665720E0,-1.730910904E0,2.111704537E0,4.619083639E0
1.429336208E1,-5.185670444E0,-1.343697174E0,2.001056360E0,5.718472402E0
1.430330108E1,-6.105690651E0,-1.127570050E0,1.897743076E0,6.492480368E0
1.431323908E1,-6.548251201E0,-1.218419409E0,1.837354202E0,6.909414600E0
1.432317708E1,-6.675103621E0,-1.405426814E0,1.832715460E0,7.063361723E0
1.433311508E1,-6.500722693E0,-1.491946895E0,1.859332424E0,6.924046370E0
1.434305308E1,-6.057489713E0,-1.582110960E0,1.868166105E0,6.533475439E0
1.435299208E1,-5.454721887E0,-1.736794372E0,1.930611152E0,6.041333046E0
1.436293008E1,-4.781684561E0,-1.861248849E0,2.030305302E0,5.518232882E0
1.437286808E1,-4.144592993E0,-1.997228773E0,2.210225297E0,5.104083631E0
1.438280608E1,-3.598957726E0,-2.208362959E0,2.345039578E0,4.829966283E0
1.439274408E1,-3.214268823E0,-2.441645814E0,2.427725640E0,4.710308921E0
1.440268308E1,-2.965093821E0,-2.509855923E0,2.432692265E0,4.583573909E0
1.441262108E1,-2.907910391E0,-2.409464493E0,2.306305575E0,4.424986711E0
1.442255908E1,-2.899860529E0,-2.286763596E0,2.047662469E0,4.222724289E0
1.443249708E1,-2.850628143E0,-2.293953917E0,1.731090560E0,4.047836448E0
1.444243508E1,-2.771329374E0,-2.441901922E0,1.338316273E0,3.928643779E0
1.445237408E1,-2.618505376E0,-2.826710107E0,9.604569188E-1,3.971062569E0
1.446231208E1,-2.326524078E0,-3.659600369E0,5.638434970E-1,4.373020539E0
1.447225008E1,-1.925494546E0,-4.790557126E0,2.233905351E-1,5.167869015E0
1.448218808E1,-1.695877896E0,-5.760916597E0,2.202163741E-2,6.005384819E0
1.449212608E1,-1.753205168E0,-6.188576102E0,-2.824439049E-2,6.432184721E0
1.450206408E1,-2.033212538E0,-5.997077451E0,6.202024698E-2,6.332672239E0
1.451200308E1,-2.199395084E0,-5.454762232E0,3.382672727E-1,5.891196355E0
1.452194108E1,-1.932464427E0,-5.029196030E0,7.250642426E-1,5.436262468E0
1.453187908E1,-1.156687430E0,-4.923300616E0,1.066092644E0,5.168497682E0
1.454181708E1,-1.620321929E-2,-5.096456552E0,1.337206910E0,5.268989870E0
1.455175508E1,1.199903616E0,-5.099423429E0,1.418097146E0,5.427235715E0
1.456169408E1,2.237509867E0,-4.403027646E0,1.218293109E0,5.086977586E0
1.457163208E1,3.104829996E0,-3.289373969E0,6.685566044E-1,4.572408375E0
1.458157008E1,3.873362879E0,-2.384462968E0,-2.210949183E-2,4.548526406E0
1.459150808E1,4.627746668E0,-1.605640740E0,-8.384579802E-1,4.969621032E0
1.460144608E1,5.094957325E0,-7.309615982E-1,-1.703609669E0,5.421732280E0
1.461138508E1,5.243590039E0,7.676867902E-2,-2.607433673E0,5.856606550E0
1.462132308E1,5.109032158E0,7.369128942E-1,-3.523018767E0,6.249552899E0
1.463126108E1,4.732941294E0,1.195875469E0,-4.406052411E0,6.576028382E0
1.464119908E1,4.072028755E0,1.405255491E0,-5.164211748E0,6.724971684E0
1.465113708E1,3.196470191E0,1.831805195E0,-5.795645549E0,6.867491484E0
1.466107608E1,2.167638271E0,2.195775658E0,-6.269909118E0,6.987978732E0
1.467101408E1,1.220705378E0,2.485100566E0,-6.604006741E0,7.160918340E0
1.468095208E1,4.223294762E-1,2.577963122E0,-6.685276022E0,7.177546345E0
1.469089008E1,-1.249614304E-1,2.728265800E0,-6.536986540E0,7.084577804E0
1.470082808E1,-5.226738364E-1,2.911874803E0,-6.128439828E0,6.805143462E0
1.471076708E1,-7.467897186E-1,2.925995244E0,-5.457922068E0,6.237632271E0
1.472070508E1,-8.128208631E-1,2.774635389E0,-4.676904795E0,5.498428663E0
1.473064308E1,-7.801504228E-1,2.492445838E0,-3.924655824E0,4.714217249E0
1.474058108E1,-7.326163602E-1,2.098459863E0,-3.206646393E0,3.901646014E0
1.475051908E1,-7.282142839E-1,1.622067908E0,-2.560972867E0,3.117688626E0
1.476045808E1,-8.553216425E-1,1.142303279E0,-1.936014857E0,2.405116508E0
1.477039608E1,-1.111877000E0,7.885502404E-1,-1.275547875E0,1.866843412E0
1.478033408E1,-1.459795395E0,6.087688243E-1,-6.135471690E-1,1.696479356E0
1.479027208E1,-1.846019484E0,5.503919774E-1,2.294796428E-2,1.926459413E0
1.480021008E1,-2.131527037E0,5.436998391E-1,6.094330680E-1,2.282635689E0
1.481014908E1,-2.318365458E0,4.612804109E-1,1.247386515E0,2.672745991E0
1.482008708E1,-2.423006060E0,3.657737446E-1,1.855898062E0,3.073939884E0
1.483002508E1,-2.364504667E0,1.859303480E-1,2.433295259E0,3.397996208E0
1.483996308E1,-2.184572977E0,2.241179287E-2,2.983997869E0,3.698256977E0
1.484990108E1,-1.933465471E0,-1.179646522E-1,3.532514645E0,4.028754659E0
1.485983908E1,-1.786205976E0,-5.421187520E-2,4.353074298E0,4.705605865E0
1.486977808E1,-1.779672297E0,3.909354830E-1,6.008411694E0,6.278620479E0
1.487971608E1,-5.821081522E-1,2.232952255E-1,5.340617566E0,5.376886334E0
1.488965408E1,-1.620389172E-1,3.508212447E-1,5.022968745E0,5.037811744E0
1.489959208E1,1.751714712E-1,6.255608582E-1,4.849300593E0,4.892619715E0
1.490953008E1,6.926956648E-1,8.342497391E-1,4.237577755E0,4.374113069E0
1.491946908E1,1.039625295E0,8.615392792E-1,3.634590658E0,3.877282545E0
1.492940708E1,1.170210870E0,8.993555617E-1,3.151678473E0,3.480130903E0
1.493934508E1,7.828778565E-1,8.532549441E-1,2.717160183E0,2.953625095E0
1.494928308E1,3.496178877E-1,9.033761072E-1,2.358357489E0,2.549543313E0
1.495922108E1,6.100546271E-1,8.040535480E-1,1.890314773E0,2.142885601E0
1.496916008E1,1.063986257E0,4.402929997E-1,1.409009257E0,1.819679029E0
1.497909808E1,1.453473970E0,-1.031308508E-1,8.578964639E-1,1.690919541E0
1.498903608E1,1.636134555E0,-6.767859757E-1,2.460204291E-1,1.787596596E0
1.499897408E1,1.718624442E0,-1.183255423E0,-4.423792863E-1,2.132946976E0
1.500891208E1,1.716152239E0,-1.662239449E0,-1.074256307E0,2.619588729E0
1.501885125E1,1.666629831E0,-1.977594407E0,-1.641885876E0,3.063384380E0
1.502878925E1,1.614089675E0,-2.114764824E0,-2.183824534E0,3.441889791E0
1.503872725E1,1.609209588E0,-2.159656237E0,-2.562290829E0,3.717392212E0
1.504866525E1,1.734018699E0,-2.186980861E0,-2.812269824E0,3.962141806E0
1.505860325E1,2.038172438E0,-2.396127579E0,-3.021594297E0,4.361835205E0
1.506854225E1,2.541825282E0,-2.849023667E0,-3.087628073E0,4.910321653E0
1.507848025E1,3.128431405E0,-3.421039233E0,-2.980362071E0,5.511184134E0
1.508841825E1,3.551629193E0,-3.748863963E0,-2.780997745E0,5.865321764E0
1.509835625E1,3.722934777E0,-3.755698189E0,-2.498404151E0,5.848720847E0
1.510829425E1,3.739114608E0,-3.648999367E0,-2.254443111E0,5.690227427E0
1.511823325E1,3.664641253E0,-3.356951410E0,-2.058900526E0,5.379385621E0
1.512817125E1,3.541773711E0,-2.714786214E0,-1.979197129E0,4.881746253E0
1.513810925E1,3.464460948E0,-1.837733102E0,-2.005710744E0,4.404841450E0
1.514804725E1,3.466211897E0,-9.858680409E-1,-2.161074187E0,4.201999804E0
1.515798525E1,3.473184702E0,-2.213311458E-1,-2.390204349E0,4.221975400E0
1.516792425E1,3.427924329E0,2.792910862E-1,-2.604027670E0,4.313887901E0
1.517786225E1,3.345631201E0,3.690961325E-1,-2.905898949E0,4.446766104E0
1.518780025E1,3.233184858E0,1.969810009E-1,-3.160871173E0,4.525858196E0
1.519773825E1,2.979657774E0,-2.886185646E-3,-3.466824101E0,4.571349705E0
1.520767625E1,2.608141771E0,-1.228347981E-1,-3.710739240E0,4.537298490E0
1.521761525E1,2.156848697E0,-2.758242720E-1,-3.809794874E0,4.386640207E0
1.522755325E1,1.702494313E0,-3.606042212E-1,-3.795522990E0,4.175466088E0
1.523749125E1,1.276300997E0,-2.813072062E-1,-3.583621064E0,3.814501004E0
1.524742925E1,9.717835602E-1,-1.361781442E-1,-3.239731693E0,3.385080386E0
1.525736725E1,8.441432279E-1,-1.498758316E-1,-2.791249083E0,2.919950684E0
1.526730625E1,8.078922451E-1,-2.966421139E-1,-2.185445382E0,2.348799255E0
1.527724425E1,7.893290895E-1,-2.666809809E-1,-1.459918771E0,1.680928902E0
1.528718225E1,9.102305058E-1,-7.315919280E-2,-7.317533112E-1,1.170185776E0
1.529712025E1,1.167935134E0,1.835809368E-1,-7.625880182E-2,1.184731970E0
1.530705825E1,1.490614314E0,4.559161752E-1,5.365709138E-1,1.648544491E0
1.531699725E1,1.783758916E0,6.264712697E-1,1.098205333E0,2.186393623E0
1.532693525E1,1.950207219E0,7.980513811E-1,1.641776533E0,2.671258952E0
1.533687325E1,1.940025462E0,1.044013923E0,2.118100076E0,3.056143288E0
1.534681125E1,1.751784587E0,1.208146436E0,2.585649287E0,3.348723530E0
1.535674925E1,1.436427290E0,1.251920446E0,2.975118288E0,3.532981317E0
1.536668725E1,9.965181595E-1,1.138235956E0,3.258036110E0,3.592134299E0
1.537662625E1,4.231574419E-1,8.936188585E-1,3.441711186E0,3.580920660E0
1.538656425E1,-1.593682015E-1,5.976491743E-1,3.580436085E0,3.633470149E0
1.539650225E1,-7.484149522E-1,2.203657705E-1,3.628427693E0,3.711357371E0
1.540644025E1,-1.374113220E0,-1.730331445E-1,3.653183342E0,3.906901092E0
1.541637825E1,-1.980856569E0,-5.186749256E-1,3.558390621E0,4.105479294E0
1.542631725E1,-2.525214804E0,-7.415286863E-1,3.395994731E0,4.296435128E0
1.543625525E1,-3.044262198E0,-9.110137403E-1,3.224428945E0,4.527076362E0
1.544619325E1,-3.551595864E0,-1.122771240E0,3.077407140E0,4.831654286E0
1.545613125E1,-3.963342757E0,-1.292909428E0,2.904197409E0,5.080754195E0
1.546606925E1,-4.278158017E0,-1.466882220E0,2.732244830E0,5.283894518E0
1.547600825E1,-4.477457439E0,-1.610986265E0,2.652903084E0,5.448008502E0
1.548594625E1,-4.672113002E0,-1.751645131E0,2.633179256E0,5.641855507E0
1.549588425E1,-4.841226173E0,-1.832927275E0,2.607384849E0,5.796166751E0
1.550582225E1,-4.992869618E0,-1.822661904E0,2.676304810E0,5.950920170E0
1.551576025E1,-5.112290812E0,-1.840584789E0,2.803797500E0,6.114290648E0
1.552569925E1,-5.133533161E0,-2.003215737E0,3.013987361E0,6.280935903E0
1.553563725E1,-5.112012484E0,-2.358501331E0,3.467322283E0,6.611922866E0
1.554557525E1,-4.844995873E0,-2.736475291E0,3.521403766E0,6.585025931E0
1.555551325E1,-4.546654558E0,-3.178045322E0,3.430809345E0,6.522460617E0
1.556545125E1,-4.357568468E0,-3.573321778E0,3.421082794E0,6.592483521E0
1.557539025E1,-4.186107055E0,-3.861448592E0,3.268925379E0,6.566593534E0
1.558532825E1,-4.014332231E0,-3.968809903E0,3.010890676E0,6.397794774E0
1.559526625E1,-4.014316444E0,-3.977193641E0,2.769918441E0,6.293270528E0
1.560520425E1,-3.865580235E0,-3.874102551E0,2.553118887E0,6.039022866E0
1.561514225E1,-3.451429551E0,-3.999929370E0,2.316744025E0,5.768804364E0
1.562508125E1,-3.046378890E0,-4.365393212E0,1.932074418E0,5.663037506E0
1.563501925E1,-2.624428605E0,-4.834487842E0,1.537878820E0,5.711827156E0
1.564495725E1,-1.781157782E0,-4.576756024E0,1.778573313E0,5.223269262E0
1.565489525E1,-1.054091599E0,-5.731537262E0,1.235106339E0,5.957106357E0
1.566483325E1,-9.070908433E-1,-8.253128546E0,2.849592309E-1,8.307716074E0
1.567477225E1,-1.085922672E0,-8.830949813E0,-3.289862797E-1,8.903546182E0
1.568471025E1,-1.752118170E0,-8.190103748E0,-9.116649009E-1,8.424894680E0
1.569464825E1,-2.423929335E0,-7.295239432E0,-1.240961595E0,7.786908082E0
1.570458625E1,-2.569172418E0,-6.679912371E0,-1.215416352E0,7.259415480E0
1.571452425E1,-1.951856718E0,-6.365792345E0,-1.010957859E0,6.734618966E0
1.572446325E1,-8.453077009E-1,-6.049208887E0,-5.964195780E-1,6.137034266E0
1.573440125E1,6.070816103E-1,-5.005003175E0,-3.213582579E-1,5.051918051E0
1.574433925E1,2.265096738E0,-3.493492666E0,-3.665771520E-1,4.179657050E0
1.575427725E1,4.148764397E0,-2.030878329E0,-5.585330558E-1,4.652813341E0
1.576421525E1,6.100676664E0,-1.179963441E0,-9.266199589E-1,6.282451275E0
1.577415425E1,7.604132048E0,-5.830527699E-1,-1.722273982E0,7.818503847E0
1.578409225E1,8.243356095E0,-9.630890429E-2,-3.086320635E0,8.802702436E0
1.579403025E1,7.549345976E0,4.990130782E-1,-5.189599773E0,9.174616315E0
1.580396825E1,5.706890663E0,1.535629689E0,-7.792509456E0,9.780079918E0
1.581390625E1,3.626366841E0,2.808543393E0,-9.946006236E0,1.095269339E1
1.582384525E1,2.451259221E0,3.550955009E0,-1.058636289E1,1.143193039E1
1.583378325E1,2.419659406E0,3.520259466E0,-9.395092102E0,1.032059756E1
1.584372125E1,3.043081352E0,2.833710979E0,-7.364357615E0,8.457187777E0
1.585365925E1,3.640568559E0,1.129210194E0,-5.564097564E0,6.744481951E0
1.586359725E1,3.724634563E0,-7.568805510E-1,-4.344945499E0,5.772722251E0
1.587353625E1,3.628906872E0,-2.066745150E0,-3.468540843E0,5.428736150E0
1.588347425E1,3.635403421E0,-2.619238032E0,-2.808403645E0,5.288071192E0
1.589341225E1,3.980226592E0,-2.086230996E0,-2.105237371E0,4.962518300E0
1.590335025E1,4.868623302E0,-7.177305186E-1,-9.756950551E-1,5.017032070E0
1.591328825E1,6.248611804E0,4.834045208E-1,-4.895769147E-1,6.286375344E0
1.592322725E1,7.673389394E0,9.844126689E-1,-4.837127421E-1,7.751383819E0
1.593316525E1,8.626520044E0,1.128627226E0,-2.852622628E-1,8.704712634E0
1.594310325E1,8.679346129E0,1.261861297E0,-3.272563809E-1,8.776698690E0
1.595304125E1,7.779024607E0,1.387633152E0,-6.420348036E-1,7.927859628E0
1.596297925E1,6.486503434E0,1.929143794E0,-1.256228675E0,6.882908765E0
1.597291825E1,5.509448317E0,2.750786351E0,-1.932887181E0,6.454215611E0
1.598285625E1,4.537431160E0,3.106667191E0,-2.399055279E0,5.999594053E0
1.599279425E1,3.385409516E0,3.063778449E0,-2.536273059E0,5.223065863E0
1.600273225E1,2.147871467E0,3.053161075E0,-2.458788096E0,4.469986945E0
1.601267025E1,7.711290461E-1,2.972135623E0,-2.159467957E0,3.753868941E0
1.602260858E1,-6.834760675E-1,2.733322472E0,-1.705193095E0,3.293307572E0
1.603254658E1,-2.116992321E0,2.383727973E0,-1.173880948E0,3.397324244E0
1.604248458E1,-3.460737734E0,1.919487702E0,-7.144243567E-1,4.021385440E0
1.605242258E1,-4.589291870E0,1.441587165E0,-3.005479078E-1,4.819761661E0
1.606236058E1,-5.382609345E0,1.163031074E0,4.101368621E-2,5.506978007E0
1.607229958E1,-5.850807597E0,8.053142077E-1,3.629074395E-1,5.917109288E0
1.608223758E1,-6.057486205E0,2.013237280E-1,6.652717848E-1,6.097233546E0
1.609217558E1,-6.080518388E0,-4.021346551E-1,9.648211344E-1,6.169707932E0
1.610211358E1,-6.114169698E0,-8.066011798E-1,1.291725951E0,6.300970758E0
1.611205158E1,-6.143502256E0,-9.186057651E-1,1.730041569E0,6.448216835E0
1.612199058E1,-6.187069275E0,-9.064827329E-1,2.324391013E0,6.671156627E0
1.613192858E1,-6.263359067E0,-9.922836059E-1,3.360283446E0,7.176754029E0
1.614186658E1,-6.089811952E0,-8.930405688E-1,4.385983012E0,7.557789231E0
1.615180458E1,-5.703098159E0,-9.369420487E-1,5.268652375E0,7.820606553E0
1.616174258E1,-4.694713075E0,-1.474694685E0,5.303879510E0,7.235066906E0
1.617168158E1,-4.305448726E0,-1.846652445E0,6.203792896E0,7.773934672E0
1.618161958E1,-3.846258695E0,-2.116816612E0,6.711679709E0,8.020053805E0
1.619155758E1,-3.288750072E0,-2.198812702E0,7.065507007E0,8.097656673E0
1.620149558E1,-2.828592911E0,-2.179760134E0,7.361886581E0,8.182277564E0
1.621143358E1,-2.367365710E0,-2.300832582E0,7.450797004E0,8.149394269E0
1.622137258E1,-1.921603809E0,-2.432029483E0,7.416672068E0,8.038305367E0
1.623131058E1,-1.559627831E0,-2.347775783E0,7.185322303E0,7.718377206E0
1.624124858E1,-1.309512597E0,-2.159384927E0,6.705299227E0,7.165110204E0
1.625118658E1,-1.206407474E0,-1.948819674E0,6.026464972E0,6.447603987E0
1.626112458E1,-1.118943653E0,-1.825225323E0,5.272206897E0,5.690311761E0
1.627106358E1,-1.061406466E0,-1.824061142E0,4.481341159E0,4.953403004E0
1.628100158E1,-1.140741488E0,-1.959031836E0,3.749196962E0,4.381275469E0
1.629093958E1,-1.478659097E0,-2.120819031E0,3.240211750E0,4.145271797E0
1.630087758E1,-1.666336008E0,-2.631141794E0,2.716602359E0,4.132736528E0
1.631081558E1,-8.836844391E-1,-3.592383701E0,2.009900858E0,4.210204307E0
1.632075458E1,5.786229193E-1,-4.962906731E0,1.298230394E0,5.162426741E0
1.633069258E1,2.090862576E0,-6.355544515E0,3.950855443E-1,6.702294008E0
1.634063058E1,3.187423671E0,-6.767991319E0,-6.688419485E-1,7.510840546E0
1.635056858E1,3.754175574E0,-5.956502452E0,-1.822941985E0,7.273023661E0
1.636050658E1,3.978281223E0,-4.430272747E0,-2.929522870E0,6.635973354E0
1.637044558E1,4.146892703E0,-2.724111353E0,-3.923183495E0,6.325256555E0
1.638038358E1,4.241874290E0,-1.226173401E0,-4.709956766E0,6.456058507E0
1.639032158E1,4.223366098E0,-1.081348979E-1,-5.300588697E0,6.778256036E0
1.640025958E1,4.075817458E0,4.873233247E-1,-5.691249361E0,7.017128420E0
1.641019758E1,3.833999423E0,4.602021843E-1,-5.843873384E0,7.004441002E0
