"Time (s)","Linear Acceleration x (m/s^2)","Linear Acceleration y (m/s^2)","Linear Acceleration z (m/s^2)","Absolute acceleration (m/s^2)"
8.707250003E-3,5.093329753E-1,2.401478073E0,2.280160335E0,3.350469843E0
1.864525001E-2,1.015676854E0,2.546260688E0,2.403974542E0,3.646112527E0
2.858325001E-2,1.464332688E0,2.639403032E0,2.288274516E0,3.787732679E0
3.852025000E-2,1.817638707E0,2.779381282E0,1.808971233E0,3.781685828E0
4.845825001E-2,1.941181895E0,2.892782182E0,1.173945487E0,3.676210537E0
5.839625001E-2,1.997016080E0,2.875782280E0,1.966927332E-1,3.506691457E0
6.833325000E-2,1.962531249E0,2.775916514E0,-1.046057525E0,3.556891584E0
7.827125001E-2,1.794845675E0,2.578901307E0,-2.154201370E0,3.809565132E0
8.820825000E-2,1.494456519E0,2.286058422E0,-2.907818590E0,3.989344852E0
9.814625001E-2,9.475268246E-1,1.936852470E0,-3.196571640E0,3.855810528E0
1.080842500E-1,4.964027350E-1,1.529748851E0,-3.249081976E0,3.625338730E0
1.180212500E-1,2.421976657E-1,1.104820580E0,-3.073953189E0,3.275435304E0
1.279592500E-1,1.201341154E-1,7.143993598E-1,-2.708925549E0,2.804117737E0
1.378962500E-1,9.850044072E-2,3.376457137E-1,-2.460640494E0,2.485650539E0
1.478342500E-1,1.491023912E-1,-8.662942350E-3,-2.378123417E0,2.382808753E0
1.577722500E-1,2.410095115E-1,-1.075954923E-1,-2.514522586E0,2.528336649E0
1.677092500E-1,2.756042705E-1,-7.999517262E-2,-2.858121350E0,2.872492749E0
1.776472500E-1,2.467700422E-1,3.293911994E-2,-3.196250628E0,3.205931771E0
1.875852500E-1,1.339728668E-2,9.095870197E-2,-3.406177949E0,3.407418553E0
1.975222500E-1,-2.482498263E-1,6.887698442E-2,-3.371102257E0,3.380932185E0
2.074602500E-1,-4.547746526E-1,5.941385061E-2,-2.973277000E0,3.008442472E0
2.173972500E-1,-6.635578197E-1,5.717319757E-2,-2.137479503E0,2.238838176E0
2.273352500E-1,-6.588648444E-1,1.202070594E-1,-1.595723863E0,1.730574259E0
2.372732500E-1,-3.121253948E-1,8.024894178E-2,-1.438207474E0,1.473873432E0
2.472102500E-1,-1.791377838E-1,1.394239336E-1,-1.686051065E0,1.701263523E0
2.571482500E-1,-2.484272893E-1,3.497728390E-1,-2.141957885E0,2.184500112E0
2.670862500E-1,-3.661121522E-1,6.305415165E-1,-2.448454311E0,2.554711183E0
2.770232500E-1,-2.984769702E-1,8.734447950E-1,-2.516387848E0,2.680336194E0
2.869612500E-1,-1.422550093E-1,1.130983362E0,-2.630477550E0,2.866840071E0
2.968982500E-1,1.427844746E-1,1.559177888E0,-2.740757207E0,3.156449454E0
3.068362500E-1,2.932336257E-1,2.089773532E0,-2.602236668E0,3.350339542E0
3.167742500E-1,2.600895609E-1,2.407128530E0,-1.553047374E0,2.876433640E0
3.267112500E-1,2.311971527E-1,2.310788051E0,2.031615078E-1,2.331194573E0
3.366492500E-1,4.414525026E-1,1.511741181E0,-2.065879762E-2,1.575013809E0
3.465872500E-1,5.747013380E-1,1.114514094E0,2.055628424E0,2.407910196E0
3.565242500E-1,6.135848835E-1,1.447548986E0,3.977738017E0,4.277181807E0
3.664622500E-1,8.825000855E-1,5.782691628E-1,3.120728576E0,3.294259927E0
3.763992500E-1,8.989614594E-1,-2.701244062E-1,2.413983221E0,2.590060596E0
3.863372500E-1,5.621463427E-1,-1.075871015E0,1.343301317E0,1.810515225E0
3.962752500E-1,-2.043327051E-1,-1.509955734E0,6.423131311E-1,1.653567154E0
4.062122500E-1,-1.160572320E0,-1.852900487E0,1.173711598E-1,2.189507779E0
4.161502500E-1,-1.649049300E0,-2.012214017E0,-3.193486065E-1,2.621135703E0
4.260872500E-1,-1.368189406E0,-1.993850251E0,-8.141119283E-1,2.551501383E0
4.360255000E-1,-1.101898727E0,-2.040425078E0,-1.367845005E0,2.692306680E0
4.459635000E-1,-1.321187147E0,-2.149776636E0,-1.956610504E0,3.193023603E0
4.559005000E-1,-1.617547718E0,-2.364987062E0,-2.494557853E0,3.799005568E0
4.658385000E-1,-1.830279948E0,-2.595922260E0,-2.864652690E0,4.277262220E0
4.757765000E-1,-1.918510047E0,-2.695653832E0,-3.182924239E0,4.591104126E0
4.857135000E-1,-1.808208756E0,-2.708812113E0,-3.578867278E0,4.838964038E0
4.956515000E-1,-1.310792552E0,-2.510144191E0,-3.727431579E0,4.681105334E0
5.055885000E-1,-5.200382039E-1,-2.223190036E0,-3.045846793E0,3.806599054E0
5.155265000E-1,4.822958887E-2,-2.163191464E0,-1.933454361E0,2.901718313E0
5.254645000E-1,4.095319676E-1,-2.417066604E0,-7.221305484E-1,2.555660371E0
5.354015000E-1,6.581146467E-1,-2.617408438E0,2.584200346E-1,2.711221632E0
5.453395000E-1,7.532383204E-1,-2.710834665E0,7.539791626E-1,2.912812580E0
5.552765000E-1,6.304070306E-1,-2.600527527E0,9.542141390E-1,2.840894413E0
5.652145000E-1,4.328167498E-1,-2.274854864E0,9.969789201E-1,2.521162819E0
5.751525000E-1,3.006638288E-1,-1.819546215E0,1.132736650E0,2.164310394E0
5.850895000E-1,1.902765834E-1,-1.307256887E0,1.258151824E0,1.824300348E0
5.950275000E-1,6.135424912E-2,-8.414754358E-1,1.383959346E0,1.620860489E0
6.049655000E-1,-9.130778074E-2,-3.271495230E-1,1.527962819E0,1.565258540E0
6.149025000E-1,-1.455272573E-1,8.043722212E-3,1.638251247E0,1.644721871E0
6.248405000E-1,-2.611308038E-1,2.805938458E-1,1.457502701E0,1.507062151E0
6.347775000E-1,-6.393035692E-1,5.756501949E-1,1.039399300E0,1.349234266E0
6.447155000E-1,-9.752038890E-1,7.209657830E-1,6.039986658E-1,1.354853746E0
6.546535000E-1,-1.218988343E0,7.152349269E-1,2.001314807E-1,1.427426422E0
6.645905000E-1,-1.517671720E0,7.168657154E-1,-1.345491099E-1,1.683843035E0
6.745285000E-1,-1.645808188E0,7.484304473E-1,-3.751012230E-1,1.846492257E0
6.844655000E-1,-1.436763797E0,7.128732365E-1,-4.511547875E-1,1.666138980E0
6.944035000E-1,-1.071991096E0,6.407174259E-1,-4.432645547E-1,1.325204586E0
7.043415000E-1,-5.953880560E-1,5.588777491E-1,-2.780573237E-1,8.626396415E-1
7.142785000E-1,-6.755872965E-2,4.282898355E-1,-5.029190183E-2,4.364924289E-1
7.242165000E-1,3.362540764E-1,2.320113775E-1,5.711911082E-2,4.125029406E-1
7.341545000E-1,7.379794264E-1,1.016693392E-1,2.691853434E-1,7.920928212E-1
7.440915000E-1,1.191888837E0,9.996399879E-3,5.229106486E-1,1.301589211E0
7.540295000E-1,1.493394080E0,-2.297596148E-1,7.030113226E-1,1.666505409E0
7.639665000E-1,1.702883445E0,-5.239403433E-1,7.038059592E-1,1.915637841E0
7.739045000E-1,1.901094700E0,-8.329671523E-1,6.281570220E-1,2.168542501E0
7.838425000E-1,2.115919649E0,-1.001261713E0,6.311186367E-1,2.424448744E0
7.937795000E-1,2.256086179E0,-9.913427889E-1,7.849349070E-1,2.586273029E0
8.037175000E-1,2.228300795E0,-1.031197996E0,8.410810411E-1,2.595401907E0
8.136555000E-1,2.196421191E0,-1.077580157E0,6.813082123E-1,2.539611372E0
8.235925000E-1,2.269678032E0,-1.132967322E0,5.480677092E-1,2.595270995E0
8.335305000E-1,2.312550986E0,-1.325618752E0,1.979615790E-1,2.672890931E0
8.434675000E-1,2.462626793E0,-1.755426233E0,-2.219076812E-1,3.032374482E0
8.534055000E-1,2.693214666E0,-2.155282520E0,-6.499034017E-1,3.510131395E0
8.633435000E-1,2.845385529E0,-2.581438999E0,-9.460976189E-1,3.956658542E0
8.732805000E-1,3.006579232E0,-2.913601486E0,-1.062362778E0,4.319398913E0
8.832185000E-1,3.398676556E0,-3.199421573E0,-7.388337046E-1,4.725798978E0
8.931565000E-1,3.921181993E0,-3.151343427E0,6.794698477E-2,5.031028763E0
9.030935000E-1,4.421163370E0,-3.043588014E0,8.758509243E-1,5.438495048E0
9.130315000E-1,4.690894259E0,-3.188122998E0,1.594670779E0,5.891654444E0
9.229685000E-1,4.750796059E0,-3.514757820E0,2.254583445E0,6.325087528E0
9.329065000E-1,4.555208450E0,-3.714012219E0,2.918252946E0,6.562012728E0
9.428445000E-1,4.327291585E0,-3.771589167E0,3.773669606E0,6.869564731E0
9.527815000E-1,3.908829750E0,-3.354027218E0,4.790543970E0,7.034042942E0
9.627195000E-1,3.345348780E0,-2.707077245E0,5.796223839E0,7.219129896E0
9.726565000E-1,2.841442752E0,-1.963306736E0,6.602420391E0,7.451196231E0
9.825945000E-1,2.787056630E0,-1.149646797E0,7.282528755E0,7.881915851E0
9.925325000E-1,3.032074846E0,-1.740663475E-1,7.913922211E0,8.476670439E0
1.002469500E0,3.318309501E0,7.636832017E-1,8.378655403E0,9.044128279E0
1.012407500E0,3.578287234E0,1.380551004E0,8.326184244E0,9.167082669E0
1.022345500E0,3.876151416E0,1.750696712E0,7.700798802E0,8.797260424E0
1.032282500E0,4.049273438E0,2.092231409E0,6.615712867E0,8.033785184E0
1.042220500E0,4.180392571E0,2.347412671E0,5.149100204E0,7.035571135E0
1.052157500E0,4.184723604E0,2.491688624E0,3.671100088E0,6.098967101E0
1.062095500E0,4.117536172E0,2.617470419E0,2.522818031E0,5.492710291E0
1.072033500E0,3.996817482E0,2.624510466E0,1.704377409E0,5.076170557E0
1.081970500E0,3.664509106E0,2.656495906E0,1.266805849E0,4.700041973E0
1.091908500E0,3.286283716E0,2.568851405E0,9.670009764E-1,4.281792743E0
1.101845500E0,2.718840673E0,2.222205657E0,4.967905515E-1,3.546419806E0
1.111783500E0,2.114034507E0,1.644528818E0,1.189518084E-1,2.681001018E0
1.121721500E0,1.338886085E0,1.251759648E0,-2.280414104E-5,1.832898842E0
1.131658500E0,5.454966885E-1,9.328104061E-1,-1.110444725E-2,1.080659613E0
1.141596500E0,-1.266705716E-1,7.979069549E-1,2.023171699E-1,8.328464322E-1
1.151534500E0,-6.760889876E-1,6.336908269E-1,2.409127401E-1,9.574441663E-1
1.161471500E0,-1.394315350E0,6.086957341E-1,-6.032455444E-2,1.522584922E0
1.171409500E0,-1.869451908E0,6.944387197E-1,-1.392286366E-1,1.999119852E0
1.181346500E0,-2.330946912E0,9.509309274E-1,-6.953274965E-2,2.518415759E0
1.191284500E0,-2.670352052E0,1.373073585E0,-3.724851787E-2,3.002915018E0
1.201222500E0,-2.985194795E0,1.785998107E0,-1.185927162E-1,3.480695539E0
1.211159500E0,-3.310705197E0,2.190875106E0,-2.407965998E-1,3.977271129E0
1.221097500E0,-3.676871290E0,2.569471210E0,-4.608278364E-1,4.509315588E0
1.231035500E0,-3.980501996E0,2.908091655E0,-7.305061001E-1,4.983475933E0
1.240972500E0,-4.259312441E0,3.121377032E0,-1.126319330E0,5.399382583E0
1.250910500E0,-4.610990303E0,3.164418971E0,-1.760583477E0,5.862971360E0
1.260847500E0,-4.919163126E0,3.085199139E0,-2.502420604E0,6.322873434E0
1.270785500E0,-5.221643100E0,2.977446649E0,-3.170011248E0,6.795565946E0
1.280723500E0,-5.590738648E0,2.899850589E0,-3.866459656E0,7.390196366E0
1.290660500E0,-5.846302902E0,2.746393338E0,-4.469397052E0,7.854772053E0
1.300598500E0,-5.992251159E0,2.516001931E0,-4.937372525E0,8.161800483E0
1.310535500E0,-5.954376404E0,2.237601376E0,-5.218042384E0,8.227358301E0
1.320473500E0,-5.763681160E0,1.850227432E0,-5.259619596E0,8.019162074E0
1.330411500E0,-5.402348961E0,1.390164119E0,-5.115967541E0,7.569085443E0
1.340348500E0,-4.915770571E0,8.323531947E-1,-4.669615656E0,6.831026462E0
1.350286500E0,-4.373970492E0,3.054085520E-1,-4.020671782E0,5.949007803E0
1.360224500E0,-3.577953942E0,-1.885797215E-1,-3.111507224E0,4.745397131E0
1.370161500E0,-2.790246286E0,-6.095666769E-1,-2.041892145E0,3.510892963E0
1.380099500E0,-2.087229116E0,-1.006386213E0,-1.176497211E0,2.598746675E0
1.390036500E0,-1.554630800E0,-1.438156311E0,-4.979670113E-1,2.175578462E0
1.399974500E0,-1.267472286E0,-1.685380390E0,1.532960142E-1,2.114353972E0
1.409912500E0,-1.226828874E0,-1.848831702E0,4.856808418E-1,2.271381436E0
1.419849500E0,-1.008817778E0,-2.034034072E0,6.312588237E-1,2.356585584E0
1.429787500E0,-5.955599642E-1,-2.117152534E0,9.864216261E-1,2.410405391E0
1.439724917E0,-3.816261309E-1,-2.060713455E0,1.366756692E0,2.502039628E0
1.449662917E0,-2.447235167E-1,-2.135504605E0,1.638098050E0,2.702523772E0
1.459600917E0,-6.398549616E-2,-2.356547776E0,1.870424885E0,3.009302380E0
1.469537917E0,1.819828928E-1,-2.491342176E0,2.242900708E0,3.357157607E0
1.479475917E0,7.548205769E-1,-2.518310120E0,2.618497775E0,3.710548552E0
1.489413917E0,1.611948717E0,-2.437726133E0,2.968920239E0,4.165978246E0
1.499350917E0,2.281425088E0,-2.034994184E0,3.169314260E0,4.403482104E0
1.509288917E0,2.718232563E0,-1.429513542E0,3.062950484E0,4.337506530E0
1.519225917E0,2.923572743E0,-8.463470435E-1,2.669206583E0,4.048239702E0
1.529163917E0,3.114365051E0,-2.815583441E-1,2.233442544E0,3.842760774E0
1.539101917E0,3.435506414E0,3.226002431E-1,1.873350247E0,3.926348989E0
1.549038917E0,3.982053262E0,9.027223885E-1,1.721292819E0,4.431083937E0
1.558976917E0,4.564658135E0,1.414696405E0,1.647459881E0,5.054858442E0
1.568914917E0,5.077305751E0,1.730916751E0,1.622460841E0,5.604238188E0
1.578851917E0,5.387205842E0,1.821704714E0,1.615460554E0,5.911878521E0
1.588789917E0,5.369492871E0,1.674254892E0,1.659428108E0,5.864152520E0
1.598726917E0,5.143520790E0,1.429283454E0,1.695453534E0,5.601180233E0
1.608664917E0,5.029625216E0,9.433470887E-1,1.610583392E0,5.364793789E0
1.618602917E0,4.888335435E0,1.232996517E-1,1.542001253E0,5.127259892E0
1.628539917E0,4.473775447E0,-9.258516347E-1,1.617591134E0,4.846490387E0
1.638477917E0,4.100934173E0,-1.578780971E0,2.177789038E0,4.904383298E0
1.648414917E0,4.240269814E0,-1.708583311E0,2.972618603E0,5.453036437E0
1.658352917E0,4.912921808E0,-1.290626675E0,3.749625270E0,6.313652475E0
1.668290917E0,5.574252423E0,-3.334076518E-1,4.468498335E0,7.151987703E0
1.678227917E0,6.125660647E0,7.048572886E-1,4.907613705E0,7.880686165E0
1.688165917E0,6.502921831E0,1.538083180E0,5.009296201E0,8.351451409E0
1.698103917E0,6.515452414E0,1.895279644E0,4.752861296E0,8.284497305E0
1.708040917E0,6.015986177E0,1.742436351E0,4.137556454E0,7.506500351E0
1.717978917E0,5.025268455E0,1.299666470E0,3.275689146E0,6.137800531E0
1.727915917E0,4.067556512E0,6.367419040E-1,2.459468127E0,4.795773107E0
1.737853917E0,3.398690005E0,6.762246430E-2,1.954530065E0,3.921205723E0
1.747791917E0,2.757496616E0,-2.798261064E-1,1.547218139E0,3.174267507E0
1.757728917E0,2.210752131E0,-3.619221836E-1,1.229483218E0,2.555394615E0
1.767666917E0,1.803287154E0,-2.165124553E-1,9.788338405E-1,2.063210579E0
1.777604917E0,1.354842551E0,-2.033369243E-3,8.057737988E-1,1.576348276E0
1.787541917E0,8.590039265E-1,1.692926806E-1,6.485771070E-1,1.089587088E0
1.797479917E0,3.066075236E-1,3.365192476E-1,4.780446705E-1,6.601364136E-1
1.807416917E0,-3.560732138E-1,5.038572040E-1,2.605384809E-1,6.697316744E-1
1.817354917E0,-1.013933507E0,6.724371091E-1,-2.510794401E-3,1.216650782E0
1.827292917E0,-1.585345055E0,8.789318222E-1,-3.101325175E-1,1.839027534E0
1.837229917E0,-2.160084254E0,1.121144252E0,-5.876106745E-1,2.503640294E0
1.847167917E0,-2.649273425E0,1.270501728E0,-8.558394134E-1,3.060275383E0
1.857104917E0,-3.117569910E0,1.260853530E0,-1.161605815E0,3.557853543E0
1.867042917E0,-3.800842786E0,7.071610916E-1,-1.448658788E0,4.128570573E0
1.876980917E0,-3.858644267E0,9.773088866E-1,-1.625900758E0,4.299746680E0
1.886917917E0,-3.674303777E0,1.311949716E0,-1.610429610E0,4.220806064E0
1.896855917E0,-3.899691136E0,9.262442753E-1,-1.698354484E0,4.353151430E0
1.906793917E0,-4.238275913E0,4.686429325E-1,-2.166596590E0,4.782964530E0
1.916730917E0,-4.657662193E0,5.877591938E-2,-2.435396309E0,5.256275002E0
1.926668917E0,-5.098690188E0,-4.410262406E-1,-2.660976042E0,5.768183360E0
1.936605917E0,-5.554057310E0,-9.311775711E-1,-3.118103176E0,6.437174200E0
1.946543917E0,-5.886298442E0,-1.325089872E0,-3.657850297E0,7.055794874E0
1.956481917E0,-6.004212223E0,-1.647080542E0,-4.088210047E0,7.448281689E0
1.966418917E0,-5.981629107E0,-2.020547176E0,-4.439067544E0,7.718019068E0
1.976356917E0,-5.721404037E0,-2.427291630E0,-4.728444200E0,7.809250500E0
1.986293917E0,-5.483646308E0,-2.925916892E0,-4.944495603E0,7.942254293E0
1.996231917E0,-5.194906706E0,-3.477940535E0,-5.197420424E0,8.129963414E0
2.006169917E0,-5.041035472E0,-4.156686205E0,-5.217677518E0,8.361473406E0
2.016106917E0,-4.820138775E0,-4.607650665E0,-5.534842190E0,8.665948334E0
2.026044917E0,-4.437968853E0,-5.035899278E0,-6.070561749E0,9.050280052E0
2.035982917E0,-3.994734119E0,-5.570565754E0,-6.474182181E0,9.428899109E0
2.045919917E0,-3.376807385E0,-6.112321393E0,-6.645531328E0,9.639833378E0
2.055857917E0,-2.595605925E0,-6.718609244E0,-6.574486488E0,9.751961489E0
2.065794917E0,-1.785773574E0,-7.119880266E0,-6.276059804E0,9.657670988E0
2.075732917E0,-8.566141695E-1,-7.264562600E0,-5.833627893E0,9.356221032E0
2.085670917E0,3.858168304E-2,-7.401889722E0,-5.279498960E0,9.091895802E0
2.095607917E0,5.309330285E-1,-7.568004441E0,-4.681924045E0,8.914987037E0
2.105545917E0,7.335677022E-1,-7.713719979E0,-4.075835584E0,8.755114688E0
2.115482917E0,6.358958119E-1,-7.654372494E0,-3.538318006E0,8.456564082E0
2.125420917E0,6.737401611E-1,-7.626940867E0,-2.696661015E0,8.117643341E0
2.135358917E0,8.900269139E-1,-7.463956162E0,-1.752166117E0,7.718346688E0
2.145295917E0,1.268621848E0,-7.264449164E0,-8.999967089E-1,7.429106079E0
2.155233917E0,1.846210980E0,-7.119552237E0,-1.260452119E-1,7.356113541E0
2.165171917E0,2.339929404E0,-6.902938040E0,5.049313375E-1,7.306215084E0
2.175108917E0,2.775584977E0,-6.718174211E0,9.287009829E-1,7.328043546E0
2.185046917E0,3.086389048E0,-6.775160006E0,1.286750848E0,7.555416481E0
2.194983917E0,3.333562548E0,-7.000769559E0,1.734523898E0,7.945563972E0
2.204921917E0,3.425640991E0,-6.934953884E0,2.211052094E0,8.044709624E0
2.214859917E0,3.518830406E0,-6.475986047E0,2.495880493E0,7.781386904E0
2.224796917E0,3.779807428E0,-5.610134447E0,2.612766919E0,7.251696607E0
2.234734917E0,4.263672709E0,-4.489068255E0,2.499971205E0,6.676862646E0
2.244671917E0,4.967078134E0,-3.352270129E0,2.262240373E0,6.405256569E0
2.254609917E0,5.936960472E0,-2.248480706E0,2.033403157E0,6.666175330E0
2.264547917E0,6.993573976E0,-1.246944466E0,1.835094838E0,7.337064843E0
2.274484917E0,7.759334108E0,-3.465995550E-1,1.676252886E0,7.945893329E0
2.284422917E0,8.201056167E0,4.120807689E-1,1.599656700E0,8.365765618E0
2.294360917E0,8.137873494E0,1.086386940E0,1.614091136E0,8.367228441E0
2.304297917E0,7.786569854E0,1.687899955E0,1.823724343E0,8.173472140E0
2.314235917E0,7.228643739E0,2.168474423E0,2.161608038E0,7.850358014E0
2.324172917E0,6.442261062E0,2.484942691E0,2.427273942E0,7.319106951E0
2.334110917E0,5.635335946E0,2.845954463E0,2.724773258E0,6.876107717E0
2.344048917E0,4.827773484E0,3.242648869E0,2.842664820E0,6.473245846E0
2.353985917E0,3.907739244E0,3.679886699E0,2.814568949E0,6.060840741E0
2.363923917E0,3.238523074E0,4.101764477E0,2.786415775E0,5.922551511E0
2.373860917E0,2.676563550E0,4.444270982E0,2.630213256E0,5.816662167E0
2.383798917E0,2.143968742E0,4.836154298E0,2.439665215E0,5.825543471E0
2.393736917E0,1.626168560E0,5.151833192E0,2.303330512E0,5.872915875E0
2.403673917E0,1.066071959E0,5.403736505E0,2.199609092E0,5.930864844E0
2.413611917E0,5.405160302E-1,5.614471911E0,2.033151727E0,5.995678307E0
2.423549917E0,9.642877221E-2,5.693424525E0,1.884375172E0,5.997937239E0
2.433486917E0,-3.467515826E-1,5.668731149E0,1.748758360E0,5.942466264E0
2.443424917E0,-7.556403565E-1,5.528171686E0,1.572653089E0,5.796974407E0
2.453361917E0,-1.173987586E0,5.334064592E0,1.423767775E0,5.644254300E0
2.463299917E0,-1.611732954E0,5.073196912E0,1.295389817E0,5.478416268E0
2.473237917E0,-2.029831093E0,4.801450489E0,1.151590412E0,5.338567367E0
2.483174917E0,-2.377019463E0,4.487318183E0,1.048615097E0,5.185155699E0
2.493112917E0,-2.692700111E0,4.162573181E0,9.699829102E-1,5.051585516E0
2.503050917E0,-2.951396719E0,3.745453867E0,8.153848672E-1,4.837770121E0
2.512987917E0,-3.104553423E0,3.201485056E0,6.878687882E-1,4.512307834E0
2.522925917E0,-3.135469991E0,2.613727616E0,5.909143513E-1,4.124551356E0
2.532862917E0,-3.188527041E0,2.068993989E0,5.033458650E-1,3.834161953E0
2.542800917E0,-3.171115787E0,1.539398804E0,4.554706174E-1,3.554318148E0
2.552738917E0,-3.123625286E0,1.077650616E0,3.689318258E-1,3.324827284E0
2.562675917E0,-3.070844809E0,7.947020960E-1,2.802014977E-1,3.184360555E0
2.572613917E0,-2.968010997E0,5.978117269E-1,2.409163946E-1,3.037187655E0
2.582550917E0,-2.864559719E0,4.594519866E-1,2.489177428E-1,2.911830791E0
2.592488917E0,-2.645835262E0,3.204683483E-1,3.319505256E-1,2.685765319E0
2.602426917E0,-2.275317671E0,8.555879831E-2,5.032154721E-1,2.331869770E0
2.612363917E0,-1.698924880E0,-1.509166360E-1,7.524612254E-1,1.864220876E0
2.622301917E0,-1.074686077E0,-3.744130057E-1,1.043746705E0,1.544196376E0
2.632238917E0,-5.540266067E-1,-5.651146817E-1,1.265684792E0,1.492735099E0
2.642176917E0,-1.966781151E-1,-7.216048837E-1,1.408966134E0,1.595174428E0
2.652114917E0,1.083389658E-1,-8.442648500E-1,1.478663775E0,1.706155628E0
2.662051917E0,3.098907351E-1,-9.355714613E-1,1.474439746E0,1.773499025E0
2.671989917E0,4.797856790E-1,-1.056412944E0,1.493451383E0,1.891190006E0
2.681927917E0,7.619079870E-1,-1.155213346E0,1.525518683E0,2.059667184E0
2.691864917E0,1.056359734E0,-1.168765438E0,1.539064343E0,2.202414037E0
2.701802917E0,1.300830651E0,-1.165081692E0,1.462127849E0,2.277585032E0
2.711739917E0,1.478485435E0,-1.133395631E0,1.345694582E0,2.298129401E0
2.721677917E0,1.602639365E0,-1.141686398E0,1.283298944E0,2.349203470E0
2.731615917E0,1.829193828E0,-1.265946162E0,1.291784424E0,2.572406800E0
2.741552917E0,2.238237553E0,-1.373546625E0,1.403044074E0,2.977393213E0
2.751490917E0,2.788526035E0,-1.239170592E0,1.495909553E0,3.398406479E0
2.761427917E0,3.470575089E0,-9.962386626E-1,1.463691394E0,3.896123127E0
2.771365917E0,4.677843858E0,-8.509107953E-1,1.251015297E0,4.916432814E0
2.781303917E0,5.964730654E0,-7.631394106E-1,1.055908914E0,6.105353157E0
2.791240917E0,6.792083017E0,-9.152863008E-1,1.005246298E0,6.926807406E0
2.801178917E0,7.183461719E0,-1.379332445E0,1.178998650E0,7.409096981E0
2.811116917E0,7.015782285E0,-1.845129830E0,1.447908590E0,7.397441750E0
2.821053917E0,6.498462744E0,-2.091625637E0,1.730327936E0,7.042652243E0
2.830991917E0,5.738270330E0,-1.881534010E0,2.085802395E0,6.388934829E0
2.840928917E0,4.837385137E0,-1.329125327E0,2.342764134E0,5.536733052E0
2.850866917E0,3.948707176E0,-4.615751106E-1,2.490166594E0,4.691084055E0
2.860804917E0,3.373278006E0,3.849186981E-1,2.537010977E0,4.238347745E0
2.870741917E0,3.034741761E0,9.593491638E-1,2.579854696E0,4.097030464E0
2.880679917E0,2.665477813E0,1.256519866E0,2.674733956E0,3.979675349E0
2.890616917E0,2.293750434E0,1.064091507E0,2.836098397E0,3.799609967E0
2.900554917E0,1.869975234E0,6.391480333E-1,2.897972463E0,3.507643366E0
2.910492917E0,1.413209458E0,1.481128961E-1,2.731008144E0,3.078555487E0
2.920429917E0,9.393282974E-1,-2.403673410E-1,2.388969856E0,2.578234101E0
2.930367917E0,4.650033331E-1,-5.821867973E-1,1.944652948E0,2.082509221E0
2.940305917E0,3.802853644E-2,-8.320979637E-1,1.419374762E0,1.645739319E0
2.950242917E0,-3.402284288E-1,-1.036900200E0,8.969429275E-1,1.412594784E0
2.960180917E0,-6.504670733E-1,-1.134105483E0,3.362249865E-1,1.349944407E0
2.970117917E0,-9.955814356E-1,-1.114323767E0,-2.269532436E-1,1.511425694E0
2.980055917E0,-1.331886967E0,-9.615062016E-1,-7.071387260E-1,1.788424515E0
2.989993917E0,-1.588624173E0,-6.148294634E-1,-1.030713846E0,1.991008053E0
2.999930917E0,-1.687622797E0,-1.609460726E-1,-1.145978839E0,2.046275114E0
3.009868917E0,-1.799640246E0,3.477587655E-1,-1.199872625E0,2.190738572E0
3.019805917E0,-1.907461149E0,8.219390112E-1,-1.228304712E0,2.413032166E0
3.029743917E0,-2.031122743E0,1.248581686E0,-1.089777302E0,2.621455777E0
3.039681917E0,-2.154285570E0,1.600169208E0,-8.596655390E-1,2.817891526E0
3.049618917E0,-2.248205302E0,1.857306072E0,-5.733387905E-1,2.971990964E0
3.059556917E0,-2.418917686E0,2.022531721E0,-3.104621543E-1,3.168309342E0
3.069493917E0,-2.651335153E0,2.059950101E0,-1.034965941E-1,3.359119536E0
3.079431917E0,-2.910025914E0,2.034290764E0,4.197131395E-2,3.550824034E0
3.089369917E0,-3.150164044E0,1.936568003E0,1.042206256E-1,3.699282508E0
3.099306917E0,-3.276047580E0,1.714862636E0,8.902473539E-2,3.698806160E0
3.109244917E0,-3.419051179E0,1.464900306E0,-1.025619167E-1,3.721070118E0
3.119182917E0,-3.394327397E0,1.092563647E0,-4.557948455E-1,3.594843911E0
3.129119917E0,-3.103323753E0,6.078473032E-1,-8.081027448E-1,3.263912791E0
3.139057917E0,-2.709209139E0,2.351574719E-1,-1.114338970E0,2.938854290E0
3.148994917E0,-2.305553039E0,-1.241650397E-1,-1.395992039E0,2.698107771E0
3.158932917E0,-1.951838007E0,-5.305716705E-1,-1.565968552E0,2.558013958E0
3.168870917E0,-1.639378590E0,-8.331715125E-1,-1.550322864E0,2.405252152E0
3.178807917E0,-1.414163724E0,-1.210157293E0,-1.642376165E0,2.482285072E0
3.188745917E0,-1.372464305E0,-1.684601541E0,-1.809896847E0,2.827943991E0
3.198682917E0,-1.541201500E0,-1.989271004E0,-2.046571379E0,3.243602257E0
3.208620917E0,-1.552660289E0,-2.103841933E0,-2.362773014E0,3.524145452E0
3.218558917E0,-1.170348279E0,-3.389784111E0,-2.721975950E0,4.502166643E0
3.228495917E0,-1.170133102E0,-3.843718665E0,-2.899502680E0,4.954846157E0
3.238433917E0,-1.037210687E0,-4.098815142E0,-3.176169536E0,5.288113510E0
3.248371917E0,-9.062044054E-1,-4.371438356E0,-3.461884958E0,5.649365202E0
3.258308917E0,-7.689322472E-1,-4.589023483E0,-3.740002800E0,5.969758309E0
3.268246917E0,-6.504571331E-1,-4.572051355E0,-3.852898793E0,6.014281103E0
3.278183917E0,-4.391498691E-1,-4.605667582E0,-3.843693522E0,6.014898700E0
3.288121917E0,-9.310872316E-2,-4.754857535E0,-3.721943382E0,6.039056380E0
3.298059917E0,2.295225102E-1,-4.964236972E0,-3.498629445E0,6.077560143E0
3.307996917E0,4.982716513E-1,-5.215986503E0,-3.168263515E0,6.123126942E0
3.317934917E0,8.163040495E-1,-5.425967034E0,-2.718934813E0,6.123730650E0
3.327871917E0,1.041865071E0,-5.544117043E0,-2.132497675E0,6.030776314E0
3.337809917E0,1.278674381E0,-5.755100956E0,-1.642061877E0,6.119849867E0
3.347747917E0,1.693819091E0,-6.258522835E0,-1.256687096E0,6.604346572E0
3.357684917E0,1.858189001E0,-6.687193909E0,-9.945722061E-1,7.011462230E0
3.367622917E0,1.677565001E0,-6.793396887E0,-9.322569671E-1,7.059289528E0
3.377559917E0,1.449403723E0,-6.789841779E0,-8.752428138E-1,6.997769111E0
3.387497917E0,1.181044591E0,-6.794253504E0,-7.632203946E-1,6.938245626E0
3.397435917E0,7.669798619E-1,-6.711518326E0,-5.306462225E-1,6.776010756E0
3.407372917E0,4.322144866E-2,-6.367060021E0,-4.423254919E-1,6.382552252E0
3.417310917E0,-8.203058839E-1,-5.644851705E0,-6.242873347E-1,5.738204178E0
3.427248917E0,-1.501007155E0,-4.798942325E0,-1.051543382E0,5.136984856E0
3.437185500E0,-1.889958093E0,-4.179973618E0,-1.479677974E0,4.820121155E0
3.447123500E0,-2.025308856E0,-3.745466438E0,-1.757922994E0,4.606591805E0
3.457060500E0,-2.037316114E0,-3.511120852E0,-1.962608578E0,4.508931028E0
3.466998500E0,-1.962741310E0,-3.361339453E0,-2.274616590E0,4.508307554E0
3.476936500E0,-1.576838526E0,-3.324659869E0,-2.784262245E0,4.614314601E0
3.486873500E0,-1.108792301E0,-3.103461748E0,-3.439090757E0,4.763217444E0
3.496811500E0,-4.590046746E-1,-2.717374776E0,-3.819232572E0,4.709707889E0
3.506748500E0,2.907984066E-1,-2.364470753E0,-3.898605893E0,4.568852544E0
3.516686500E0,1.016546043E0,-1.924628574E0,-3.876191177E0,4.445494240E0
3.526624500E0,1.517368834E0,-1.394524680E0,-3.629122927E0,4.173444678E0
3.536561500E0,1.850216907E0,-9.347323859E-1,-3.197648113E0,3.810771666E0
3.546499500E0,1.865481064E0,-4.198452866E-1,-2.611500412E0,3.236699563E0
3.556437500E0,1.866165773E0,1.138809568E-1,-1.988462773E0,2.729382304E0
3.566374500E0,1.748425069E0,6.829366618E-1,-1.339303576E0,2.305889584E0
3.576312500E0,1.664301177E0,1.305059942E0,-7.353224516E-1,2.239146929E0
3.586249500E0,1.505635226E0,2.027789830E0,-1.237493757E-1,2.528672169E0
3.596187500E0,1.398821799E0,2.733713066E0,4.033994079E-1,3.097195608E0
3.606125500E0,1.351286275E0,3.230845095E0,8.243404627E-1,3.597759278E0
3.616062500E0,1.265807583E0,3.717070312E0,1.251549733E0,4.121317420E0
3.626000500E0,1.109229673E0,4.300696110E0,1.703822508E0,4.757035698E0
3.635937500E0,9.736836129E-1,4.720829079E0,2.130968628E0,5.270229053E0
3.645875500E0,7.440061516E-1,4.984773563E0,2.449146037E0,5.603555027E0
3.655813500E0,5.501066333E-1,5.222006797E0,2.653043125E0,5.883078285E0
3.665750500E0,3.921645677E-1,5.328773446E0,2.656995842E0,5.967348355E0
3.675688500E0,2.017067206E-1,5.241557547E0,2.489393592E0,5.806177019E0
3.685625500E0,-2.754097044E-2,5.070894279E0,2.229717575E0,5.539527756E0
3.695563500E0,-1.956624538E-1,4.847398494E0,2.054612178E0,5.268490026E0
3.705501500E0,-2.814761907E-1,4.504496718E0,2.000800252E0,4.936893879E0
3.715438500E0,-3.467977756E-1,4.075268989E0,2.097243350E0,4.596358961E0
3.725376500E0,-3.091025305E-1,3.657777207E0,2.310251423E0,4.337296405E0
3.735314500E0,-1.245392615E-1,3.207346889E0,2.528197177E0,4.085873843E0
3.745251500E0,1.985404533E-1,2.697301285E0,2.731128304E0,3.843684996E0
3.755189500E0,5.639119095E-1,2.187777252E0,2.990199426E0,3.747753801E0
3.765126500E0,9.617418444E-1,1.770774881E0,3.337561458E0,3.898705881E0
3.775064500E0,1.434413801E0,1.487942137E0,3.711523644E0,4.248166959E0
3.785002500E0,2.066144056E0,1.296484416E0,4.088932470E0,4.761217475E0
3.794939500E0,2.694965907E0,1.202440138E0,4.495195260E0,5.377311963E0
3.804877500E0,3.303485640E0,1.078259895E0,4.762753908E0,5.895717646E0
3.814814500E0,3.946119783E0,9.860224074E-1,4.996535822E0,6.442784472E0
3.824752500E0,4.516131508E0,8.453126711E-1,5.285758404E0,7.003516204E0
3.834690500E0,5.028673874E0,5.742416006E-1,5.545457225E0,7.507956458E0
3.844627500E0,5.439308626E0,3.523298264E-1,5.858367462E0,8.001917518E0
3.854565500E0,5.720701786E0,2.960761034E-1,6.178863877E0,8.425701680E0
3.864502500E0,5.943490643E0,3.161905253E-1,6.401587830E0,8.741017344E0
3.874440500E0,6.015397947E0,3.899894035E-1,6.558568028E0,8.907969397E0
3.884378500E0,6.090124193E0,6.032969999E-1,6.636023755E0,9.027202847E0
3.894315500E0,6.248119469E0,8.196802318E-1,6.687114387E0,9.188491247E0
3.904253500E0,6.266569188E0,9.209247708E-1,6.663268272E0,9.193320177E0
3.914191500E0,6.387514166E0,7.316515696E-1,6.467163768E0,9.119202731E0
3.924128500E0,6.631150686E0,7.614127278E-2,6.187718900E0,9.070050832E0
3.934066500E0,6.801172514E0,-8.190691978E-1,5.884481127E0,9.030722012E0
3.944003500E0,6.923552983E0,-1.702192889E0,5.550489339E0,9.035539743E0
3.953941500E0,7.010409864E0,-2.321975529E0,5.192139219E0,9.027498351E0
3.963879500E0,7.084223360E0,-2.610512817E0,4.746384043E0,8.917912270E0
3.973816500E0,7.117350175E0,-2.548546949E0,4.215167717E0,8.655599572E0
3.983754500E0,7.174759893E0,-2.020602432E0,3.567003569E0,8.263384789E0
3.993691500E0,7.243565249E0,-1.314114355E0,2.839432479E0,7.890406254E0
4.003629500E0,7.231815269E0,-7.818341285E-1,2.192551503E0,7.597216516E0
4.013567500E0,7.068929967E0,-5.429578274E-1,1.717700289E0,7.294865891E0
4.023504500E0,6.692355831E0,-7.564607209E-1,1.378460040E0,6.874591731E0
4.033442500E0,6.156080786E0,-1.334676674E0,1.183359504E0,6.409292643E0
4.043380500E0,5.517318084E0,-2.062637481E0,1.107662619E0,5.993512217E0
4.053317500E0,4.774374956E0,-2.766703057E0,8.798200142E-1,5.587788944E0
4.063255500E0,4.024980596E0,-3.382674481E0,5.221867633E-1,5.283524814E0
4.073192500E0,3.283962371E0,-3.854758208E0,1.014591318E-1,5.064964329E0
4.083130500E0,2.592337916E0,-4.164703322E0,-3.419095764E-1,4.917506664E0
4.093068500E0,1.991348813E0,-4.336210343E0,-7.477705890E-1,4.829839654E0
4.103005500E0,1.411348874E0,-4.343105380E0,-1.014951653E0,4.678097567E0
4.112943500E0,8.602961612E-1,-4.261154314E0,-1.303182986E0,4.538263045E0
4.122880500E0,3.981480235E-1,-4.204690676E0,-1.588557808E0,4.512367609E0
4.132818500E0,2.554765463E-2,-4.079861977E0,-1.753060888E0,4.440624833E0
4.142756500E0,-4.086461145E-1,-3.818140020E0,-1.829427863E0,4.253468134E0
4.152693500E0,-8.307770777E-1,-3.482450784E0,-1.819319050E0,4.015915316E0
4.162631500E0,-1.257333798E0,-3.085728020E0,-1.803258649E0,3.788713165E0
4.172568500E0,-1.620212587E0,-2.685202226E0,-1.709313190E0,3.571715470E0
4.182506500E0,-1.916726646E0,-2.290972422E0,-1.590200583E0,3.383952359E0
4.192444500E0,-2.137591769E0,-2.007406729E0,-1.535329726E0,3.310017781E0
4.202381500E0,-2.420217522E0,-1.845107026E0,-1.480113884E0,3.384170489E0
4.212319500E0,-2.743678476E0,-1.722960737E0,-1.419525036E0,3.537148089E0
4.222257500E0,-3.050512871E0,-1.714052504E0,-1.331607471E0,3.743899467E0
4.232194500E0,-3.441595704E0,-1.857403135E0,-1.421141206E0,4.161029887E0
4.242132500E0,-3.870003653E0,-2.070757509E0,-1.585257054E0,4.666690998E0
4.252069500E0,-4.207353498E0,-2.319743062E0,-1.759447655E0,5.116511251E0
4.262007500E0,-4.516883460E0,-2.599941636E0,-1.965051253E0,5.569861679E0
4.271945500E0,-4.836813864E0,-2.886683536E0,-2.195699644E0,6.045560944E0
4.281882500E0,-5.007794051E0,-3.230136120E0,-2.473706682E0,6.452209339E0
4.291820500E0,-5.109061979E0,-3.675272076E0,-2.745357211E0,6.866376436E0
4.301757500E0,-5.239976460E0,-4.142092139E0,-3.072628795E0,7.352232878E0
4.311695500E0,-5.446369139E0,-4.510898250E0,-3.434538699E0,7.861755268E0
4.321633500E0,-5.652740183E0,-4.768280404E0,-3.877148074E0,8.349984837E0
4.331570500E0,-5.798044662E0,-5.001470872E0,-4.374894937E0,8.818828635E0
4.341508500E0,-5.865371842E0,-5.115520813E0,-4.813673216E0,9.151097741E0
4.351445500E0,-5.813294785E0,-5.248526258E0,-5.168784855E0,9.383909687E0
4.361383500E0,-5.810203947E0,-5.322873605E0,-5.429285914E0,9.569148283E0
4.371321500E0,-5.764816689E0,-5.260321262E0,-5.737545860E0,9.686254371E0
4.381258500E0,-5.611406801E0,-5.209787285E0,-5.841791775E0,9.631007268E0
4.391196500E0,-5.436097920E0,-5.199420757E0,-5.911585311E0,9.567234589E0
4.401134500E0,-5.246035345E0,-5.239009330E0,-6.033358254E0,9.558740368E0
4.411071500E0,-4.901065993E0,-5.343199112E0,-6.212714578E0,9.548196010E0
4.421009500E0,-4.399349163E0,-5.549285982E0,-6.262887197E0,9.453708479E0
4.430946500E0,-3.975946430E0,-5.794484292E0,-6.211959118E0,9.379372810E0
4.440884542E0,-3.633298423E0,-6.197756231E0,-6.059450870E0,9.398403299E0
4.450822542E0,-3.323484871E0,-6.628620595E0,-5.879323298E0,9.463118151E0
4.460759542E0,-3.130495180E0,-7.181674810E0,-5.737417806E0,9.710531202E0
4.470697542E0,-3.010360041E0,-7.701004039E0,-5.650159807E0,1.001459119E1
4.480634542E0,-2.686121993E0,-8.053850175E0,-5.439791021E0,1.008320784E1
4.490572542E0,-1.991500255E0,-8.300995023E0,-4.913535765E0,9.849640875E0
4.500510542E0,-8.937960291E-1,-8.515248114E0,-4.114924806E0,9.499522512E0
4.510447542E0,5.704859340E-1,-8.875261767E0,-3.254261439E0,9.470266266E0
4.520385542E0,2.170882891E0,-9.075738818E0,-2.400297228E0,9.635517340E0
4.530322542E0,3.378122424E0,-9.005211457E0,-1.762395821E0,9.778117586E0
4.540260542E0,4.135000636E0,-8.881609504E0,-1.371874906E0,9.892586032E0
4.550198542E0,4.616634035E0,-8.898936558E0,-1.121815220E0,1.008775748E1
4.560135542E0,4.846512641E0,-8.971021618E0,-6.824054423E-1,1.021927546E1
4.570073542E0,4.729384140E0,-8.930032636E0,-2.774343029E-1,1.010888357E1
4.580010542E0,4.443938275E0,-8.591772965E0,1.075487146E-1,9.673609295E0
4.589948542E0,4.165566371E0,-7.973135794E0,5.073047224E-1,9.010005309E0
4.599886542E0,4.035216147E0,-7.228343192E0,9.978349525E-1,8.338320529E0
4.609823542E0,4.044491000E0,-6.397778953E0,1.557631592E0,7.727593362E0
4.619761542E0,4.226834666E0,-5.416717324E0,2.154955807E0,7.200749432E0
4.629699542E0,4.583776776E0,-4.490767456E0,2.681286930E0,6.954660414E0
4.639636542E0,5.050140756E0,-3.558385651E0,3.128769082E0,6.924971196E0
4.649574542E0,5.377315861E0,-2.706467965E0,3.335909620E0,6.882498653E0
4.659511542E0,5.530783637E0,-1.912658154E0,3.302826658E0,6.719858093E0
4.669449542E0,5.594245223E0,-1.148700133E0,3.175000092E0,6.534195987E0
4.679387542E0,5.487251701E0,-4.628854716E-1,2.947299575E0,6.245860147E0
4.689324542E0,5.156975234E0,1.543694168E-1,2.448824440E0,5.710951288E0
4.699262542E0,4.779801173E0,7.285999078E-1,1.872711146E0,5.185017272E0
4.709199542E0,4.431628717E0,1.223080809E0,1.390069687E0,4.802869297E0
4.719137542E0,4.074258590E0,1.760522373E0,1.076548415E0,4.567053599E0
4.729075542E0,3.744092050E0,2.409622952E0,7.139315826E-1,4.509346555E0
4.739012542E0,3.488033121E0,3.043499136E0,5.263143128E-1,4.658998691E0
4.748950542E0,3.299962692E0,3.611602914E0,4.868654877E-1,4.916346955E0
4.758887542E0,3.098419109E0,4.141496308E0,6.440936083E-1,5.212201955E0
4.768825542E0,2.742945819E0,4.632370062E0,9.452012408E-1,5.465895127E0
4.778763542E0,2.388160163E0,5.057869021E0,1.245403140E0,5.730303393E0
4.788700542E0,2.025071459E0,5.396915728E0,1.503617352E0,5.957220739E0
4.798638542E0,1.558746071E0,5.617579122E0,1.707675823E0,6.074787339E0
4.808575542E0,1.073448222E0,5.775050486E0,1.863575456E0,6.162500522E0
4.818513542E0,5.462919098E-1,5.878502349E0,1.997939794E0,6.232735205E0
4.828451542E0,5.059244871E-2,5.932851634E0,2.101078831E0,6.294109974E0
4.838388542E0,-3.638833398E-1,5.927250586E0,2.151923879E0,6.316287436E0
4.848326542E0,-6.634093004E-1,5.829696810E0,2.197081926E0,6.265193196E0
4.858264542E0,-8.256631029E-1,5.675481175E0,2.276287140E0,6.170436716E0
4.868201542E0,-9.305522114E-1,5.465660858E0,2.323361903E0,6.011437978E0
4.878139542E0,-9.560910952E-1,5.162456414E0,2.408557005E0,5.776349474E0
4.888076542E0,-9.589989156E-1,4.861467479E0,2.458457143E0,5.531505808E0
4.898014542E0,-9.152289981E-1,4.448879172E0,2.470567896E0,5.170481190E0
4.907952542E0,-7.571465993E-1,3.945180135E0,2.451443847E0,4.706091181E0
4.917889542E0,-5.200022435E-1,3.389235642E0,2.490260149E0,4.237772549E0
4.927827542E0,-1.178611565E-1,2.804210606E0,2.615182403E0,3.836230882E0
4.937764542E0,4.472383225E-1,2.258249064E0,2.740609857E0,3.579197304E0
4.947702542E0,9.704594582E-1,1.787987915E0,2.867610211E0,3.515946625E0
4.957640542E0,1.494687485E0,1.399092525E0,3.108090988E0,3.721797974E0
4.967577542E0,2.016095983E0,1.109797438E0,3.437842376E0,4.137034393E0
4.977515542E0,2.644638922E0,9.326712424E-1,3.812810283E0,4.733023656E0
4.987452542E0,3.314210018E0,7.419695663E-1,4.220660591E0,5.417423992E0
4.997390542E0,3.788975862E0,6.959724444E-1,4.538834492E0,5.953296085E0
5.007328542E0,4.413332194E0,6.623480308E-1,4.934523761E0,6.653249636E0
5.017265542E0,5.056583803E0,6.215561002E-1,5.334489684E0,7.376459309E0
5.027203542E0,5.471601044E0,8.532561135E-1,5.639972788E0,7.904160742E0
5.037140542E0,5.909216604E0,1.099623283E0,5.907681710E0,8.427853547E0
5.047078542E0,6.170721045E0,1.401845394E0,6.023002836E0,8.736105075E0
5.057016542E0,6.415089635E0,1.793688365E0,6.193090153E0,9.095331694E0
5.066953542E0,6.445601576E0,2.163587905E0,6.310870618E0,9.276528459E0
5.076891542E0,6.360910504E0,2.353378585E0,6.235702322E0,9.213227266E0
5.086829542E0,6.180919173E0,2.226836067E0,5.858487915E0,8.802524714E0
5.096766542E0,5.731723788E0,1.737798924E0,5.326096591E0,8.014980198E0
5.106704542E0,5.529252251E0,1.075724543E0,4.749534523E0,7.368031754E0
5.116641542E0,5.745512692E0,1.624321425E-1,4.265499380E0,7.157638245E0
5.126579542E0,6.060564764E0,-9.164797175E-1,3.882318474E0,7.255534237E0
5.136517542E0,6.442168676E0,-1.901532072E0,3.625851702E0,7.633096490E0
5.146454542E0,6.471689513E0,-2.449896820E0,3.473337314E0,7.742663087E0
5.156392542E0,6.451808980E0,-2.609065631E0,3.400928904E0,7.745926671E0
5.166329542E0,6.622642402E0,-2.630305642E0,3.352118686E0,7.874934910E0
5.176267542E0,6.933704334E0,-2.343127246E0,3.324405223E0,8.038542852E0
5.186205542E0,7.366297721E0,-1.911505083E0,3.340667499E0,8.311212495E0
5.196142542E0,7.581130271E0,-1.491480287E0,3.330990357E0,8.413890087E0
5.206080542E0,7.490759799E0,-1.265787703E0,3.247268170E0,8.261867309E0
5.216017542E0,7.182448981E0,-1.226585045E0,3.179776683E0,7.950035471E0
5.225955542E0,6.885675305E0,-1.347868577E0,3.089640099E0,7.666495291E0
5.235893542E0,6.580833056E0,-1.784029350E0,2.867858718E0,7.396941128E0
5.245830542E0,6.363335930E0,-2.487406708E0,2.733477423E0,7.358745485E0
5.255768542E0,6.309180188E0,-3.202963232E0,2.745921468E0,7.589783449E0
5.265705542E0,6.219297958E0,-3.796298915E0,2.610882361E0,7.740042587E0
5.275643542E0,6.001420763E0,-4.264471439E0,2.266609998E0,7.703264808E0
5.285581542E0,5.772730311E0,-4.680382719E0,1.833150054E0,7.654465152E0
5.295518542E0,5.503574789E0,-4.943517364E0,1.497830655E0,7.547926606E0
5.305456542E0,5.008819068E0,-5.224977182E0,1.030866166E0,7.311042338E0
5.315394542E0,4.312661852E0,-5.346133245E0,6.294270372E-1,6.897562708E0
5.325331542E0,3.740141671E0,-5.511871988E0,4.055839276E-1,6.673371775E0
5.335269542E0,2.964739480E0,-5.569004547E0,-1.449524760E-2,6.309017510E0
5.345206542E0,2.229232256E0,-5.560414402E0,-5.688837969E-1,6.017583697E0
5.355144542E0,1.741914779E0,-5.390237038E0,-1.035750053E0,5.758619678E0
5.365082542E0,1.355257704E0,-5.148815444E0,-1.385220006E0,5.501441483E0
5.375019542E0,1.640535754E0,-4.746600097E0,-1.773293862E0,5.325987342E0
5.384957542E0,9.046279961E-1,-5.759888656E0,-1.753249606E0,6.088394971E0
5.394894542E0,2.732240152E-1,-5.493210599E0,-2.305582860E0,5.963700728E0
5.404832542E0,-2.324958193E-1,-5.499117456E0,-3.177237822E0,6.355248798E0
5.414770542E0,-4.781654155E-1,-5.644548234E0,-3.494775546E0,6.656051611E0
5.424707542E0,-6.502612513E-1,-5.439571751E0,-3.779361286E0,6.655475359E0
5.434646125E0,-6.115363115E-1,-5.448018638E0,-3.867937247E0,6.709383153E0
5.444583125E0,-5.525197792E-1,-5.533938210E0,-3.953764433E0,6.823635644E0
5.454521125E0,-5.778686285E-1,-5.744165493E0,-4.204591858E0,7.141985862E0
5.464459125E0,-6.875553775E-1,-6.021360353E0,-4.311178413E0,7.437457375E0
5.474396125E0,-8.958291060E-1,-6.261390309E0,-4.324952699E0,7.662423523E0
5.484334125E0,-9.786508226E-1,-6.553174556E0,-4.385390689E0,7.945659551E0
5.494271125E0,-8.753018707E-1,-6.757635316E0,-4.617616952E0,8.231292410E0
5.504209125E0,-6.615466699E-1,-6.802593972E0,-5.109746103E0,8.533606154E0
5.514147125E0,-5.629254842E-1,-6.740918711E0,-5.796042575E0,8.907916687E0
5.524084125E0,-4.971978101E-1,-6.671470746E0,-6.268923862E0,9.168158701E0
5.534022125E0,-4.718434060E-1,-6.472896963E0,-6.590456988E0,9.249602943E0
5.543959125E0,-5.403107929E-1,-6.249483624E0,-6.640526111E0,9.134799853E0
5.553897125E0,-3.966759869E-1,-6.090439943E0,-6.496682267E0,8.913904365E0
5.563835125E0,-4.928998142E-2,-5.807220113E0,-6.309888285E0,8.575600569E0
5.573772125E0,2.594044134E-1,-5.514976274E0,-6.143456063E0,8.259800624E0
5.583710125E0,4.348094809E-1,-5.269548168E0,-6.050533281E0,8.035306476E0
5.593648125E0,5.461990853E-1,-5.043146317E0,-5.743591297E0,7.662930197E0
5.603585125E0,6.539128375E-1,-4.890053347E0,-5.267332658E0,7.216995017E0
5.613523125E0,7.404595229E-1,-4.782025453E0,-4.800036047E0,6.815892737E0
5.623460125E0,7.211580102E-1,-4.735234572E0,-4.516706289E0,6.583551551E0
5.633398125E0,6.154736803E-1,-4.743577672E0,-4.459826329E0,6.539907329E0
5.643336125E0,4.887469755E-1,-4.747559918E0,-4.463738701E0,6.534765640E0
5.653273125E0,3.761763798E-1,-4.844932138E0,-4.460960689E0,6.596593542E0
5.663211125E0,2.350588001E-1,-4.897378447E0,-4.550850520E0,6.689529785E0
5.673148125E0,-6.378742173E-2,-4.687125436E0,-4.913486064E0,6.790843761E0
5.683086125E0,-1.436001612E-1,-4.586695122E0,-5.201671935E0,6.936554192E0
5.693024125E0,-7.557160780E-2,-4.566189813E0,-5.052583138E0,6.810609139E0
5.702961125E0,1.919683291E-1,-4.535239624E0,-4.678401682E0,6.518641928E0
5.712899125E0,9.293697582E-1,-4.719107659E0,-4.294905612E0,6.448249333E0
5.722836125E0,1.811862389E0,-4.952454833E0,-4.001166641E0,6.619591277E0
5.732774125E0,2.457060828E0,-5.138679296E0,-4.032193721E0,6.978664559E0
5.742712125E0,2.707728040E0,-5.416717324E0,-4.418591765E0,7.496437213E0
5.752649125E0,2.535696231E0,-5.788631229E0,-5.033405440E0,8.079181717E0
5.762587125E0,2.271822206E0,-6.215329453E0,-5.747849824E0,8.765230969E0
5.772524125E0,2.081372837E0,-6.750458443E0,-6.184939719E0,9.389051145E0
5.782462125E0,1.826825998E0,-7.167115243E0,-6.275103784E0,9.699575333E0
5.792400125E0,1.698980429E0,-7.469834368E0,-6.039004911E0,9.754718873E0
5.802337125E0,1.769549597E0,-7.737583051E0,-5.429211654E0,9.616539733E0
5.812275125E0,2.003352269E0,-7.925663420E0,-4.537907708E0,9.349982210E0
5.822213125E0,2.296971080E0,-8.255127125E0,-3.696246039E0,9.331957714E0
5.832150125E0,2.449254795E0,-8.735763574E0,-3.126445983E0,9.596201267E0
5.842088125E0,2.295426246E0,-9.216528661E0,-2.894156570E0,9.929225774E0
5.852025125E0,2.096340247E0,-9.750733792E0,-2.843302751E0,1.037091232E1
5.861963125E0,2.068946042E0,-1.015770117E1,-2.819547853E0,1.074287117E1
5.871901125E0,2.181817185E0,-1.045925495E1,-2.713246057E0,1.102352232E1
5.881838125E0,2.490277106E0,-1.052661253E1,-2.498942095E0,1.110206121E1
5.891776125E0,3.074556622E0,-1.047065000E1,-2.065086880E0,1.110639427E1
5.901713125E0,3.563383850E0,-1.020773696E1,-1.524232296E0,1.091873997E1
5.911651125E0,4.070433927E0,-9.794002603E0,-8.985872376E-1,1.064417110E1
5.921589125E0,4.575180200E0,-9.358393807E0,-2.468711990E-1,1.041982504E1
5.931526125E0,4.982126529E0,-8.866086316E0,3.793533182E-1,1.017708113E1
5.941464125E0,5.225904551E0,-8.326452631E0,1.040774565E0,9.885499658E0
5.951401125E0,5.568279492E0,-7.718981888E0,1.726877494E0,9.673185813E0
5.961339125E0,5.925990511E0,-7.041297196E0,2.483991349E0,9.532441595E0
5.971277125E0,6.142430461E0,-6.199531446E0,3.193580205E0,9.293147833E0
5.981214125E0,6.402266107E0,-5.172984325E0,3.754591895E0,9.046863458E0
5.991152125E0,6.624854988E0,-4.023617025E0,4.117210482E0,8.776651966E0
6.001089125E0,6.874316504E0,-2.801736065E0,4.352196046E0,8.605089354E0
6.011027125E0,7.082968547E0,-1.616131230E0,4.456082942E0,8.522734231E0
6.020965125E0,7.206201541E0,-5.149865019E-1,4.328723568E0,8.422137465E0
6.030902125E0,7.372679957E0,5.085042787E-1,4.161680896E0,8.481425247E0
6.040840125E0,7.464660752E0,1.538183752E0,3.978970610E0,8.597637845E0
6.050777125E0,7.494431266E0,2.381121869E0,4.019300026E0,8.831252122E0
6.060715125E0,7.390001163E0,3.061706781E0,4.319472688E0,9.090875091E0
6.070653125E0,7.227295956E0,3.472580100E0,4.694180979E0,9.291283789E0
6.080590125E0,7.187676977E0,3.526846939E0,5.266559072E0,9.583214185E0
6.090528125E0,6.984639430E0,3.559955043E0,5.892169046E0,9.806942640E0
6.100465125E0,6.638512330E0,3.545793672E0,6.107041358E0,9.692185144E0
6.110403125E0,6.120685251E0,3.374019433E0,5.989580151E0,9.204448134E0
6.120341125E0,5.620283459E0,3.156529323E0,5.807280339E0,8.676160929E0
6.130278125E0,5.212030862E0,2.860623958E0,5.669788910E0,8.215530502E0
6.140216125E0,4.712262616E0,2.588303922E0,5.598986145E0,7.762305200E0
6.150154125E0,4.322868751E0,2.343490943E0,5.439461238E0,7.332590443E0
6.160091125E0,4.147402288E0,1.954134793E0,5.323937799E0,7.025944934E0
6.170029125E0,4.040899933E0,1.697730294E0,5.416068867E0,6.967421503E0
6.179966125E0,4.043381199E0,1.577190528E0,5.526233919E0,7.026786093E0
6.189904125E0,4.323977968E0,1.464346282E0,5.684370697E0,7.290621765E0
6.199842125E0,4.700931004E0,1.523295572E0,5.967101115E0,7.747611078E0
6.209779125E0,5.148106177E0,1.697266610E0,6.359567399E0,8.356303528E0
6.219717125E0,5.578317992E0,1.973367455E0,6.756338403E0,8.981086758E0
6.229654125E0,6.081742795E0,2.268458887E0,7.056885288E0,9.588176631E0
6.239592125E0,6.680731566E0,2.450407282E0,7.276395611E0,1.017755389E1
6.249530125E0,7.279401664E0,2.597034400E0,7.407413002E0,1.070532782E1
6.259467125E0,7.876757308E0,2.751443578E0,7.515253201E0,1.122910407E1
6.269405125E0,8.310239471E0,2.848740077E0,7.556382515E0,1.158767953E1
6.279342125E0,8.508628482E0,2.856788769E0,7.583106045E0,1.174995736E1
6.289280125E0,8.588735921E0,2.865921535E0,7.672978334E0,1.186821332E1
6.299218125E0,8.547310152E0,2.827350962E0,7.753268791E0,1.188122895E1
6.309155125E0,8.339381994E0,2.668968017E0,7.778844513E0,1.171234837E1
6.319093125E0,7.881169617E0,2.440671083E0,7.797711139E0,1.135226889E1
6.329030125E0,7.404385899E0,2.037530122E0,7.691633291E0,1.086911598E1
6.338968125E0,7.193814214E0,1.256448530E0,7.459343294E0,1.043893808E1
6.348906125E0,6.909013882E0,4.084654355E-1,7.299497960E0,1.005902517E1
6.358843125E0,6.564273741E0,-3.417756021E-1,7.179778558E0,9.734255003E0
6.368781125E0,6.211743355E0,-1.016458919E0,7.090426086E0,9.481196461E0
6.378718125E0,5.867573318E0,-1.515119410E0,6.891158824E0,9.176713650E0
6.388656125E0,5.627953252E0,-1.818775259E0,6.478629574E0,8.772368118E0
6.398594125E0,5.403147690E0,-1.926932377E0,5.990059623E0,8.293846371E0
6.408531125E0,5.056094976E0,-1.748553708E0,5.531656626E0,7.695502681E0
6.418469125E0,4.618716229E0,-1.317067199E0,5.158773837E0,7.048414936E0
6.428407125E0,4.315071489E0,-8.625584489E-1,4.804412688E0,6.515077153E0
6.438343792E0,4.248933048E0,-5.979760337E-1,4.362325763E0,6.118896424E0
6.448281792E0,4.338725815E0,-6.132472068E-1,3.914872262E0,5.875954277E0
6.458218792E0,4.367694091E0,-8.530210555E-1,3.598966497E0,5.723369326E0
6.468156792E0,4.324381426E0,-1.247630344E0,3.466510690E0,5.680981654E0
6.478094792E0,4.371898824E0,-1.720505784E0,3.368093864E0,5.780804075E0
6.488031792E0,4.576289417E0,-2.228721210E0,3.438073926E0,6.142473067E0
6.497969792E0,4.616482008E0,-2.787716196E0,3.479092144E0,6.417737129E0
6.507906792E0,4.474767720E0,-3.426418086E0,3.455679892E0,6.611021900E0
6.517844792E0,4.245239947E0,-4.049329571E0,3.585530180E0,6.875693336E0
6.527782792E0,3.985658070E0,-4.571043879E0,3.797928534E0,7.155709158E0
6.537719792E0,3.507641174E0,-4.901127974E0,3.860729969E0,7.157502212E0
6.547657792E0,2.945355375E0,-5.077589926E0,3.782551526E0,6.983175051E0
6.557594792E0,2.433321133E0,-5.137932022E0,3.735199020E0,6.802287035E0
6.567532792E0,1.926830050E0,-5.037340032E0,3.866290671E0,6.635937929E0
6.577470792E0,1.454418880E0,-4.992296006E0,3.888703634E0,6.493101696E0
6.587407792E0,1.004400791E0,-5.082906214E0,3.975139514E0,6.530428063E0
6.597345792E0,5.283216619E-1,-5.241147657E0,4.119970368E0,6.687518850E0
6.607282792E0,2.624803412E-1,-5.281515080E0,4.133933519E0,6.712131093E0
6.617220792E0,6.618229508E-2,-5.158013114E0,4.074329342E0,6.573403910E0
6.627158792E0,-1.499787426E-1,-4.990924834E0,3.959472485E0,6.372538480E0
6.637095792E0,-5.636821139E-1,-5.106797937E0,3.756054869E0,6.364359424E0
6.647033792E0,-1.180768602E0,-5.460657980E0,3.400276062E0,6.540250558E0
6.656970792E0,-2.073962953E0,-5.869542661E0,2.792069155E0,6.822646374E0
6.666908792E0,-2.858459319E0,-6.360152121E0,2.138139068E0,7.293419181E0
6.676846792E0,-3.278751333E0,-6.799660424E0,1.569122540E0,7.710235906E0
6.686783792E0,-3.392177961E0,-6.995723412E0,1.493796076E0,7.916971902E0
6.696721792E0,-3.435160843E0,-7.080859457E0,1.682921051E0,8.048050940E0
6.706659792E0,-3.329248472E0,-7.304887923E0,2.125767237E0,8.304466828E0
6.716596792E0,-3.463385353E0,-7.556528111E0,2.773829643E0,8.763006681E0
6.726534792E0,-3.643614666E0,-7.646657093E0,3.241061350E0,9.069276223E0
6.736471792E0,-3.851437574E0,-7.650491112E0,2.921056101E0,9.049649407E0
6.746409792E0,-4.110433559E0,-7.576662998E0,1.979415815E0,8.844183015E0
6.756347792E0,-4.334952022E0,-7.384221776E0,8.440087420E-1,8.604120584E0
6.766284792E0,-4.511233295E0,-7.122095191E0,-1.950274462E-1,8.432882156E0
6.776222792E0,-4.593334050E0,-6.795720570E0,-1.087857515E0,8.274295725E0
6.786159792E0,-4.528819966E0,-6.618487955E0,-1.920391681E0,8.246362671E0
6.796097792E0,-4.624750555E0,-6.405189130E0,-2.668211972E0,8.338712167E0
6.806035792E0,-4.707396271E0,-6.185502806E0,-3.126065329E0,8.378085047E0
6.815972792E0,-4.672027633E0,-6.083619751E0,-3.662929773E0,8.500313288E0
6.825910792E0,-4.555641144E0,-5.958240244E0,-4.227607083E0,8.609712811E0
6.835847792E0,-4.466896198E0,-5.894924839E0,-4.715277733E0,8.771382137E0
6.845785792E0,-4.451703962E0,-5.755976869E0,-5.098780820E0,8.885184507E0
6.855723792E0,-4.455926821E0,-5.729942726E0,-5.409272064E0,9.052499751E0
6.865660792E0,-4.535113909E0,-5.876128964E0,-5.615577035E0,9.307569780E0
6.875598792E0,-4.778355156E0,-5.946572710E0,-5.896540425E0,9.641763012E0
6.885535792E0,-5.192284230E0,-5.974535265E0,-6.065774049E0,9.972386974E0
6.895473792E0,-5.423930449E0,-6.276328776E0,-6.297202751E0,1.041470532E1
6.905411792E0,-5.680425580E0,-6.623797227E0,-6.854112620E0,1.109598055E1
6.915348792E0,-5.801174092E0,-6.900964605E0,-7.519660832E0,1.173977139E1
6.925286792E0,-5.897354942E0,-7.165093276E0,-7.854743711E0,1.215789273E1
6.935223792E0,-6.008502325E0,-7.383858079E0,-8.092106168E0,1.249422437E1
6.945161792E0,-5.059537817E0,-8.278089141E0,-8.529190800E0,1.291792470E1
6.955099792E0,-6.272421666E0,-8.005165672E0,-7.864024411E0,1.285569255E1
6.965036792E0,-7.073683169E0,-7.903685490E0,-7.532930503E0,1.300962259E1
6.974974792E0,-6.299458022E0,-8.943263131E0,-6.703704692E0,1.282983957E1
6.984912792E0,-6.034551086E0,-9.698409398E0,-6.194899866E0,1.299429629E1
6.994849792E0,-6.103292708E0,-1.013218509E1,-5.967689345E0,1.324857248E1
7.004787792E0,-5.462003424E0,-1.069727288E1,-5.642716886E0,1.327047031E1
7.014724792E0,-3.868837718E0,-1.124756019E1,-5.020901170E0,1.291065312E1
7.024662792E0,-1.786973423E0,-1.154373686E1,-4.254200805E0,1.243178826E1
7.034600792E0,3.653094757E-1,-1.149278890E1,-3.381292199E0,1.198544053E1
7.044537792E0,2.429964831E0,-1.131172402E1,-2.641867926E0,1.186757328E1
7.054475792E0,4.140316924E0,-1.068838043E1,-2.105181237E0,1.165399024E1
7.064412792E0,5.940395127E0,-1.006074498E1,-1.167072085E0,1.174176056E1
7.074350792E0,7.249267454E0,-9.073906885E0,-4.230662253E-1,1.162181784E1
7.084288792E0,7.671092607E0,-7.874490343E0,-1.197685182E-2,1.099333450E1
7.094225792E0,8.250820066E0,-7.345648863E0,6.116421461E-2,1.104709600E1
7.104163792E0,8.660162584E0,-6.872716121E0,-3.675401884E-1,1.106199479E1
7.114100792E0,9.046066537E0,-6.179390711E0,-9.640418467E-1,1.099752545E1
7.124038792E0,9.353788540E0,-5.407945331E0,-1.847667521E0,1.096143732E1
7.133976792E0,9.393323904E0,-4.581765334E0,-2.797827786E0,1.081919349E1
7.143913792E0,9.198140922E0,-3.896314954E0,-3.569374615E0,1.060789809E1
7.153851792E0,8.820566912E0,-3.417399341E0,-4.173734054E0,1.033929760E1
7.163788792E0,8.575337026E0,-3.005623797E0,-4.400798980E0,1.009639595E1
7.173726792E0,8.341512719E0,-2.458664135E0,-4.320115005E0,9.710265570E0
7.183664792E0,8.267206888E0,-1.862811810E0,-3.976711830E0,9.361143869E0
7.193601792E0,8.228045745E0,-1.188955289E0,-3.337524036E0,8.958427215E0
7.203539792E0,8.059840647E0,-5.521894115E-1,-2.309504441E0,8.402366046E0
7.213476792E0,7.859300446E0,-9.854546428E-2,-1.127520202E0,7.940378865E0
7.223414792E0,7.679005060E0,9.299587190E-2,-3.831690650E-1,7.689121242E0
7.233352792E0,7.473729199E0,2.789221269E-1,2.847624721E-1,7.484351365E0
7.243289792E0,7.267960417E0,5.822306514E-1,1.321702287E0,7.410070047E0
7.253227792E0,7.052857141E0,1.102324696E0,2.534245244E0,7.574979376E0
7.263164792E0,6.790112506E0,1.795559474E0,3.489203149E0,7.842461366E0
7.273102792E0,6.536786565E0,2.387188940E0,4.037572575E0,8.045510669E0
7.283040792E0,6.460475138E0,2.801768809E0,4.498526126E0,8.356098658E0
7.292977792E0,6.448575470E0,3.061265901E0,5.045070051E0,8.741178772E0
7.302915792E0,6.403415084E0,3.247305592E0,5.464099066E0,9.022477318E0
7.312853792E0,6.251300354E0,3.389109927E0,5.661494050E0,9.089407961E0
7.322790792E0,5.981422116E0,3.553078133E0,5.681210861E0,8.982089489E0
7.332728792E0,5.786071318E0,3.830481153E0,5.511821702E0,8.861793590E0
7.342665792E0,5.656810430E0,4.130766667E0,5.278791447E0,8.770882318E0
7.352603792E0,5.644149454E0,4.318083390E0,5.123012266E0,8.760566300E0
7.362541792E0,5.689247274E0,4.579742197E0,5.114746642E0,8.916400976E0
7.372478792E0,5.747970861E0,4.897059481E0,5.009619552E0,9.061823693E0
7.382416792E0,5.864356180E0,5.244593421E0,4.836136172E0,9.234968686E0
7.392353792E0,5.917751784E0,5.538385018E0,4.687594675E0,9.363067800E0
7.402291792E0,5.871868683E0,5.804655524E0,4.620197328E0,9.461452898E0
7.412229792E0,5.806292160E0,5.963137287E0,4.544900393E0,9.483045636E0
7.422166792E0,5.831249245E0,5.899885032E0,4.573114378E0,9.472353787E0
7.432104792E0,5.739163785E0,5.779450516E0,4.708594365E0,9.408023709E0
7.442041875E0,5.505736504E0,5.562820532E0,5.098352219E0,9.340840544E0
7.451979875E0,5.159563211E0,5.268369954E0,5.825068738E0,9.397246422E0
7.461917875E0,4.663090163E0,4.999030244E0,6.468912671E0,9.411776899E0
7.471854875E0,3.955934334E0,4.746467950E0,6.826542413E0,9.207608581E0
7.481792875E0,3.245294734E0,4.484488131E0,6.930398319E0,8.869779736E0
7.491729875E0,2.718353015E0,4.094625027E0,7.144420445E0,8.671686152E0
7.501667875E0,2.165470709E0,3.692593868E0,7.547688875E0,8.677103216E0
7.511605875E0,1.380010137E0,3.390926072E0,8.069244139E0,8.860897730E0
7.521542875E0,4.544877005E-1,3.093719117E0,8.576943841E0,9.129163308E0
7.531480875E0,-4.332137758E-1,2.839095680E0,9.110430933E0,9.552386625E0
7.541418875E0,-1.281918417E0,2.614311753E0,9.973688124E0,1.039001422E1
7.551355875E0,-2.026806328E0,2.476162512E0,1.110060446E1,1.155260767E1
7.561293875E0,-2.808785468E0,2.459876847E0,1.217742301E1,1.273695023E1
7.571230875E0,-3.383322353E0,2.324175251E0,1.327420162E1,1.389435459E1
7.581168875E0,-3.325796860E0,1.754933605E0,1.432571460E1,1.481103695E1
7.591106875E0,-2.674884814E0,7.097876608E-1,1.520078434E1,1.545065215E1
7.601043875E0,-1.671124878E0,-4.526160067E-1,1.569927234E1,1.579445065E1
7.610981875E0,-6.137103063E-1,-1.116492500E0,1.542061977E1,1.547316095E1
7.620918875E0,4.247335589E-1,-1.052652599E0,1.460021331E1,1.464427208E1
7.630856875E0,1.177260273E0,-6.456980842E-1,1.409288666E1,1.415670591E1
7.640794875E0,1.547627006E0,-9.142542672E-1,1.467063951E1,1.478034756E1
7.650731875E0,1.571415818E0,-2.315306779E0,1.622388686E1,1.646342911E1
7.660669875E0,1.349506382E0,-4.513318412E0,1.767002609E1,1.828718219E1
7.670606875E0,7.505281359E-1,-6.620397071E0,1.820058957E1,1.938180617E1
7.680544875E0,3.001849419E-1,-8.391443848E0,1.769845525E1,1.958932768E1
7.690482875E0,3.475742859E-1,-9.821715481E0,1.630113092E1,1.903454155E1
7.700419875E0,6.149388063E-1,-1.061856117E1,1.448334969E1,1.796940203E1
7.710357875E0,7.659402269E-1,-1.098791458E1,1.260953693E1,1.674280003E1
7.720294875E0,5.620443088E-1,-1.137817412E1,1.092699127E1,1.578536912E1
7.730232875E0,4.694787920E-1,-1.204024733E1,9.553118953E0,1.537693233E1
7.740170875E0,3.666163284E-1,-1.258108671E1,8.508582873E0,1.519256835E1
7.750107875E0,2.978431320E-1,-1.272748813E1,7.691527457E0,1.487404650E1
7.760045875E0,5.319340718E-1,-1.278699291E1,6.906584948E0,1.454273210E1
7.769983875E0,1.020657805E0,-1.273780613E1,6.223157705E0,1.421341406E1
7.779920875E0,1.615344195E0,-1.249613837E1,5.537619617E0,1.376328602E1
7.789858875E0,2.070190330E0,-1.214071419E1,4.456661232E0,1.309749817E1
7.799795875E0,2.134963446E0,-1.176773434E1,3.001763465E0,1.233078360E1
7.809733875E0,1.782247118E0,-1.134651379E1,1.477899544E0,1.158032672E1
7.819671875E0,1.229779964E0,-1.065855261E1,1.730308056E-2,1.072927779E1
7.829608875E0,3.119670814E-1,-9.617472823E0,-1.384414845E0,9.721610537E0
7.839546875E0,-7.675084502E-1,-8.354913368E0,-2.440399187E0,8.737802630E0
7.849483875E0,-2.070191499E0,-6.981971930E0,-3.310798168E0,7.999688080E0
7.859421875E0,-3.417267194E0,-5.657942451E0,-4.256009349E0,7.861529332E0
7.869359875E0,-4.607092549E0,-4.503971638E0,-5.229929189E0,8.298386686E0
7.879296875E0,-5.723334203E0,-3.573639867E0,-6.254208759E0,9.200140406E0
7.889234875E0,-6.789933581E0,-2.898764469E0,-7.326516774E0,1.040114809E1
7.899171875E0,-7.971145402E0,-2.313160559E0,-8.513298653E0,1.188974873E1
7.909109875E0,-9.287734299E0,-1.756988024E0,-9.673517801E0,1.352501246E1
7.919047875E0,-1.062204026E1,-1.332038118E0,-1.060467637E1,1.506855088E1
7.928984875E0,-1.180557635E1,-1.059573071E0,-1.089205298E1,1.609755094E1
7.938922875E0,-1.251804437E1,-1.024326055E0,-1.064568055E1,1.646454352E1
7.948859875E0,-1.259471307E1,-1.094770094E0,-1.010257128E1,1.618293129E1
7.958797875E0,-1.225150490E1,-1.240389445E0,-9.276342169E0,1.541714832E1
7.968735875E0,-1.172609632E1,-1.342311383E0,-8.329518326E0,1.444589943E1
7.978672875E0,-1.054029735E1,-1.594163533E0,-7.455229193E0,1.300844603E1
7.988610875E0,-8.105553594E0,-2.567740727E0,-6.692565746E0,1.082052345E1
7.998547875E0,-5.772673593E0,-3.168746788E0,-6.032505146E0,8.930612238E0
8.008485875E0,-3.889162055E0,-3.756674966E0,-5.533924177E0,7.737086343E0
8.018423875E0,-2.778458299E0,-4.292098364E0,-4.464117016E0,6.787509088E0
8.028360875E0,-2.079527164E0,-4.727974961E0,-2.535787740E0,5.753989913E0
8.038298875E0,-1.074428215E0,-5.416350119E0,1.085653261E-1,5.522954918E0
8.048235875E0,3.456932366E-1,-5.816875620E0,3.344685706E0,6.718814498E0
8.058173875E0,2.040817426E0,-5.751714249E0,6.763453295E0,9.109964492E0
8.068111875E0,4.025023280E0,-5.373402320E0,9.504838493E0,1.163684750E1
8.078048875E0,6.039800132E0,-4.784440354E0,1.105040494E1,1.347150713E1
8.087986875E0,7.894920514E0,-4.156020207E0,1.146659572E1,1.452876771E1
8.097924875E0,9.184061412E0,-3.367866992E0,1.135155058E1,1.498489949E1
8.107861875E0,9.845588493E0,-2.378937349E0,1.120381015E1,1.510365246E1
8.117799875E0,9.871660058E0,-1.365956939E0,1.098187323E1,1.482960048E1
8.127736875E0,9.551940739E0,-4.014797670E-1,1.095887847E1,1.454296308E1
8.137674875E0,8.945079861E0,5.813518149E-1,1.111659542E1,1.428044528E1
8.147612875E0,8.128878722E0,1.570279119E0,1.103670608E1,1.379685931E1
8.157549875E0,7.197360551E0,2.456926927E0,1.060045585E1,1.304638467E1
8.167487875E0,5.959217314E0,3.374898269E0,9.883269120E0,1.202419302E1
8.177424875E0,4.447591615E0,4.452775172E0,9.062679062E0,1.103360456E1
8.187362875E0,2.967076612E0,5.279429963E0,8.327092316E0,1.029642612E1
8.197300875E0,1.659766077E0,5.627980149E0,7.669771721E0,9.656830859E0
8.207237875E0,4.516418606E-1,5.498537412E0,7.106464999E0,8.996651534E0
8.217175875E0,-8.362383771E-1,5.078583952E0,6.694960181E0,8.444749931E0
8.227112875E0,-1.988219967E0,4.541994912E0,6.473549513E0,8.154114281E0
8.237050875E0,-2.993327102E0,4.191999294E0,6.419092054E0,8.230286023E0
8.246988875E0,-3.829971861E0,4.253715486E0,6.520102705E0,8.676088933E0
8.256925875E0,-4.235758687E0,4.487892380E0,6.875136284E0,9.238524156E0
8.266863875E0,-4.150067741E0,4.582011502E0,7.407851543E0,9.648531295E0
8.276801875E0,-3.627216734E0,4.181193055E0,7.789084741E0,9.555569984E0
8.286738875E0,-2.658308542E0,3.426480067E0,7.777871536E0,8.905203849E0
8.296676875E0,-1.338779665E0,2.384196335E0,7.184235306E0,7.686999420E0
8.306613875E0,2.253475982E-1,7.801378512E-1,6.072817605E0,6.126867900E0
8.316551875E0,1.895989496E0,-1.399046917E0,4.864215671E0,5.404877662E0
8.326489875E0,3.060088271E0,-3.380095859E0,3.933393903E0,6.021692108E0
8.336426875E0,3.371723231E0,-4.503651795E0,3.220638195E0,6.482584934E0
8.346364875E0,3.957668619E0,-5.366203228E0,2.558982475E0,7.141965365E0
8.356301875E0,4.946657903E0,-6.399812030E0,2.295139148E0,8.408012972E0
8.366239875E0,5.878566669E0,-7.175224162E0,2.688780137E0,9.657687429E0
8.376177875E0,6.619748615E0,-7.697067109E0,3.488385124E0,1.073474474E1
8.386114875E0,6.998717186E0,-8.021469464E0,4.144879507E0,1.142392405E1
8.396052875E0,6.815008196E0,-8.240436580E0,4.236559755E0,1.150206809E1
8.405989875E0,5.948908673E0,-8.348011900E0,3.783352010E0,1.092669069E1
8.415927875E0,4.486566816E0,-8.273127778E0,3.005268286E0,9.879552748E0
8.425865875E0,2.698277185E0,-7.789815059E0,1.911914973E0,8.462702717E0
8.435802875E0,8.549523908E-1,-6.992983407E0,5.709542229E-1,7.068150341E0
8.445741042E0,-1.156482192E0,-6.198653778E0,-1.076287045E0,6.396808073E0
8.455678042E0,-3.492824330E0,-5.664777846E0,-3.050588300E0,7.320902869E0
8.465616042E0,-6.281843870E0,-5.242563268E0,-5.365221480E0,9.784254369E0
8.475554042E0,-9.398686970E0,-5.022595693E0,-7.689783232E0,1.314132986E1
8.485491042E0,-1.255383167E1,-5.161211541E0,-9.768988799E0,1.672333509E1
8.495429042E0,-1.489616662E1,-5.570800227E0,-1.124035057E1,1.947498591E1
8.505367042E0,-1.583468333E1,-5.670290017E0,-1.180775268E1,2.055024108E1
8.515304042E0,-1.547195247E1,-5.191421181E0,-1.154810006E1,1.999226806E1
8.525242042E0,-1.449049031E1,-4.244526587E0,-1.094909140E1,1.865135164E1
8.535179042E0,-1.319585829E1,-3.190629992E0,-1.039169037E1,1.709672555E1
8.545117042E0,-1.172861764E1,-2.601170720E0,-9.882091491E0,1.555578005E1
8.555055042E0,-9.679200709E0,-3.198746220E0,-9.538540674E0,1.396075435E1
8.564992042E0,-7.697102777E0,-5.734245692E0,-9.318447384E0,1.337760915E1
8.574930042E0,-7.254785471E0,-8.170445409E0,-9.111430807E0,1.422695546E1
8.584867042E0,-7.451205139E0,-9.263637924E0,-8.830917653E0,1.480947508E1
8.594805042E0,-8.058637290E0,-9.107055920E0,-7.880235232E0,1.449062489E1
8.604743042E0,-6.550808773E0,-9.554385459E0,-5.760248845E0,1.293753624E1
8.614680042E0,-3.644101154E0,-1.101843587E1,-3.155665104E0,1.202678779E1
8.624618042E0,-1.362428144E0,-1.280848493E1,-6.621256904E-1,1.289774814E1
8.634555042E0,-8.421803176E-2,-1.380710049E1,1.799163698E0,1.392408369E1
8.644493042E0,9.128906965E-1,-1.416312692E1,3.626972905E0,1.464863359E1
8.654431042E0,1.526723794E0,-1.451987374E1,5.380468680E0,1.555978991E1
8.664368042E0,1.528173319E0,-1.414240322E1,6.396453974E0,1.559671459E1
8.674306042E0,1.543390698E0,-1.338947246E1,7.175070380E0,1.526897713E1
8.684243042E0,1.811273282E0,-1.223144661E1,7.855616115E0,1.464922188E1
8.694181042E0,2.091937294E0,-1.074453241E1,8.231394446E0,1.369587649E1
8.704119042E0,2.527044398E0,-9.261579119E0,8.187055010E0,1.261707854E1
8.714056042E0,3.094947617E0,-7.385207031E0,7.931297797E0,1.127055759E1
8.723994042E0,3.723665387E0,-5.186738731E0,7.452162913E0,9.813392617E0
8.733932042E0,4.506758421E0,-3.140151272E0,6.497554672E0,8.508210046E0
8.743869042E0,5.247364417E0,-1.193340116E0,4.939083420E0,7.304343844E0
8.753807042E0,5.843849410E0,6.082332194E-1,2.851627432E0,6.530873034E0
8.763744042E0,6.124153234E0,2.368283138E0,6.409880058E-1,6.597339121E0
8.773682042E0,5.974254014E0,3.960906222E0,-1.535704387E0,7.330680534E0
8.783620042E0,5.433176066E0,5.322147381E0,-3.322553995E0,8.299639749E0
8.793557042E0,4.718698938E0,6.335295607E0,-4.652664578E0,9.167844773E0
8.803495042E0,3.927805719E0,6.977159672E0,-5.358593076E0,9.634465974E0
8.813432042E0,3.397263869E0,7.257030217E0,-5.415359015E0,9.671194478E0
8.823370042E0,3.296196501E0,7.305912355E0,-4.843240539E0,9.364734146E0
8.833308042E0,3.200812041E0,7.529223953E0,-3.943572736E0,9.082190098E0
8.843245042E0,3.251813795E0,7.644066777E0,-2.854118346E0,8.783623476E0
8.853183042E0,3.495723379E0,7.589626860E0,-1.896922127E0,8.568595648E0
8.863121042E0,3.769532116E0,7.396036659E0,-1.164064862E0,8.382468470E0
8.873058042E0,4.105468689E0,6.839315071E0,-6.218700957E-1,8.001114061E0
8.882996042E0,4.367305544E0,5.835682020E0,-1.872103035E-1,7.291336643E0
8.892933042E0,4.635594801E0,4.280608585E0,1.060919539E-1,6.310594625E0
8.902871042E0,4.837150664E0,2.280983039E0,3.998152108E-1,5.362906150E0
8.912809042E0,4.734195229E0,3.551622176E-1,1.077989023E0,4.868347256E0
8.922746042E0,4.477568536E0,-1.142374615E0,2.019311367E0,5.042941419E0
8.932684042E0,4.293273069E0,-2.196337575E0,3.050159115E0,5.706098756E0
8.942621042E0,4.362260274E0,-2.553242263E0,3.976601318E0,6.431307705E0
8.952559042E0,5.051485031E0,-2.288037120E0,4.593884858E0,7.201138311E0
8.962497042E0,6.331448724E0,-1.693560060E0,4.880959758E0,8.171851490E0
8.972434042E0,7.534993401E0,-1.119290392E0,4.889739937E0,9.051988355E0
8.982372042E0,8.649066322E0,-8.383667636E-1,5.085466125E0,1.006832522E1
8.992309042E0,9.674461541E0,-1.072992139E0,5.281106944E0,1.107414145E1
9.002247042E0,1.006470939E1,-1.583200881E0,5.485766509E0,1.157145342E1
9.012185042E0,9.775196788E0,-2.127406504E0,5.624094089E0,1.147653105E1
9.022122042E0,9.024203798E0,-2.436275731E0,5.484033394E0,1.083726515E1
9.032060042E0,8.036462894E0,-2.404714800E0,4.789681213E0,9.659629146E0
9.041997042E0,7.062770510E0,-2.102017309E0,3.816523557E0,8.298617723E0
9.051935042E0,6.061307361E0,-1.562168446E0,3.004446752E0,6.943091347E0
9.061873042E0,4.954448733E0,-8.447443217E-1,2.496844114E0,5.611985901E0
9.071810042E0,3.964862448E0,-3.564070898E-1,2.179271453E0,4.538323954E0
9.081748042E0,3.200377593E0,-1.330516380E-1,1.968521283E0,3.759680241E0
9.091685042E0,2.854020113E0,-3.306647229E-1,1.847381008E0,3.415784910E0
9.101623042E0,2.609542764E0,-7.223533273E-1,1.821594787E0,3.263390159E0
9.111561042E0,2.208826059E0,-1.204953271E0,1.774207782E0,3.078739709E0
9.121498042E0,1.772043142E0,-1.703554705E0,1.545721983E0,2.903703149E0
9.131436042E0,1.341472893E0,-2.206970152E0,1.271320338E0,2.878631998E0
9.141374042E0,7.553784013E-1,-2.714128987E0,8.935469377E-1,2.955591111E0
9.151311042E0,2.861451924E-1,-3.198460876E0,4.567178285E-1,3.243550866E0
9.161249042E0,-5.400546849E-2,-3.638804746E0,1.446677349E-1,3.642079808E0
9.171186042E0,-4.393317175E-1,-3.906899584E0,-2.368294101E-2,3.931594791E0
9.181124042E0,-7.655765301E-1,-4.021069393E0,-1.552102464E-1,4.096241779E0
9.191062042E0,-1.079079090E0,-3.924628927E0,-2.708968234E-1,4.079277998E0
9.200999042E0,-1.403996000E0,-3.650951167E0,-3.280007315E-1,3.925332301E0
9.210937042E0,-1.720546714E0,-3.355748638E0,-2.833817983E-1,3.781750277E0
9.220874042E0,-2.030901718E0,-3.117097455E0,-1.266840202E-1,3.722486692E0
9.230812042E0,-2.335940434E0,-2.952300113E0,9.868762471E-2,3.765957105E0
9.240750042E0,-2.744790616E0,-2.712768047E0,3.167068344E-1,3.872116892E0
9.250687042E0,-3.196779801E0,-2.479738962E0,4.940979087E-1,4.075860542E0
9.260625042E0,-3.606218798E0,-2.268350421E0,6.391076875E-1,4.307979374E0
9.270562042E0,-4.065757324E0,-2.095508189E0,7.414550114E-1,4.633712628E0
9.280500042E0,-4.507046689E0,-2.025666121E0,8.414247843E-1,5.012463342E0
9.290438042E0,-4.974703488E0,-1.954840552E0,9.823772532E-1,5.434532312E0
9.300375042E0,-5.314599795E0,-1.863849106E0,1.139279611E0,5.746030152E0
9.310313042E0,-5.555468827E0,-1.861690606E0,1.270974183E0,5.995373315E0
9.320250042E0,-5.642521005E0,-1.948402768E0,1.322416817E0,6.114172297E0
9.330188042E0,-5.708602728E0,-2.051747042E0,1.442131541E0,6.235186798E0
9.340126042E0,-5.705667425E0,-2.158816577E0,1.554562388E0,6.295378781E0
9.350063042E0,-5.705654562E0,-2.339408417E0,1.487301866E0,6.343452732E0
9.360001042E0,-5.633281819E0,-2.627391974E0,1.351340654E0,6.361067065E0
9.369939042E0,-5.512644989E0,-2.912609214E0,1.200504636E0,6.349311663E0
9.379876042E0,-5.366628905E0,-3.252772738E0,9.794518181E-1,6.351422058E0
9.389814042E0,-5.145852660E0,-3.733822585E0,7.329496515E-1,6.399878584E0
9.399751042E0,-4.901296374E0,-4.292362950E0,5.461714572E-1,6.537995801E0
9.409689042E0,-4.657442923E0,-4.822747510E0,4.002851808E-1,6.716464572E0
9.419626042E0,-4.427274295E0,-5.263792169E0,2.704939502E-1,6.883417223E0
9.429564042E0,-4.290638314E0,-5.663172786E0,8.388759099E-2,7.105500705E0
9.439501500E0,-4.092131774E0,-6.021787784E0,-1.290433717E-1,7.281766459E0
9.449438500E0,-3.851193160E0,-6.387732267E0,-4.004383779E-1,7.469615999E0
9.459376500E0,-3.537909286E0,-6.747840060E0,-6.892301662E-1,7.650175541E0
9.469314500E0,-3.139592278E0,-7.194136981E0,-1.012096896E0,7.914353208E0
9.479251500E0,-2.761293797E0,-7.731304311E0,-1.338070983E0,8.317947086E0
9.489189500E0,-2.584459378E0,-8.212816672E0,-1.568965981E0,8.751653685E0
9.499126500E0,-2.540155610E0,-8.539939152E0,-1.767878171E0,9.083410399E0
9.509064500E0,-2.540510536E0,-8.806503773E0,-1.910587070E0,9.362640944E0
9.519002500E0,-2.709594471E0,-8.976584659E0,-2.009357652E0,9.589499075E0
9.528939500E0,-2.928677947E0,-8.878600527E0,-2.041302745E0,9.569410574E0
9.538877500E0,-3.013223423E0,-8.595183061E0,-2.011714665E0,9.327576488E0
9.548814500E0,-2.659370981E0,-8.456830337E0,-1.863331043E0,9.058820891E0
9.558752500E0,-2.209368680E0,-8.315458696E0,-1.631100102E0,8.757205652E0
9.568690500E0,-1.989513372E0,-8.002896953E0,-1.490581570E0,8.380116736E0
9.578627500E0,-1.738532749E0,-7.870706025E0,-1.479413388E0,8.195070068E0
9.588565500E0,-1.623343186E0,-7.904077254E0,-1.443274087E0,8.197116592E0
9.598502500E0,-1.799264270E0,-7.931779608E0,-1.303850738E0,8.237141883E0
9.608440500E0,-2.127138117E0,-7.873702723E0,-1.168963659E0,8.239319582E0
9.618378500E0,-2.538351744E0,-7.584209415E0,-9.742010915E-1,8.056831250E0
9.628315500E0,-2.663999637E0,-7.187455952E0,-7.059846318E-1,7.697715988E0
9.638253500E0,-2.411102883E0,-6.670469702E0,-3.334257782E-1,7.100687003E0
9.648190500E0,-1.970134529E0,-5.999028082E0,9.342374191E-2,6.314942279E0
9.658128500E0,-1.227964988E0,-5.353097278E0,4.972062155E-1,5.514595407E0
9.668066500E0,-1.724302965E-1,-4.818885716E0,7.493907794E-1,4.879854331E0
9.678003500E0,9.327700603E-1,-4.285422013E0,8.816174483E-1,4.473494287E0
9.687941500E0,2.099620535E0,-3.781502536E0,9.145243355E-1,4.420918749E0
9.697879500E0,3.100322378E0,-3.202605967E0,7.714471346E-1,4.523694785E0
9.707816500E0,3.777625247E0,-2.602416762E0,5.143069824E-1,4.616008794E0
9.717754500E0,4.166113086E0,-2.075769158E0,2.541386668E-1,4.661534329E0
9.727691500E0,4.282167453E0,-1.627555520E0,-1.492911100E-2,4.581060788E0
9.737629500E0,4.116273174E0,-1.258746486E0,-1.998192028E-1,4.309068956E0
9.747567500E0,3.794237187E0,-9.279846990E-1,-2.793331679E-1,3.916046278E0
9.757504500E0,3.377711365E0,-5.437904710E-1,-1.974821073E-1,3.426899666E0
9.767442500E0,2.997976808E0,-1.766426307E-1,-2.725387216E-2,3.003299907E0
9.777379500E0,2.680340266E0,1.649786049E-1,3.243567467E-1,2.704930532E0
9.787317500E0,2.333065358E0,6.567639399E-1,7.877193511E-1,2.548535778E0
9.797255500E0,2.160578928E0,1.181603000E0,1.362492464E0,2.814368964E0
9.807192500E0,2.089931699E0,1.743721569E0,1.854340364E0,3.293471967E0
9.817130500E0,2.075009605E0,2.382787156E0,2.280382529E0,3.896599026E0
9.827067500E0,2.094138186E0,3.043468730E0,2.588068864E0,4.510678120E0
9.837005500E0,2.063035676E0,3.714445497E0,2.797347729E0,5.087079307E0
9.846943500E0,2.009538916E0,4.344558413E0,2.912281770E0,5.603108027E0
9.856880500E0,1.980482347E0,4.866734067E0,2.908879859E0,6.005746651E0
9.866818500E0,1.875123122E0,5.333614356E0,2.719779736E0,6.273813086E0
9.876755500E0,1.708417835E0,5.666078852E0,2.461010038E0,6.409345634E0
9.886693500E0,1.499688608E0,5.835092036E0,2.134897957E0,6.391803679E0
9.896631500E0,1.296676789E0,5.824146633E0,1.849115292E0,6.246701694E0
9.906568500E0,1.163141001E0,5.614585347E0,1.642724952E0,5.964479095E0
9.916506500E0,1.013749904E0,5.329727712E0,1.591817923E0,5.653987146E0
9.926443500E0,9.678849292E-1,5.028131837E0,1.664140964E0,5.384076165E0
9.936381500E0,1.018292606E0,4.619756448E0,1.745749529E0,5.042490544E0
9.946319500E0,1.171961526E0,4.113771735E0,1.828407962E0,4.651847738E0
9.956256500E0,1.364777555E0,3.632099159E0,1.950247564E0,4.342606089E0
9.966194500E0,1.618560163E0,3.225386719E0,2.031417443E0,4.141197087E0
9.976132500E0,1.956211140E0,2.864092526E0,2.100274254E0,4.054742898E0
9.986069500E0,2.312403637E0,2.463982177E0,2.251319529E0,4.060401257E0
9.996007500E0,2.655025916E0,2.070302596E0,2.444750247E0,4.160783486E0
1.000594450E1,3.177800909E0,1.685302037E0,2.644498004E0,4.464530352E0
1.001588250E1,3.878994917E0,1.344111156E0,2.855932152E0,5.000958390E0
1.002582050E1,4.701404629E0,1.030803308E0,3.107050184E0,5.728832498E0
1.003575750E1,5.488749758E0,6.438176197E-1,3.340749945E0,6.457668715E0
1.004569550E1,6.216087837E0,3.097767144E-1,3.530501449E0,7.155428015E0
1.005563250E1,6.833132810E0,1.316857284E-1,3.703117687E0,7.773167033E0
1.006557050E1,7.336944698E0,2.346066642E-1,3.931380414E0,8.327157363E0
1.007550850E1,7.717149371E0,5.268218511E-1,4.150396062E0,8.778252853E0
1.008544550E1,8.031631340E0,9.602151364E-1,4.265318408E0,9.144509621E0
1.009538350E1,8.316575514E0,1.446946723E0,4.291277415E0,9.469643338E0
1.010532050E1,8.499242531E0,2.011029956E0,4.258793500E0,9.716927867E0
1.011525850E1,8.612346393E0,2.502906507E0,4.165039245E0,9.888609775E0
1.012519650E1,8.662282784E0,2.736284087E0,4.060696266E0,9.950459678E0
1.013513350E1,8.572365471E0,2.680902184E0,3.898079059E0,9.791205576E0
1.014507150E1,8.292461597E0,2.332017537E0,3.701100397E0,9.375573010E0
1.015500850E1,7.950444505E0,1.546850495E0,3.389111681E0,8.779999559E0
1.016494650E1,7.748776960E0,4.268292010E-1,3.027935017E0,8.330313200E0
1.017488450E1,7.587949879E0,-7.660776365E-1,2.725835112E0,8.099014469E0
1.018482150E1,7.297744380E0,-1.937905846E0,2.466357901E0,7.943265915E0
1.019475950E1,6.776582633E0,-2.950438360E0,2.285870580E0,7.736430896E0
1.020469650E1,6.080303795E0,-3.680680166E0,2.165109205E0,7.430020093E0
1.021463450E1,5.253617429E0,-4.037235775E0,2.104809208E0,6.951977460E0
1.022457250E1,4.507761219E0,-3.998773960E0,1.989147921E0,6.345613748E0
1.023450950E1,3.847380776E0,-3.624006613E0,1.837413844E0,5.595699456E0
1.024444750E1,3.282228672E0,-3.010364134E0,1.776282374E0,4.794840597E0
1.025438550E1,2.935772374E0,-2.353502546E0,1.842790943E0,4.189703107E0
1.026432250E1,2.853137768E0,-1.847716053E0,1.996414840E0,3.942096137E0
1.027426050E1,2.728388007E0,-1.544148497E0,2.151136844E0,3.802089612E0
1.028419750E1,2.531595286E0,-1.516425678E0,2.203427324E0,3.682881142E0
1.029413550E1,2.162400920E0,-1.677076174E0,2.165281259E0,3.489556586E0
1.030407350E1,1.640131127E0,-1.993321078E0,2.011508843E0,3.272541346E0
1.031401050E1,1.188846531E0,-2.399073406E0,1.795833124E0,3.223961211E0
1.032394850E1,7.614051265E-1,-2.754885834E0,1.606748788E0,3.278837506E0
1.033388550E1,2.564892840E-1,-3.012838676E0,1.432014104E0,3.345690965E0
1.034382350E1,-2.819580013E-1,-3.205162370E0,1.254218987E0,3.453350749E0
1.035376150E1,-8.164385355E-1,-3.257283865E0,1.101984973E0,3.534238382E0
1.036369850E1,-1.337275761E0,-3.221316472E0,9.635281688E-1,3.618504223E0
1.037363650E1,-1.806602526E0,-3.069606954E0,8.552687252E-1,3.663029365E0
1.038357350E1,-2.273944160E0,-2.795862536E0,7.785122522E-1,3.686970395E0
1.039351150E1,-2.666043824E0,-2.435585759E0,6.801416197E-1,3.674569401E0
1.040344950E1,-2.983837071E0,-2.107052639E0,5.536476340E-1,3.694520293E0
1.041338650E1,-3.276377363E0,-1.786165045E0,4.086666528E-1,3.753936950E0
1.042332450E1,-3.547765937E0,-1.489477031E0,3.746253327E-1,3.865944789E0
1.043326150E1,-3.793031491E0,-1.239969030E0,3.676080892E-1,4.007461390E0
1.044319988E1,-4.044937143E0,-1.096124016E0,3.056971121E-1,4.201958481E0
1.045313787E1,-4.289144350E0,-1.080848458E0,1.491068497E-1,4.425745756E0
1.046307488E1,-4.495369799E0,-1.129705453E0,6.449303448E-2,4.635595258E0
1.047301288E1,-4.751175544E0,-1.196251152E0,-1.111913837E-2,4.899470329E0
1.048295087E1,-4.983825729E0,-1.355198939E0,-1.298994771E-1,5.166425935E0
1.049288788E1,-5.221763552E0,-1.564558496E0,-2.178321719E-1,5.455465951E0
1.050282588E1,-5.414729270E0,-1.807421136E0,-2.640516342E-1,5.714524258E0
1.051276288E1,-5.577889391E0,-2.117639315E0,-3.073448575E-1,5.974253693E0
1.052270088E1,-5.667630118E0,-2.494871264E0,-4.117177299E-1,6.206119985E0
1.053263887E1,-5.681545907E0,-2.924363579E0,-5.691885830E-1,6.415281901E0
1.054257588E1,-5.671678146E0,-3.406980187E0,-7.274772424E-1,6.656175337E0
1.055251388E1,-5.671108042E0,-3.872592216E0,-9.040375735E-1,6.926450810E0
1.056245088E1,-5.603065748E0,-4.482420555E0,-1.092024972E0,7.258027166E0
1.057238888E1,-5.542579810E0,-5.119636084E0,-1.298849614E0,7.656231116E0
1.058232688E1,-5.363884807E0,-5.847486963E0,-1.606962211E0,8.096091128E0
1.059226388E1,-5.007235642E0,-6.684859115E0,-1.922657039E0,8.570668600E0
1.060220188E1,-4.714516425E0,-7.503469307E0,-2.255121535E0,9.144084968E0
1.061213888E1,-4.528902411E0,-8.212965776E0,-2.567697750E0,9.724033918E0
1.062207688E1,-4.408969586E0,-8.694564677E0,-2.865679461E0,1.016103275E1
1.063201488E1,-4.366246321E0,-8.919798839E0,-3.189843249E0,1.043082059E1
1.064195188E1,-4.341937691E0,-8.835848025E0,-3.491406380E0,1.044579110E1
1.065188988E1,-4.148440461E0,-8.659084942E0,-3.581599974E0,1.024778848E1
1.066182688E1,-3.741448524E0,-8.272481661E0,-3.177044279E0,9.619043624E0
1.067176488E1,-3.185611035E0,-7.877709820E0,-2.357051221E0,8.818283287E0
1.068170288E1,-2.637010059E0,-7.600098639E0,-1.560873288E0,8.194610838E0
1.069163988E1,-2.040776496E0,-7.349745423E0,-7.783018255E-1,7.667416789E0
1.070157788E1,-1.161436538E0,-7.317604448E0,2.086739704E-2,7.409231076E0
1.071151588E1,-3.076880890E-1,-7.379734622E0,7.850938781E-1,7.427753863E0
1.072145288E1,4.059721828E-2,-7.078598338E0,1.274005380E0,7.192446891E0
1.073139088E1,2.226327360E-1,-6.736923308E0,1.337593850E0,6.872034510E0
1.074132788E1,3.947712564E-1,-6.647880739E0,1.247231564E0,6.775378162E0
1.075126588E1,3.962839311E-1,-6.722297083E0,1.219491788E0,6.843499050E0
1.076120288E1,1.214823371E-1,-6.803663428E0,1.251311166E0,6.918841929E0
1.077114088E1,-3.560042167E-1,-6.652570791E0,1.207877975E0,6.770702056E0
1.078107888E1,-6.856953782E-1,-6.235209986E0,1.104493428E0,6.369295680E0
1.079101588E1,-7.000438607E-1,-5.632622253E0,1.061282432E0,5.774323792E0
1.080095388E1,-4.195242745E-1,-5.060120199E0,1.023923475E0,5.179694617E0
1.081089188E1,1.200380749E-1,-4.588156633E0,1.115333435E0,4.723299599E0
1.082082888E1,8.281353056E-1,-4.208405119E0,1.198358781E0,4.453374620E0
1.083076688E1,1.501245137E0,-3.858285248E0,1.303148341E0,4.340310774E0
1.084070388E1,2.207742569E0,-3.483875166E0,1.359510384E0,4.342785041E0
1.085064188E1,2.795383065E0,-3.176552528E0,1.464884226E0,4.477782737E0
1.086057988E1,3.069416335E0,-2.811058865E0,1.550438347E0,4.441534380E0
1.087051688E1,3.196892068E0,-2.441760419E0,1.507789925E0,4.296014816E0
1.088045488E1,3.180012326E0,-2.044822184E0,1.277480965E0,3.990705924E0
1.089039188E1,3.026760896E0,-1.560385630E0,8.179845393E-1,3.502168406E0
1.090032988E1,2.775239992E0,-1.087991416E0,1.588155665E-1,2.985113853E0
1.091026788E1,2.485573021E0,-6.431498677E-1,-3.942034553E-1,2.597520233E0
1.092020488E1,2.165724478E0,-2.161668849E-1,-7.548299325E-1,2.303662055E0
1.093014288E1,1.827716237E0,2.523874623E-1,-9.843594593E-1,2.091222039E0
1.094007987E1,1.395374281E0,7.882391685E-1,-1.111847545E0,1.950537191E0
1.095001788E1,1.019127588E0,1.341869919E0,-1.227160996E0,2.084504745E0
1.095995588E1,7.096221846E-1,1.940303205E0,-1.313636638E0,2.448260890E0
1.096989288E1,4.334406477E-1,2.598307339E0,-1.395145070E0,2.980855848E0
1.097983088E1,2.257305908E-1,3.180478349E0,-1.374695018E0,3.472201495E0
1.098976787E1,4.034520328E-2,3.668163616E0,-1.332683358E0,3.902960028E0
1.099970588E1,-1.591705656E-1,4.107811668E0,-1.294775274E0,4.309976216E0
1.100964388E1,-4.178554791E-1,4.476269284E0,-1.249318435E0,4.666088990E0
1.101958087E1,-6.988440120E-1,4.672580779E0,-1.240559891E0,4.884709094E0
1.102951888E1,-1.057851943E0,4.764081518E0,-1.161949485E0,5.016537656E0
1.103945587E1,-1.430386239E0,4.766922680E0,-1.074480913E0,5.091568114E0
1.104939388E1,-1.715521032E0,4.632584070E0,-1.015262506E0,5.043273295E0
1.105933188E1,-2.006556251E0,4.440692486E0,-9.226672411E-1,4.959569798E0
1.106926887E1,-2.256511272E0,4.243290485E0,-7.785065512E-1,4.868616817E0
1.107920688E1,-2.457431542E0,3.969529111E0,-6.415676842E-1,4.712508911E0
1.108914488E1,-2.526222864E0,3.593127467E0,-5.492897773E-1,4.426520780E0
1.109908187E1,-2.402830242E0,3.101253839E0,-4.686847401E-1,3.951080097E0
1.110901988E1,-2.024636427E0,2.534062226E0,-3.783751156E-1,3.265546165E0
1.111895687E1,-1.635660346E0,2.001403100E0,-2.782011652E-1,2.599691332E0
1.112889488E1,-1.125307762E0,1.277769817E0,-2.024440545E-1,1.714641904E0
1.113883288E1,-4.744050711E-1,4.314332986E-1,-5.588652233E-2,6.436755130E-1
1.114876987E1,2.041800928E-1,-3.413475859E-1,1.755205500E-1,4.347587241E-1
1.115870788E1,1.165234889E0,-1.172856735E0,4.739986897E-1,1.719895353E0
1.116864487E1,2.357952277E0,-1.826810503E0,8.026649074E-1,3.088923196E0
1.117858287E1,3.841148813E0,-2.183910488E0,1.118925453E0,4.558056976E0
1.118852088E1,5.324690920E0,-2.152619113E0,1.510189623E0,5.938583597E0
1.119845787E1,6.567730615E0,-1.760553364E0,1.845599946E0,7.045627917E0
1.120839588E1,7.455901038E0,-1.107307109E0,2.192274199E0,7.850009904E0
1.121833287E1,8.132369510E0,-3.017338693E-1,2.521943872E0,8.519781574E0
1.122827087E1,8.573489306E0,5.918873280E-1,2.945064769E0,9.084517377E0
1.123820888E1,8.898649460E0,1.468438164E0,3.561518881E0,9.696736028E0
1.124814587E1,9.172759913E0,2.328229126E0,4.341467575E0,1.041194103E1
1.125808388E1,9.326908890E0,3.040486066E0,5.252289526E0,1.112754826E1
1.126802088E1,9.439109942E0,3.600862164E0,6.368729986E0,1.194251759E1
1.127795887E1,9.458942528E0,3.871129242E0,7.320145648E0,1.257146641E1
1.128789688E1,9.379531492E0,3.572874466E0,7.861362759E0,1.274919870E1
1.129783387E1,9.218011515E0,2.781889445E0,8.080171416E0,1.256979774E1
1.130777187E1,8.746447606E0,1.714845094E0,7.644818144E0,1.174241389E1
1.131770888E1,7.890042182E0,8.627981848E-1,6.777587185E0,1.043709128E1
1.132764687E1,7.120977788E0,2.801985741E-1,5.769316707E0,9.169070354E0
1.133758488E1,6.546970661E0,-4.242739677E-3,4.800143928E0,8.118141694E0
1.134752188E1,6.018725013E0,1.484023333E-1,3.822628927E0,7.131589300E0
1.135745987E1,5.648734256E0,6.570387590E-1,2.811437180E0,6.343822006E0
1.136739688E1,5.609495931E0,1.291186838E0,1.977658288E0,6.086439053E0
1.137733487E1,5.713821368E0,1.842078168E0,1.579996314E0,6.207849463E0
1.138727287E1,5.795195314E0,2.094629937E0,1.436552274E0,6.327356931E0
1.139720988E1,5.801005692E0,2.027372923E0,1.542264963E0,6.335652233E0
1.140714787E1,5.648613803E0,1.769753957E0,1.873085221E0,6.208648421E0
1.141708588E1,5.442691825E0,1.277130716E0,2.084663358E0,5.966554993E0
1.142702288E1,5.084552205E0,6.983300418E-1,2.131545163E0,5.557321365E0
1.143696087E1,4.703106753E0,1.370686752E-1,2.132175493E0,5.165672588E0
1.144689763E1,4.336361786E0,-3.963997060E-1,2.048487658E0,4.812220688E0
1.145683563E1,3.978201701E0,-7.749952251E-1,1.958944713E0,4.501574254E0
1.146677362E1,3.522150455E0,-1.046278549E0,1.834770902E0,4.106899913E0
1.147671063E1,3.011107315E0,-1.208141758E0,1.688983444E0,3.657736848E0
1.148664863E1,2.584927155E0,-1.298215191E0,1.582627269E0,3.297259492E0
1.149658563E1,2.249371237E0,-1.325605888E0,1.644056947E0,3.085421394E0
1.150652363E1,1.858722267E0,-1.226535929E0,1.818389343E0,2.875026722E0
1.151646162E1,1.472552850E0,-1.166733531E0,1.966830268E0,2.719944913E0
1.152639863E1,1.175497922E0,-1.107224078E0,2.114689980E0,2.660761965E0
1.153633663E1,7.995383281E-1,-9.430868876E-1,2.260273955E0,2.576337083E0
1.154627363E1,3.650931287E-1,-7.672780699E-1,2.393807988E0,2.540142774E0
1.155621163E1,-9.125924885E-2,-6.649728459E-1,2.459839425E0,2.549770016E0
1.156614962E1,-4.948159468E-1,-5.183252621E-1,2.503948481E0,2.604469599E0
1.157608663E1,-9.699121588E-1,-4.635304195E-1,2.520135913E0,2.739831211E0
1.158602463E1,-1.384846954E0,-5.668840492E-1,2.523132026E0,2.933488339E0
1.159596163E1,-1.729729182E0,-7.751630402E-1,2.599825276E0,3.217441879E0
1.160589963E1,-2.067462019E0,-1.082737693E0,2.717471255E0,3.582090191E0
1.161583763E1,-2.395411879E0,-1.464708810E0,2.843219136E0,3.995906033E0
1.162577463E1,-2.647785308E0,-1.943448714E0,2.928291446E0,4.400301210E0
1.163571263E1,-2.902011135E0,-2.417171708E0,2.962863693E0,4.800307173E0
1.164564963E1,-3.043728347E0,-2.901132883E0,2.963280015E0,5.144111459E0
1.165558763E1,-3.166088351E0,-3.320387309E0,2.918544137E0,5.437553421E0
1.166552563E1,-3.218988696E0,-3.750324597E0,2.748418229E0,5.655141516E0
1.167546263E1,-3.181503366E0,-4.178168875E0,2.567708859E0,5.845698213E0
1.168540063E1,-3.153628519E0,-4.583951900E0,2.237603130E0,5.997070587E0
1.169533763E1,-3.277036344E0,-4.952169489E0,1.726783354E0,6.184232418E0
1.170527563E1,-3.499886597E0,-5.222440660E0,1.276861160E0,6.415096808E0
1.171521363E1,-3.871992291E0,-5.401918021E0,9.157184100E-1,6.709067209E0
1.172515063E1,-4.314382687E0,-5.463483939E0,6.270623501E-1,6.989761220E0
1.173508863E1,-4.698603228E0,-5.524663357E0,3.933890478E-1,7.263162702E0
1.174502563E1,-5.069688583E0,-5.590924004E0,3.412646285E-1,7.554908014E0
1.175496363E1,-5.333360587E0,-5.703843094E0,3.102298737E-1,7.815037029E0
1.176490163E1,-5.466081857E0,-5.896308290E0,3.193236096E-1,8.046519116E0
1.177483863E1,-5.509027317E0,-6.158951184E0,4.583820192E-1,8.275999985E0
1.178477663E1,-5.616166434E0,-6.394767053E0,7.306003133E-1,8.542139538E0
1.179471463E1,-5.656101748E0,-6.644632026E0,8.727168167E-1,8.769507192E0
1.180465163E1,-5.516754413E0,-7.038875864E0,9.063079011E-1,8.988979179E0
1.181458963E1,-5.323684614E0,-7.524695284E0,9.699958471E-1,9.268416744E0
1.182452663E1,-5.134189804E0,-8.115728919E0,1.012543697E0,9.656614602E0
1.183446463E1,-5.080100720E0,-8.650226410E0,9.976449911E-1,1.008112770E1
1.184440263E1,-5.447893508E0,-8.943639107E0,9.522108829E-1,1.051546146E1
1.185433963E1,-5.572416982E0,-9.253778933E0,9.378372574E-1,1.084268391E1
1.186427763E1,-5.263431981E0,-9.742325495E0,1.053738427E0,1.112326332E1
1.187421463E1,-4.975785808E0,-9.947905412E0,1.315174456E0,1.120039956E1
1.188415263E1,-4.401425509E0,-9.815696357E0,1.547920536E0,1.086814149E1
1.189409063E1,-3.598050238E0,-9.537879354E0,1.661412653E0,1.032847521E1
1.190402763E1,-2.689506361E0,-9.306268219E0,1.686692505E0,9.832853311E0
1.191396563E1,-1.718476215E0,-9.276717560E0,1.789051523E0,9.602674344E0
1.192390262E1,-8.310308468E-1,-9.235562518E0,1.961988773E0,9.478165816E0
1.193384063E1,-9.541077197E-2,-8.967781091E0,2.116427772E0,9.214633331E0
1.194377863E1,4.209059715E-1,-8.471764126E0,2.197633903E0,8.762279613E0
1.195371563E1,8.136090678E-1,-7.789085326E0,2.208969315E0,8.137036031E0
1.196365363E1,1.192392282E0,-7.019211677E0,2.163371558E0,7.441189987E0
1.197359062E1,1.594262643E0,-6.138719233E0,2.098072193E0,6.680378292E0
1.198352863E1,2.085895951E0,-5.268509703E0,1.839896572E0,5.957631727E0
1.199346663E1,2.641772617E0,-4.559148304E0,1.434630733E0,5.461040299E0
1.200340362E1,3.208090070E0,-3.861895904E0,1.037305412E0,5.126605543E0
1.201334163E1,3.694901764E0,-3.086993065E0,6.941112757E-1,4.864526255E0
1.202327862E1,3.974954157E0,-2.270848644E0,4.003763974E-1,4.595358025E0
1.203321663E1,4.009693635E0,-1.591807398E0,1.426334520E-1,4.316461298E0
1.204315463E1,3.805145752E0,-1.082250035E0,-1.478187720E-1,3.958819234E0
1.205309162E1,3.426287109E0,-6.600576764E-1,-5.481530786E-1,3.532080306E0
1.206302963E1,3.086322974E0,-3.363037777E-1,-8.510435271E-1,3.219124852E0
1.207296662E1,2.723093353E0,-3.065753639E-2,-8.826038736E-1,2.862720191E0
1.208290463E1,2.503117007E0,2.800810450E-1,-7.961083513E-1,2.641557997E0
1.209284263E1,2.343300909E0,6.589332569E-1,-6.961431831E-1,2.531771616E0
1.210277962E1,2.278547089E0,1.079619373E0,-6.144587499E-1,2.595171359E0
1.211271763E1,2.236588054E0,1.455225211E0,-6.629918092E-1,2.749466253E0
1.212265462E1,2.181961026E0,1.816184358E0,-6.938294399E-1,2.922478201E0
1.213259262E1,2.096420354E0,2.188329813E0,-7.035556984E-1,3.111069960E0
1.214253063E1,1.969453329E0,2.542965782E0,-7.653403026E-1,3.306231565E0
1.215246762E1,1.899804804E0,2.904812536E0,-7.830964693E-1,3.558150397E0
1.216240563E1,1.809979293E0,3.284768702E0,-8.510844576E-1,3.845786684E0
1.217234363E1,1.764708395E0,3.645054250E0,-9.077702167E-1,4.150260591E0
1.218228062E1,1.809440179E0,3.975009706E0,-9.503876480E-1,4.469677014E0
1.219221863E1,1.999223258E0,4.279567196E0,-1.033883037E0,4.835338990E0
1.220215562E1,2.331953217E0,4.491349838E0,-1.172443848E0,5.194694770E0
1.221209362E1,2.781832142E0,4.538410569E0,-1.302279591E0,5.480117945E0
1.222203163E1,3.196031358E0,4.567598700E0,-1.399667307E0,5.747751116E0
1.223196862E1,3.558959262E0,4.764696060E0,-1.568556529E0,6.150519422E0
1.224190663E1,3.813656960E0,5.072702823E0,-1.988612900E0,6.650629639E0
1.225184363E1,3.994176879E0,5.249433162E0,-2.665570199E0,7.114440382E0
1.226178162E1,4.150015116E0,5.182814080E0,-3.434229382E0,7.475166800E0
1.227171963E1,4.246795891E0,4.929044920E0,-4.006601043E0,7.640916901E0
1.228165662E1,4.335551362E0,4.581846610E0,-4.125722859E0,7.537367782E0
1.229159462E1,4.373146035E0,4.175970907E0,-3.929540588E0,7.211409605E0
1.230153163E1,4.534110526E0,3.666947395E0,-3.413040826E0,6.756738055E0
1.231146962E1,4.849946126E0,3.183786119E0,-2.710691993E0,6.403617927E0
1.232140763E1,5.364156702E0,2.796950703E0,-1.787064639E0,6.307987824E0
1.233134463E1,5.956129984E0,2.427979701E0,-5.930760670E-1,6.459280845E0
1.234128262E1,6.450493357E0,1.951131079E0,5.756173774E-1,6.763661168E0
1.235121963E1,6.782383656E0,1.468755668E0,1.821086664E0,7.174561165E0
1.236115762E1,6.967338688E0,1.120991932E0,3.074312793E0,7.697521059E0
1.237109562E1,7.124224162E0,1.025419192E0,4.331347214E0,8.400394224E0
1.238103263E1,7.425200817E0,1.423177207E0,5.468109087E0,9.330555049E0
1.239097062E1,8.138521366E0,2.390791994E0,6.277996987E0,1.055294568E1
1.240090763E1,8.966130422E0,3.810376672E0,6.530828252E0,1.172869058E1
1.241084562E1,9.529531869E0,5.295409818E0,6.193621080E0,1.253851207E1
1.242078362E1,9.501825423E0,6.634100021E0,5.646044537E0,1.289084126E1
1.243072063E1,8.931241255E0,7.623327287E0,5.024094334E0,1.277198940E1
1.244065887E1,8.345191203E0,8.361725374E0,4.605743011E0,1.267965047E1
1.245059588E1,7.695476081E0,8.962465972E0,4.302743804E0,1.257218170E1
1.246053387E1,7.026787330E0,9.933532956E0,4.050638178E0,1.282413688E1
1.247047187E1,6.281536891E0,1.175860450E1,3.811387655E0,1.386539438E1
1.248040888E1,5.998804718E0,1.397186567E1,3.177917853E0,1.553376484E1
1.249034687E1,5.810094019E0,1.641267942E1,3.217005905E0,1.770543322E1
1.250028488E1,5.854115367E0,1.831900855E1,5.617754538E0,2.003536641E1
1.251022187E1,6.800600072E0,1.820403592E1,1.202527261E1,2.285262056E1
1.252015987E1,7.835745522E0,1.610090004E1,2.192326970E1,2.830667137E1
1.253009688E1,8.325308331E0,1.334339874E1,3.224884443E1,3.587959052E1
1.254003487E1,8.578245431E0,1.120990529E1,3.932182360E1,4.177863189E1
1.254997288E1,8.937354519E0,9.689618109E0,3.956086713E1,4.169924715E1
1.255990988E1,1.010851439E1,8.543544545E0,3.557453020E1,3.795683621E1
1.256984787E1,1.205025543E1,7.175013662E0,3.150434419E1,3.448497035E1
1.257978488E1,1.391796837E1,4.968216587E0,2.855807490E1,3.215519649E1
1.258972287E1,1.559668060E1,2.177276237E0,2.661416571E1,3.092427516E1
1.259966087E1,1.728916068E1,-5.454388011E-1,2.556450397E1,3.086675304E1
1.260959788E1,1.882064352E1,-3.651996065E0,2.524184993E1,3.169707692E1
1.261953587E1,1.990133293E1,-7.355179825E0,2.546006100E1,3.314176261E1
1.262947288E1,2.095176418E1,-1.145273782E1,2.537164876E1,3.484052506E1
1.263941088E1,2.191603786E1,-1.569177153E1,2.447328489E1,3.640722569E1
1.264934887E1,2.328015585E1,-2.016333030E1,2.319332704E1,3.855458422E1
1.265928588E1,2.435739307E1,-2.429301757E1,2.254708107E1,4.113154707E1
1.266922387E1,2.487604812E1,-2.740466951E1,2.262310891E1,4.337785999E1
1.267916088E1,2.481864717E1,-2.994956019E1,2.235830722E1,4.486463312E1
1.268909888E1,2.316163747E1,-3.209735711E1,2.104310002E1,4.482760134E1
1.269903687E1,1.962732071E1,-3.345365152E1,1.925415141E1,4.330243486E1
1.270897388E1,1.567747742E1,-3.389947599E1,1.689820297E1,4.099398778E1
1.271891188E1,1.109189210E1,-3.385570607E1,1.248563677E1,3.775089442E1
1.272884888E1,5.281223888E0,-3.400535737E1,7.099074118E0,3.513762242E1
1.273878688E1,-2.522929713E0,-3.435224461E1,1.135295391E0,3.446347022E1
1.274872487E1,-1.123600024E1,-3.374176021E1,-5.111714276E0,3.592887010E1
1.275866188E1,-1.767165629E1,-3.219187384E1,-1.018040708E1,3.810833066E1
1.276859988E1,-2.131533703E1,-3.020193070E1,-1.283091017E1,3.912968779E1
1.277853688E1,-2.262393220E1,-2.849138389E1,-1.314667268E1,3.868379851E1
1.278847488E1,-2.237065654E1,-2.717451375E1,-1.293981106E1,3.750118907E1
1.279841288E1,-2.205201136E1,-2.604010245E1,-1.412078373E1,3.692931997E1
1.280834988E1,-2.158707585E1,-2.458513744E1,-1.602887871E1,3.643289420E1
1.281828788E1,-1.981727570E1,-2.314871512E1,-1.726951286E1,3.502604035E1
1.282822488E1,-1.722062546E1,-2.157978086E1,-1.826512295E1,3.310364934E1
1.283816288E1,-1.484296047E1,-2.002487057E1,-1.905718094E1,3.137650493E1
1.284810088E1,-1.303209298E1,-1.873965608E1,-1.892219328E1,2.964893853E1
1.285803788E1,-1.135033553E1,-1.749064053E1,-1.735661416E1,2.712940614E1
1.286797588E1,-9.593010997E0,-1.632514777E1,-1.467238666E1,2.395444093E1
1.287791288E1,-7.686294199E0,-1.557747951E1,-1.121841416E1,2.067824467E1
1.288785088E1,-6.230763763E0,-1.524919694E1,-7.659838471E0,1.816682553E1
1.289778888E1,-5.388496907E0,-1.497388898E1,-4.773677384E0,1.661448904E1
1.290772588E1,-5.041370518E0,-1.388453750E1,-2.579892118E0,1.499505391E1
1.291766388E1,-4.245082072E0,-1.093228183E1,-1.179627518E0,1.178673105E1
1.292760188E1,-1.653475642E0,-8.208555222E0,-1.544624753E0,8.514706463E0
1.293753888E1,4.518909520E-1,-6.893701193E0,-1.913180602E0,7.168513207E0
1.294747688E1,1.526381732E0,-8.470984692E0,-1.241507140E0,8.696479910E0
1.295741388E1,-3.356705242E-1,-1.150428453E1,5.722023842E-1,1.152339589E1
1.296735188E1,-3.157644972E0,-1.380975980E1,3.819153050E0,1.467195002E1
1.297728988E1,-4.284896933E0,-1.439266171E1,7.327007940E0,1.670910226E1
1.298722688E1,-2.067642113E0,-1.323672682E1,9.379910392E0,1.635447339E1
1.299716488E1,1.823750655E0,-1.119850906E1,9.893320484E0,1.505358635E1
1.300710188E1,5.334905421E0,-9.117109623E0,9.128471932E0,1.396108533E1
1.301703988E1,7.913439231E0,-6.873789085E0,7.764599526E0,1.304455835E1
1.302697788E1,9.713568889E0,-5.086821510E0,7.494195038E0,1.328127000E1
1.303691488E1,1.105158608E1,-3.929075149E0,9.766579746E0,1.526306870E1
1.304685288E1,1.175379925E1,-2.213516256E0,1.430515696E1,1.864641968E1
1.305678988E1,1.263693932E1,3.826261510E-1,1.845239523E1,2.236804703E1
1.306672788E1,1.421173717E1,3.908306132E0,2.229991927E1,2.673078243E1
1.307666588E1,1.607016707E1,8.295568807E0,2.486790645E1,3.074865042E1
1.308660288E1,1.691341977E1,1.276720593E1,2.505687443E1,3.281634153E1
1.309654088E1,1.681683429E1,1.631044554E1,2.419590467E1,3.367904915E1
1.310647788E1,1.523349366E1,1.927746075E1,2.335148721E1,3.389648620E1
1.311641588E1,1.222913813E1,2.202902712E1,2.312597881E1,3.420001098E1
1.312635388E1,9.311126086E0,2.405269466E1,2.416265272E1,3.534208506E1
1.313629088E1,7.557942553E0,2.499260417E1,2.647937570E1,3.718749920E1
1.314622888E1,7.275764111E0,2.479675753E1,3.023856000E1,3.977670723E1
1.315616688E1,8.781032717E0,2.403536118E1,3.532360512E1,4.361837000E1
1.316610388E1,1.211384273E1,2.297739171E1,4.017646199E1,4.784196707E1
1.317604188E1,1.646220417E1,2.139166892E1,4.217264996E1,5.007134979E1
1.318597888E1,2.102803292E1,1.791597167E1,4.030235956E1,4.886144078E1
1.319591688E1,2.616454991E1,1.138013411E1,3.624977602E1,4.613173946E1
1.320585488E1,3.214846645E1,1.059534772E0,3.110804564E1,4.474770399E1
1.321579188E1,3.537579971E1,-8.599004216E0,2.651523784E1,4.503829389E1
1.322572988E1,3.721302527E1,-1.505383796E1,2.377064837E1,4.665266349E1
1.323566687E1,4.026177053E1,-2.079526462E1,2.184156773E1,5.030414772E1
1.324560488E1,4.020430409E1,-2.585334239E1,2.070899012E1,5.209264489E1
1.325554288E1,3.764597651E1,-3.192012566E1,1.932785907E1,5.300641571E1
1.326547988E1,3.468341921E1,-3.651774455E1,1.831564523E1,5.359055976E1
1.327541788E1,3.266718465E1,-3.781852550E1,1.764562215E1,5.299767735E1
1.328535487E1,3.066347950E1,-3.972635736E1,1.782953345E1,5.325715640E1
1.329529288E1,2.609356238E1,-4.180762934E1,1.759242886E1,5.232824688E1
1.330523088E1,1.985115447E1,-4.261565373E1,1.569191069E1,4.956206551E1
1.331516788E1,1.401933103E1,-4.255676993E1,1.290232573E1,4.662714143E1
1.332510588E1,9.021612312E0,-4.223645010E1,1.103913852E1,4.457768259E1
1.333504287E1,2.808171510E0,-4.189130533E1,9.050004637E0,4.294962018E1
1.334498088E1,-5.112683160E0,-4.233539434E1,4.738080704E0,4.290541402E1
1.335491888E1,-1.474892555E1,-4.237018294E1,-1.295971322E0,4.488254392E1
1.336485587E1,-2.340984710E1,-4.073454364E1,-6.247521883E0,4.739573311E1
1.337479388E1,-2.877516330E1,-3.833251447E1,-8.809816806E0,4.873401852E1
1.338473087E1,-3.139132921E1,-3.516036723E1,-1.002944717E1,4.818979958E1
1.339466888E1,-3.233726837E1,-3.244241066E1,-1.027298254E1,4.694404227E1
1.340460688E1,-3.134585892E1,-2.992049018E1,-1.019076484E1,4.451573083E1
1.341454387E1,-3.028412852E1,-2.748684394E1,-1.148911919E1,4.248122985E1
1.342448188E1,-2.791405789E1,-2.500105457E1,-1.107653498E1,3.907604105E1
1.343441887E1,-2.402939936E1,-2.234999716E1,-8.891492468E0,3.399989772E1
1.344435638E1,-1.954279804E1,-2.012268279E1,-6.015084536E0,2.868840463E1
1.345429437E1,-1.521071291E1,-1.820423355E1,-3.398053243E0,2.396469638E1
1.346423138E1,-1.110322986E1,-1.684306724E1,-1.295306494E0,2.021505494E1
1.347416937E1,-6.954310507E0,-1.603101412E1,1.381240976E-1,1.747498001E1
1.348410737E1,-4.015976468E0,-1.399020254E1,5.653979793E-1,1.456617688E1
1.349404438E1,-2.533629532E0,-1.046953201E1,4.355912536E-1,1.078054353E1
1.350398237E1,-6.931511629E-1,-9.686422606E0,-3.637278038E-1,9.718000789E0
1.351391938E1,-8.179675823E-1,-1.256235457E1,-9.157646030E-1,1.262222042E1
1.352385738E1,-1.190828737E0,-1.583080662E1,1.867928123E-1,1.587663072E1
1.353379537E1,1.050033631E0,-1.750074335E1,2.631274233E0,1.772856995E1
1.354373238E1,5.883281863E0,-1.721361114E1,6.023870562E0,1.916268328E1
1.355367037E1,1.172757566E1,-1.525460328E1,9.701274533E0,2.154886725E1
1.356360738E1,1.682652313E1,-1.210121157E1,1.184966669E1,2.387437544E1
1.357354538E1,1.964300996E1,-8.695181558E0,1.309091597E1,2.515603514E1
1.358348337E1,2.050829965E1,-5.784085604E0,1.450294488E1,2.577559720E1
1.359342038E1,1.957743929E1,-3.648513463E0,1.575296966E1,2.539180640E1
1.360335837E1,1.686642453E1,-2.581293988E0,1.632093193E1,2.361169571E1
1.361329538E1,1.284081536E1,-1.020342347E0,1.670306852E1,2.109313006E1
1.362323338E1,9.667403367E0,1.276310644E0,1.680251914E1,1.942710236E1
1.363317137E1,8.034867189E0,4.076672321E0,1.607690306E1,1.842946445E1
1.364310838E1,7.269072558E0,6.761131951E0,1.471390540E1,1.774968544E1
1.365304638E1,7.020070633E0,9.155089043E0,1.303733560E1,1.740888183E1
1.366298338E1,7.016959330E0,1.075984978E1,1.118753150E1,1.703446350E1
1.367292138E1,7.369366339E0,1.140665240E1,9.591490721E0,1.662576234E1
1.368285937E1,8.423923377E0,1.135467299E1,8.253733149E0,1.637116962E1
1.369279638E1,9.667062474E0,1.122786443E1,7.248941764E0,1.649436853E1
1.370273438E1,1.055945634E1,1.139151162E1,6.498989578E0,1.683762218E1
1.371267237E1,1.146845045E1,1.133691149E1,5.579801431E0,1.706414668E1
1.372260938E1,1.194524060E1,1.117224103E1,4.648147019E0,1.700332360E1
1.373254738E1,1.189219349E1,1.104205278E1,3.972119135E0,1.670715194E1
1.374248438E1,1.282745798E1,9.121396217E0,3.785328369E0,1.618864596E1
1.375242238E1,1.376211084E1,5.800863605E0,4.586913807E0,1.562323563E1
1.376236037E1,1.366562944E1,2.603239465E0,5.452982340E0,1.494193094E1
1.377229738E1,1.289881506E1,7.004654449E-1,6.328761928E0,1.438482914E1
1.378223538E1,1.222965151E1,6.611680627E-2,6.846448089E0,1.401579819E1
1.379217238E1,1.279007088E1,-5.741398591E-1,6.338040290E0,1.428587780E1
1.380211038E1,1.415177748E1,-2.154560974E0,5.551440096E0,1.535361280E1
1.381204838E1,1.535761368E1,-4.331328503E0,5.128003449E0,1.676046312E1
1.382198538E1,1.613109272E1,-6.762594924E0,4.752510463E0,1.812542960E1
1.383192338E1,1.616642160E1,-8.494295202E0,4.563947114E0,1.882381076E1
1.384186038E1,1.577834189E1,-9.329135510E0,4.617175487E0,1.890256998E1
1.385179838E1,1.559912707E1,-9.760344860E0,5.138093405E0,1.910489731E1
1.386173638E1,1.565668706E1,-1.057875566E1,5.953631469E0,1.981130104E1
1.387167338E1,1.568077058E1,-1.227792963E1,7.101684315E0,2.114398359E1
1.388161138E1,1.543835671E1,-1.483492405E1,8.406919674E0,2.300204617E1
1.389154838E1,1.481021372E1,-1.792935946E1,9.639255456E0,2.517378809E1
1.390148638E1,1.327158324E1,-2.106557672E1,1.066466880E1,2.708557928E1
1.391142438E1,1.087694261E1,-2.342067380E1,1.119871606E1,2.814688408E1
1.392136138E1,7.605383937E0,-2.422662828E1,1.015612125E1,2.734809283E1
1.393129938E1,3.321293920E0,-2.371723990E1,7.966682807E0,2.523898763E1
1.394123738E1,-1.919266677E0,-2.238493077E1,5.842905085E0,2.321439747E1
1.395117438E1,-7.827877509E0,-2.093689588E1,3.370335102E0,2.260505328E1
1.396111238E1,-1.348484874E1,-1.935772080E1,2.084199089E-1,2.359249752E1
1.397104938E1,-1.775373833E1,-1.776866043E1,-3.315508100E0,2.533600427E1
1.398098738E1,-2.029010729E1,-1.643952516E1,-6.452438141E0,2.689944979E1
1.399092538E1,-2.186821466E1,-1.514422071E1,-8.832762449E0,2.802827012E1
1.400086238E1,-2.300114777E1,-1.370074899E1,-1.029069024E1,2.868207851E1
1.401080038E1,-2.330295532E1,-1.243723351E1,-1.074603748E1,2.851648340E1
1.402073738E1,-2.270389638E1,-1.154664059E1,-1.037105905E1,2.750183059E1
1.403067538E1,-2.181313155E1,-1.063785581E1,-9.928324256E0,2.622114236E1
1.404061338E1,-2.081191983E1,-9.423770356E0,-9.701854577E0,2.482074610E1
1.405055038E1,-1.940252334E1,-8.384559921E0,-9.367952836E0,2.311963013E1
1.406048838E1,-1.739654479E1,-7.632582260E0,-8.596075931E0,2.085158517E1
1.407042538E1,-1.495244022E1,-7.012206713E0,-7.409493442E0,1.810102496E1
1.408036338E1,-1.218004490E1,-6.618545258E0,-5.840817629E0,1.504239960E1
1.409030138E1,-8.820842316E0,-6.706384470E0,-4.178258922E0,1.184232661E1
1.410023838E1,-5.500691527E0,-7.101187302E0,-2.968344873E0,9.460208225E0
1.411017638E1,-3.446741254E0,-6.344544148E0,-2.304634441E0,7.579221967E0
1.412011438E1,-1.759648215E0,-5.246858633E0,-2.034496586E0,5.896190610E0
1.413005138E1,-6.641074580E-1,-4.770755822E0,-2.009047165E0,5.218948203E0
1.413998938E1,-6.586484975E-1,-5.168120027E0,-2.138833133E0,5.631863779E0
1.414992638E1,-1.170689172E0,-6.290848582E0,-1.888642031E0,6.671750725E0
1.415986438E1,-1.663736921E0,-7.314510101E0,-1.020092379E0,7.570380903E0
1.416980238E1,-2.268296919E0,-7.796739331E0,-1.232903327E-1,8.120930712E0
1.417973938E1,-2.599238216E0,-7.970871753E0,4.403958742E-1,8.395521683E0
1.418967738E1,-2.550620956E0,-7.940355134E0,8.358735108E-1,8.381741552E0
1.419961438E1,-2.403558220E0,-7.601024837E0,1.424818520E0,8.098319487E0
1.420955238E1,-2.264035469E0,-6.974345992E0,2.163590829E0,7.645160815E0
1.421949038E1,-1.884830670E0,-6.334923724E0,2.908514408E0,7.221031873E0
1.422942738E1,-1.412144680E0,-5.428140444E0,3.715823686E0,6.728016568E0
1.423936538E1,-1.002578214E0,-4.368274720E0,4.364026133E0,6.255534445E0
1.424930338E1,-5.329017860E-1,-3.348535513E0,4.755579082E0,5.840565623E0
1.425924038E1,-4.977617741E-2,-2.282749482E0,4.853341019E0,5.363612767E0
1.426917838E1,6.177513170E-1,-1.351380415E0,4.756843250E0,4.983513160E0
1.427911538E1,1.599954323E0,-6.516218984E-1,4.332514318E0,4.664241123E0
1.428905338E1,2.594367485E0,7.517531276E-2,3.649215714E0,4.478076518E0
1.429899138E1,3.627680418E0,8.890071595E-1,2.680249050E0,4.597187609E0
1.430892838E1,4.512293395E0,2.015062780E0,1.687370782E0,5.221923961E0
1.431886638E1,5.000141215E0,3.227737300E0,7.833562318E-1,6.002778293E0
1.432880337E1,5.225311058E0,4.296416532E0,3.053437941E-2,6.764909683E0
1.433874138E1,5.341292920E0,5.083582737E0,-5.276504016E-1,7.392607012E0
1.434867938E1,5.347251232E0,5.543422979E0,-7.834555614E-1,7.741862610E0
1.435861638E1,5.281043209E0,5.532846535E0,-7.277888989E-1,7.683194963E0
1.436855438E1,5.095495269E0,5.173409418E0,-3.727706690E-1,7.270983085E0
1.437849137E1,4.746546888E0,4.562243235E0,2.899833047E-1,6.589981867E0
1.438842938E1,4.189174504E0,3.744308397E0,1.146230854E0,5.734359037E0
1.439836738E1,3.561758909E0,2.860257338E0,2.068459554E0,5.014551175E0
1.440830437E1,3.027488290E0,2.048507684E0,2.948405868E0,4.696292819E0
1.441824238E1,2.698743793E0,1.360013829E0,3.681989357E0,4.763391786E0
1.442818038E1,2.606947185E0,9.923976266E-1,4.184120171E0,5.028706422E0
1.443811738E1,2.812811568E0,9.538919574E-1,4.384565063E0,5.295869104E0
1.444805600E1,3.255593728E0,1.145902825E0,4.395847850E0,5.588869485E0
1.445799300E1,3.820776237E0,1.716848935E0,4.361393716E0,6.047119684E0
1.446793100E1,4.324862067E0,2.698742039E0,4.219657209E0,6.617639115E0
1.447786900E1,5.286844232E0,3.213187088E0,3.964394671E0,7.347905709E0
1.448780600E1,7.018915808E0,3.226825134E0,3.660038910E0,8.548301843E0
1.449774400E1,9.131402557E0,2.879970641E0,3.376053679E0,1.015256037E1
1.450768100E1,1.057541807E1,3.246205146E0,3.075785122E0,1.148206294E1
1.451761900E1,1.105056048E1,4.203359265E0,2.354594221E0,1.205517440E1
1.452755700E1,1.091192884E1,4.785814449E0,1.385250850E0,1.199554629E1
1.453749400E1,1.029292505E1,4.964608271E0,5.614917469E-1,1.144145595E1
1.454743200E1,9.579449549E0,5.003433782E0,3.634981544E-1,1.081352552E1
1.455737000E1,8.979369687E0,4.887439057E0,6.944131382E-1,1.024687026E1
1.456730700E1,8.754764101E0,4.430561015E0,1.135911834E0,9.877553395E0
1.457724500E1,8.506960271E0,3.609240054E0,1.622021130E0,9.382213991E0
1.458718200E1,7.805745213E0,2.614225799E0,2.099571419E0,8.495412586E0
1.459712000E1,6.824267262E0,1.670627280E0,2.762150999E0,7.549244817E0
1.460705800E1,6.013954269E0,4.751160926E-1,3.242262368E0,6.848769708E0
1.461699500E1,5.645773226E0,-9.820708591E-1,3.569034015E0,6.751090452E0
1.462693300E1,5.735587628E0,-2.198164830E0,3.979072351E0,7.318600333E0
1.463687000E1,6.117169905E0,-2.811627799E0,4.227681928E0,7.949736663E0
1.464680800E1,6.835671086E0,-2.941083400E0,4.148435783E0,8.519735337E0
1.465674600E1,7.729312164E0,-2.804541559E0,3.805353913E0,9.060267010E0
1.466668300E1,8.429280011E0,-2.543991968E0,3.441226160E0,9.453395904E0
1.467662100E1,8.881638156E0,-2.387730392E0,3.004744960E0,9.675393792E0
1.468655900E1,9.030018269E0,-2.370414448E0,2.458312717E0,9.654190593E0
1.469649600E1,8.862715396E0,-2.471897553E0,1.958983305E0,9.407210920E0
1.470643400E1,8.203823655E0,-2.418582641E0,1.590315188E0,8.699503833E0
1.471637100E1,7.375677824E0,-2.484229331E0,1.344035143E0,7.898002861E0
1.472630900E1,6.619260373E0,-2.848822523E0,1.258038242E0,7.315261982E0
1.473624700E1,5.820268759E0,-3.085872738E0,1.272479256E0,6.709496437E0
1.474618400E1,5.154422924E0,-3.333606986E0,1.433817385E0,6.303716643E0
1.475612200E1,4.606676812E0,-3.630957198E0,1.673951422E0,6.099789733E0
1.476605900E1,4.081579304E0,-4.066435601E0,1.859060236E0,6.054031142E0
1.477599700E1,3.866348559E0,-4.780934363E0,2.003197172E0,6.466744426E0
1.478593500E1,3.947847635E0,-5.375669285E0,2.132083692E0,7.002078412E0
1.479587200E1,4.200587100E0,-6.015424259E0,2.506144403E0,7.753129740E0
1.480581000E1,4.449306604E0,-6.714777564E0,2.799572887E0,8.527729788E0
1.481574800E1,4.362433351E0,-7.147393169E0,3.069380082E0,8.918360160E0
1.482568500E1,3.836981503E0,-7.459889424E0,3.101374876E0,8.943763380E0
1.483562300E1,3.137849223E0,-7.742512254E0,2.906010046E0,8.845195765E0
1.484556000E1,2.491207398E0,-7.945108920E0,2.580672137E0,8.717266701E0
1.485549800E1,1.969629915E0,-7.938329659E0,2.231465893E0,8.477969085E0
1.486543600E1,1.826650289E0,-8.015588919E0,1.954547607E0,8.450241023E0
1.487537300E1,2.271152115E0,-8.444038968E0,2.069762898E0,8.985757869E0
1.488531100E1,2.346952495E0,-8.662590348E0,2.663980049E0,9.361914721E0
1.489524800E1,6.437340045E-1,-7.736944535E0,1.908594924E0,7.994838259E0
1.490518600E1,-1.779073834E-1,-7.371584773E0,7.797472572E-1,7.414844495E0
1.491512400E1,-5.970521736E-1,-7.091545828E0,-2.781005931E-1,7.122066657E0
1.492506100E1,-5.579015565E-1,-6.967905868E0,-1.118260113E0,7.079086948E0
1.493499900E1,-3.301612777E-1,-7.000125196E0,-1.893600909E0,7.259234369E0
1.494493600E1,-1.618509293E-3,-6.788248998E0,-2.323584682E0,7.174912742E0
1.495487400E1,5.287765753E-1,-6.736100605E0,-2.476625027E0,7.196410741E0
1.496481200E1,8.723437643E-1,-6.796527486E0,-2.543679727E0,7.309177523E0
1.497474900E1,8.147276402E-1,-6.502144151E0,-2.608501959E0,7.053080332E0
1.498468700E1,4.768035990E-1,-6.373113059E0,-2.934766068E0,7.032550292E0
1.499462500E1,-1.561528176E-1,-6.317873243E0,-3.479172835E0,7.214190851E0
1.500456200E1,-1.097623535E0,-6.126551178E0,-4.146251264E0,7.478690146E0
1.501450000E1,-1.628126793E0,-6.159078069E0,-4.845104046E0,8.003753665E0
1.502443700E1,-1.532773324E0,-6.397859645E0,-5.419678354E0,8.523785283E0
1.503437500E1,-1.385386359E0,-6.469543585E0,-6.077265581E0,8.983732326E0
1.504431300E1,-9.654349458E-1,-6.495268995E0,-6.954936744E0,9.565130896E0
1.505425000E1,-8.354797009E-1,-6.277880042E0,-7.291732857E0,9.658114320E0
1.506418800E1,-7.448142368E-1,-6.031676010E0,-7.616282562E0,9.743901878E0
1.507412500E1,-5.352041271E-1,-5.714288560E0,-8.087007980E0,9.916614104E0
1.508406300E1,-1.734094128E-1,-5.229343883E0,-8.304036745E0,9.814944449E0
1.509400100E1,3.097954255E-1,-4.780297017E0,-8.150297073E0,9.453811673E0
1.510393800E1,8.481234276E-1,-4.378462324E0,-7.516326165E0,8.739874409E0
1.511387600E1,1.334702986E0,-3.972925758E0,-6.464699167E0,7.704408249E0
1.512381400E1,1.425164090E0,-3.694341016E0,-5.167442334E0,6.510123540E0
1.513375100E1,1.184839726E0,-3.414063504E0,-3.758670913E0,5.214142482E0
1.514368900E1,1.445914982E0,-2.933137618E0,-2.086232166E0,3.878960050E0
1.515362600E1,1.804342431E0,-2.322787999E0,-4.229706234E-1,2.971514739E0
1.516356400E1,2.076150689E0,-2.027608566E0,9.758967841E-1,3.061694419E0
1.517350200E1,2.142814941E0,-1.848460696E0,1.636480710E0,3.269026144E0
1.518343900E1,2.196383476E0,-1.787561945E0,2.135722414E0,3.546940697E0
1.519337700E1,2.368089302E0,-2.149209602E0,2.842492912E0,4.278634690E0
1.520331500E1,2.180630492E0,-2.379040845E0,3.075390435E0,4.457915546E0
1.521325200E1,2.005109211E0,-2.543832924E0,2.206256792E0,3.919071054E0
1.522319000E1,1.659628521E0,-2.463830734E0,2.861188799E-1,2.984408271E0
1.523312700E1,1.161773484E0,-2.005558716E0,-1.394931647E0,2.705146519E0
1.524306500E1,1.262569980E0,-1.345287616E0,-1.828464096E0,2.597530110E0
1.525300300E1,1.556928025E0,-5.046480399E-1,-5.993536377E-1,1.742962795E0
1.526294000E1,2.229381507E0,-3.847269094E-1,1.497142730E0,2.712856991E0
1.527287800E1,1.709985766E0,-9.029513070E-1,3.268193015E0,3.797427809E0
1.528281500E1,1.621174161E0,-1.009481144E0,4.383674532E0,4.781616906E0
1.529275300E1,1.899789017E0,-1.573557653E0,3.937327325E0,4.646270381E0
1.530269100E1,1.834464801E0,-1.459373226E0,2.366719007E0,3.331124461E0
1.531262800E1,1.816192544E0,-1.372379521E0,-2.223011988E-1,2.287225115E0
1.532256600E1,1.630282954E0,-1.082290966E0,-2.979845177E0,3.564919848E0
1.533250400E1,1.257648817E0,-8.162046468E-1,-5.061296659E0,5.278692494E0
1.534244100E1,1.075134120E0,-7.381267762E-1,-5.585794827E0,5.736013281E0
1.535237900E1,9.464222856E-1,-9.159324181E-1,-4.742722224E0,4.922200873E0
1.536231600E1,9.536702017E-1,-1.211538405E0,-3.410070441E0,3.742444732E0
1.537225400E1,9.868623599E-1,-1.406821375E0,-2.158221331E0,2.758797385E0
1.538219200E1,9.006070121E-1,-1.404404136E0,-1.185352820E0,2.046583806E0
1.539212900E1,5.998812027E-1,-1.391197030E0,-9.300610453E-1,1.777723314E0
1.540206700E1,2.172728857E-1,-1.339565531E0,-1.362725183E0,1.923190901E0
1.541200500E1,1.486537635E-2,-1.089915150E0,-2.009675741E0,2.286248586E0
1.542194200E1,-1.733344223E-1,-8.098592484E-1,-2.639262407E0,2.766156698E0
1.543188000E1,-1.989833799E-1,-5.396839714E-1,-2.707798206E0,2.768216809E0
1.544181700E1,-1.555379829E-1,-1.287217748E-1,-2.183062057E0,2.192378002E0
1.545175462E1,-2.038884629E-1,2.395440531E-1,-1.671539446E0,1.700880941E0
1.546169263E1,-1.737539600E-1,2.930718040E-1,-1.189327757E0,1.237166939E0
1.547162962E1,-3.643157414E-1,3.528522751E-1,-5.362288517E-1,7.380867624E-1
1.548156763E1,-3.998016161E-1,2.878113565E-1,1.914980668E-1,5.285340280E-1
1.549150463E1,-4.147754583E-1,3.662064385E-1,5.184252495E-1,7.582285775E-1
1.550144262E1,-5.284304202E-1,3.758356333E-1,1.219430977E-1,6.598191050E-1
1.551138063E1,-8.202694850E-1,4.296531138E-1,-6.295024663E-1,1.119695129E0
1.552131762E1,-1.034768305E0,5.418258065E-1,-1.396661838E0,1.820710010E0
1.553125562E1,-1.139189637E0,7.169908458E-1,-2.022425010E0,2.429409768E0
1.554119363E1,-1.130944039E0,8.435169911E-1,-2.517197687E0,2.885626367E0
1.555113062E1,-9.766737328E-1,8.718648773E-1,-2.769869909E0,3.063693727E0
1.556106863E1,-8.374241924E-1,7.730504411E-1,-2.747456362E0,2.974458391E0
1.557100563E1,-7.629644327E-1,6.082630402E-1,-2.661617482E0,2.834837962E0
1.558094362E1,-7.736826713E-1,4.201961195E-1,-2.584486275E0,2.730333123E0
1.559088163E1,-7.374601936E-1,1.494887459E-1,-2.308725153E0,2.428251687E0
1.560081862E1,-7.271347417E-1,-1.332077587E-1,-1.965645037E0,2.100054678E0
1.561075662E1,-7.761164287E-1,-3.559445751E-1,-1.813412778E0,2.004375003E0
1.562069463E1,-7.815434488E-1,-3.948414230E-1,-1.944259431E0,2.132335491E0
1.563063162E1,-9.570631948E-1,-4.194909453E-1,-2.338999112E0,2.561807850E0
1.564056963E1,-9.015114301E-1,-3.230475551E-1,-2.726139752E0,2.889449866E0
1.565050663E1,-7.951616871E-1,-7.556239843E-2,-2.922330794E0,3.029522909E0
1.566044462E1,-6.064949153E-1,8.026648343E-2,-2.726364870E0,2.794162521E0
1.567038263E1,-3.234809799E-1,1.643816042E-1,-2.226466523E0,2.255840073E0
1.568031962E1,-8.877447456E-2,2.773673522E-1,-1.519275611E0,1.546936307E0
1.569025762E1,1.772641897E-2,3.563766843E-1,-6.385972255E-1,7.315223739E-1
1.570019463E1,5.869493544E-2,3.807794541E-1,1.216431355E-1,4.040236881E-1
1.571013262E1,2.045876437E-1,4.429102135E-1,8.517370069E-1,9.815709297E-1
1.572007063E1,5.937537593E-1,6.830310944E-1,1.789201797E0,2.005073084E0
1.573000763E1,9.106976983E-1,9.127456856E-1,2.667530186E0,2.962801424E0
1.573994562E1,8.858191113E-1,9.936568245E-1,3.556834969E0,3.797776241E0
1.574988363E1,5.853476559E-1,8.259309053E-1,4.072684520E0,4.196612078E0
1.575982062E1,1.575500098E-1,5.088445866E-1,3.846893118E0,3.883597750E0
1.576975862E1,-3.328030497E-1,4.530606875E-1,3.003561484E0,3.055716519E0
1.577969563E1,-9.121659341E-1,6.230532798E-1,1.781489904E0,2.096174697E0
1.578963362E1,-1.339165289E0,8.493165520E-1,7.521682799E-1,1.755123756E0
1.579957163E1,-1.373987066E0,1.022507571E0,3.762975633E-1,1.753556970E0
1.580950862E1,-1.105787856E0,1.000122383E0,6.165608239E-1,1.613430759E0
1.581944662E1,-8.112210649E-1,9.455009106E-1,1.238948983E0,1.756999195E0
1.582938463E1,-6.035883375E-1,8.335577211E-1,2.105771806E0,2.343802947E0
1.583932162E1,-3.326773345E-1,5.334920624E-1,3.071338899E0,3.135029605E0
1.584925962E1,-2.329768990E-1,1.347789055E-1,4.014063844E0,4.023077446E0
1.585919663E1,-4.232372564E-1,-2.212691653E-1,4.351025434E0,4.377157998E0
1.586913462E1,-8.882939453E-1,-3.795223027E-1,4.013917664E0,4.128515269E0
1.587907263E1,-1.234434786E0,-3.243851057E-1,3.015941209E0,3.274897909E0
1.588900962E1,-1.430519263E0,8.350584090E-2,1.892470057E0,2.373773684E0
1.589894762E1,-1.351145065E0,3.883589074E-1,1.099726778E0,1.784885042E0
1.590888463E1,-1.197956785E0,5.191298389E-1,5.617782605E-1,1.421334254E0
1.591882262E1,-1.096586677E0,4.704628783E-1,2.088315529E-1,1.211382796E0
1.592876062E1,-9.985909975E-1,3.841117823E-1,-9.718013942E-2,1.074322959E0
1.593869763E1,-8.472042453E-1,3.148462504E-1,-4.761615747E-1,1.021573805E0
1.594863562E1,-7.415742946E-1,2.037146544E-1,-8.922529489E-1,1.177942027E0
1.595857363E1,-7.030934760E-1,6.201147616E-2,-1.377796966E0,1.548066645E0
1.596851062E1,-6.586796339E-1,6.020585597E-3,-1.701973034E0,1.824995155E0
1.597844862E1,-5.039941750E-1,-9.956171036E-2,-1.777727221E0,1.850469328E0
1.598838563E1,-3.720083383E-1,-1.932776669E-1,-1.922325940E0,1.967506920E0
1.599832362E1,-2.898779087E-1,-1.634027803E-1,-2.183621051E0,2.208830135E0
1.600826163E1,-2.531435072E-1,-1.815604314E-1,-2.442403028E0,2.462189752E0
1.601819863E1,-2.554841477E-1,-2.983571023E-1,-2.615721517E0,2.645049747E0
1.602813662E1,-3.460946479E-1,-4.535597473E-1,-2.719690858E0,2.778887604E0
1.603807463E1,-4.703044188E-1,-6.429881921E-1,-2.787708009E0,2.899299227E0
1.604801162E1,-6.152057317E-1,-8.366672704E-1,-2.945586925E0,3.123295143E0
1.605794962E1,-8.115471934E-1,-9.509873530E-1,-3.268239793E0,3.499196642E0
1.606788663E1,-1.055216311E0,-1.022181881E0,-3.751545496E0,4.028949102E0
1.607782462E1,-1.112251222E0,-9.779976887E-1,-4.326211020E0,4.572710799E0
1.608776263E1,-1.069465098E0,-8.374212688E-1,-4.831912143E0,5.019203616E0
1.609769963E1,-1.292234221E0,-1.049122927E0,-5.279708290E0,5.535869202E0
1.610763762E1,-1.470034015E0,-1.140165245E0,-5.572027557E0,5.874390853E0
1.611757463E1,-1.675631766E0,-1.181789234E0,-5.763703964E0,6.117569043E0
1.612751262E1,-1.790434974E0,-1.474734153E0,-5.945877476E0,6.382315973E0
1.613745062E1,-1.944778079E0,-1.686003557E0,-6.025075089E0,6.551816511E0
1.614738763E1,-2.194722867E0,-2.009547833E0,-6.023200471E0,6.718186874E0
1.615732562E1,-2.321257491E0,-2.390275247E0,-6.153379372E0,6.997551700E0
1.616726363E1,-2.247958257E0,-2.658007995E0,-6.390599157E0,7.277230271E0
1.617720063E1,-2.149209017E0,-2.842388831E0,-6.463095860E0,7.380371384E0
1.618713862E1,-2.030884761E0,-3.058889885E0,-6.278133811E0,7.272981809E0
1.619707563E1,-1.814387216E0,-3.241130932E0,-6.085666276E0,7.129674937E0
1.620701362E1,-1.482070363E0,-3.591665078E0,-5.711145097E0,6.907515394E0
1.621695162E1,-9.742709658E-1,-3.954164967E0,-5.051143554E0,6.488349228E0
1.622688863E1,-1.414780605E-1,-4.189384419E0,-4.232630426E0,5.957022594E0
1.623682662E1,7.029028568E-1,-4.420915156E0,-3.293586304E0,5.557542081E0
1.624676463E1,1.409594125E0,-4.792717087E0,-2.247359794E0,5.477930149E0
1.625670162E1,1.929028019E0,-5.375482174E0,-1.354660118E0,5.869587868E0
1.626663962E1,2.191654540E0,-5.855697623E0,-5.224914032E-1,6.274196486E0
1.627657663E1,2.427391471E0,-6.193786556E0,4.762779343E-1,6.669487381E0
1.628651462E1,2.763975331E0,-6.502055858E0,1.400688230E0,7.202653506E0
1.629645262E1,3.165038191E0,-6.836891985E0,2.152777573E0,7.835496796E0
1.630638963E1,3.351946778E0,-7.091309016E0,2.640615453E0,8.276174281E0
1.631632762E1,3.517942799E0,-7.170192633E0,2.936590399E0,8.509473961E0
1.632626463E1,3.893906486E0,-7.428291070E0,2.951382101E0,8.891156969E0
1.633620262E1,4.188665797E0,-7.468112948E0,2.703209896E0,8.979141156E0
1.634614062E1,4.269519925E0,-7.148210025E0,2.114451998E0,8.590495574E0
1.635607763E1,4.218352695E0,-6.902330514E0,1.206780526E0,8.178813192E0
1.636601562E1,4.182232690E0,-6.916700047E0,2.904142445E-1,8.088025114E0
1.637595362E1,4.219239133E0,-7.121640862E0,-2.577692395E-1,8.281678116E0
1.638589063E1,4.169514411E0,-7.191565960E0,-3.292941356E-1,8.319369328E0
1.639582862E1,4.119431255E0,-6.946642469E0,-1.262782234E-1,8.077221158E0
1.640576563E1,4.100707886E0,-6.639305797E0,3.446536016E-1,7.811208148E0
1.641570362E1,3.987666589E0,-6.074088789E0,8.673619366E-1,7.317674233E0
1.642564162E1,3.805915246E0,-5.507201816E0,1.372278364E0,6.833550367E0
1.643557863E1,3.740307148E0,-4.950621731E0,1.745212024E0,6.445488196E0
1.644551687E1,3.875879520E0,-4.496483694E0,2.011071179E0,6.267791872E0
1.645545388E1,4.146040764E0,-4.087041773E0,2.173858832E0,6.214436957E0
1.646539187E1,4.458628820E0,-3.656546953E0,2.212898937E0,6.176295676E0
1.647532988E1,4.819097385E0,-3.111523889E0,2.131134981E0,6.119396770E0
1.648526688E1,5.211006430E0,-2.624732076E0,2.096445497E0,6.199910500E0
1.649520487E1,5.451270860E0,-1.964711237E0,2.129334039E0,6.173370852E0
1.650514288E1,5.469168602E0,-1.209676067E0,1.953097790E0,5.932091736E0
1.651507987E1,5.199185114E0,-5.486623710E-1,1.613328367E0,5.471323850E0
1.652501787E1,4.789678289E0,1.181032312E-1,1.383136058E0,4.986785723E0
