"Time (s)","Linear Acceleration x (m/s^2)","Linear Acceleration y (m/s^2)","Linear Acceleration z (m/s^2)","Absolute acceleration (m/s^2)"
1.487583329E-3,-1.008359210E0,2.286529707E0,-9.025831517E-1,2.657002586E0
1.142358333E-2,-4.451875578E-1,4.889100251E0,1.011146577E-1,4.910368357E0
2.135958333E-2,1.467922001E0,7.054079794E0,7.790525349E-1,7.247189772E0
3.129558334E-2,3.132007270E0,9.716082022E0,1.539733264E0,1.032387998E1
4.123158334E-2,5.135354569E0,1.362428495E1,1.850342038E0,1.467708325E1
5.116858333E-2,6.718294664E0,1.396256392E1,1.913328245E0,1.561247896E1
6.110458334E-2,7.108506846E0,1.630943514E1,1.724126379E0,1.787459526E1
7.104058334E-2,5.434760662E0,1.902808870E1,1.432666068E0,1.984079925E1
8.097708333E-2,3.396695520E0,1.745159282E1,-5.261091486E-1,1.778686097E1
9.091308333E-2,5.799343328E0,1.807929025E1,6.518429232E-1,1.899784246E1
1.008490833E-1,5.192977125E0,1.637191614E1,2.309851327E0,1.733037976E1
1.107850833E-1,1.183915457E1,6.129944901E0,2.984788413E0,1.366201915E1
1.207220833E-1,8.024314719E0,6.876496346E0,3.492601551E0,1.112987396E1
1.306580833E-1,-5.719135317E0,-6.226194164E0,2.596932074E0,8.844097396E0
1.405940833E-1,-1.150100658E1,-1.840564324E1,1.666090425E0,2.176733132E1
1.505300833E-1,-2.362414580E0,-9.689796449E0,-1.331414512E0,1.006209831E1
1.604660833E-1,3.431186491E0,-8.731761739E0,-1.595714507E0,9.516459877E0
1.704020833E-1,5.674719282E0,-9.659145344E0,2.047707785E0,1.138835523E1
1.803380833E-1,6.292234957E0,-9.500640192E0,4.667475575E0,1.231420777E1
1.902750833E-1,4.857976692E0,-8.986975161E0,2.201429915E-1,1.021832291E1
2.002110833E-1,3.646442379E0,-7.759874976E0,-2.397388823E0,8.902790284E0
2.101470833E-1,3.778649679E0,-5.999505215E0,2.807107719E-1,7.095847712E0
2.200830833E-1,4.087240579E0,-3.064749087E0,2.209347045E0,5.565917434E0
2.300190833E-1,3.753409004E0,1.139349266E0,2.464366339E0,4.632418089E0
2.399550833E-1,4.230139512E0,2.214167490E0,3.392375597E0,5.857032539E0
2.498910833E-1,2.876831563E-1,3.238082778E0,4.263304335E0,5.361315653E0
2.598280833E-1,7.692684621E-2,7.379341689E0,4.146226705E0,8.464738472E0
2.697640833E-1,2.015100203E0,5.776374296E0,2.733800189E0,6.700805348E0
2.797000833E-1,1.796916905E0,2.275008354E0,2.786171361E0,4.020861130E0
2.896360833E-1,8.669172558E-1,-2.110818538E0,3.995958526E0,4.601606781E0
2.995720833E-1,9.807474880E-1,-4.671590261E0,5.703420925E0,7.437380685E0
3.095080833E-1,6.227465934E-1,-4.039548934E0,5.057439836E0,6.502573844E0
3.194440833E-1,4.542159511E-1,-3.358202714E0,4.401935971E-1,3.417251528E0
3.293810833E-1,7.386407465E-1,-4.906204526E0,-3.519779994E0,6.083196874E0
3.393170833E-1,-2.683308898E0,-8.391388884E0,-5.899878016E0,1.060302384E1
3.492530833E-1,-7.334453200E0,-1.365934953E1,-7.291599541E0,1.713299324E1
3.591890833E-1,-8.639556411E-1,-1.195594335E1,-5.741276384E0,1.329109684E1
3.691250833E-1,3.516358203E0,-5.503316342E0,-7.706018026E0,1.010118704E1
3.790610833E-1,1.825250612E0,-5.221302207E0,-3.110219960E0,6.345628789E0
3.889970833E-1,-1.452994790E0,-6.961551114E0,-5.479501802E-1,7.132645875E0
3.989340833E-1,-1.780774351E0,-7.618714419E0,-2.582614582E0,8.239287880E0
4.088700833E-1,-3.230133489E-1,-6.553825936E0,-4.082175136E0,7.727944479E0
4.188060833E-1,2.479552728E-1,-5.723021377E0,-4.342104921E0,7.188068631E0
4.287420833E-1,-1.252948971E0,-4.651398071E0,-3.658580614E0,6.049016222E0
4.386780833E-1,-2.871086089E0,-3.063605372E0,-2.686285715E0,4.984470297E0
4.486140833E-1,-4.457978024E0,-1.737315944E0,-4.882436033E-1,4.809388378E0
4.585500833E-1,-5.452243837E0,-5.965113062E-1,1.989080093E0,5.834314716E0
4.684870833E-1,-3.878067256E0,1.117813386E0,2.813004234E0,4.919543193E0
4.784230833E-1,-2.509882820E0,3.266976210E0,3.235080818E0,5.238166972E0
4.883590833E-1,-1.920866914E0,5.470776587E0,3.199789363E0,6.622520527E0
4.982950833E-1,2.693476036E-2,6.865229931E0,3.031227000E0,7.504694838E0
5.082310833E-1,6.724091886E-1,7.562302237E0,2.566066961E0,8.014065690E0
5.181670833E-1,-1.385235063E0,8.402100983E0,1.343439896E0,8.620847282E0
5.281030833E-1,-3.144003417E0,8.183874124E0,8.350842829E-1,8.806697391E0
5.380400833E-1,-2.536126001E0,7.820364422E0,1.907269360E0,8.439651130E0
5.479760833E-1,-1.882127941E0,8.534117079E0,2.797783931E0,9.176118724E0
5.579120833E-1,-2.343748075E0,8.057997020E0,2.562232357E0,8.774366397E0
5.678480833E-1,-4.145574156E0,7.597469730E0,2.048343085E0,8.893989025E0
5.777840833E-1,-5.590682514E0,7.188403201E0,8.808796759E-1,9.149033859E0
5.877200833E-1,-6.583740292E0,6.669338851E0,-6.158755302E-2,9.371739965E0
5.976570833E-1,-5.970797140E0,6.196797872E0,5.014703706E-2,8.605419053E0
6.075930833E-1,-4.372154640E0,5.044671271E0,3.149930155E-1,6.683087986E0
6.175290833E-1,-2.218163039E0,2.778305687E0,1.232762921E0,3.762835922E0
6.274650833E-1,-1.000360657E-1,2.061441725E-1,1.816319721E0,1.830715697E0
6.374010833E-1,1.203298655E0,-2.059550736E0,2.868437885E0,3.730631687E0
6.473370833E-1,2.855880404E0,-2.405649185E0,4.813671169E0,6.092177854E0
6.572730833E-1,4.057732312E0,-2.331083152E0,6.237947068E0,7.798148742E0
6.672100833E-1,6.047326376E-1,-3.639722174E0,5.825786777E0,6.895873450E0
6.771460833E-1,1.533201194E0,-4.171284948E0,3.779772052E0,5.834123823E0
6.870820833E-1,5.013601506E0,-4.065722825E0,3.130239072E0,7.173890074E0
6.970180833E-1,7.446505147E0,-1.867818196E0,5.413137074E0,9.393680679E0
7.069540833E-1,8.626497824E0,1.677680191E0,7.911729505E0,1.182482724E1
7.168900833E-1,8.474295970E0,4.349966503E0,9.021219964E0,1.311938682E1
7.268260833E-1,8.346330240E0,3.148999863E0,7.456724911E0,1.162670095E1
7.367630833E-1,8.692897636E0,9.605835110E-1,4.656472285E0,9.908174611E0
7.466990833E-1,8.665305210E0,-2.903259516E-1,4.079117919E0,9.581806016E0
7.566350833E-1,4.978567328E0,-1.363319260E0,1.908339400E0,5.503320027E0
7.665710833E-1,1.218271182E0,-3.928463531E0,-1.070835686E0,4.250141109E0
7.765070833E-1,-4.944343575E0,-6.180128630E0,-3.060214864E0,8.485601822E0
7.864430833E-1,-5.233690703E0,-5.650619983E0,-3.988703593E0,8.673567946E0
7.963790833E-1,-4.516092331E0,-4.822489940E0,-4.138185322E0,7.795901290E0
8.063150833E-1,-5.426531875E0,-4.118639542E0,-6.097228560E0,9.142572722E0
8.162520833E-1,-5.030564863E0,-5.392027456E0,-7.766324455E0,1.070963764E1
8.261880833E-1,-4.841249854E0,-7.906962855E0,-9.246811391E0,1.309432253E1
8.361240833E-1,-2.386438742E0,-9.262003042E0,-9.616763556E0,1.356325667E1
8.460600833E-1,6.652446683E-1,-1.057715352E1,-8.802096727E0,1.377663362E1
8.559960833E-1,3.366041199E0,-1.239485640E1,-8.862213120E0,1.560453524E1
8.659320833E-1,3.965803850E0,-1.155802746E1,-8.295040219E0,1.476899763E1
8.758690833E-1,2.493576690E0,-6.925666752E0,-6.571727772E0,9.867643618E0
8.858050833E-1,1.134467133E0,-2.237220722E0,-5.365765271E0,5.923141834E0
8.957410833E-1,8.389783823E-1,-1.100866985E-1,-3.988567937E0,4.077337121E0
9.056770833E-1,1.543569038E0,1.182319869E0,1.041677668E0,2.205805524E0
9.156130833E-1,2.520144684E0,2.550309885E0,4.848127642E0,6.029888172E0
9.255490833E-1,2.527995155E0,3.909517382E0,6.055917982E0,7.638666655E0
9.354850833E-1,3.282832105E0,6.064599343E0,5.450554576E0,8.790045336E0
9.454210833E-1,3.311413879E0,8.128800370E0,3.482908037E0,9.443172439E0
9.553580833E-1,3.555642722E0,8.947745022E0,1.350826099E0,9.722626563E0
9.652940833E-1,2.404267488E0,9.981936207E0,-7.839828341E-1,1.029729002E1
9.752300833E-1,5.240042241E-1,1.115256281E1,-1.453202513E0,1.125904238E1
9.851660833E-1,-1.887008319E0,1.222177414E1,-8.435896428E-1,1.239533005E1
9.951020833E-1,-2.770525089E0,1.268052446E1,5.188035643E-1,1.299002183E1
1.005038083E0,-1.843752372E0,1.232254974E1,1.055396844E0,1.250433994E1
1.014975083E0,-2.659912434E0,1.096478299E1,1.379575543E0,1.136683020E1
1.024911083E0,-3.128673187E0,9.530061042E0,2.299601158E0,1.029071547E1
1.034847083E0,-1.732842970E0,7.694197295E0,2.373591825E0,8.236343541E0
1.044783083E0,-6.636619002E-2,5.739790606E0,2.473020219E0,6.250234370E0
1.054719083E0,3.338147642E-1,4.170261685E0,2.465062158E0,4.855826012E0
1.064655083E0,5.727697103E-1,1.833552927E0,2.190868675E0,2.913741071E0
1.074591083E0,1.541912522E0,-1.214471369E0,1.938080678E0,2.758367569E0
1.084527125E0,1.604363708E0,-4.690907122E0,1.994933302E0,5.344001443E0
1.094463125E0,1.358363014E0,-8.436372099E0,2.356434925E0,8.863989498E0
1.104399125E0,2.186970190E0,-1.008891219E1,2.028863379E0,1.052070693E1
1.114335125E0,4.584307703E0,-8.654784899E0,2.002884200E0,9.996635629E0
1.124271125E0,6.841832882E0,-5.596815659E0,2.366340108E0,9.150660534E0
1.134207125E0,7.655677593E0,3.485811764E-1,2.530693645E0,8.070645486E0
1.144143125E0,6.043839973E0,3.177032000E0,5.187808771E0,8.575248906E0
1.154080125E0,3.402771361E0,-1.362015331E0,3.106361382E0,4.804520760E0
1.164016125E0,1.882031461E0,-3.820611053E0,3.833131696E0,5.729922324E0
1.173952125E0,1.825426175E0,-3.856136981E0,5.792670486E0,7.194234115E0
1.183888125E0,9.419940430E-1,-3.061446580E0,5.135069225E0,6.052168527E0
1.193824125E0,-7.878181690E-1,-4.562102902E0,-2.705599068E0,5.362248285E0
1.203760125E0,-4.340774095E0,-9.698254446E0,-1.060907347E1,1.501502245E1
1.213696125E0,-8.167545190E0,-1.265728997E1,-7.737655556E0,1.693478955E1
1.223632125E0,-4.863662524E0,-7.110678502E0,-2.447792991E0,8.955928341E0
1.233569125E0,-1.923520965E0,-2.767333387E0,-2.516670853E0,4.206150159E0
1.243505125E0,-3.199380058E-1,-8.278523004E-1,-4.432173092E0,4.520161289E0
1.253441125E0,-2.229454889E0,-4.908597792E0,-4.643908957E0,7.115524702E0
1.263377125E0,-3.111164577E0,-9.178935742E0,-3.510944266E0,1.030819752E1
1.273313125E0,-1.330384818E0,-1.006375746E1,-4.925734227E0,1.128326175E1
1.283249125E0,3.474257666E-1,-8.665269542E0,-6.014892747E0,1.055398198E1
1.293186125E0,-7.511964726E-1,-6.765462399E0,-4.880708327E0,8.375983010E0
1.303122125E0,-1.740926892E0,-3.830370641E0,-3.993634257E0,5.801006832E0
1.313058125E0,-2.006653900E0,-1.749978674E0,-2.944337375E0,3.969660919E0
1.322994125E0,-2.526776596E0,-7.176667839E-1,-1.265043791E0,2.915472752E0
1.332930125E0,-3.333673645E0,1.583928859E-1,4.899171495E-1,3.373201312E0
1.342866125E0,-3.704552886E0,1.164550180E0,1.472892573E0,4.153227870E0
1.352802125E0,-3.347942020E0,2.115326157E0,2.015343593E0,4.443526788E0
1.362739125E0,-2.231271619E0,3.423509097E0,2.125072442E0,4.605965746E0
1.372675125E0,-1.771337968E0,4.746207749E0,1.813814774E0,5.380896787E0
1.382611125E0,-1.486230364E0,6.009535528E0,1.557225356E0,6.383443332E0
1.392547125E0,-1.970183500E0,6.986535682E0,1.177522959E0,7.353901290E0
1.402483125E0,-2.523716163E0,7.544862331E0,1.145003816E0,8.037731310E0
1.412419125E0,-2.809325750E0,7.829610039E0,1.449115748E0,8.443639084E0
1.422355125E0,-2.896863247E0,8.046710140E0,1.524612657E0,8.687105645E0
1.432292125E0,-2.685011607E0,8.049482889E0,1.349022525E0,8.592050040E0
1.442228125E0,-2.689773579E0,7.892278157E0,1.345509518E0,8.445906244E0
1.452164125E0,-2.425198181E0,7.574049293E0,1.567905296E0,8.105932144E0
1.462100125E0,-2.108688544E0,6.793755906E0,1.805243925E0,7.338977606E0
1.472036125E0,-1.911044907E0,6.243211316E0,1.949158813E0,6.813882905E0
1.481972125E0,-8.368790127E-1,5.200020681E0,1.616287643E0,5.509352712E0
1.491908125E0,3.691893225E-1,3.843930919E0,1.540981353E0,4.157731255E0
1.501845125E0,9.486208387E-1,2.566178058E0,1.885978186E0,3.322960283E0
1.511781125E0,8.658991094E-1,1.680296236E0,2.171644491E0,2.879099947E0
1.521717125E0,1.039653069E0,3.929644668E-1,2.232670419E0,2.494016194E0
1.531653125E0,1.354859801E-1,-1.973582633E0,2.205156638E0,2.962448423E0
1.541589125E0,-6.776605730E-1,-3.352344389E0,2.303540719E0,4.123558730E0
1.551525125E0,-1.352225045E0,-3.249260316E0,2.887489575E0,4.552340192E0
1.561461125E0,-1.181729885E0,-1.991788523E0,5.915674853E0,6.352866755E0
1.571398125E0,-5.434852463E-1,-3.938954605E0,7.603001196E0,8.579998064E0
1.581334125E0,9.982489353E-1,-2.866361831E0,7.065878305E0,7.690199432E0
1.591270125E0,2.584652336E0,1.627402908E-1,7.146881538E0,7.601633234E0
1.601206125E0,3.987724476E0,1.462122002E0,7.970844855E0,9.031838958E0
1.611142125E0,5.513907988E0,-1.700013632E-1,7.815274420E0,9.566117082E0
1.621078125E0,6.259384714E0,-2.573666587E0,6.763717589E0,9.568256494E0
1.631014125E0,5.381068019E0,-3.031253897E0,5.437697718E0,8.228787863E0
1.640951125E0,5.630588007E0,-2.131831677E0,2.818664339E0,6.647788825E0
1.650887125E0,5.630282782E0,-2.439118062E0,-5.291525513E-2,6.136137316E0
1.660823125E0,3.201519554E0,-5.318540819E0,-2.832274610E0,6.823370382E0
1.670759125E0,2.084541589E0,-7.225064659E0,-4.186416080E0,8.606564504E0
1.680695125E0,1.056945625E0,-6.436376424E0,-2.923676823E0,7.147864135E0
1.690631125E0,-4.407237934E-1,-6.744392542E0,-3.113897566E0,7.441601055E0
1.700567125E0,-9.752690855E-1,-5.642675371E0,-7.695011812E0,9.591878957E0
1.710504125E0,-4.352533430E0,-2.411149660E0,-1.051780078E1,1.163539097E1
1.720440125E0,-4.186953147E0,-1.634580365E0,-9.347332045E0,1.037183908E1
1.730376125E0,-3.821145196E0,-3.565649647E0,-7.049739990E0,8.775753070E0
1.740312125E0,-3.427046954E0,-5.653158844E0,-6.162412151E0,9.037598092E0
1.750248125E0,-1.315583761E0,-8.360788651E0,-5.726671793E0,1.021901743E1
1.760184125E0,7.887915111E-1,-8.873087772E0,-4.904060060E0,1.016876019E1
1.770120125E0,2.970020100E0,-6.426829090E0,-4.437434709E0,8.355595631E0
1.780057125E0,2.855414381E0,-1.589966694E0,-4.749279292E0,5.765157341E0
1.789993125E0,1.311054069E0,1.481579196E0,-2.293939591E0,3.029207576E0
1.799929125E0,1.964955943E0,1.922725890E0,1.827424461E0,3.301122061E0
1.809865125E0,3.218926715E0,2.902682396E0,1.933964238E0,4.746290337E0
1.819801125E0,4.826205553E0,4.501276072E0,2.249356034E0,6.972327365E0
1.829737125E0,5.544016471E0,6.146315351E0,1.839525858E0,8.479219682E0
1.839673125E0,3.849230835E0,8.096416150E0,1.140383784E0,9.037090664E0
1.849610125E0,2.261048419E0,9.794705438E0,3.848042388E-1,1.005965550E1
1.859546125E0,3.980521291E-1,1.050300966E1,-4.445731616E-1,1.051994785E1
1.869482125E0,-6.724379861E-1,9.894891046E0,-4.047547925E-1,9.925969379E0
1.879418125E0,-1.122293961E0,9.423978517E0,-1.858244403E-1,9.492388822E0
1.889354125E0,-1.214827610E0,8.910088953E0,3.684823211E-1,9.000070583E0
1.899290125E0,-1.516819488E0,8.636492470E0,1.785634410E0,8.948644243E0
1.909226125E0,-2.109517240E0,7.864732509E0,2.640890272E0,8.560279309E0
1.919163125E0,-1.675049091E0,6.998639418E0,2.955299735E0,7.779494822E0
1.929099125E0,-8.863868760E-1,5.909929964E0,2.840287342E0,6.616659736E0
1.939035125E0,1.670091967E-1,4.440587236E0,2.833013406E0,5.269978371E0
1.948971125E0,1.370680027E0,2.805030386E0,2.886114310E0,4.251660266E0
1.958907125E0,2.513227720E0,4.350269973E-1,2.558673742E0,3.612806856E0
1.968843125E0,3.516035437E0,-2.135213706E0,2.155260301E0,4.644005785E0
1.978779125E0,3.582889577E0,-4.477829322E0,1.652679251E0,5.968199214E0
1.988716125E0,2.604346051E0,-5.526860155E0,1.365178674E0,6.260392507E0
1.998652125E0,1.829075861E0,-4.728939752E0,2.123118156E0,5.496910076E0
2.008588125E0,2.583273855E0,-3.955848965E0,3.485186112E0,5.870993705E0
2.018524125E0,2.950192192E0,-3.857791159E0,3.591412479E0,6.040234282E0
2.028460125E0,3.602870682E0,-3.492865260E0,2.017218064E0,5.408322623E0
2.038396125E0,3.525049505E0,-4.236779611E0,1.857196144E0,5.815965354E0
2.048332125E0,1.672253098E0,-5.399286774E0,1.877798223E0,5.956077086E0
2.058269125E0,1.117023865E0,-5.042607788E0,4.441229625E-1,5.183905943E0
2.068205125E0,1.029864977E0,-4.031414287E0,9.486510980E-1,4.267652977E0
2.078141125E0,8.058343175E-1,-2.536525074E0,4.118068854E0,4.903245811E0
2.088078250E0,1.812265554E-1,-1.558998671E0,1.868302345E0,2.440056059E0
2.098014250E0,-9.344226296E-1,-4.244313163E0,-5.134627175E0,6.726941066E0
2.107950250E0,-5.354153286E0,-7.202700813E0,-8.370079876E0,1.227208595E1
2.117886250E0,-6.406683093E0,-4.748015124E0,-4.029525636E0,8.934557221E0
2.127823250E0,7.098095879E-2,-2.777076017E0,-3.670563898E0,4.603284570E0
2.137759250E0,3.365522844E-1,-2.525634634E0,-3.727430409E0,4.515067575E0
2.147695250E0,-1.984935440E0,-3.405601414E0,-3.561515665E0,5.312483743E0
2.157631250E0,-2.013934122E0,-5.354139252E0,-2.298657417E0,6.164946366E0
2.167567250E0,-3.370987651E0,-7.112478275E0,-1.344356740E0,7.984873199E0
2.177503250E0,-3.999589939E0,-7.303956462E0,-3.755254970E0,9.134902274E0
2.187439250E0,-3.504526362E0,-6.850385020E0,-4.393441136E0,8.860688741E0
2.197375250E0,-2.610254370E0,-5.710799527E0,-4.574855387E0,7.768909893E0
2.207312250E0,-2.029285548E0,-3.567949941E0,-3.837867941E0,5.619385816E0
2.217248250E0,-2.348088024E0,-9.638772476E-1,-2.494546158E0,3.558839313E0
2.227184250E0,-2.915482243E0,6.930540991E-1,-1.113567284E0,3.196934905E0
2.237120250E0,-2.285259400E0,1.972175792E0,-2.848073494E-1,3.031996555E0
2.247056250E0,-1.729429512E0,2.545085982E0,7.883040726E-1,3.176446506E0
2.256992250E0,-1.497097999E0,2.578217475E0,1.550330758E0,3.360362068E0
2.266928250E0,-1.452755932E0,3.051088237E0,1.758039061E0,3.809244094E0
2.276865250E0,-1.421226137E0,3.775795069E0,1.406458701E0,4.272544700E0
2.286801250E0,-1.531724772E0,4.440933391E0,6.867763822E-1,4.747602759E0
2.296737250E0,-1.998539426E0,4.948379323E0,4.749962246E-1,5.357820376E0
2.306673250E0,-2.846182505E0,5.247977790E0,2.169036341E-1,5.974033220E0
2.316609250E0,-3.488603809E0,5.770038253E0,7.610902539E-1,6.785496029E0
2.326545250E0,-3.769187130E0,6.414387385E0,1.725162652E0,7.637232700E0
2.336481250E0,-3.684604525E0,6.591782552E0,2.475295370E0,7.947011695E0
2.346418250E0,-2.962892929E0,6.599268157E0,2.767351221E0,7.745147352E0
2.356354250E0,-2.085001912E0,6.263390642E0,2.757387857E0,7.154053613E0
2.366290250E0,-1.232908809E0,6.062052296E0,2.367690084E0,6.623782794E0
2.376226250E0,-5.128755109E-1,5.409643947E0,1.678074001E0,5.687110099E0
2.386162250E0,3.253358629E-1,4.268918831E0,8.950695527E-1,4.373861099E0
2.396098250E0,4.107783017E-1,2.844885008E0,9.385973954E-1,3.023751741E0
2.406034250E0,1.764749618E-1,1.626587806E0,1.215764481E0,2.038385286E0
2.415971250E0,5.847829610E-2,8.733629340E-1,1.631438656E0,1.851425022E0
2.425907250E0,-4.645557287E-1,1.671034831E-1,2.387625142E0,2.438132363E0
2.435843250E0,6.010996163E-2,-7.496212327E-1,2.827725184E0,2.926016903E0
2.445779250E0,-2.741924603E-1,-2.637598289E0,4.315234919E0,5.064914476E0
2.455715250E0,1.028106865E0,-2.146743831E0,7.821096493E0,8.175271442E0
2.465651250E0,1.678055875E0,-5.219423497E-1,9.200414904E0,9.366745953E0
2.475587250E0,1.723449272E0,1.742274383E0,8.822779498E0,9.156813610E0
2.485524250E0,3.451742962E0,1.478049232E0,7.410796201E0,8.307771021E0
2.495460250E0,4.347349581E0,-9.102933633E-1,6.149923668E0,7.586148134E0
2.505396250E0,4.701584723E0,-2.309643166E0,5.452063158E0,7.560710491E0
2.515332250E0,4.966248415E0,-3.371684639E0,4.954063987E0,7.782970551E0
2.525268250E0,4.584167370E0,-3.971473310E0,4.524954664E0,7.567192705E0
2.535204250E0,3.872877560E0,-3.134768910E0,3.364288204E0,6.012020611E0
2.545140250E0,4.422385730E0,-2.753446834E0,1.199869702E0,5.345900515E0
2.555077250E0,2.225615754E0,-4.215973463E0,-4.750605440E-1,4.790979049E0
2.565013250E0,1.253806319E0,-4.415964611E0,-1.936377676E0,4.982201545E0
2.574949250E0,1.627302628E0,-4.353678900E0,-2.650163956E0,5.350327354E0
2.584885250E0,2.494350569E-1,-4.578839387E0,-3.388125548E0,5.701524595E0
2.594821250E0,-9.735424027E-1,-4.631670150E0,-7.757889261E0,9.087628898E0
2.604757250E0,-2.839962529E0,-3.741137452E0,-1.103103662E1,1.198938137E1
2.614693250E0,-4.672939214E0,-2.992813132E0,-1.103644881E1,1.235299533E1
2.624629250E0,-3.605449012E0,-4.991011958E0,-8.162735270E0,1.022446625E1
2.634566250E0,-3.449456993E0,-7.402466843E0,-6.302317311E0,1.031573906E1
2.644502250E0,-2.799735732E0,-8.879373529E0,-6.090146413E0,1.112527203E1
2.654438250E0,1.230151116E-1,-9.391743987E0,-5.244002852E0,1.075730235E1
2.664374250E0,2.176436284E0,-6.972322855E0,-3.844053125E0,8.253902430E0
2.674310250E0,2.739245409E0,-2.794886636E0,-3.684046408E0,5.374667865E0
2.684246250E0,1.463253438E0,8.726022112E-1,-2.115475845E0,2.716207521E0
2.694182250E0,1.916348916E0,1.677534011E0,1.146595866E0,2.793062049E0
2.704119250E0,3.643051871E0,2.215810558E0,2.741668203E0,5.069357740E0
2.714055250E0,4.311732729E0,3.985959202E0,2.003971928E0,6.204418859E0
2.723991250E0,5.736840686E0,6.120147892E0,2.400521615E0,8.725253882E0
2.733927250E0,5.911765405E0,7.639132896E0,2.389780426E0,9.950697066E0
2.743863250E0,4.563170019E0,8.948828511E0,9.580958131E-1,1.009068877E1
2.753799250E0,1.875756376E0,9.738385057E0,-1.001019931E-1,9.917894227E0
2.763735250E0,9.546475638E-1,8.944172958E0,-3.650160916E-1,9.002378498E0
2.773672250E0,6.512295502E-1,8.432791264E0,-2.537317371E-1,8.461704806E0
2.783608250E0,-6.191341835E-1,8.300129635E0,-2.490446091E-2,8.323226498E0
2.793544250E0,-1.351794252E0,7.894165054E0,9.350868733E-1,8.063471775E0
2.803480250E0,-1.775827753E0,7.637433110E0,1.817429230E0,8.049037069E0
2.813416250E0,-2.030876283E0,7.076834818E0,2.134679417E0,7.665696689E0
2.823352250E0,-2.187502286E0,6.305016970E0,2.277534935E0,7.051636025E0
2.833288250E0,-2.248945121E0,5.136120554E0,2.501126615E0,6.139472522E0
2.843225250E0,-1.927366532E0,3.599847087E0,2.678260996E0,4.883310636E0
2.853161250E0,-1.600915167E0,2.090711718E0,2.760748837E0,3.815198422E0
2.863097250E0,-1.347883195E0,3.514182454E-1,2.669500698E0,3.011065902E0
2.873033250E0,-1.016741193E0,-1.466466483E0,2.681053627E0,3.220610990E0
2.882969250E0,-8.349812257E-1,-2.961091402E0,2.806754730E0,4.164508141E0
2.892905250E0,-2.705413858E-1,-3.685752041E0,2.520625910E0,4.473423267E0
2.902841250E0,1.563013661E0,-3.473893384E0,2.795792370E0,4.725188031E0
2.912778250E0,4.309596741E0,-2.053445073E0,4.316786478E0,6.436140632E0
2.922714250E0,6.029952836E0,-1.295953488E0,4.879013804E0,7.864133922E0
2.932650250E0,5.581117639E0,-3.571164156E0,1.868708142E0,6.884341482E0
2.942586250E0,4.599871237E0,-5.592049009E0,3.140492384E-1,7.247651650E0
2.952522250E0,3.144457161E0,-4.854892870E0,9.139428299E-2,5.784976105E0
2.962458250E0,1.337960032E0,-3.749010728E0,1.764502938E-1,3.984514173E0
2.972394250E0,2.043107781E-1,-3.634408810E0,2.305229688E0,4.308683581E0
2.982330250E0,-7.268540753E-1,-4.138812436E0,1.971433196E0,4.641619768E0
2.992267250E0,-1.000557124E0,-4.947327994E0,-3.912142782E0,6.386080957E0
3.002203250E0,-3.375042111E0,-8.944484029E0,-7.860271668E0,1.237653322E1
3.012139250E0,-5.703603358E0,-9.831347015E0,-5.517778845E0,1.263456999E1
3.022075250E0,-1.812581158E0,-1.277956343E0,-1.439950529E0,2.644254223E0
3.032011250E0,2.375152739E0,1.529113551E0,-6.206609646E-1,2.892189278E0
3.041947250E0,2.938585469E-1,-2.696627101E0,-4.717375714E0,5.441671084E0
3.051883250E0,-2.505113831E0,-6.696336030E0,-3.937423804E0,8.162096407E0
3.061820250E0,-2.881379820E0,-7.267167535E0,-1.892119224E0,8.043269783E0
3.071756250E0,-3.497864337E0,-8.027626582E0,-3.294416023E0,9.355801430E0
3.081691458E0,-3.147339546E0,-7.595222061E0,-4.086396825E0,9.181055679E0
3.091627458E0,-2.420097362E0,-6.556082962E0,-4.052017536E0,8.078238741E0
3.101563458E0,-2.555484670E0,-4.536574543E0,-3.923652442E0,6.519667090E0
3.111499458E0,-3.095496086E0,-2.365652475E0,-3.184749155E0,5.032001076E0
3.121435458E0,-3.226764323E0,-5.331485385E-1,-1.747105937E0,3.707915117E0
3.131372458E0,-2.540379558E0,2.927168781E-1,-2.870279758E-1,2.573246302E0
3.141308458E0,-2.294167340E0,2.123088920E-1,8.082641280E-1,2.441632600E0
3.151244458E0,-2.026357116E0,1.152090349E0,1.962801683E0,3.047298111E0
3.161180458E0,-1.881838650E0,2.803541100E0,2.224153365E0,4.043268182E0
3.171116458E0,-1.496064650E0,3.792226914E0,1.845288728E0,4.474850265E0
3.181052458E0,-1.462835508E0,4.542645122E0,1.282681624E0,4.941739024E0
3.190988458E0,-1.646269095E0,5.349527553E0,8.212053318E-1,5.657033248E0
3.200924458E0,-2.508134503E0,6.053061032E0,5.592874928E-1,6.575947768E0
3.210861458E0,-3.641060602E0,6.642068607E0,6.232314737E-1,7.600185205E0
3.220797458E0,-3.540782608E0,6.838713977E0,1.045851557E0,7.771676513E0
3.230733458E0,-3.186034373E0,6.577964997E0,1.440945872E0,7.449614992E0
3.240669458E0,-2.743172107E0,6.372573946E0,1.722421039E0,7.148526151E0
3.250605458E0,-2.145113481E0,6.116592785E0,1.725576197E0,6.707595124E0
3.260541458E0,-1.481847291E0,5.884920838E0,1.492373303E0,6.249427393E0
3.270477458E0,-9.576974715E-1,5.632259726E0,1.143441878E0,5.826404843E0
3.280414458E0,-8.552136151E-1,4.960570183E0,1.054132676E0,5.142941043E0
3.290350458E0,-6.750550537E-1,4.107713435E0,1.106367023E0,4.307325966E0
3.300286458E0,-3.098565289E-1,3.030125384E0,1.023665028E0,3.213341096E0
3.310222458E0,3.645828129E-1,1.916147772E0,1.270632413E0,2.327885229E0
3.320158458E0,1.075408939E0,4.049471658E-1,1.822373928E0,2.154421808E0
3.330094458E0,1.604517344E0,-1.747727496E0,2.419093395E0,3.388368363E0
3.340030458E0,2.498353280E0,-2.168536988E0,3.462447167E0,4.788826805E0
3.349967458E0,1.671747606E0,-1.051991864E0,6.854379838E0,7.133298669E0
3.359903458E0,1.130428753E0,1.246889502E0,9.607216222E0,9.753522755E0
3.369839458E0,1.393026185E0,2.061087384E0,8.266353779E0,8.632566707E0
3.379775458E0,2.570192464E0,1.863271401E0,6.316541247E0,7.069396222E0
3.389711458E0,4.092557452E0,4.424295723E-1,5.452762485E0,6.832085270E0
3.399647458E0,4.093069375E0,-1.876700116E0,5.564156621E0,7.157866940E0
3.409583458E0,3.714967069E0,-2.635398567E0,5.672746432E0,7.275050378E0
3.419519458E0,3.295745680E0,-2.661743197E0,5.667748817E0,7.076029472E0
3.429456458E0,2.957711712E0,-2.884211626E0,4.767789237E0,6.308609156E0
3.439392458E0,2.683013613E0,-3.291923940E0,2.753342461E0,5.061246881E0
3.449328458E0,2.093973294E0,-3.385571192E0,7.233514470E-1,4.045992310E0
3.459264458E0,1.631584982E0,-3.901168728E0,-1.344298560E0,4.437152873E0
3.469200458E0,2.067790925E0,-4.875678552E0,-2.285269632E0,5.768054954E0
3.479136458E0,8.429771470E-1,-4.279050302E0,-1.888501259E0,4.752611804E0
3.489072458E0,-6.140723951E-1,-2.755585746E0,-2.566063745E0,3.815104304E0
3.499009458E0,-9.918253304E-1,-2.944491742E0,-6.893624010E0,7.561468184E0
3.508945458E0,-3.099219008E0,-5.032434218E0,-1.155500562E1,1.297877912E1
3.518881458E0,-5.888308130E0,-6.664969811E0,-1.231661013E1,1.519186889E1
3.528817458E0,-4.091633007E0,-7.655377631E0,-9.122752186E0,1.259249279E1
3.538753458E0,-3.364868540E0,-9.238938115E0,-6.982820946E0,1.205985515E1
3.548689458E0,-2.053641247E0,-9.513784148E0,-7.262450001E0,1.214383429E1
3.558625458E0,7.268717632E-1,-8.432946800E0,-5.850868993E0,1.028958708E1
3.568561458E0,2.428204527E0,-5.854345747E0,-3.908213453E0,7.446050883E0
3.578498458E0,2.439241439E0,-2.900783220E0,-2.771725230E0,4.695412957E0
3.588434458E0,2.376319989E0,-4.300410765E-1,-2.034687790E-1,2.423475101E0
3.598370458E0,2.913631892E0,1.830967873E0,3.237688676E0,4.724862127E0
3.608306458E0,4.120192562E0,2.751375166E0,3.042790746E0,5.814174711E0
3.618242458E0,4.444332962E0,4.735910218E0,2.491021457E0,6.956013870E0
3.628178458E0,6.241899201E0,5.854938070E0,2.370905760E0,8.880472936E0
3.638114458E0,7.433547717E0,6.845368109E0,1.389332207E0,1.020034020E1
3.648051458E0,5.192183658E0,7.830895257E0,2.352836256E-1,9.398779179E0
3.657987458E0,2.365173296E0,8.200339884E0,-2.502023578E-1,8.538279695E0
3.667923458E0,4.904873993E-1,7.857520553E0,1.521876745E-1,7.874285252E0
3.677859458E0,-6.374356762E-2,7.160486255E0,-3.051777332E-1,7.167270059E0
3.687795458E0,-8.761139028E-1,7.227707015E0,-9.219180666E-2,7.281196577E0
3.697731458E0,-1.189141084E0,7.481938689E0,8.585724751E-1,7.624343235E0
3.707667458E0,-2.513187374E0,7.377586940E0,1.892117031E0,8.020287195E0
3.717604458E0,-3.963513495E0,6.946186970E0,2.872386217E0,8.497620563E0
3.727540458E0,-3.872139056E0,6.556792814E0,3.301958055E0,8.299874690E0
3.737476458E0,-3.672507513E0,5.771800019E0,3.237502735E0,7.568514441E0
3.747412458E0,-3.363583322E0,4.766036242E0,2.912657161E0,6.520150762E0
3.757348458E0,-2.727794514E0,3.800334663E0,2.719027784E0,5.410777999E0
3.767284458E0,-1.949635653E0,2.813753262E0,2.816933563E0,4.433215684E0
3.777220458E0,-1.082102686E0,1.768458799E0,3.211414797E0,3.822509352E0
3.787156458E0,1.342810882E-1,9.713271850E-1,3.662843235E0,3.791823898E0
3.797093458E0,1.242783441E0,5.030663681E-1,3.942410309E0,4.164154836E0
3.807029458E0,2.002845169E0,-4.600472331E-2,4.444150529E0,4.874831190E0
3.816965458E0,3.392020086E0,-1.018704250E0,5.046922449E0,6.165629312E0
3.826901458E0,4.283438637E0,-2.999109998E0,3.921311216E0,6.535991814E0
3.836837458E0,3.915811618E0,-7.334677148E0,-1.760220072E0,8.498790749E0
3.846773458E0,4.304634502E0,-7.952920800E0,-1.658808303E0,9.194045488E0
3.856709458E0,3.711455231E0,-7.080517979E0,-1.761602354E0,8.186078282E0
3.866646458E0,2.595849754E0,-5.684224516E0,-2.168529972E0,6.614481577E0
3.876582458E0,9.995408776E-1,-4.666115513E0,2.515990237E0,5.394619803E0
3.886518458E0,1.141768259E-1,-2.191553968E0,9.094107846E0,9.355145251E0
3.896454458E0,6.951593891E-1,1.767105753E0,6.679746895E0,6.944417031E0
3.906390458E0,1.794382430E0,9.035035765E-1,-2.594261066E0,3.281206713E0
3.916326458E0,-4.670533669E-1,-3.316712626E0,-8.724959089E0,9.345781540E0
3.926262458E0,-1.205652364E1,-6.197607712E0,-1.272513521E1,1.859298711E1
3.936198458E0,-7.343383652E0,-1.207487805E1,-7.681474339E0,1.608517987E1
3.946135458E0,3.342176666E0,-6.021155115E0,-7.201053067E0,9.963915850E0
3.956071458E0,3.460868127E0,-1.960856752E0,-1.239841268E0,4.166506182E0
3.966007458E0,-2.015321081E0,-5.152338976E0,1.176602534E0,5.656192139E0
3.975943458E0,-3.576490969E0,-6.098350641E0,3.072334095E0,7.708463205E0
3.985879458E0,-3.510340249E0,-8.137485824E0,2.255073734E-1,8.865213916E0
3.995815458E0,-3.181229716E0,-9.339713708E0,-3.670549865E0,1.052726987E1
4.005751458E0,-2.428412249E0,-8.169097041E0,-4.300641146E0,9.546038277E0
4.015688458E0,-2.533177835E0,-4.660320337E0,-4.587643540E0,7.012991433E0
4.025624458E0,-3.073072599E0,-1.891058539E0,-3.791865556E0,5.234321541E0
4.035560458E0,-3.774236786E0,-5.664338136E-1,-2.592042632E0,4.613501445E0
4.045496458E0,-3.457410083E0,6.150861561E-2,-1.288968258E0,3.690380328E0
4.055432458E0,-2.889965871E0,5.772482389E-1,5.248802832E-1,2.993429067E0
4.065368458E0,-1.820588773E0,1.740819595E0,1.897451885E0,3.153620142E0
4.075304458E0,-1.527393885E0,2.833965333E0,2.467036178E0,4.055928881E0
4.085241125E0,-1.387355848E0,3.984969853E0,1.969220463E0,4.656454683E0
4.095178125E0,-1.565757321E0,4.902339517E0,8.370325752E-1,5.213938268E0
4.105114125E0,-2.582082193E0,5.791477069E0,4.079792395E-1,6.354116945E0
4.115050125E0,-3.668653028E0,6.764689397E0,4.849845846E-1,7.710722905E0
4.124986125E0,-3.930211263E0,7.395631447E0,7.820675786E-1,8.411513228E0
4.134922125E0,-3.889128726E0,7.324698874E0,7.951368365E-1,8.331193098E0
4.144858125E0,-3.484301428E0,6.926628034E0,9.342619774E-1,7.809697677E0
4.154794125E0,-2.626878004E0,6.403816788E0,1.107270564E0,7.009665156E0
4.164731125E0,-2.107583274E0,5.863377941E0,9.157819985E-1,6.297599924E0
4.174667125E0,-1.708972589E0,5.353555115E0,1.083501047E0,5.723208384E0
4.184603125E0,-1.431985598E0,4.658811171E0,1.260122043E0,5.034184328E0
4.194539125E0,-9.910045275E-1,3.914576978E0,1.245227723E0,4.225706447E0
4.204475125E0,1.120063394E-1,3.070371770E0,1.624726052E0,3.475552182E0
4.214411125E0,9.943258922E-1,1.601105640E0,2.222346283E0,2.913939988E0
4.224347125E0,9.839084928E-1,-1.166800189E-1,2.662992454E0,2.841341050E0
4.234283125E0,1.877540215E0,-1.767743100E0,3.474660831E0,4.327047587E0
4.244220125E0,2.660775775E0,-3.486177215E0,4.861538815E0,6.547344420E0
4.254156125E0,1.429875923E0,-2.311936444E0,6.349427158E0,6.906867633E0
4.264092125E0,9.582611431E-1,-1.067958856E0,6.999248114E0,7.144807534E0
4.274028125E0,1.773551139E0,8.678788304E-2,5.618402410E0,5.892322243E0
4.283964125E0,1.494700348E0,4.070831537E-1,5.094319979E0,5.324654155E0
4.293900125E0,2.794316533E0,3.817974544E-1,5.339801295E0,6.038828698E0
4.303836125E0,3.433496433E0,4.923069066E-1,6.370798731E0,7.253850034E0
4.313772125E0,3.122497358E0,2.500924301E-1,6.756693914E0,7.447512915E0
4.323709125E0,2.402374744E0,-9.669189692E-1,6.287829080E0,6.800230234E0
4.333645125E0,1.903770678E0,-2.298915864E0,5.148918355E0,5.951530658E0
4.343581125E0,1.331578819E0,-2.258013421E0,3.345288261E0,4.250021213E0
4.353517125E0,1.327225859E0,-3.113193853E0,1.388907845E0,3.658219438E0
4.363453125E0,8.113673915E-1,-4.576578269E0,-7.728878886E-1,4.711766270E0
4.373389125E0,1.939776663E0,-5.582433847E0,-2.781176670E0,6.531557611E0
4.383325125E0,3.076053509E0,-6.450802090E0,-3.304413300E0,7.873633218E0
4.393261125E0,3.613080798E-1,-5.712146725E0,-3.706291263E0,6.818779851E0
4.403198125E0,-3.544184518E-1,-6.398585284E0,-8.702575947E0,1.080751286E1
4.413134125E0,-2.881825962E0,-7.497187643E0,-1.361780039E1,1.581003576E1
4.423070125E0,-5.385325962E0,-6.460538288E0,-1.335476924E1,1.578259016E1
4.433006125E0,-3.234134738E0,-6.851367937E0,-9.650836451E0,1.226945452E1
4.442942125E0,-2.558164742E0,-7.693850555E0,-7.336443007E0,1.093448395E1
4.452878125E0,-1.797887836E0,-7.810839892E0,-6.788646609E0,1.050368237E1
4.462814125E0,-7.661628596E-2,-7.546606556E0,-4.772587755E0,8.929430802E0
4.472751125E0,1.013884171E0,-6.027389417E0,-2.563175221E0,6.627763688E0
4.482687125E0,2.112191172E0,-3.139622099E0,-1.817159089E0,4.197695275E0
4.492623125E0,1.714502447E0,-1.893971622E-1,7.152986616E-2,1.726414333E0
4.502559125E0,1.528169518E0,2.647839103E0,3.062809273E0,4.327488259E0
4.512495125E0,2.979422131E0,3.856477874E0,2.604995384E0,5.525882624E0
4.522431125E0,4.662170396E0,4.980406862E0,2.477473458E0,7.257972173E0
4.532367125E0,5.800675324E0,6.097040865E0,2.055249670E0,8.662897479E0
4.542303125E0,6.339234876E0,7.478335050E0,1.038113497E0,9.858451885E0
4.552240125E0,5.281280606E0,8.650051578E0,-1.363709562E-1,1.013577398E1
4.562176125E0,2.761087098E0,9.037945340E0,-7.538768363E-1,9.480315829E0
4.572112125E0,7.736796016E-1,8.577311046E0,-5.495844769E-1,8.629651673E0
4.582048125E0,-7.340408881E-1,8.625269909E0,-3.817481916E-1,8.664861725E0
4.591984125E0,-1.957170960E0,8.351644190E0,3.316330218E-1,8.584314725E0
4.601920125E0,-2.291818806E0,8.018126026E0,1.292225596E0,8.438757337E0
4.611856125E0,-3.173538873E0,8.144240527E0,2.419692442E0,9.069449501E0
4.621792125E0,-3.211537004E0,7.545581539E0,3.171214313E0,8.792404159E0
4.631729125E0,-2.827092515E0,6.991081308E0,3.366934361E0,8.258566276E0
4.641665125E0,-2.459416671E0,6.215667422E0,3.338032744E0,7.471660757E0
4.651601125E0,-1.313862487E0,4.984790520E0,3.135819654E0,6.033882338E0
4.661537125E0,-5.242329964E-1,3.579652559E0,3.106560187E0,4.768589820E0
4.671473125E0,1.350281431E-1,2.136852681E0,3.154657044E0,3.812641217E0
4.681409125E0,9.397364330E-1,6.327564418E-1,3.373077446E0,3.558249111E0
4.691345125E0,1.604446300E0,-8.875079334E-1,3.544599670E0,3.990752446E0
4.701282125E0,1.953695229E0,-3.214664680E0,3.225722934E0,4.955429598E0
4.711218125E0,2.780803325E0,-4.364156526E0,3.236705174E0,6.103686566E0
4.721154125E0,4.630597771E0,-4.252061309E0,3.212511735E0,7.059935746E0
4.731090125E0,5.846774188E0,-5.366793212E0,4.505139327E-1,7.949226414E0
4.741026125E0,4.863201471E0,-7.193214290E0,-3.264243221E-1,8.689051341E0
4.750962125E0,2.506467169E0,-7.427581803E0,4.860381067E-1,7.854144266E0
4.760898125E0,1.029976512E0,-6.157231518E0,4.587889123E-1,6.259619705E0
4.770834125E0,1.178049062E0,-4.746978997E0,1.342036564E0,5.071752294E0
4.780771125E0,1.258866646E0,-3.706430134E0,4.937746747E0,6.301088200E0
4.790707125E0,8.775483710E-1,-2.410850283E0,7.551083769E0,7.975033311E0
4.800643125E0,2.184680566E-1,-2.241257640E0,2.864441313E-2,2.252062300E0
4.810579125E0,-3.088437327E0,-5.380116677E0,-7.511710957E0,9.742171323E0
4.820515125E0,-1.041734678E1,-9.205670382E0,-5.472306218E0,1.494026829E1
4.830451125E0,-6.723858290E0,-7.880232893E0,-4.755940440E0,1.139856615E1
4.840387125E0,2.596892897E0,-1.568233178E0,-3.607612774E0,4.713605621E0
4.850323125E0,1.209708812E0,-4.922490191E-1,-4.017576267E0,4.224526431E0
4.860260125E0,-4.550466943E-1,-5.817205403E0,-3.623263432E0,6.868404770E0
4.870196125E0,-2.746196287E0,-7.962486261E0,-5.706928524E-1,8.442065614E0
4.880132125E0,-3.329615969E0,-6.908406941E0,-1.861649383E0,7.891651753E0
4.890068125E0,-3.079560377E0,-6.777042224E0,-4.099455997E0,8.498089956E0
4.900004125E0,-2.383048527E0,-6.083914450E0,-4.061311101E0,7.693320686E0
4.909940125E0,-2.139507902E0,-4.475449505E0,-3.467106521E0,6.052104589E0
4.919876125E0,-3.280484155E0,-2.289152184E0,-3.179954438E0,5.110176537E0
4.929812125E0,-3.348608311E0,-6.083717984E-1,-1.994139104E0,3.944601961E0
4.939749125E0,-3.049746009E0,4.951387131E-1,-3.221264724E-1,3.106425362E0
4.949685125E0,-2.920805256E0,9.407205194E-1,1.136586749E0,3.272290922E0
4.959621125E0,-2.531849055E0,1.484347268E0,2.146539909E0,3.636094063E0
4.969557125E0,-1.793220880E0,2.985838573E0,2.738937553E0,4.430874861E0
4.979493125E0,-1.290969322E0,4.416982026E0,2.306890297E0,5.147628080E0
4.989429125E0,-1.260724014E0,5.322764847E0,1.291218413E0,5.620364370E0
4.999365125E0,-1.538526691E0,6.305747287E0,5.390010166E-1,6.513066507E0
5.009301125E0,-2.413159056E0,7.124601308E0,-2.783274651E-4,7.522185886E0
5.019238125E0,-2.861625586E0,7.475996164E0,9.890916109E-2,8.005573225E0
5.029174125E0,-3.198119398E0,7.264391277E0,6.741313398E-1,7.965789438E0
5.039110125E0,-3.408476782E0,6.754436889E0,1.161852567E0,7.654412652E0
5.049046125E0,-2.855298899E0,6.392984236E0,1.404166739E0,7.141054788E0
5.058982125E0,-2.311538833E0,6.259722683E0,1.555317264E0,6.851740775E0
5.068918125E0,-2.032751777E0,5.825233630E0,1.530889935E0,6.356811357E0
5.078854125E0,-1.106253002E0,5.101257116E0,1.111290524E0,5.336814264E0
5.088790833E0,-4.256397311E-1,4.183602108E0,9.427701147E-1,4.309583653E0
5.098726833E0,1.706837332E-1,3.165246937E0,6.654844773E-1,3.238949011E0
5.108662833E0,5.581874853E-1,1.981438951E0,4.606424797E-1,2.109470332E0
5.118598833E0,1.068351642E0,4.805452323E-1,9.157181177E-1,1.486888907E0
5.128534833E0,1.196606663E0,-7.306423402E-1,8.994549644E-1,1.665750572E0
5.138470833E0,1.027413970E0,-1.686235253E0,9.450036049E-1,2.189063865E0
5.148406833E0,-3.749853019E-1,-2.586948538E0,3.049909146E0,4.016822440E0
5.158342833E0,-4.248738921E-1,-3.800969671E0,7.020814984E0,7.994981632E0
5.168279833E0,3.537214637E-2,-2.122933969E0,8.047763808E0,8.323136556E0
5.178215833E0,1.077037827E0,3.333211130E-1,7.157761452E0,7.246010106E0
5.188151833E0,1.277410213E0,1.740735980E0,6.411137502E0,6.764955482E0
5.198087833E0,2.290271925E0,2.724077439E-1,6.308765620E0,6.717147841E0
5.208023833E0,4.019330724E0,-1.339639206E0,6.665273867E0,7.897817951E0
5.217959833E0,4.464067900E0,-1.214057971E0,6.851182580E0,8.266833838E0
5.227895833E0,4.539623281E0,-1.523472158E0,6.077935672E0,7.737599692E0
5.237831833E0,4.722384439E0,-1.983717611E0,4.143656562E0,6.588318454E0
5.247768833E0,4.611377973E0,-2.364169621E0,1.775573691E0,5.477843256E0
5.257704833E0,2.692977269E0,-4.171209519E0,-8.093715906E-2,4.965648623E0
5.267640833E0,1.240002505E0,-4.936158058E0,-2.022231174E0,5.476557451E0
5.277576833E0,2.110020832E0,-4.778370359E0,-3.284355012E0,6.170251133E0
5.287512833E0,9.260143335E-1,-4.383628923E0,-3.513629015E0,5.693794336E0
5.297448833E0,-3.147768147E-1,-5.485498706E0,-6.867718506E0,8.795188342E0
5.307384833E0,-2.788614036E0,-5.601910923E0,-1.115253709E1,1.278815302E1
5.317320833E0,-5.538701937E0,-5.174083602E0,-1.184652440E1,1.406372997E1
5.327257833E0,-3.652320585E0,-6.328919218E0,-8.946625865E0,1.155148382E1
5.337193833E0,-3.718028086E0,-8.060734686E0,-6.842884212E0,1.120822202E1
5.347129833E0,-3.165605663E0,-8.948219815E0,-6.878072755E0,1.172175678E1
5.357065833E0,-9.403466631E-1,-9.313869014E0,-6.086698895E0,1.116603382E1
5.367001833E0,1.222200584E0,-7.201393375E0,-4.993998131E0,8.848381668E0
5.376937833E0,1.817832980E0,-3.724270574E0,-4.750346993E0,6.304007028E0
5.386873833E0,9.856628036E-1,-3.657959640E-1,-2.748088446E0,2.942333760E0
5.396809833E0,5.400041065E-1,2.007648511E0,1.625224235E0,2.638865437E0
5.406746833E0,2.371557578E0,3.221338692E0,3.231776849E0,5.142537303E0
5.416682833E0,2.856600781E0,4.162910566E0,2.678518566E0,5.715282505E0
5.426618833E0,4.197416739E0,5.383080631E0,3.468416297E0,7.656747088E0
5.436554833E0,6.228400319E0,6.454350765E0,2.948395343E0,9.441644424E0
5.446490833E0,6.493722407E0,7.382882763E0,1.683661454E0,9.975475151E0
5.456426833E0,4.059105823E0,8.396206405E0,1.450799453E-1,9.327039738E0
5.466362833E0,2.114015649E0,9.048456295E0,-6.962982805E-1,9.318178726E0
5.476298833E0,1.366207346E0,9.408796222E0,-4.184126457E-1,9.516671582E0
5.486235833E0,1.762276246E-1,9.364860828E0,7.671788134E-2,9.366832983E0
5.496171833E0,-1.396084864E0,8.576664929E0,8.289586667E-1,8.728998036E0
5.506107833E0,-2.431255019E0,8.222565150E0,1.640929856E0,8.730076140E0
5.516043833E0,-3.405456988E0,7.714741488E0,2.376289584E0,8.761342688E0
5.525979833E0,-3.463572464E0,6.967953815E0,2.783096895E0,8.264039141E0
5.535915833E0,-2.918959875E0,6.053703057E0,2.808037609E0,7.283729996E0
5.545851833E0,-2.140358525E0,4.845391145E0,2.698616323E0,5.944870059E0
5.555787833E0,-1.467508457E0,3.552615033E0,2.311379789E0,4.485212501E0
5.565724833E0,-9.915389630E-1,1.781024466E0,1.703466997E0,2.656500983E0
5.575660833E0,-3.183874704E-2,-4.556308311E-1,1.531509740E0,1.598166213E0
5.585596833E0,8.114808275E-1,-2.700055323E0,1.721105708E0,3.303181003E0
5.595532833E0,1.114439688E0,-4.071463037E0,1.726236055E0,4.560556764E0
5.605468833E0,1.807052907E0,-4.578403185E0,1.975492333E0,5.303752058E0
5.615404833E0,3.056053400E0,-4.241212969E0,3.350953921E0,6.209367280E0
5.625340833E0,4.990683929E0,-3.686386464E0,4.314782052E0,7.557361669E0
5.635276833E0,4.909850265E0,-2.690986876E0,4.154373046E0,6.971861689E0
5.645213833E0,3.969744873E0,-4.099815601E0,2.085959283E-1,5.710593190E0
5.655149833E0,3.306603375E0,-5.032696758E0,-8.549089752E-2,6.022372558E0
5.665085833E0,1.760784182E0,-4.902387464E0,9.763095975E-1,5.299711711E0
5.675021833E0,8.278604865E-2,-4.157358634E0,3.785640610E0,5.623305005E0
5.684957833E0,-1.334493218E0,-2.424503531E0,5.489378918E0,6.147549954E0
5.694893833E0,-1.109376584E0,-1.914676613E0,-5.161103002E-1,2.272239595E0
5.704829833E0,-2.440471693E0,-5.342100420E0,-6.621744854E0,8.851070212E0
5.714765833E0,-9.425554926E0,-1.041566629E1,-7.295725336E0,1.582892284E1
5.724702833E0,-5.939209312E0,-9.383014094E0,-4.637585778E0,1.203421633E1
5.734638833E0,3.314925425E0,-1.822451988E0,-2.644799720E0,4.615736927E0
5.744574833E0,2.598216122E0,-4.104686916E-1,-3.269393449E0,4.196206035E0
5.754510833E0,-3.661356872E-1,-5.557189078E0,-3.003556806E0,6.327539749E0
5.764446833E0,-2.835012276E0,-8.214883078E0,-6.548109698E-1,8.714951291E0
5.774382833E0,-3.199665695E0,-7.341821276E0,-1.916060064E0,8.234773001E0
5.784318833E0,-3.071061156E0,-6.826006808E0,-4.489117956E0,8.727998946E0
5.794254833E0,-2.481379983E0,-5.832467805E0,-4.773376837E0,7.934737157E0
5.804191833E0,-2.430964997E0,-4.110328310E0,-4.616567377E0,6.642069254E0
5.814127833E0,-3.124000677E0,-1.848797203E0,-3.944397193E0,5.360569051E0
5.824063833E0,-3.421100044E0,-6.640916705E-1,-2.652640836E0,4.379662848E0
5.833999833E0,-3.329841964E0,1.416207325E-1,-1.337028863E0,3.591037471E0
5.843935833E0,-2.942610985E0,7.179708391E-1,-1.106550479E-1,3.030954647E0
5.853871833E0,-2.009156069E0,1.652057692E0,1.124824343E0,2.833942931E0
5.863807833E0,-9.448086002E-1,2.756490895E0,2.064025025E0,3.570868893E0
5.873743833E0,-1.495507264E-1,3.977141601E0,2.100956039E0,4.500448535E0
5.883680833E0,-2.526406467E-2,4.988394159E0,1.240061123E0,5.140278801E0
5.893616833E0,-2.627181767E-1,5.493624582E0,4.787140305E-1,5.520697330E0
5.903552833E0,-1.257257638E0,5.898765875E0,3.715529864E-1,6.042697017E0
5.913488833E0,-2.407287721E0,6.667809219E0,4.742685387E-1,7.104902857E0
5.923424833E0,-2.787922895E0,7.368712621E0,6.876267135E-1,7.908430328E0
5.933360833E0,-2.797583372E0,7.563089272E0,9.731439149E-1,8.122425816E0
5.943296833E0,-2.747761294E0,7.593499471E0,1.517263584E0,8.216660826E0
5.953232833E0,-2.911871295E0,7.404205220E0,2.076756753E0,8.222783469E0
5.963169833E0,-2.467192299E0,7.093713976E0,2.105551659E0,7.800074589E0
5.973105833E0,-1.768044524E0,6.371188740E0,1.758793790E0,6.841884462E0
5.983041833E0,-1.110113334E0,5.236234242E0,1.217460758E0,5.489327039E0
5.992977833E0,-2.654763083E-1,3.924117880E0,1.461684922E0,4.195914873E0
6.002913833E0,3.060105228E-1,2.435704458E0,1.442208724E0,2.847150268E0
6.012849833E0,5.818517518E-1,9.062570304E-1,1.378396305E0,1.749236874E0
6.022785833E0,2.514456220E-1,-1.174374087E0,1.406352721E0,1.849380267E0
6.032721833E0,6.098369645E-1,-2.907571837E0,1.731151517E0,3.438424157E0
6.042657833E0,1.352379266E0,-2.955959886E0,2.375136367E0,4.025903785E0
6.052594833E0,4.654592697E-1,-2.603431254E0,5.631624134E0,6.221711743E0
6.062530833E0,-3.934255198E-2,-2.559852540E0,8.319288037E0,8.704306194E0
6.072466833E0,1.389731133E-1,-2.636538774E-1,7.664253119E0,7.670045813E0
6.082402833E0,1.421033325E0,1.166299667E0,6.493032435E0,6.748263542E0
6.092339125E0,2.990027226E0,-1.189042997E-1,6.096243889E0,6.791066971E0
6.102275125E0,3.481708773E0,-2.160326328E0,5.897852540E0,7.181501960E0
6.112211125E0,3.878443817E0,-3.635947212E0,5.546123807E0,7.682572997E0
6.122147125E0,4.393604858E0,-4.790733712E0,5.458223784E0,8.488056316E0
6.132084125E0,3.953176495E0,-4.822047890E0,5.278414886E0,8.169541846E0
6.142020125E0,2.804659672E0,-3.753165759E0,4.036360154E0,6.184219627E0
6.151956125E0,2.579824875E0,-3.801547961E0,1.115654886E0,4.727784799E0
6.161892125E0,1.554294293E0,-4.299026145E0,-1.338040577E0,4.763172171E0
6.171828125E0,3.966699935E-1,-3.357983444E0,-3.385222405E0,4.784676648E0
6.181764125E0,9.917382069E-1,-2.266160347E0,-4.916764598E0,5.503962345E0
6.191700125E0,7.604470602E-1,-2.053581898E0,-5.916788748E0,6.309030625E0
6.201636125E0,-3.759495809E-1,-3.439246293E0,-7.735126635E0,8.473602375E0
6.211573125E0,-2.842735571E0,-4.223571335E0,-9.420099474E0,1.070784640E1
6.221509125E0,-3.332446606E0,-4.058804399E0,-8.636522291E0,1.010784897E1
6.231445125E0,-1.984245615E0,-5.557020679E0,-6.903463705E0,9.081603416E0
6.241381125E0,-2.158929136E0,-8.180594421E0,-6.535611860E0,1.069099259E1
6.251317125E0,-1.898281897E0,-1.028287018E1,-6.245665977E0,1.217987014E1
6.261253125E0,-7.569954488E-1,-1.019021403E1,-5.727009763E0,1.171375879E1
6.271189125E0,1.494514992E0,-7.246421029E0,-5.687788979E0,9.332477498E0
6.281125125E0,2.154196400E0,-3.017526389E0,-5.730090076E0,6.824951275E0
6.291062125E0,9.292351261E-1,4.519967866E-1,-3.219462905E0,3.381230606E0
6.300998125E0,1.407228341E0,1.613184818E0,9.808539073E-1,2.354725302E0
6.310934125E0,2.501225433E0,2.260834118E0,1.977034829E0,3.908473652E0
6.320870125E0,3.022441851E0,3.118223044E0,9.041151953E-1,4.435751794E0
6.330806125E0,3.834676530E0,4.871461540E0,2.227927304E0,6.587832853E0
6.340742125E0,3.459154015E0,6.775620182E0,1.816771857E0,7.821472708E0
6.350678125E0,2.233456724E0,8.108004162E0,9.279307584E-1,8.461035157E0
6.360614125E0,1.013378533E0,9.093706142E0,3.070116393E-1,9.155145198E0
6.370551125E0,3.495651166E-1,9.324435518E0,-3.150232749E-1,9.336301900E0
6.380487125E0,2.026738501E-1,9.580388027E0,-1.032396090E0,9.637984910E0
6.390423125E0,-1.124893341E0,9.526028802E0,-7.924007781E-1,9.624890065E0
6.400359125E0,-2.361250545E0,9.534082757E0,7.195115074E-1,9.848448353E0
6.410295125E0,-3.494293150E0,9.722769483E0,1.469848512E0,1.043564975E1
6.420231125E0,-4.587885907E0,9.341853204E0,2.050271205E0,1.060766376E1
6.430167125E0,-4.718629941E0,8.587803290E0,2.396049811E0,1.008746195E1
6.440103125E0,-3.695564253E0,7.157596561E0,1.948266528E0,8.287588681E0
6.450040125E0,-2.192806734E0,5.421740667E0,1.447728642E0,6.024914228E0
6.459976125E0,-9.806244041E-1,3.753717152E0,1.067494514E0,4.023873906E0
6.469912125E0,3.409107258E-1,1.611447610E0,1.024724543E0,1.939856673E0
6.479848125E0,2.037364938E0,-1.106554572E0,1.090229731E0,2.562014789E0
6.489784125E0,3.402730431E0,-4.007833051E0,1.172446334E0,5.386643719E0
6.499720125E0,4.582924837E0,-6.649431421E0,1.854447953E0,8.285958936E0
6.509656125E0,5.746816036E0,-7.332002047E0,2.982540743E0,9.781599964E0
6.519592125E0,7.739379315E0,-6.242414925E0,4.203911827E0,1.079530504E1
6.529528125E0,8.871131878E0,-5.455691940E0,4.322252455E0,1.127578918E1
6.539465125E0,8.519339996E0,-4.694400834E0,3.849737788E0,1.046121571E1
6.549401125E0,6.483847629E0,-5.985050898E0,2.161309830E0,9.084733045E0
6.559337125E0,3.448222646E0,-6.118683164E0,2.334747602E0,7.401322141E0
6.569273125E0,1.972763438E0,-5.279737526E0,2.550437354E0,6.186449274E0
6.579209125E0,1.137234620E0,-5.098624114E0,5.783793243E0,7.793685567E0
6.589145125E0,8.470909555E-1,-3.257492026E0,8.108638000E0,8.779454858E0
6.599081125E0,-6.179746807E-1,-1.879194539E0,2.133805697E0,2.909706441E0
6.609017125E0,-3.421998176E0,-3.166857845E0,-6.128671378E0,7.700628090E0
6.618954125E0,-8.073970444E0,-5.456386589E0,-8.566527611E0,1.297484291E1
6.628890125E0,-8.641339812E0,-5.396855502E0,-5.868693645E0,1.175756642E1
6.638826125E0,-2.635714316E0,-2.296245441E0,-4.568539517E0,5.752502621E0
6.648762125E0,-1.073825367E0,-2.456180822E0,-4.228153213E0,5.006316485E0
6.658698125E0,-1.829257417E0,-3.024572868E0,-2.875351925E0,4.556519771E0
6.668634125E0,-2.563220829E0,-4.396181141E0,-9.922245491E-1,5.184690849E0
6.678570125E0,-2.215673148E0,-5.426447091E0,-2.789217761E0,6.491168711E0
6.688506125E0,-2.145964982E0,-5.128774112E0,-3.831147151E0,6.751827759E0
6.698443125E0,-1.174564999E0,-4.127330843E0,-4.654519315E0,6.330798755E0
6.708379125E0,-9.408392179E-1,-3.590270517E0,-4.721403276E0,6.005569891E0
6.718315125E0,-1.525107916E0,-2.620177680E0,-3.372462319E0,4.534841488E0
6.728251125E0,-1.671697320E0,-1.425331321E0,-2.814621574E0,3.570467183E0
6.738187125E0,-1.962516338E0,-5.978374547E-1,-1.924082444E0,2.812645241E0
6.748123125E0,-2.495819682E0,5.187252116E-1,-4.925390410E-1,2.596302455E0
6.758059125E0,-2.173616465E0,1.554192259E0,5.744059074E-1,2.733141830E0
6.767995125E0,-1.321470299E0,2.548320077E0,1.099461461E0,3.073928182E0
6.777931125E0,-4.346027818E-1,3.586747570E0,1.148597807E0,3.791162702E0
6.787868125E0,-5.162106165E-1,4.395484153E0,1.145614557E0,4.571562868E0
6.797804125E0,-8.050943524E-1,5.053146225E0,8.655880375E-1,5.189576701E0
6.807740125E0,-1.470590378E0,5.418062768E0,4.417453019E-1,5.631445563E0
6.817676125E0,-1.902317499E0,5.613521154E0,2.202039488E-1,5.931182124E0
6.827612125E0,-2.269594709E0,5.863617677E0,4.586181736E-1,6.304236911E0
6.837548125E0,-2.952237256E0,5.925919760E0,1.125093169E0,6.715509248E0
6.847484125E0,-2.932408471E0,6.172447727E0,1.492648122E0,6.994721496E0
6.857420125E0,-2.486875781E0,6.387711217E0,1.972056509E0,7.132770333E0
6.867357125E0,-2.495578777E0,6.428379772E0,2.348206430E0,7.284645040E0
6.877293125E0,-2.149265589E0,6.144631938E0,2.355864529E0,6.922856484E0
6.887229125E0,-1.359529533E0,5.479688328E0,1.905394450E0,5.958677096E0
6.897165125E0,-3.896384244E-1,3.999845755E0,1.268929704E0,4.214352472E0
6.907101125E0,3.937963794E-1,2.582925069E0,1.056164145E0,2.818166106E0
6.917037125E0,7.741529337E-1,1.418454995E0,9.056518435E-1,1.852439635E0
6.926973125E0,1.161886920E0,2.026416904E-1,8.580902991E-1,1.458548536E0
6.936909125E0,7.874946718E-1,-6.524171197E-1,1.323057379E0,1.672207160E0
6.946846125E0,2.669911757E-2,-1.085028048E0,1.587995890E0,1.923468132E0
6.956782125E0,1.082152972E-1,-2.663718971E0,2.587385910E0,3.715060585E0
6.966718125E0,-5.224861407E-1,-2.762881317E0,5.833310974E0,6.475648373E0
6.976654125E0,6.680315244E-1,-8.783511937E-1,8.093788412E0,8.168670503E0
6.986590125E0,1.268358431E0,8.419475985E-1,8.440240617E0,8.576436937E0
6.996526125E0,1.655157009E0,2.112226548E0,8.200034659E0,8.627955385E0
7.006462125E0,2.169832147E0,1.028657965E0,7.383776218E0,7.764435587E0
7.016398125E0,2.956018943E0,-7.083901763E-1,6.307080452E0,7.001366186E0
7.026334125E0,3.179768789E0,-2.213506755E0,5.466785277E0,6.700468862E0
7.036271125E0,3.279506793E0,-3.552256599E0,4.685827646E0,6.732805692E0
7.046207125E0,3.491064025E0,-3.896354131E0,3.769187715E0,6.447936071E0
7.056143125E0,3.659022371E0,-2.705127783E0,2.310901487E0,5.103569997E0
7.066079125E0,3.348581706E0,-2.370469996E0,7.722607747E-1,4.174747196E0
7.076015125E0,1.240041243E0,-3.705261276E0,-1.563339643E0,4.208407567E0
7.085950708E0,1.666823081E0,-4.697326781E0,-3.906721244E0,6.332902095E0
7.095886708E0,2.233826560E0,-4.393310158E0,-3.729783621E0,6.180812334E0
7.105822708E0,4.850891036E-1,-4.089263130E0,-4.607542784E0,6.179549733E0
7.115759708E0,-1.719213987E0,-4.088478434E0,-8.315673873E0,9.424531002E0
7.125695708E0,-4.895930969E0,-3.526857464E0,-9.797900941E0,1.150685563E1
7.135631708E0,-4.885206006E0,-4.181581310E0,-8.788425937E0,1.088977917E1
7.145567708E0,-3.813958091E0,-5.639148915E0,-7.174427771E0,9.890333192E0
7.155503708E0,-3.180119330E0,-7.497588177E0,-6.656285527E0,1.051822820E1
7.165439708E0,-1.261703130E0,-9.912991687E0,-6.244323456E0,1.178350009E1
7.175375708E0,8.403516009E-1,-9.592918611E0,-5.608197849E0,1.114370501E1
7.185311708E0,2.297329222E0,-6.534064686E0,-5.402824924E0,8.784204007E0
7.195247708E0,1.863972774E0,-2.381556902E0,-5.952118210E0,6.676370194E0
7.205184708E0,1.284785306E0,1.472825915E-1,-5.201037512E0,5.359398907E0
7.215120708E0,1.171341721E0,1.382003453E0,-3.715531325E-1,1.849331420E0
7.225056708E0,2.457800793E0,1.970851398E0,2.817223877E0,4.226321136E0
7.234992708E0,2.448727084E0,3.190130932E0,1.739689329E0,4.381748356E0
7.244928708E0,3.202934580E0,4.487321692E0,1.763507231E0,5.788333408E0
7.254864708E0,4.229768799E0,5.774173989E0,1.766446334E0,7.372405442E0
7.264800708E0,4.193641192E0,7.068248767E0,4.127865279E-1,8.229043674E0
7.274736708E0,2.896579364E0,8.740550689E0,-2.581531093E-2,9.208043483E0
7.284673708E0,7.318186538E-1,8.955189697E0,-6.963298555E-1,9.011984039E0
7.294609708E0,-1.138780332E-1,8.537008528E0,-8.666719651E-1,8.581643380E0
7.304545708E0,-4.465406035E-1,8.935238997E0,2.722215101E-2,8.946431439E0
7.314481708E0,-7.181504948E-1,9.391714751E0,9.951599975E-1,9.471556868E0
7.324417708E0,-1.360581301E0,9.139489841E0,1.885243191E0,9.430567211E0
7.334353708E0,-1.695940607E0,8.568772357E0,2.439268920E0,9.069184479E0
7.344289708E0,-1.608111920E0,8.384748786E0,2.602268243E0,8.925347957E0
7.354225708E0,-1.580554431E0,7.525932555E0,2.546696305E0,8.100831760E0
7.364161708E0,-9.723954713E-1,5.960287355E0,2.622841086E0,6.584062095E0
7.374098708E0,-2.491162375E-1,4.023021194E0,2.623412944E0,4.809267501E0
7.384034708E0,5.277962165E-1,2.046226101E0,2.567003685E0,3.324923762E0
7.393970708E0,1.144940666E0,-1.469802904E-1,2.236579868E0,2.516899251E0
7.403906708E0,1.395254851E0,-2.703787016E0,1.998823893E0,3.640397957E0
7.413842708E0,1.184717081E0,-4.966012187E0,1.846281731E0,5.428958264E0
7.423778708E0,1.797601907E0,-5.912845970E0,1.329734023E0,6.321496077E0
7.433714708E0,3.114167415E0,-5.780014772E0,1.946267949E0,6.847960893E0
7.443650708E0,3.903464929E0,-4.781776362E0,3.388098943E0,7.041423015E0
7.453586708E0,3.782733375E0,-4.604130349E0,1.766633298E0,6.215149336E0
7.463523708E0,3.452074499E0,-5.519602007E0,1.010577790E0,6.588178210E0
7.473459708E0,2.393468411E0,-6.220669130E0,1.273448725E0,6.785800403E0
7.483395708E0,2.022913544E0,-5.515485567E0,2.831923485E0,6.521698465E0
7.493331708E0,1.428221599E0,-3.483988602E0,6.579634377E0,7.580869478E0
7.503267708E0,1.071341908E0,-1.050830607E0,7.812839055E0,7.955656638E0
7.513203708E0,1.484393754E0,2.627633464E-1,4.104801521E0,4.372855465E0
7.523139708E0,9.604892246E-1,-5.308038050E-1,-1.494915526E0,1.854471531E0
7.533075708E0,-4.446803118E0,-2.062366755E0,-8.365805562E0,9.696087732E0
7.543012708E0,-6.306188167E0,-1.051426906E1,-1.050171626E1,1.614323101E1
7.552948708E0,-1.822983793E0,-1.386246777E1,-6.592329851E0,1.545801072E1
7.562884708E0,-2.734124418E-1,-3.982752004E0,-4.275900407E0,5.849819842E0
7.572820708E0,4.696577168E-1,-5.883936167E-1,-7.169540083E-1,1.039619387E0
7.582756708E0,-2.257772662E0,-1.764500819E0,-1.215526206E0,3.112636261E0
7.592692708E0,-4.718850381E0,-4.155012147E0,5.055517271E-2,6.287625203E0
7.602628708E0,-4.372917994E0,-4.898504913E0,-1.578540065E0,6.753484352E0
7.612564708E0,-2.537340760E0,-5.101529011E0,-4.045658104E0,6.987921428E0
7.622500708E0,-1.679865588E0,-4.906144300E0,-4.040673938E0,6.574134632E0
7.632437708E0,-2.142176571E0,-3.369663842E0,-3.981076777E0,5.638486248E0
7.642373708E0,-2.385472198E0,-2.145875520E0,-4.075117546E0,5.186698600E0
7.652309708E0,-2.366949973E0,-1.318236058E0,-2.885455914E0,3.958036673E0
7.662245708E0,-1.886773992E0,-1.517890406E-1,-1.395860184E0,2.351888957E0
7.672181708E0,-1.237962265E0,6.998678595E-1,4.616729783E-1,1.495161373E0
7.682117708E0,-4.504490286E-1,1.678474828E0,1.571393598E0,2.342959649E0
7.692053708E0,2.717581183E-1,3.210851126E0,1.913276789E0,3.747538592E0
7.701989708E0,1.705463237E-1,4.156232461E0,1.919309946E0,4.581168518E0
7.711926708E0,-4.676342878E-1,4.676230026E0,1.123060677E0,4.831881039E0
7.721862708E0,-1.090888566E0,5.282558223E0,4.872030182E-1,5.415978769E0
7.731798708E0,-2.035241960E0,5.793952780E0,2.136878116E-1,6.144734424E0
7.741734708E0,-3.238571021E0,6.290619956E0,3.800598080E-1,7.085526596E0
7.751670708E0,-3.714427956E0,6.550855551E0,6.923932175E-1,7.562413097E0
7.761606708E0,-3.521891423E0,6.758627003E0,1.176652455E0,7.711502394E0
7.771542708E0,-3.542360187E0,6.749879569E0,1.639114003E0,7.797171577E0
7.781478708E0,-2.849540853E0,6.903843189E0,1.826670316E0,7.688930894E0
7.791414708E0,-2.170636577E0,6.919303227E0,1.744298396E0,7.458618987E0
7.801351708E0,-1.600428971E0,6.159009072E0,1.476315825E0,6.532554941E0
7.811287708E0,-8.879333183E-1,5.096660619E0,1.090954785E0,5.287206956E0
7.821223708E0,-7.604112460E-1,3.700515676E0,1.092056547E0,3.932509254E0
7.831159708E0,-4.621832210E-1,1.992959720E0,7.915510315E-1,2.193639627E0
7.841095708E0,1.207245380E-1,3.895976400E-1,1.112519317E0,1.184930363E0
7.851031708E0,9.963670090E-2,-9.666266084E-1,1.508967262E0,1.794791540E0
7.860967708E0,8.908686206E-2,-1.956388310E0,1.841210733E0,2.688019467E0
7.870903708E0,4.383926547E-1,-2.458337860E0,2.611840135E0,3.613491669E0
7.880840708E0,-9.056898504E-3,-3.350006087E0,6.165842128E0,7.017138445E0
7.890776708E0,-1.960548019E-1,-2.202825646E0,8.773007998E0,9.047460840E0
7.900712708E0,8.487873790E-1,4.865035450E-1,7.797858489E0,7.858989930E0
7.910648708E0,2.048464269E0,1.564843547E0,6.407212266E0,6.906323929E0
7.920584708E0,2.548183837E0,-2.203482288E-1,5.894779828E0,6.425746916E0
7.930520708E0,3.483277581E0,-2.069748280E0,5.109025726E0,6.520676692E0
7.940456708E0,3.650310020E0,-3.096408252E0,4.747574536E0,6.741807716E0
7.950392708E0,3.973753139E0,-3.659139608E0,4.865041590E0,7.269707446E0
7.960328708E0,4.140429776E0,-3.495898211E0,4.910398149E0,7.312760971E0
7.970265708E0,2.817022440E0,-2.825728945E0,3.787562006E0,5.501453030E0
7.980201708E0,2.858823600E0,-3.338254938E0,1.264582299E0,4.573399917E0
7.990137708E0,1.709401336E0,-4.686519957E0,-4.655389380E-1,5.010214440E0
8.000073708E0,6.738595904E-1,-4.309231290E0,-2.012676824E0,4.803585021E0
8.010009708E0,1.154072555E0,-3.261872760E0,-3.027231013E0,4.597371528E0
8.019945708E0,8.260458031E-1,-2.999196537E0,-4.323541766E0,5.326400749E0
8.029881708E0,-1.061195966E0,-3.503003163E0,-7.683070629E0,8.510390257E0
8.039817708E0,-3.778286567E0,-3.107347223E0,-9.685384140E0,1.085070146E1
8.049753708E0,-4.592666298E0,-3.168904955E0,-9.650590283E0,1.114757530E1
8.059690708E0,-3.323881897E0,-4.758875157E0,-7.711179364E0,9.651806609E0
8.069626708E0,-3.657125242E0,-6.768864893E0,-6.775477509E0,1.025178972E1
8.079562708E0,-2.641472654E0,-9.141108935E0,-6.413237822E0,1.147461850E1
8.089499208E0,-4.207290933E-1,-1.025843934E1,-5.485315104E0,1.164050138E1
8.099435208E0,1.958716087E0,-7.845908568E0,-4.932800002E0,9.472452999E0
8.109371208E0,2.295744919E0,-3.298671627E0,-5.270348067E0,6.627838863E0
8.119307208E0,7.805761001E-1,4.988563728E-1,-3.532602353E0,3.652045470E0
8.129243208E0,1.416699953E0,1.442571836E0,9.234636319E-1,2.222799438E0
8.139179208E0,2.793664860E0,2.444284077E0,2.884302843E0,4.700881927E0
8.149116208E0,3.236312242E0,4.213271465E0,2.655407739E0,5.939407682E0
8.159052208E0,4.432538543E0,5.772690550E0,3.225228260E0,7.960744403E0
8.168988208E0,6.430214628E0,6.793654164E0,2.775687304E0,9.757347850E0
8.178924208E0,6.371686338E0,7.826732624E0,9.574723537E-1,1.013769617E1
8.188860208E0,3.967988662E0,9.059638510E0,-2.956305456E-1,9.894916946E0
8.198796208E0,1.606686369E0,9.590365716E0,-2.664130323E-1,9.727668352E0
8.208732208E0,1.233611352E0,8.884371144E0,2.205789015E-3,8.969607152E0
8.218668208E0,-1.270991725E-1,7.817505133E0,1.529538059E-1,7.820034244E0
8.228605208E0,-1.862817803E0,7.614676917E0,9.151197282E-1,7.892454550E0
8.238541208E0,-2.512235740E0,7.440997070E0,9.380219563E-1,7.909465911E0
8.248477208E0,-2.987893285E0,7.251898701E0,1.613595293E0,8.007573341E0
8.258413208E0,-3.240841495E0,6.622727771E0,2.005150580E0,7.640955803E0
8.268349208E0,-3.236618343E0,5.032901995E0,1.821298918E0,6.254832575E0
8.278285208E0,-2.644961688E0,3.144869975E0,1.803205293E0,4.487491373E0
8.288221208E0,-2.119016334E0,1.358263757E0,1.735848877E0,3.057496032E0
8.298157208E0,-1.521464809E0,-9.173872054E-2,1.591097546E0,2.203375265E0
8.308093208E0,-1.008922589E0,-1.538671410E0,1.719076724E0,2.518066576E0
8.318030208E0,-8.504580747E-1,-3.031854406E0,1.694951112E0,3.576070378E0
8.327966208E0,4.557261407E-2,-3.677156049E0,2.010162814E0,4.190979362E0
8.337902208E0,1.969391933E0,-3.300241020E0,2.562521210E0,4.619156885E0
8.347838208E0,3.860321833E0,-2.120228462E0,3.172243130E0,5.427760115E0
8.357774208E0,5.246955696E0,-8.818016356E-1,4.636699340E0,7.057414468E0
8.367710208E0,5.176491485E0,-3.613145410E0,1.790574138E0,6.561786311E0
8.377646208E0,4.749736544E0,-6.456221289E0,4.838138258E-1,8.029748837E0
8.387582208E0,3.496586721E0,-6.243725871E0,8.501722920E-1,7.206457130E0
8.397518208E0,2.768049378E0,-4.614398645E0,2.001476190E0,5.741139186E0
8.407455208E0,2.692025342E0,-3.292195251E0,5.039987651E0,6.594469314E0
8.417391208E0,1.904194163E0,-1.989043255E0,8.214085518E0,8.663339390E0
8.427327208E0,9.724308470E-1,-1.183827281E-2,6.664054137E0,6.734640261E0
8.437263208E0,1.558134598E0,4.084052092E-1,1.196026912E0,2.006254873E0
8.447199208E0,-5.173842989E-1,-1.863745025E0,-3.988115655E0,4.432414524E0
8.457135208E0,-6.984027811E0,-4.354508620E0,-9.957360359E0,1.291849121E1
8.467071208E0,-8.723809526E0,-1.134194828E1,-1.169684971E1,1.848136728E1
8.477007208E0,-1.888031874E0,-9.950492220E0,-7.082124209E0,1.235853726E1
8.486943208E0,1.795684897E0,-9.310965872E-1,-4.979026920E0,5.374210097E0
8.496880208E0,1.738524563E0,-6.988445967E-1,-3.620973662E0,4.077045706E0
8.506816208E0,-2.520333549E0,-3.259120476E0,8.894387571E-1,4.214860469E0
8.516752208E0,-3.462246023E0,-5.405719296E0,1.215378857E-1,6.420570075E0
8.526688208E0,-2.626264339E0,-6.756054229E0,-3.363893809E0,7.991077191E0
8.536624208E0,-2.243472273E0,-6.728936012E0,-4.430201411E0,8.362920078E0
8.546560208E0,-2.628745020E0,-4.586522629E0,-4.420311431E0,6.890982756E0
8.556496208E0,-2.809383346E0,-2.718749456E0,-5.161025015E0,6.474597485E0
8.566432208E0,-2.890085154E0,-1.618621559E0,-4.257003375E0,5.393941572E0
8.576369208E0,-3.058174478E0,4.380125856E-1,-1.821695359E0,3.586482977E0
8.586305208E0,-2.327684604E0,1.872640395E0,5.228476448E-1,3.032864541E0
8.596241208E0,-1.804060741E0,2.085401861E0,1.820601052E0,3.304258506E0
8.606177208E0,-1.674740065E0,2.527242034E0,2.348461808E0,3.834967985E0
8.616113208E0,-1.407640131E0,3.972541596E0,2.309208279E0,4.805723707E0
8.626049208E0,-1.266059452E0,4.893009700E0,1.508875022E0,5.274576219E0
8.635985208E0,-1.608645332E0,5.449054180E0,6.512465072E-1,5.718745778E0
8.645921208E0,-2.997124284E0,6.015022556E0,2.943159454E-1,6.726802524E0
8.655857208E0,-4.067386650E0,6.863719595E0,3.885686763E-1,7.987819881E0
8.665794208E0,-3.794244204E0,7.201545988E0,6.550169380E-1,8.166247662E0
8.675730208E0,-2.957312931E0,6.942045972E0,9.350776640E-1,7.603425037E0
8.685666208E0,-2.226396357E0,6.441334863E0,1.160770979E0,6.913394594E0
8.695602208E0,-1.657039666E0,5.709152366E0,1.259139711E0,6.076646609E0
8.705538208E0,-1.019179555E0,4.998753671E0,1.258045258E0,5.254421291E0
8.715474208E0,-1.701765604E-1,4.229270616E0,1.036745395E0,4.357812642E0
8.725410208E0,3.772787992E-1,3.278892835E0,9.348228715E-1,3.430360232E0
8.735346208E0,8.123473848E-1,2.022076516E0,9.865904644E-1,2.392083287E0
8.745282208E0,7.792636925E-1,7.643269801E-1,1.049823132E0,1.514455758E0
8.755219208E0,5.381914696E-1,-1.430269879E-1,1.384129500E0,1.491952161E0
8.765155208E0,6.051165073E-1,-5.542803758E-1,1.998948146E0,2.160830029E0
8.775091208E0,9.899109520E-1,-1.185323583E0,2.328363904E0,2.793956721E0
8.785027208E0,1.228439782E0,-1.593106064E0,3.825886411E0,4.322552262E0
8.794963208E0,1.196186687E0,-2.314361869E0,6.816254822E0,7.297154463E0
8.804899208E0,1.388383788E0,-8.581841469E-2,7.991228249E0,8.111393424E0
8.814835208E0,2.147497245E0,1.803105306E0,7.064182613E0,7.600369014E0
8.824771208E0,2.310190027E0,1.576542656E0,5.918514261E0,6.546088585E0
8.834707208E0,2.843643059E0,-5.548218280E-1,5.461269014E0,6.182199637E0
8.844644208E0,3.689027066E0,-2.126819444E0,4.821819264E0,6.432901574E0
8.854580208E0,3.795336463E0,-2.778042562E0,4.484556836E0,6.498719055E0
8.864516208E0,3.970269953E0,-3.554060465E0,4.418717480E0,6.922387843E0
8.874452208E0,3.898200681E0,-3.321647676E0,3.863393084E0,6.415225480E0
8.884388208E0,3.954634791E0,-3.806509323E0,1.829455783E0,5.785806600E0
8.894324208E0,3.034193877E0,-5.246618312E0,-2.498909935E-1,6.065952662E0
8.904260208E0,1.662702841E0,-4.267785056E0,-2.650189683E0,5.291698724E0
8.914196208E0,2.228972348E0,-3.902000787E0,-4.835158517E0,6.600960972E0
8.924132208E0,6.205800538E-1,-3.896901430E0,-5.193887537E0,6.522838960E0
8.934069208E0,-8.536852992E-1,-4.446487076E0,-6.559914057E0,7.970727592E0
8.944005208E0,-3.444915461E0,-4.464811081E0,-8.230531397E0,9.977155286E0
8.953941208E0,-5.027789775E0,-3.497376972E0,-7.983778896E0,1.006235763E1
8.963877208E0,-4.284406059E0,-3.696063606E0,-6.644076540E0,8.727014067E0
8.973813208E0,-3.360307712E0,-6.010029033E0,-5.832146208E0,9.023638196E0
8.983749208E0,-2.178174662E0,-8.341154870E0,-5.534517084E0,1.024451994E1
8.993685208E0,-2.302428871E-1,-9.065974553E0,-5.207649543E0,1.045774929E1
9.003621208E0,2.224076182E0,-7.020760020E0,-5.172560402E0,8.999609282E0
9.013557208E0,2.062494224E0,-2.739243947E0,-5.491043036E0,6.473707860E0
9.023494208E0,8.557040504E-1,4.143798941E-1,-5.819941900E0,5.897089438E0
9.033430208E0,1.349939661E0,1.290504468E0,-1.115550367E0,2.175360083E0
9.043366208E0,2.506321281E0,2.066210130E0,2.744163795E0,4.252211848E0
9.053302208E0,2.978758472E0,2.791648448E0,2.161542841E0,4.619369064E0
9.063238208E0,3.558768058E0,3.794188070E0,1.562343132E0,5.431538389E0
9.073174208E0,3.516065550E0,5.222988544E0,1.434001572E0,6.457452036E0
9.083110208E0,3.205889179E0,6.271191997E0,9.535127655E-1,7.107373712E0
9.093045500E0,2.341637376E0,7.435038173E0,2.351362757E-1,7.798611883E0
9.102981500E0,1.033167484E0,8.456973594E0,-3.966487974E-2,8.519941943E0
9.112918500E0,-1.292771141E-1,8.979353900E0,1.700368850E-1,8.981894097E0
9.122854500E0,-5.369606307E-1,8.900696570E0,6.195043123E-1,8.938372992E0
9.132790500E0,-8.448055713E-1,8.830465078E0,8.542608114E-1,8.911822007E0
9.142726500E0,-1.416043457E0,8.962854227E0,1.286986052E0,9.164838682E0
9.152662500E0,-2.182416378E0,8.978060496E0,2.021267699E0,9.458014307E0
9.162598500E0,-2.230626233E0,8.701787742E0,2.234632745E0,9.256910219E0
9.172534500E0,-2.463053347E0,7.564982015E0,1.836726504E0,8.165117815E0
9.182470500E0,-1.985523378E0,6.091891222E0,1.700180716E0,6.629031318E0
9.192406500E0,-1.341145741E0,4.555922395E0,1.686635202E0,5.039825302E0
9.202343500E0,-9.186385826E-1,2.715113658E0,1.454410694E0,3.214194998E0
9.212279500E0,-5.055374745E-1,3.702135354E-1,1.060369243E0,1.231669246E0
9.222215500E0,2.330205338E-1,-2.170803369E0,8.243053794E-1,2.333702037E0
9.232151500E0,4.041235124E-1,-4.445473169E0,1.122009348E0,4.602657112E0
9.242087500E0,8.237007773E-1,-5.415322178E0,1.421020753E0,5.658930751E0
9.252023500E0,2.913155928E0,-4.753283465E0,2.254767047E0,6.013664074E0
9.261959500E0,5.353418291E0,-3.902581415E0,3.243852811E0,7.376436142E0
9.271895500E0,6.288342465E0,-3.515809734E0,3.147281367E0,7.861904925E0
9.281831500E0,5.569767609E0,-3.243569806E0,2.798774450E0,7.026819673E0
9.291768500E0,4.560921180E0,-3.796785403E0,1.400401132E0,6.097434275E0
9.301704500E0,3.743573402E0,-4.602757423E0,9.192665005E-1,6.003729558E0
9.311640500E0,2.214551214E0,-4.488591122E0,3.151425873E0,5.914657418E0
9.321576500E0,1.047156070E0,-4.175061080E0,7.168612715E0,8.361619407E0
9.331512500E0,7.089520937E-1,-2.764292250E0,7.840402830E0,8.343610804E0
9.341448500E0,9.476953706E-1,-1.112284259E0,4.667861491E0,4.891240506E0
9.351384500E0,1.749615708E0,-1.301303691E0,-6.335762215E-1,2.270675065E0
9.361320500E0,-1.952544935E0,-2.664892507E0,-6.879097188E0,7.631255592E0
9.371256500E0,-8.179851240E0,-7.314501915E0,-1.168016176E1,1.602616870E1
9.381193500E0,-4.970950745E0,-1.372431327E1,-6.474012612E0,1.596809210E1
9.391129500E0,7.139283666E-1,-5.335240467E0,-6.539209067E0,8.469695376E0
9.401065500E0,1.399826351E0,-8.926651776E-1,-2.048236374E0,2.636595755E0
9.411001500E0,-1.339602953E0,-2.144599657E0,-2.432172009E-1,2.540275254E0
9.420937500E0,-3.153387614E0,-4.056584796E0,-9.060019456E-2,5.138865833E0
9.430873500E0,-3.043559947E0,-4.703855197E0,-2.178193080E-1,5.606866872E0
9.440809500E0,-2.461559968E0,-5.077232076E0,-4.034971733E0,6.936754278E0
9.450745500E0,-1.791274927E0,-4.796170453E0,-4.626867832E0,6.900711761E0
9.460681500E0,-2.089901440E0,-3.062095036E0,-3.844988680E0,5.341165789E0
9.470618500E0,-2.609901783E0,-1.665031494E0,-4.665031439E0,5.598788755E0
9.480554500E0,-2.698141530E0,-7.358393455E-1,-3.840819615E0,4.751139082E0
9.490490500E0,-2.438098600E0,6.910157597E-1,-1.603698295E0,2.998945779E0
9.500426500E0,-1.857528558E0,1.693857683E0,5.251185572E-1,2.568134672E0
9.510362500E0,-1.254963922E0,2.319577585E0,1.739810951E0,3.159480458E0
9.520298500E0,-8.894630961E-1,3.300830419E0,2.183843683E0,4.056574822E0
9.530234500E0,-7.221264553E-1,4.411177495E0,2.214171875E0,4.988237224E0
9.540170500E0,-6.362438674E-1,5.287825980E0,1.388900975E0,5.504085371E0
9.550106500E0,-1.493062543E0,5.662034917E0,4.872297692E-1,5.875820625E0
9.560043500E0,-2.630265004E0,6.066200895E0,-1.185534668E-1,6.612952610E0
9.569979500E0,-3.563611015E0,6.705740692E0,9.060041383E-2,7.594372267E0
9.579915500E0,-3.739729443E0,6.937472280E0,7.327088924E-1,7.915235958E0
9.589851500E0,-3.211456313E0,6.841342885E0,1.241505093E0,7.658900640E0
9.599787500E0,-2.360832323E0,6.747627221E0,1.714411815E0,7.351408725E0
9.609723500E0,-1.334718043E0,6.312327744E0,1.696959923E0,6.671328712E0
9.619659500E0,-4.567467722E-1,5.618773708E0,1.275230956E0,5.779744768E0
9.629595500E0,3.268684182E-1,4.650733827E0,7.040176284E-1,4.715061921E0
9.639532500E0,5.153209627E-1,3.398043303E0,6.344954038E-1,3.494973305E0
9.649468500E0,1.662959826E-1,2.083785691E0,5.808319974E-1,2.169604334E0
9.659404500E0,1.622222275E-2,8.807520604E-1,5.446845102E-1,1.035697141E0
9.669340500E0,7.459395334E-2,-1.682314110E-1,1.057145892E0,1.073044036E0
9.679276500E0,5.442700888E-1,-1.005912881E0,1.322749816E0,1.748644540E0
9.689212500E0,3.802296697E-1,-2.629723844E0,2.431743846E0,3.601860662E0
9.699148500E0,-2.577378108E-1,-2.994957306E0,4.785347549E0,5.651172375E0
9.709084500E0,1.733404157E-1,-8.630361664E-1,6.979645908E0,7.034936768E0
9.719020500E0,7.109917487E-1,1.132871720E0,7.608214574E0,7.724884245E0
9.728957500E0,1.621700849E0,1.297232859E0,6.847627473E0,7.155608202E0
9.738893500E0,1.948648643E0,-6.341550958E-1,5.749068968E0,6.103374331E0
9.748829500E0,2.967599353E0,-1.947415173E0,4.613401694E0,5.820871668E0
9.758765500E0,4.016928980E0,-2.840443463E0,3.457989835E0,6.013445867E0
9.768701500E0,4.464083102E0,-3.758203136E0,3.006401769E0,6.564341578E0
9.778637500E0,4.583746955E0,-4.351615418E0,3.360977803E0,7.158454071E0
9.788573500E0,4.120346344E0,-3.896593282E0,3.649327103E0,6.743758707E0
9.798509500E0,3.229249974E0,-3.148409879E0,2.714223419E0,5.263796057E0
9.808445500E0,2.578221276E0,-3.839652511E0,1.069114265E0,4.746910750E0
9.818382500E0,9.042683923E-1,-4.367325132E0,-5.646866655E-1,4.495564610E0
9.828318500E0,7.107460195E-1,-3.965030848E0,-2.190605550E0,4.585344284E0
9.838254500E0,6.412217483E-1,-3.926247436E0,-3.426226882E0,5.250296649E0
9.848190500E0,-4.381573773E-1,-4.068872135E0,-5.207675271E0,6.623260834E0
9.858126500E0,-2.033497005E0,-3.284695612E0,-8.219302404E0,9.081919805E0
9.868062500E0,-4.907601426E0,-2.160826850E0,-9.228711920E0,1.067346467E1
9.877998500E0,-5.191774353E0,-2.997977977E0,-8.372637448E0,1.029774008E1
9.887934500E0,-4.178323826E0,-5.216535557E0,-6.327059219E0,9.203385875E0
9.897870500E0,-4.255000704E0,-6.555606998E0,-5.427635829E0,9.515263780E0
9.907807500E0,-2.465898018E0,-8.081547850E0,-4.945995998E0,9.790553871E0
9.917743500E0,-3.802026263E-1,-8.047876659E0,-4.086228426E0,9.033832825E0
9.927679500E0,2.108805634E0,-5.300930175E0,-3.817261183E0,6.864284730E0
9.937615500E0,1.518212880E0,-1.087134215E0,-3.673022068E0,4.120427436E0
9.947551500E0,1.144321007E0,1.196147949E0,-1.825692954E0,2.464425946E0
9.957487500E0,2.805305790E0,1.794290628E0,9.322484887E-1,3.458078466E0
9.967423500E0,3.709106697E0,2.562976708E0,1.575531234E0,4.775837180E0
9.977359500E0,4.032635186E0,3.771757566E0,1.511503053E0,5.724765773E0
9.987295500E0,5.144421262E0,5.555570569E0,1.859067253E0,7.796509829E0
9.997232500E0,5.730439155E0,6.978393434E0,2.022498392E0,9.253453819E0
1.000716850E1,4.340829936E0,8.161708499E0,6.504043619E-1,9.267109366E0
1.001710450E1,2.231971969E0,9.594680377E0,5.834600285E-2,9.851040283E0
1.002704050E1,1.736215936E0,9.853634262E0,-2.986428849E-1,1.000988219E1
1.003697650E1,1.487180244E0,9.341001849E0,-4.169275260E-1,9.467832338E0
1.004691250E1,-5.010506867E-1,8.736066459E0,-1.283617325E-1,8.751364791E0
1.005684850E1,-2.034217382E0,8.079045242E0,4.322799754E-1,8.342414420E0
1.006678450E1,-3.222007028E0,7.629839332E0,1.510877255E0,8.418938626E0
1.007672050E1,-3.458967489E0,7.727232310E0,2.376989934E0,8.793443945E0
1.008665721E1,-3.478427900E0,7.593623432E0,2.348237128E0,8.676220092E0
1.009659321E1,-4.039574661E0,6.541005916E0,2.006666179E0,7.945415722E0
1.010652921E1,-3.697075174E0,4.920105112E0,1.952729123E0,6.456698087E0
1.011646521E1,-2.934384829E0,2.928238236E0,2.027391050E0,4.614705621E0
1.012640121E1,-1.776575173E0,9.263112259E-1,1.741098508E0,2.654372967E0
1.013633721E1,-6.090509525E-1,-1.066778888E0,1.558718004E0,1.984581083E0
1.014627321E1,1.386006457E-1,-3.487081195E0,1.817708727E0,3.934845666E0
1.015620921E1,8.212273320E-1,-5.930763009E0,1.645518751E0,6.209355535E0
1.016614521E1,2.692467391E0,-6.992238472E0,1.346665220E0,7.612771290E0
1.017608221E1,6.119278995E0,-5.518668791E0,2.342087027E0,8.566600976E0
1.018601821E1,8.384635935E0,-3.506364727E0,2.935136197E0,9.550483645E0
1.019595421E1,7.425991361E0,-3.423590373E0,3.258676672E0,8.802573055E0
1.020589021E1,5.319023799E0,-4.447309195E0,2.389910234E0,7.333637854E0
1.021582621E1,3.862784388E0,-5.173948531E0,1.686241100E0,6.673399110E0
1.022576221E1,2.574696575E0,-5.090197107E0,2.959321450E0,6.426254935E0
1.023569821E1,1.010023035E0,-4.901599259E0,5.684471269E0,7.573574812E0
1.024563421E1,-1.853275001E-2,-3.826352434E0,4.943321482E0,6.251219376E0
1.025557021E1,-5.954702094E-2,-4.162325844E0,-9.154447603E-1,4.262222588E0
1.026550721E1,-2.864027330E0,-6.111144934E0,-4.627102890E0,8.182837289E0
1.027544321E1,-8.873162616E0,-8.774577391E0,-3.811808070E0,1.304822225E1
1.028537921E1,-6.208047330E0,-9.141461522E0,-3.855745218E0,1.170354398E1
1.029531521E1,1.359253691E0,-2.785033493E0,-4.214592351E0,5.231325916E0
1.030525121E1,2.411957746E0,1.204853868E-1,-3.950604597E0,4.630262798E0
1.031518721E1,-3.795348743E-1,-3.158808568E0,-3.923484042E0,5.051321145E0
1.032512321E1,-3.514742618E0,-5.639830116E0,-1.838681520E0,6.895059763E0
1.033505921E1,-4.342675025E0,-4.986250570E0,-1.311552690E0,6.741045288E0
1.034499521E1,-3.550619963E0,-4.739960584E0,-3.269071852E0,6.764684711E0
1.035493221E1,-2.207661878E0,-5.089172090E0,-4.836105766E0,7.359440367E0
1.036486821E1,-1.829161084E0,-3.891743601E0,-3.837227086E0,5.763315906E0
1.037480421E1,-2.294925432E0,-2.866531985E0,-3.159636533E0,4.844274082E0
1.038474021E1,-2.488173278E0,-1.643343587E0,-2.497523561E0,3.889628304E0
1.039467621E1,-2.325715554E0,-1.303595799E-1,-1.131554269E0,2.589664365E0
1.040461221E1,-2.142614381E0,8.907829589E-1,4.203124791E-3,2.320411242E0
1.041454821E1,-2.124193752E0,1.512943661E0,1.007707976E0,2.795831358E0
1.042448421E1,-1.573168959E0,2.469306652E0,1.380217859E0,3.236871523E0
1.043442021E1,-1.061640354E0,3.556582954E0,1.738421652E0,4.098593953E0
1.044435721E1,-8.792977117E-1,4.540242501E0,1.628905788E0,4.903090913E0
1.045429321E1,-1.031450595E0,5.375331316E0,9.709371758E-1,5.558848450E0
1.046422921E1,-1.850797828E0,5.932082140E0,5.844737895E-1,6.241527115E0
1.047416521E1,-3.170589538E0,6.507348173E0,7.281913336E-1,7.275196278E0
1.048410121E1,-3.987997834E0,7.058626004E0,1.066279535E0,8.177119287E0
1.049403721E1,-3.695750780E0,7.424746488E0,1.520238940E0,8.431877648E0
1.050397321E1,-2.786181301E0,7.713353359E0,1.951891801E0,8.430213988E0
1.051390921E1,-2.408452340E0,7.515591170E0,2.139783890E0,8.177006078E0
1.052384621E1,-1.743704027E0,6.751026793E0,1.970087167E0,7.245557945E0
1.053378221E1,-7.647212286E-1,5.677180960E0,1.454211596E0,5.910153431E0
1.054371821E1,2.022228836E-1,4.535052513E0,6.327269134E-1,4.583441800E0
1.055365421E1,2.003962134E-1,3.266946974E0,4.072015598E-1,3.298319918E0
1.056359021E1,1.348677832E-1,1.956994082E0,5.720518184E-1,2.043344914E0
1.057352621E1,5.318685830E-2,5.247343951E-1,7.241899377E-1,8.958940190E-1
1.058346221E1,1.932403909E-1,-5.650053388E-1,1.392689532E0,1.515307564E0
1.059339821E1,9.215168014E-2,-1.147114953E0,2.414363582E0,2.674605794E0
1.060333421E1,9.281509061E-1,-1.445174432E0,3.478929884E0,3.879812673E0
1.061327021E1,7.373941201E-1,-2.577507039E0,5.075793661E0,5.740293887E0
1.062320721E1,-1.392803845E-1,-1.335349104E0,8.182694741E0,8.292107662E0
1.063314321E1,6.192701313E-1,4.018849790E-1,8.366752810E0,8.399259469E0
1.064307921E1,1.948166833E0,2.023331913E0,6.148529692E0,6.759707346E0
1.065301521E1,3.156986575E0,9.083333766E-1,5.029053943E0,6.006914126E0
1.066295121E1,3.515581693E0,-1.595484127E0,4.334758772E0,5.804740980E0
1.067288721E1,3.411977803E0,-3.300020580E0,3.606188685E0,5.961235206E0
1.068282321E1,3.591227707E0,-4.625156352E0,3.516319612E0,6.830336107E0
1.069275921E1,3.776017263E0,-4.968410715E0,3.787641820E0,7.299975477E0
1.070269521E1,3.951703289E0,-4.090990398E0,3.145422244E0,6.499680178E0
1.071263221E1,3.758554553E0,-4.371546822E0,1.593884036E0,5.981439648E0
1.072256821E1,1.741738632E0,-5.325356918E0,-8.421835336E-1,5.665893828E0
1.073250421E1,1.649833996E0,-5.118429219E0,-3.425429907E0,6.376036381E0
1.074244021E1,8.529663840E-1,-4.776439608E0,-4.234909086E0,6.440215987E0
1.075237621E1,-5.707164605E-1,-4.458951001E0,-3.833328455E0,5.907822640E0
1.076231221E1,-1.925423795E0,-4.132899147E0,-5.155169613E0,6.882142536E0
1.077224821E1,-5.094186078E0,-3.698558612E0,-6.534665780E0,9.073694091E0
1.078218421E1,-5.802120756E0,-3.388225828E0,-6.415677280E0,9.290080435E0
1.079212021E1,-4.867684532E0,-3.690278955E0,-5.885031935E0,8.482105419E0
1.080205721E1,-3.846687296E0,-5.649016677E0,-5.438377165E0,8.734090608E0
1.081199321E1,-2.124152529E0,-7.768769175E0,-5.318564208E0,9.651576229E0
1.082192921E1,7.895331573E-1,-8.568895149E0,-5.317895286E0,1.011579641E1
1.083186521E1,2.506560725E0,-6.908401093E0,-5.233335192E0,9.022009176E0
1.084180121E1,2.055589247E0,-3.275198565E0,-5.823481804E0,6.990372888E0
1.085173721E1,1.225617916E0,6.149867535E-2,-5.828774704E0,5.956554030E0
1.086167321E1,1.912715456E0,1.596824893E0,-2.634698070E0,3.626287920E0
1.087160921E1,3.120056438E0,2.635784483E0,1.297517911E0,4.285518026E0
1.088154521E1,2.862091902E0,3.003863200E0,2.585684662E0,4.888816764E0
1.089148221E1,3.458941469E0,4.156810750E0,3.325222664E0,6.348264130E0
1.090141821E1,5.475057333E0,5.079523015E0,3.072929342E0,8.075933482E0
1.091135421E1,5.792691536E0,6.706598479E0,2.244114736E0,9.141651346E0
1.092129021E1,3.579829144E0,8.923586081E0,1.283215914E0,9.700113830E0
1.093122621E1,1.541079732E0,9.695783998E0,1.562631838E-1,9.818735777E0
1.094116221E1,1.432992781E0,9.591702390E0,5.150834195E-1,9.711824441E0
1.095109821E1,6.305194433E-1,9.296175925E0,8.539099784E-1,9.356580777E0
1.096103421E1,-3.188273272E-1,8.849138746E0,1.203137126E0,8.936243414E0
1.097097021E1,-1.223732335E0,8.535830314E0,1.460218002E0,8.745865113E0
1.098090721E1,-3.183011363E0,7.778244004E0,1.560858085E0,8.548035978E0
1.099084321E1,-3.590155327E0,7.853944396E0,2.111586131E0,8.890019901E0
1.100077921E1,-3.344928365E0,7.792762055E0,2.209622888E0,8.763453630E0
1.101071521E1,-3.016932896E0,6.627281583E0,2.169101830E0,7.597877863E0
1.102065121E1,-2.312076923E0,4.970575939E0,2.254194020E0,5.927370036E0
1.103058721E1,-2.079752720E0,3.063307164E0,2.026118696E0,4.220708368E0
1.104052321E1,-1.670790417E0,1.056650341E0,1.747707031E0,2.638660726E0
1.105045921E1,-1.082031057E0,-1.092574464E0,1.740641255E0,2.322572313E0
1.106039521E1,-1.043277758E0,-3.432766993E0,1.885858026E0,4.053242924E0
1.107033221E1,-1.336731824E0,-5.258289939E0,1.875288599E0,5.740485379E0
1.108026821E1,9.010570284E-1,-6.090105482E0,1.584983697E0,6.357158318E0
1.109020500E1,4.346353801E0,-5.284293677E0,2.170176548E0,7.178037146E0
1.110014100E1,6.583599374E0,-4.414526196E0,1.299301604E0,8.032434681E0
1.111007700E1,6.368524164E0,-4.320190142E0,5.863634634E-1,7.717899002E0
1.112001300E1,5.329723034E0,-4.707088122E0,1.244501499E0,7.218823325E0
1.112994900E1,3.939383206E0,-4.922946859E0,1.797384975E0,6.556274748E0
1.113988500E1,2.900342340E0,-4.920081723E0,3.853179460E0,6.889570509E0
1.114982100E1,1.903300562E0,-4.215957676E0,7.276017880E0,8.621907466E0
1.115975700E1,9.631754355E-1,-2.458987486E0,7.903075626E0,8.332642481E0
1.116969400E1,9.786227560E-1,-1.787276893E0,3.638239321E0,4.169993591E0
1.117963000E1,4.355799977E-1,-3.577663336E0,-3.571796240E0,5.074163306E0
1.118956600E1,-6.190066558E0,-5.245316137E0,-7.793601716E0,1.125035524E1
1.119950200E1,-1.015767076E1,-9.400423594E0,-7.411211354E0,1.569943607E1
1.120943800E1,-1.246662630E0,-8.391630374E0,-4.430676205E0,9.571025007E0
1.121937400E1,1.326818455E0,-1.334258598E0,-3.657891812E0,4.113497992E0
1.122931000E1,1.716134697E0,-2.867171670E0,-3.019069469E0,4.503395624E0
1.123924600E1,-1.752832992E0,-5.002354386E0,-1.655374818E0,5.553038690E0
1.124918200E1,-3.550593359E0,-5.947269698E0,-3.036798227E-1,6.933177590E0
1.125911900E1,-3.567289206E0,-5.277417936E0,-2.997791451E0,7.040131102E0
1.126905500E1,-2.389608518E0,-5.101964044E0,-4.825559728E0,7.417970926E0
1.127899100E1,-1.949228248E0,-4.705589481E0,-4.330425693E0,6.685405733E0
1.128892700E1,-2.729469449E0,-3.393324015E0,-3.785614883E0,5.770228019E0
1.129886300E1,-3.016722397E0,-2.666301101E0,-4.008623010E0,5.681446472E0
1.130879900E1,-3.195348403E0,-1.336602162E0,-2.862796783E0,4.493591234E0
1.131873500E1,-2.704864658E0,6.577193749E-1,-7.217079408E-1,2.875717293E0
1.132867100E1,-2.128271161E0,1.761129899E0,1.075169496E0,2.964305332E0
1.133860700E1,-1.693359062E0,2.168753335E0,2.167318575E0,3.502602710E0
1.134854400E1,-1.115440732E0,3.120150286E0,2.298463436E0,4.032676530E0
1.135848000E1,-1.075822191E0,4.212934665E0,2.063154960E0,4.812776773E0
1.136841600E1,-1.223762010E0,4.910091755E0,1.428515714E0,5.258065390E0
1.137835200E1,-1.516830013E0,5.338917196E0,4.926806898E-1,5.572032338E0
1.138828800E1,-2.504779370E0,5.638134423E0,-9.207478926E-2,6.170166711E0
1.139822400E1,-3.112996218E0,6.419251099E0,2.084383276E-1,7.137294771E0
1.140816000E1,-3.086081484E0,7.034946535E0,5.914157501E-1,7.704813058E0
1.141809600E1,-2.981816566E0,7.195656087E0,1.279825844E0,7.893456198E0
1.142803200E1,-2.568975366E0,7.117676450E0,1.778638802E0,7.773320299E0
1.143796900E1,-2.171071756E0,7.057121515E0,1.855104156E0,7.613010448E0
1.144790500E1,-1.754995293E0,6.696274050E0,1.509634137E0,7.085131605E0
1.145784100E1,-1.335696575E0,5.904441767E0,1.024814883E0,6.139769008E0
1.146777700E1,-1.291412102E0,4.775689995E0,8.148203185E-1,5.013869992E0
1.147771300E1,-7.627661390E-1,3.619061038E0,7.153837386E-1,3.767119440E0
1.148764900E1,-2.595769063E-2,2.143177614E0,8.036644158E-1,2.289052333E0
1.149758500E1,1.830182885E-1,4.794979960E-1,1.525379812E0,1.609409082E0
1.150752100E1,2.642152101E-2,-1.164029194E0,1.873152611E0,2.205530041E0
1.151745700E1,1.967462352E-1,-2.540530416E0,2.193011679E0,3.361889960E0
1.152739300E1,1.487856182E-1,-2.860333936E0,4.065950282E0,4.973489628E0
1.153733000E1,6.266228588E-1,-3.787572531E0,6.905685647E0,7.901066772E0
1.154726600E1,7.325391769E-2,-2.608672698E0,7.549730723E0,7.988051913E0
1.155720200E1,8.895747779E-1,8.241358101E-2,6.472729733E0,6.534092552E0
1.156713800E1,1.932380520E0,1.151122050E0,5.591624501E0,6.027059068E0
1.157707400E1,2.838143460E0,-6.996070737E-1,6.145987322E0,6.805708525E0
1.158701000E1,3.634815776E0,-2.343654665E0,6.739193197E0,8.007579401E0
1.159694600E1,4.077202956E0,-2.843551843E0,6.441780421E0,8.136701175E0
1.160688200E1,4.578311968E0,-3.475990196E0,5.799890628E0,8.165915724E0
1.161681800E1,4.572316234E0,-3.582150489E0,4.778903625E0,7.521688489E0
1.162675500E1,4.575262645E0,-3.281374394E0,2.651068812E0,6.223231639E0
1.163669100E1,2.619807551E0,-4.953100365E0,4.037566727E-1,5.617794432E0
1.164662700E1,1.077478854E0,-5.222906683E0,-1.904116249E0,5.662629565E0
1.165656300E1,1.660115009E0,-4.484643667E0,-3.211152550E0,5.760165914E0
1.166649900E1,8.041621600E-1,-3.507911900E0,-3.145374297E0,4.779696868E0
1.167643500E1,-4.971644810E-1,-3.002634115E0,-4.286566313E0,5.257150835E0
1.168637100E1,-2.461253867E0,-1.983963194E0,-7.135285925E0,7.804241525E0
1.169630700E1,-5.359088920E0,-1.152146482E0,-7.942924401E0,9.650768032E0
1.170624300E1,-5.180756444E0,-1.905790014E0,-6.971489042E0,8.892352466E0
1.171618000E1,-4.127578473E0,-3.981236406E0,-5.706276705E0,8.090039629E0
1.172611600E1,-3.580978707E0,-6.410466242E0,-5.338905501E0,9.078623127E0
1.173605200E1,-1.964218901E0,-8.923955040E0,-5.620890985E0,1.072797954E1
1.174598800E1,5.066969408E-1,-9.143097573E0,-5.728638797E0,1.080140164E1
1.175592400E1,2.532085575E0,-6.118484359E0,-6.275136529E0,9.122754335E0
1.176586000E1,2.576092013E0,-2.087381728E0,-6.344140105E0,7.158318672E0
1.177579600E1,1.774055754E0,7.747256684E-1,-3.197068069E0,3.737474805E0
1.178573200E1,2.357088936E0,1.731276355E0,1.451716004E0,3.265067446E0
1.179566800E1,3.615348933E0,2.285614618E0,2.908886876E0,5.172659369E0
1.180560500E1,3.447071037E0,3.521801961E0,2.594365439E0,5.569211777E0
1.181554100E1,4.598569647E0,4.771594605E0,2.867932978E0,7.220803102E0
1.182547700E1,5.628222224E0,5.801700926E0,2.187752255E0,8.373940468E0
1.183541300E1,4.737129362E0,7.242727928E0,5.070625015E-1,8.669176132E0
1.184534900E1,2.352255627E0,8.299544329E0,-2.438872187E-1,8.629891284E0
1.185528500E1,1.367023763E0,8.608359177E0,1.953556211E-1,8.718415309E0
1.186522100E1,1.210516458E0,8.408727633E0,4.562724169E-1,8.507657434E0
1.187515700E1,3.835203364E-2,8.135343989E0,4.617852449E-1,8.148529825E0
1.188509300E1,-9.513267839E-1,7.882548975E0,9.411105287E-1,7.995329263E0
1.189502900E1,-1.976820528E0,8.051835809E0,1.649850368E0,8.453513206E0
1.190496600E1,-3.326617517E0,7.580908077E0,1.925669378E0,8.499691402E0
1.191490200E1,-3.423693284E0,6.627579206E0,2.100738523E0,7.749811880E0
1.192483800E1,-2.654408450E0,5.185648225E0,1.962412258E0,6.147185828E0
1.193477400E1,-1.246746099E0,3.670536416E0,1.957215106E0,4.342568870E0
1.194471000E1,-3.755918044E-1,2.110508051E0,1.752134542E0,2.768625813E0
1.195464600E1,-6.572613917E-2,8.042143464E-1,1.587575183E0,1.780863724E0
1.196458200E1,-6.021616168E-2,-6.604699051E-1,1.486468638E0,1.627708664E0
1.197451800E1,-3.037997637E-1,-2.323064865E0,1.142852333E0,2.606729007E0
1.198445500E1,4.537997025E-1,-3.715300945E0,8.483795357E-1,3.837856579E0
1.199439100E1,2.162714039E0,-4.666899624E0,1.910153207E0,5.486890685E0
1.200432700E1,3.800762387E0,-5.260183852E0,3.531746321E0,7.388407200E0
1.201426300E1,5.108056258E0,-4.821683024E0,4.312761254E0,8.242619460E0
1.202419900E1,4.934777530E0,-4.202651752E0,2.948850256E0,7.121097447E0
1.203413500E1,4.359576402E0,-4.908814723E0,9.471553802E-1,6.633209759E0
1.204407100E1,2.820263260E0,-5.026926726E0,1.409383625E0,5.933821649E0
1.205400700E1,7.068601061E-1,-3.943448190E0,4.177360790E0,5.787985660E0
1.206394300E1,-5.233015350E-1,-2.543928818E0,6.177341262E0,6.701116578E0
1.207387900E1,-4.965968625E-1,-1.916948841E0,1.869872907E0,2.723550255E0
1.208381600E1,-2.060235737E0,-3.197203724E0,-3.267339907E0,5.014199140E0
1.209375137E1,-6.632558110E0,-5.908055931E0,-4.994474094E0,1.019022686E1
1.210368737E1,-4.453631204E0,-9.560258403E0,-5.924177874E0,1.209666297E1
1.211362338E1,1.710685093E0,-6.601416425E0,-7.003198493E0,9.774964523E0
1.212355938E1,2.801230280E0,-2.419196014E0,-5.472950581E0,6.607010557E0
1.213349538E1,-6.385821690E-1,-4.646026819E0,-3.581490923E0,5.900883800E0
1.214343138E1,-3.453986831E0,-6.520597379E0,-1.780370747E0,7.590647878E0
1.215336738E1,-3.690181307E0,-5.942075617E0,-8.945188180E-1,7.051656871E0
1.216330337E1,-3.490598295E0,-5.330303662E0,-2.438048022E0,6.822059201E0
1.217324038E1,-2.568600852E0,-5.278706077E0,-3.851505986E0,7.021149945E0
1.218317638E1,-2.597785183E0,-4.508577490E0,-4.024564859E0,6.578212610E0
1.219311237E1,-3.435972144E0,-2.412379915E0,-3.884573160E0,5.719736888E0
1.220304837E1,-3.091784273E0,-8.093370920E-1,-2.946816595E0,4.347169719E0
1.221298438E1,-2.958479743E0,6.099289119E-1,-1.539581237E0,3.390416796E0
1.222292038E1,-2.563934482E0,2.012611628E0,-1.935336287E-1,3.265244379E0
1.223285638E1,-1.874718641E0,2.646410043E0,1.144473327E0,3.439167820E0
1.224279238E1,-1.084036798E0,3.115639744E0,1.941301178E0,3.827662088E0
1.225272838E1,-4.196476507E-1,4.015414551E0,2.062331672E0,4.533527334E0
1.226266538E1,-5.141345626E-1,4.620709544E0,1.944917243E0,5.039642261E0
1.227260138E1,-5.573853935E-1,5.263961154E0,1.406182713E0,5.476980493E0
1.228253738E1,-1.429904720E0,5.656044445E0,9.095881891E-1,5.904474316E0
1.229247337E1,-2.955196824E0,5.848825976E0,6.060358357E-1,6.580975079E0
1.230240937E1,-3.694417614E0,6.032866504E0,6.634182175E-1,7.105232121E0
1.231234538E1,-3.700048191E0,6.459232020E0,8.034027529E-1,7.487155060E0
1.232228138E1,-3.113044457E0,6.747184002E0,1.262116967E0,7.537139842E0
1.233221738E1,-2.364032066E0,6.895250705E0,1.635037471E0,7.470373313E0
1.234215338E1,-1.389182957E0,6.454272412E0,1.281633657E0,6.725328727E0
1.235208937E1,-9.508973059E-1,5.420110463E0,5.972579956E-1,5.535207334E0
1.236202638E1,-8.540780859E-1,4.261406329E0,4.473005953E-1,4.369108730E0
1.237196238E1,-4.049793986E-1,2.836053373E0,6.974959365E-1,2.948509391E0
1.238189838E1,1.347533239E-1,1.544170716E0,1.132265656E0,1.919543481E0
1.239183437E1,1.747488637E-1,6.740564954E-1,2.289623177E0,2.393170202E0
1.240177037E1,-1.902887164E-1,-7.390167224E-1,3.197166595E0,3.286978817E0
1.241170638E1,-4.999221741E-1,-3.011789685E0,4.496852361E0,5.435299481E0
1.242164238E1,1.156577794E-1,-2.867376323E0,5.947468504E0,6.603605477E0
1.243157838E1,2.591293019E-1,-1.038917490E0,7.144558439E0,7.224348610E0
1.244151438E1,8.829782416E-1,1.735533128E0,7.787394311E0,8.027156157E0
1.245145138E1,2.100210666E0,2.034302459E0,7.003221881E0,7.589096656E0
1.246138738E1,3.107768807E0,-6.124899924E-2,6.397784801E0,7.112919847E0
1.247132338E1,4.077536539E0,-1.734102899E0,6.341092536E0,7.735817452E0
1.248125937E1,4.343044569E0,-2.877485574E0,5.810502740E0,7.804095171E0
1.249119537E1,4.737484288E0,-3.412132169E0,5.200950973E0,7.818970159E0
1.250113138E1,5.289307079E0,-3.448985415E0,4.737177602E0,7.893866062E0
1.251106738E1,5.383084724E0,-3.525612592E0,3.381362951E0,7.269192575E0
1.252100338E1,3.619114832E0,-5.149841046E0,1.474501727E0,6.464751372E0
1.253093938E1,1.694398112E0,-4.563207441E0,-7.941714612E-1,4.931993047E0
1.254087638E1,2.690213875E0,-4.504672719E0,-2.582153821E0,5.847806884E0
1.255081238E1,2.033809977E0,-4.335040315E0,-2.913833913E0,5.605299781E0
1.256074838E1,-1.677157596E-1,-4.377242594E0,-4.536339777E0,6.306089111E0
1.257068438E1,-1.548310984E0,-3.387160465E0,-8.800043769E0,9.555673355E0
1.258062037E1,-4.957724928E0,-1.432487143E0,-1.066661709E1,1.184937872E1
1.259055637E1,-5.198047246E0,-2.375509127E0,-9.370960643E0,1.097623078E1
1.260049238E1,-4.405481138E0,-5.268892111E0,-7.168561260E0,9.927626033E0
1.261042838E1,-4.487420217E0,-7.030865178E0,-6.357537246E0,1.048752999E1
1.262036438E1,-2.967840258E0,-8.682744530E0,-5.890626551E0,1.090401805E1
1.263030138E1,1.592705530E-1,-9.203993400E0,-4.821614027E0,1.039167087E1
1.264023738E1,2.894757079E0,-6.032762423E0,-3.751822654E0,7.671376293E0
1.265017338E1,2.521081700E0,-1.256522205E0,-3.148285918E0,4.224500587E0
1.266010938E1,1.243436429E0,1.361106673E0,-8.917400019E-1,2.047912537E0
1.267004538E1,2.225188030E0,2.207208719E0,1.851588664E0,3.640276456E0
1.267998137E1,3.905658805E0,3.472227513E0,2.190062782E0,5.666295932E0
1.268991737E1,4.513227488E0,4.632614475E0,2.650393167E0,6.989629688E0
1.269985338E1,5.442299477E0,5.517182429E0,2.677435369E0,8.199182014E0
1.270978938E1,6.130694515E0,6.500444950E0,4.727916782E-1,8.947889793E0
1.271972538E1,5.181053483E0,6.711117207E0,-1.480601542E0,8.606659647E0
1.272966238E1,3.077152493E0,6.833806994E0,-1.186296122E0,7.587956509E0
1.273959838E1,9.056591526E-1,6.973074807E0,-4.854592323E-1,7.048380057E0
1.274953438E1,5.068225463E-1,7.142300245E0,-1.108701523E-1,7.161118214E0
1.275947038E1,2.500263566E-1,6.966822964E0,-4.826876521E-2,6.971475114E0
1.276940638E1,-5.286494715E-1,6.856581314E0,1.202599255E0,6.981290894E0
1.277934237E1,-1.690283280E0,6.440232078E0,1.782741208E0,6.892881328E0
1.278927837E1,-2.551317652E0,6.258325199E0,1.913582014E0,7.024076607E0
1.279921438E1,-2.438494164E0,6.501190470E0,2.038346393E0,7.236476169E0
1.280915038E1,-1.962408603E0,5.507560251E0,1.940331856E0,6.160288561E0
1.281908737E1,-1.125174592E0,3.559933408E0,1.696505302E0,4.100886974E0
1.282902338E1,-5.334517897E-1,1.333282698E0,1.251062075E0,1.904565536E0
1.283895938E1,4.343911126E-2,-8.266214615E-1,7.695778529E-1,1.130238943E0
1.284889538E1,2.830873179E-1,-2.933867351E0,6.509237409E-1,3.018512511E0
1.285883138E1,4.077511981E-1,-4.257443086E0,1.132717938E0,4.424379346E0
1.286876738E1,7.613542557E-1,-4.556193706E0,1.842605002E0,4.973304191E0
1.287870337E1,1.897281438E0,-4.229843643E0,2.433003044E0,5.235528428E0
1.288863937E1,3.731093690E0,-3.064350307E0,3.346120613E0,5.874336225E0
1.289857538E1,4.905429186E0,-1.722953428E0,4.458684368E0,6.849209466E0
1.290851237E1,4.795999714E0,-1.907185745E0,4.209781262E0,6.660422584E0
1.291844837E1,3.984979501E0,-3.218591085E0,3.429614174E0,6.164547314E0
1.292838438E1,2.025374053E0,-4.085186452E0,3.853184137E0,5.969750112E0
1.293832038E1,2.587853394E-1,-3.407870134E0,6.138121648E0,7.025459847E0
1.294825638E1,3.788533813E-1,-1.386477157E0,6.214583348E0,6.378627986E0
1.295819238E1,1.028762923E0,-3.302273512E-2,2.427265756E0,2.636486811E0
1.296812837E1,1.602878223E-1,-6.220484358E-1,-6.143234453E0,6.176727774E0
1.297806437E1,-4.474615107E0,-3.555938006E0,-1.619209438E1,1.717121999E1
1.298800038E1,-8.267491647E0,-1.284380913E1,-7.284634337E0,1.692278785E1
1.299793737E1,-5.845619363E0,-1.261896381E1,-2.265888451E0,1.409055584E1
1.300787337E1,-8.346603598E-1,-4.834320027E-1,-6.083257223E0,6.159251810E0
1.301780938E1,2.341093439E0,-4.437896347E-1,-1.854415208E0,3.019358126E0
1.302774538E1,-1.853259944E0,-3.825061369E0,-3.254349001E-1,4.262813012E0
1.303768138E1,-3.840938314E0,-6.662552572E0,9.132136090E-1,7.744441426E0
1.304761738E1,-3.723971196E0,-7.077214887E0,-2.310510893E0,8.324265290E0
1.305755338E1,-2.859939834E0,-6.825909160E0,-4.510771365E0,8.667141975E0
1.306748937E1,-2.136837040E0,-4.939382797E0,-3.899011105E0,6.645740181E0
1.307742537E1,-2.392900793E0,-3.228771672E0,-4.661668121E0,6.154842840E0
1.308736238E1,-2.271721195E0,-1.246733381E0,-3.928747705E0,4.706391382E0
1.309729896E1,-1.959825157E0,3.392566216E-1,-2.239476578E0,2.995207012E0
1.310723496E1,-1.516357120E0,1.022255849E0,-5.516367035E-1,1.910143708E0
1.311717096E1,-1.654772701E0,1.369625482E0,5.432251914E-1,2.215680541E0
1.312710696E1,-1.936185888E0,2.526891786E0,1.249690318E0,3.419901136E0
1.313704296E1,-1.583859716E0,4.074980137E0,1.860373667E0,4.751322436E0
1.314697896E1,-1.673253264E0,5.370837731E0,1.642961471E0,5.860460461E0
1.315691496E1,-2.595602417E0,6.306826099E0,8.365614358E-1,6.871174745E0
1.316685096E1,-3.351117643E0,6.996418646E0,2.112354894E-1,7.760443529E0
1.317678796E1,-3.872965268E0,7.375108305E0,1.427341886E-1,8.331413777E0
1.318672396E1,-3.700743132E0,7.701753652E0,3.296028686E-1,8.551090404E0
1.319665996E1,-3.242677521E0,7.599112798E0,7.245667908E-1,8.293760899E0
1.320659596E1,-2.511258670E0,7.030795012E0,1.101935564E0,7.546705280E0
1.321653196E1,-1.428170729E0,6.459430241E0,1.049793018E0,6.698206928E0
1.322646796E1,-4.154826059E-1,5.604882478E0,1.062010776E0,5.719720296E0
1.323640396E1,4.030376114E-2,4.471112040E0,1.507175675E0,4.718479181E0
1.324633996E1,-1.137371884E-1,3.572993165E0,1.802582126E0,4.003563241E0
1.325627596E1,1.054035173E-1,2.391635748E0,1.670310215E0,2.919069657E0
1.326621196E1,2.802725413E-1,7.799437237E-1,1.823538401E0,2.003036997E0
1.327614896E1,5.832648776E-1,-3.988754171E-1,2.001288202E0,2.122369898E0
1.328608496E1,1.925207302E0,-1.985360094E0,2.435002500E0,3.684740836E0
1.329602096E1,2.733730023E0,-3.612812119E0,3.564439273E0,5.764626490E0
1.330595696E1,2.279382217E0,-2.561913099E0,5.995737269E0,6.907086753E0
1.331589296E1,2.061141471E0,-5.885737109E-1,8.435472212E0,8.703557584E0
1.332582896E1,2.893301123E0,1.918010695E0,7.912618282E0,8.640572000E0
1.333576496E1,3.584361906E0,1.789929775E0,6.579787574E0,7.703577311E0
1.334570096E1,3.206594645E0,-4.294119161E-1,5.769036040E0,6.614258889E0
1.335563696E1,2.872606657E0,-1.472182721E0,5.062322845E0,6.003857390E0
1.336557396E1,3.008754396E0,-1.825379105E0,4.452979532E0,5.675706000E0
1.337550996E1,2.866854751E0,-2.458495150E0,4.657855736E0,5.996555230E0
1.338544596E1,2.877384125E0,-3.279789214E0,4.847173376E0,6.521613790E0
1.339538196E1,2.576759180E0,-3.115166119E0,3.659788649E0,5.453255979E0
1.340531796E1,2.528036671E0,-3.228174087E0,6.977476591E-1,4.159198137E0
1.341525396E1,2.123360231E0,-4.145002883E0,-1.859765410E0,5.014821528E0
1.342518996E1,8.143038632E-1,-3.958648612E0,-3.911955087E0,5.624711745E0
1.343512596E1,1.048264264E0,-4.325875974E0,-5.580849252E0,7.138482982E0
1.344506196E1,6.562127667E-1,-4.505265627E0,-6.355104804E0,7.817633314E0
1.345499896E1,-9.519369408E-1,-3.937543087E0,-7.552756072E0,8.570563213E0
1.346493496E1,-4.422692709E0,-2.939872441E0,-7.498851761E0,9.188897567E0
1.347487096E1,-4.303142585E0,-3.198250961E0,-5.254913757E0,7.507327348E0
1.348480696E1,-3.704741751E0,-4.858587141E0,-3.147166469E0,6.872818725E0
1.349474296E1,-3.782738930E0,-6.612850655E0,-3.479023147E0,8.375112515E0
1.350467896E1,-2.464837040E0,-7.805621837E0,-4.611717696E0,9.395269767E0
1.351461496E1,-9.742168790E-1,-7.992483062E0,-5.264687963E0,9.620073979E0
1.352455096E1,7.877874711E-1,-6.874641609E0,-6.183728176E0,9.280075458E0
1.353448696E1,2.286687582E0,-4.356735824E0,-5.558777182E0,7.423617104E0
1.354442396E1,1.181036990E0,-1.037534038E0,-2.462096450E0,2.921171714E0
1.355435996E1,1.854005611E0,1.447424440E0,6.383488651E-1,2.437183536E0
1.356429596E1,3.041711350E0,2.562307202E0,5.522018369E-1,4.015264997E0
1.357423196E1,3.781701049E0,2.490011643E0,3.289317544E-1,4.539781592E0
1.358416796E1,5.705237655E0,3.280466321E0,1.119881254E0,6.675726927E0
1.359410396E1,6.014647164E0,4.718291388E0,1.628800392E0,7.816088846E0
1.360403996E1,4.795294832E0,6.032931992E0,7.673618312E-1,7.744673339E0
1.361397596E1,3.054795664E0,7.687374179E0,4.612190151E-1,8.284939427E0
1.362391196E1,1.360935935E0,8.317904586E0,7.892991225E-1,8.465381056E0
1.363384896E1,1.521116315E0,8.078217276E0,3.059483962E-1,8.225873426E0
1.364378496E1,1.808036555E0,8.470358455E0,-6.762889624E-2,8.661439962E0
1.365372096E1,2.276971556E-1,8.453022630E0,6.922891371E-1,8.484379873E0
1.366365696E1,-2.248880509E0,8.206011683E0,1.504146964E0,8.640517888E0
1.367359296E1,-3.211671490E0,7.962991460E0,1.943718563E0,8.803528191E0
1.368352896E1,-3.309242224E0,7.719247352E0,2.005763369E0,8.634868295E0
1.369346496E1,-3.403685866E0,6.762312503E0,1.870706720E0,7.798300552E0
1.370340096E1,-2.706356283E0,5.231846491E0,1.911165944E0,6.192668028E0
1.371333696E1,-2.058107351E0,3.721061622E0,1.946065636E0,4.676459870E0
1.372327296E1,-1.640031870E0,1.840636244E0,1.516669653E0,2.894465954E0
1.373320996E1,-1.182435936E0,-8.986234903E-2,1.255514145E0,1.727004850E0
1.374314596E1,-8.199278614E-1,-2.226590484E0,1.413180807E0,2.761714481E0
1.375308196E1,-6.828311196E-1,-3.978479444E0,1.540061878E0,4.320456875E0
1.376301796E1,9.324671745E-1,-4.890067381E0,1.754792687E0,5.278404247E0
1.377295396E1,3.666132878E0,-4.417934538E0,2.962980638E0,6.460489928E0
1.378288996E1,5.977546581E0,-3.370905790E0,3.611478953E0,7.754795239E0
1.379282596E1,5.956412989E0,-3.200966408E0,3.075967555E0,7.428769618E0
1.380276196E1,4.650237106E0,-3.844177086E0,2.193214577E0,6.419703482E0
1.381269796E1,3.707274472E0,-4.219398762E0,1.953007450E0,5.946549254E0
1.382263496E1,2.512260298E0,-3.993971642E0,3.138540949E0,5.666895143E0
1.383257096E1,1.220219036E0,-3.821082923E0,5.713786869E0,6.981186832E0
1.384250696E1,4.648903356E-1,-2.830166981E0,6.840986205E0,7.417887868E0
1.385244296E1,4.738487086E-1,-1.545977506E0,1.755164570E0,2.386457985E0
1.386237896E1,-8.365748844E-1,-2.689329191E0,-5.259986801E0,5.966557649E0
1.387231496E1,-7.248526611E0,-4.643089178E0,-7.749886762E0,1.158275269E1
1.388225096E1,-8.881484374E0,-1.136999036E1,-5.559703381E0,1.546181578E1
1.389218696E1,-2.465234066E0,-9.159797806E0,-5.433819845E0,1.093186503E1
1.390212296E1,5.961460014E-1,-1.414103497E0,-4.456872901E0,4.713681662E0
1.391205996E1,3.003065640E-1,-1.069483809E0,-2.588206859E0,2.816521684E0
1.392199596E1,-3.010582235E0,-3.674976207E0,-9.348059877E-1,4.841788694E0
1.393193196E1,-4.514679352E0,-5.330427039E0,2.282530797E-1,6.989125949E0
1.394186796E1,-3.951667036E0,-5.650274997E0,-2.318362534E0,7.274344283E0
1.395180396E1,-1.783202553E0,-6.170947332E0,-4.434749376E0,7.805600832E0
1.396173996E1,-1.125145209E0,-5.400597720E0,-3.838877170E0,6.720817316E0
1.397167596E1,-2.098062837E0,-3.310771855E0,-3.867196405E0,5.506204317E0
1.398161196E1,-2.648099011E0,-1.698014469E0,-3.540733491E0,4.736293399E0
1.399154796E1,-2.914607500E0,-4.453099108E-1,-1.913241706E0,3.514787564E0
1.400148496E1,-2.546917038E0,6.839207482E-1,-2.718499196E-1,2.651119832E0
1.401142096E1,-1.820461450E0,1.560024857E0,1.488717624E0,2.822062651E0
1.402135696E1,-1.237208559E0,2.543357545E0,2.475126386E0,3.758404348E0
1.403129296E1,-2.115275578E-1,3.524140263E0,2.398619223E0,4.268217740E0
1.404122896E1,-3.448585466E-2,4.519517630E0,1.937697247E0,4.917509482E0
1.405116496E1,-2.766088222E-1,5.366509622E0,9.698202114E-1,5.460447711E0
1.406110096E1,-1.259335300E0,5.628542651E0,3.310635030E-1,5.777198353E0
1.407103696E1,-2.323442303E0,5.800559549E0,1.960454464E-2,6.248620612E0
1.408097296E1,-2.808645135E0,6.138784722E0,2.130889106E-1,6.754152222E0
1.409091000E1,-3.120000013E0,6.541934454E0,9.360972722E-1,7.308049301E0
1.410084600E1,-3.239705966E0,6.795936917E0,1.671533891E0,7.711969844E0
1.411078200E1,-3.057556719E0,6.775219647E0,2.255092152E0,7.767734224E0
1.412071800E1,-2.387058986E0,6.584743674E0,2.062246010E0,7.301353194E0
1.413065400E1,-1.561126765E0,5.884172979E0,1.520467858E0,6.274745487E0
1.414059000E1,-1.218265919E0,5.107015454E0,1.390058577E0,5.431209952E0
1.415052600E1,-9.629525835E-1,3.747511502E0,1.362155810E0,4.102022499E0
1.416046200E1,-4.379452696E-1,1.863390099E0,1.033293638E0,2.175250437E0
1.417039800E1,-2.298847452E-2,4.635707653E-1,1.112782149E0,1.205699148E0
1.418033500E1,-9.403229088E-2,-7.824358070E-1,1.380604799E0,1.589691000E0
1.419027100E1,-5.732538597E-1,-2.034117687E0,1.487286371E0,2.584235961E0
1.420020700E1,-4.410588388E-1,-2.390404909E0,2.088990005E0,3.205065954E0
1.421014300E1,-8.695330077E-1,-1.762638481E0,5.016181297E0,5.387490777E0
1.422007900E1,-7.467164822E-1,-1.707167700E0,9.467392924E0,9.649017351E0
1.423001500E1,7.863234745E-1,6.063884228E-1,9.159183848E0,9.212852994E0
1.423995100E1,2.034035241E0,2.456342790E0,7.382096897E0,8.041534298E0
1.424988700E1,3.643066197E0,1.376713477E0,6.399941254E0,7.491763435E0
1.425982300E1,4.405727013E0,-8.495402080E-1,5.963037300E0,7.462570798E0
1.426976000E1,4.386245552E0,-2.329293904E0,5.756152285E0,7.602502829E0
1.427969600E1,4.793600017E0,-3.304155146E0,5.224798257E0,7.822695135E0
1.428963200E1,4.429952905E0,-3.174673233E0,4.215451599E0,6.890070033E0
1.429956800E1,3.962933159E0,-2.283385659E0,2.377621726E0,5.154781699E0
1.430950400E1,3.696627277E0,-3.530316676E0,2.834353003E-1,5.119426201E0
1.431944000E1,1.885308095E0,-5.064092213E0,-1.424830799E0,5.588341378E0
1.432937600E1,1.608484241E0,-4.886835040E0,-2.998482592E0,5.954769191E0
1.433931200E1,1.522640099E0,-4.675008543E0,-4.170082176E0,6.446993338E0
1.434924800E1,4.054701993E-1,-5.080607089E0,-6.791919880E0,8.491592909E0
1.435918500E1,-3.136735036E0,-3.824467877E0,-9.464767524E0,1.067930173E1
1.436912100E1,-5.942407739E0,-2.760004486E0,-9.445110354E0,1.149521397E1
1.437905700E1,-4.304102990E0,-4.091765154E0,-7.423015128E0,9.506261000E0
1.438899300E1,-4.435120966E0,-5.934257305E0,-5.953539083E0,9.504227236E0
1.439892900E1,-3.289394727E0,-8.340439171E0,-5.810186405E0,1.068369362E1
1.440886500E1,-1.490666062E0,-1.027554362E1,-5.483191395E0,1.174198747E1
1.441880100E1,1.111922024E0,-1.029568727E1,-4.989057233E0,1.149470483E1
1.442873700E1,2.652297020E0,-6.279664028E0,-5.372487230E0,8.679428485E0
1.443867300E1,1.910714832E0,-1.750635316E0,-5.805278252E0,6.357421707E0
1.444860900E1,1.070381649E0,7.102893519E-1,-2.927810805E0,3.197233796E0
1.445854600E1,2.450989957E0,1.035914944E0,1.341511631E0,2.979953858E0
1.446848200E1,3.231146227E0,2.029691344E0,1.626730478E0,4.148036275E0
1.447841800E1,3.383754754E0,3.696148975E0,1.649132330E0,5.275504803E0
1.448835400E1,5.274801307E0,4.925715516E0,2.049712065E0,7.502501031E0
1.449829000E1,6.474889694E0,6.209123218E0,1.189793780E0,9.049476058E0
1.450822600E1,4.694646125E0,7.812406361E0,7.202682102E-1,9.142876007E0
1.451816200E1,1.816921400E0,9.182576804E0,4.619746216E-1,9.371997689E0
1.452809800E1,-1.961528890E-1,9.472396386E0,4.557411973E-1,9.485381874E0
1.453803400E1,-5.195251838E-1,9.195990316E0,6.770258577E-1,9.235502603E0
1.454797100E1,-1.114115314E-1,9.126428915E0,1.249645733E0,9.212259860E0
1.455790700E1,-8.372002441E-1,9.722132721E0,1.879006258E0,9.937375580E0
1.456784300E1,-1.762610560E0,9.454629622E0,1.980882150E0,9.819404837E0
1.457777900E1,-2.495133219E0,8.822305289E0,1.882244592E0,9.359572912E0
1.458771500E1,-3.016759819E0,7.950158576E0,2.018072927E0,8.739478218E0
1.459765100E1,-2.737033115E0,6.543471687E0,2.089121275E0,7.394105740E0
1.460758700E1,-1.693023285E0,4.728072610E0,2.077222191E0,5.434689548E0
1.461752300E1,-1.423264038E0,3.052847080E0,2.112297299E0,3.975846538E0
1.462746000E1,-1.085794618E0,1.306708272E0,2.091441450E0,2.694543338E0
1.463739600E1,-2.723002283E-1,-8.169729710E-1,2.270324149E0,2.428160619E0
1.464733200E1,2.466852576E-1,-3.159444745E0,2.538159370E0,4.060196756E0
1.465726800E1,5.316248272E-1,-4.740177516E0,2.604534624E0,5.434658080E0
1.466720400E1,1.772279370E0,-5.243324575E0,2.680487616E0,6.149669961E0
1.467714000E1,4.027846901E0,-5.775038792E0,2.660139306E0,7.526683521E0
1.468707600E1,4.944827725E0,-5.352786791E0,2.193303455E0,7.610139795E0
1.469701200E1,4.530462449E0,-4.101539944E0,1.282290884E0,6.244356638E0
1.470694800E1,3.829015549E0,-3.398466057E0,7.405931318E-1,5.172949816E0
1.471688400E1,3.180055887E0,-3.939618849E0,1.037106607E0,5.168069488E0
1.472682100E1,2.062660285E0,-4.072419641E0,2.988150562E0,5.456025382E0
1.473675700E1,9.807746775E-1,-3.047331986E0,5.885477493E0,6.699775856E0
1.474669300E1,8.492610034E-1,-1.611210798E0,6.026087826E0,6.295314049E0
1.475662900E1,1.280319934E0,-1.507044990E0,-1.677211683E-2,1.977545205E0
1.476656500E1,-1.704953359E0,-3.099787942E0,-5.717781687E0,6.723732495E0
1.477650100E1,-6.755140309E0,-7.105115461E0,-6.890521477E0,1.198306607E1
1.478643700E1,-3.191024095E0,-1.091160607E1,-5.000785578E0,1.241988882E1
1.479637300E1,1.443939938E0,-4.468060963E0,-4.355953467E0,6.404909205E0
1.480630900E1,1.651363920E0,-6.608107978E-1,-3.595497344E0,4.011393131E0
1.481624600E1,-7.513408989E-1,-4.706454284E0,-3.038447142E0,5.652201881E0
1.482618200E1,-3.663016897E0,-7.835506956E0,-2.370484614E0,8.968392239E0
1.483611800E1,-3.761379051E0,-7.569379706E0,-2.203275297E0,8.734867116E0
1.484605400E1,-2.773204576E0,-6.772039347E0,-3.904589349E0,8.294395609E0
1.485599000E1,-2.240374126E0,-5.787426703E0,-3.963875438E0,7.363823229E0
1.486592600E1,-2.500260057E0,-4.334097744E0,-3.175959913E0,5.926417550E0
1.487586200E1,-3.477369554E0,-2.097952325E0,-2.843606222E0,4.957781693E0
1.488579800E1,-3.952803150E0,-1.623309857E-1,-2.280769615E0,4.566499111E0
1.489573500E1,-3.839666544E0,1.017145967E0,-1.036845821E0,4.105200890E0
1.490567100E1,-3.411171764E0,1.359506875E0,-1.115881173E-1,3.673799621E0
1.491560700E1,-3.037800147E0,1.578092169E0,8.382135665E-1,3.524373222E0
1.492554300E1,-2.364045807E0,2.627008982E0,1.556085734E0,3.861514156E0
1.493547900E1,-1.448599585E0,3.617008665E0,1.937809513E0,4.351585705E0
1.494541500E1,-1.005744773E0,4.407514215E0,1.764971520E0,4.853125649E0
1.495535100E1,-1.572046148E0,4.946402380E0,1.111747484E0,5.307938212E0
1.496528700E1,-2.733639099E0,5.603945754E0,6.138800217E-1,6.265288454E0
1.497522300E1,-3.297985749E0,6.220593116E0,5.087928388E-1,7.059133011E0
1.498516000E1,-3.121113907E0,6.437531249E0,7.326493970E-1,7.191657371E0
1.499509600E1,-2.816288615E0,6.546120476E0,1.009750993E0,7.197414252E0
1.500503200E1,-2.470005979E0,6.478104494E0,1.377280072E0,7.068498268E0
1.501496800E1,-2.470634847E0,6.426571813E0,1.946528735E0,7.154986787E0
1.502490400E1,-2.183657011E0,6.271910035E0,1.888656503E0,6.904508441E0
1.503484000E1,-1.610263257E0,5.868805327E0,1.715400141E0,6.322849149E0
1.504477600E1,-1.177454839E0,5.038172091E0,1.739199624E0,5.458424063E0
1.505471200E1,-5.397805966E-1,3.805960854E0,1.677145464E0,4.193985935E0
1.506464800E1,-5.982344806E-2,2.397405780E0,1.485494492E0,2.820962106E0
1.507458500E1,-1.324467435E-2,7.588574946E-1,1.502686183E0,1.683480289E0
1.508452100E1,8.919752061E-2,-5.676564664E-1,1.750331261E0,1.842240371E0
1.509445671E1,7.422791764E-2,-2.198001108E0,2.038313356E0,2.998572993E0
1.510439271E1,-3.165713252E-1,-3.648107082E0,2.614461734E0,4.499368049E0
1.511432871E1,-6.935869266E-1,-2.484940937E0,4.058896493E0,4.809431882E0
1.512426471E1,-7.570286317E-1,-5.330894816E-1,7.571636732E0,7.628037725E0
1.513420071E1,1.591866747E0,2.704686903E0,9.427243602E0,9.935909265E0
1.514413671E1,2.354925466E0,3.432375814E0,9.342577674E0,1.022793407E1
1.515407271E1,3.464898612E0,1.266890488E0,8.013807857E0,8.822224792E0
1.516400971E1,4.360623638E0,3.707701904E-1,6.581408422E0,7.903634978E0
1.517394571E1,4.242618640E0,-9.183461487E-1,5.334618323E0,6.877595890E0
1.518388171E1,4.141587524E0,-2.839037207E0,4.844020265E0,6.976919938E0
1.519381771E1,3.736861968E0,-4.146824875E0,4.712037498E0,7.305038761E0
1.520375371E1,1.908513501E0,-3.623912473E0,4.234992994E0,5.891547424E0
1.521368971E1,2.132196689E0,-4.101147012E0,2.211284520E0,5.124007100E0
1.522362571E1,2.309091335E0,-4.859329737E0,-2.372241703E-1,5.385282128E0
1.523356171E1,2.129521442E0,-4.946881852E0,-2.451670865E0,5.917532565E0
1.524349771E1,2.370002950E0,-5.514452949E0,-3.439124378E0,6.917635564E0
1.525343471E1,2.032895034E0,-6.578434528E0,-4.219357539E0,8.075360122E0
1.526337071E1,-7.376642615E-2,-6.540169179E0,-9.314729140E0,1.138171487E1
1.527330671E1,-4.108733481E0,-4.039126765E0,-1.343306346E1,1.461654643E1
1.528324271E1,-6.303162818E0,-2.853070525E0,-1.266228115E1,1.442924935E1
1.529317871E1,-4.790239037E0,-5.357291486E0,-8.684902153E0,1.127273203E1
1.530311471E1,-5.187521088E0,-7.263723525E0,-6.581774458E0,1.109016724E1
1.531305071E1,-3.994547885E0,-8.976222131E0,-6.407392945E0,1.172960617E1
1.532298671E1,-1.330008549E0,-1.012039360E1,-5.411467109E0,1.155314959E1
1.533292271E1,9.837753224E-1,-8.305342428E0,-4.202737706E0,9.359996312E0
1.534285971E1,2.647832963E0,-4.352517058E0,-4.248543624E0,6.633667693E0
1.535279571E1,9.606449068E-1,2.000525433E-1,-1.397564209E0,1.707643223E0
1.536273171E1,1.530454026E0,1.491826442E0,1.622414356E0,2.683293498E0
1.537266771E1,3.372173467E0,2.130345315E0,1.247266062E0,4.179186246E0
1.538260371E1,4.947075979E0,3.580388138E0,1.463083138E0,6.279598095E0
1.539253971E1,6.646485593E0,4.948605611E0,1.219110696E0,8.375601418E0
1.540247571E1,7.387389797E0,6.613383921E0,1.085814060E0,9.974435677E0
1.541241171E1,6.369311784E0,8.313871177E0,5.296890333E-2,1.047336585E1
1.542234771E1,3.587626699E0,8.901869522E0,-6.320347492E-1,9.618410172E0
1.543228471E1,8.656832010E-1,9.400477388E0,-5.521759629E-2,9.440414795E0
1.544222071E1,-1.403874086E-1,9.464379854E0,4.690134998E-1,9.477033729E0
1.545215671E1,-1.853436530E-1,9.907108219E0,1.606365795E0,1.003820485E1
1.546209271E1,-1.340953075E0,9.742899107E0,2.274991397E0,1.009444521E1
1.547202871E1,-2.395425767E0,8.689154833E0,2.031811691E0,9.239466168E0
1.548196471E1,-2.541215125E0,7.931044028E0,2.232161711E0,8.622167917E0
1.549190071E1,-2.399089632E0,7.579807631E0,2.508710454E0,8.336830508E0
1.550183671E1,-2.295425807E0,6.414463983E0,2.452830952E0,7.240905158E0
1.551177271E1,-1.155478956E0,4.419044924E0,2.071588984E0,5.015433239E0
1.552170971E1,-3.564097211E-2,2.491330190E0,2.070218396E0,3.239413620E0
1.553164571E1,6.818382624E-1,9.937471640E-1,2.082403994E0,2.406001503E0
1.554158171E1,1.534121984E0,-1.188587499E0,1.850074235E0,2.681239486E0
1.555151771E1,2.026560453E0,-3.745404750E0,1.861034256E0,4.647413529E0
1.556145371E1,2.419916245E0,-5.612028944E0,1.936658635E0,6.411045950E0
1.557138971E1,4.006960647E0,-6.441963438E0,1.877601757E0,7.815370428E0
1.558132571E1,6.330748227E0,-5.356296290E0,2.496117890E0,8.660189812E0
1.559126171E1,6.456127734E0,-4.083166823E0,3.477616307E0,8.393309943E0
1.560119771E1,5.040405727E0,-4.488921490E0,3.875768423E0,7.783166894E0
1.561113471E1,2.942521230E0,-5.392976459E0,2.517640321E0,6.639362850E0
1.562107071E1,1.408577586E0,-5.644271661E0,1.770506494E0,6.080837660E0
1.563100671E1,1.794457859E-1,-5.077099344E0,4.092469743E0,6.523606912E0
1.564094271E1,-5.876016113E-1,-3.172867613E0,7.338367910E0,8.016483526E0
1.565087871E1,-1.031127244E0,-5.794526392E-1,6.092197616E0,6.205953637E0
1.566081471E1,-5.669314116E-1,5.294419885E-1,-7.069301996E-3,7.757383706E-1
1.567075071E1,-2.507189593E0,-5.206711650E-1,-5.062796470E0,5.673535601E0
1.568068671E1,-8.189276952E0,-3.100773198E0,-1.001538345E1,1.330364450E1
1.569062271E1,-7.847553974E0,-1.120116019E1,-9.301810302E0,1.654006554E1
1.570055971E1,-2.434262242E0,-1.098157503E1,-5.543187336E0,1.253983846E1
1.571049571E1,1.532243858E0,-2.557100841E0,-3.495691220E0,4.594169463E0
1.572043171E1,1.331643723E0,-1.435587337E0,-1.503424394E0,2.468698223E0
1.573036771E1,-2.144777120E0,-5.100040895E0,-1.246265019E0,5.671301660E0
1.574030371E1,-3.120682090E0,-7.286100819E0,-6.344042603E-1,7.951628174E0
1.575023971E1,-2.345777497E0,-7.020609162E0,-3.373408399E0,8.134587223E0
1.576017571E1,-1.218268112E0,-6.299259802E0,-5.084593720E0,8.186448836E0
1.577011171E1,-2.017751622E0,-4.559844123E0,-4.160551214E0,6.494127073E0
1.578004771E1,-3.136485068E0,-2.484254474E0,-4.309697313E0,5.880692970E0
1.578998471E1,-3.470342370E0,-1.272239521E0,-3.642649291E0,5.189485853E0
1.579992071E1,-3.384897300E0,-7.548755407E-3,-2.410004922E0,4.155202816E0
1.580985671E1,-3.378293747E0,9.861375976E-1,-6.530885263E-1,3.579365953E0
1.581979271E1,-3.129022266E0,1.398423604E0,5.588137952E-1,3.472555511E0
1.582972871E1,-2.131931664E0,2.563414664E0,1.446547358E0,3.634381188E0
1.583966471E1,-1.657828894E0,3.995771999E0,2.073748945E0,4.797397753E0
1.584960071E1,-1.557422115E0,4.964392508E0,1.768216871E0,5.495211326E0
1.585953671E1,-2.291401461E0,5.561225411E0,9.621840401E-1,6.091268083E0
1.586947271E1,-3.238539738E0,6.387740453E0,4.894973195E-1,7.178507879E0
1.587940971E1,-3.717494820E0,7.018157424E0,3.729693282E-1,7.950685976E0
1.588934571E1,-3.503609227E0,6.815442644E0,4.053924313E-1,7.673974138E0
1.589928171E1,-2.917468250E0,6.253136964E0,5.078495367E-1,6.918905552E0
1.590921771E1,-2.564330923E0,5.951092608E0,7.402575016E-1,6.522214155E0
1.591915371E1,-1.814501237E0,5.696863273E0,9.366970503E-1,6.051782155E0
1.592908971E1,-2.077640852E0,5.010929328E0,1.255523500E0,5.567974811E0
1.593902571E1,-1.977567510E0,4.425166959E0,1.539590592E0,5.085588959E0
1.594896171E1,-1.104842946E0,3.758582035E0,1.729478628E0,4.282372377E0
1.595889871E1,-5.320311356E-1,2.413000889E0,1.572232089E0,2.928744468E0
1.596883471E1,3.857759730E-1,8.684448409E-1,1.533702885E0,1.804235041E0
1.597877071E1,1.116669963E0,-6.033566415E-2,1.976998576E0,2.271368655E0
1.598870671E1,1.246561912E0,-5.554305232E-1,2.445315818E0,2.800355177E0
1.599864271E1,1.907455447E0,-6.564376652E-1,2.928940195E0,3.556400899E0
1.600857871E1,2.332657953E0,-9.951212597E-1,4.090984258E0,4.813284913E0
1.601851471E1,2.165491612E0,1.273907146E0,6.118718247E0,6.614446790E0
1.602845071E1,7.901719657E-1,2.849248200E0,8.092960446E0,8.616182207E0
1.603838671E1,1.115203189E0,2.901264446E0,8.145115271E0,8.718022500E0
1.604832371E1,2.069595229E0,1.684222641E0,6.794897282E0,7.300031465E0
1.605825971E1,2.685639305E0,-8.517937249E-1,6.494537508E0,7.079352264E0
1.606819571E1,2.504762414E0,-2.719998422E0,5.834243020E0,6.907287295E0
1.607813171E1,2.985334543E0,-4.085797486E0,4.659996109E0,6.879064411E0
1.608806771E1,3.772347843E0,-5.064672257E0,3.860466260E0,7.401669613E0
1.609800408E1,4.014222888E0,-4.748941907E0,3.597573397E0,7.183938264E0
1.610794008E1,3.261573675E0,-3.131214387E0,3.174083834E0,5.524235201E0
1.611787608E1,2.806501838E0,-2.257264978E0,1.657478061E0,3.964710742E0
1.612781208E1,1.392861440E0,-4.044281670E0,-4.532247019E-1,4.301359070E0
1.613774908E1,1.247853123E0,-4.440883690E0,-2.715411866E0,5.352760686E0
1.614768508E1,1.735632238E0,-4.691179603E0,-3.768360919E0,6.262597652E0
1.615762108E1,9.387874299E-1,-4.340198144E0,-3.217063792E0,5.483442460E0
1.616755708E1,-9.862323225E-1,-3.246364775E0,-5.202946043E0,6.211456027E0
1.617749308E1,-2.199258260E0,-3.493010856E0,-9.432950485E0,1.029652449E1
1.618742908E1,-4.610215546E0,-4.779453263E0,-1.140107883E1,1.319400847E1
1.619736508E1,-4.776683145E0,-6.041070732E0,-1.045276103E1,1.298350687E1
1.620730108E1,-3.549734403E0,-7.276310241E0,-7.965774150E0,1.135776663E1
1.621723708E1,-3.216022111E0,-7.361511190E0,-6.890854769E0,1.058388042E1
1.622717408E1,-1.433472399E0,-7.639323515E0,-6.281377262E0,9.993488240E0
1.623711008E1,9.753509465E-1,-6.755371274E0,-4.696135118E0,8.284928217E0
1.624704608E1,2.126831723E0,-3.683540624E0,-3.302142242E0,5.384796012E0
1.625698208E1,2.161646337E0,-2.956632900E-1,-1.345233676E0,2.563159244E0
1.626691808E1,2.114480649E0,1.251269066E0,2.423326925E0,3.450973208E0
1.627685408E1,3.270291581E0,2.865492350E0,2.353768156E0,4.944297520E0
1.628679008E1,4.901016292E0,4.063023750E0,2.262363750E0,6.756212876E0
1.629672608E1,6.256045954E0,4.707617880E0,1.836792870E0,8.041988879E0
1.630666208E1,7.098809824E0,6.347073069E0,7.398948281E-1,9.551224100E0
1.631659908E1,6.169249885E0,7.726440012E0,-2.193068397E-1,9.889672133E0
1.632653508E1,4.067228191E0,8.177679584E0,-1.037571972E0,9.192026117E0
1.633647108E1,9.966687253E-1,8.303263743E0,-3.402705288E-1,8.369786220E0
1.634640708E1,-1.988655585E-1,8.418810571E0,-1.126431012E-1,8.421912337E0
1.635634308E1,-6.693961184E-1,8.699309108E0,9.497771256E-1,8.776568048E0
1.636627908E1,-1.814133739E0,8.971644931E0,1.968163433E0,9.362433513E0
1.637621508E1,-2.978938859E0,9.077972454E0,2.224042268E0,9.809690342E0
1.638615108E1,-3.590091300E0,8.881774396E0,2.635928324E0,9.935934284E0
1.639608808E1,-3.627089557E0,8.319058827E0,2.681190451E0,9.463154900E0
1.640602408E1,-3.501256015E0,7.488692808E0,2.315361743E0,8.584882856E0
1.641596008E1,-3.220203162E0,5.985777707E0,1.856383381E0,7.045949362E0
1.642589608E1,-2.983939982E0,3.819817001E0,1.453052970E0,5.060263103E0
1.643583208E1,-2.481731400E0,1.979975978E0,1.183049674E0,3.388052855E0
1.644576808E1,-1.368913583E0,5.621045351E-2,1.226465178E0,1.838831380E0
1.645570408E1,-3.883308408E-1,-2.444101059E0,1.539475987E0,2.914518338E0
1.646564008E1,1.117078391E-1,-5.307301301E0,1.674948957E0,5.566451270E0
1.647557608E1,9.877794957E-1,-7.786962202E0,9.354948628E-1,7.904912353E0
1.648551308E1,4.103872983E0,-7.568209094E0,8.512645519E-1,8.651255035E0
1.649544908E1,6.267701794E0,-4.772438359E0,2.459168165E0,8.252742679E0
1.650538508E1,5.998470258E0,-4.132740102E0,2.625586939E0,7.743054498E0
1.651532108E1,5.248160807E0,-4.538297133E0,2.519808469E0,7.381650726E0
1.652525708E1,4.500583761E0,-4.876640419E0,1.352870286E0,6.772527887E0
1.653519308E1,3.185820950E0,-5.189410324E0,1.210864806E0,6.208512560E0
