"Time (s)","Linear Acceleration x (m/s^2)","Linear Acceleration y (m/s^2)","Linear Acceleration z (m/s^2)","Absolute acceleration (m/s^2)"
-4.788750084E-4,-5.220337417E0,-5.941515453E0,6.480136986E0,1.022475936E1
9.457124994E-3,-7.174775096E0,-3.780096281E0,8.052097764E0,1.142815838E1
1.939412499E-2,-7.763186254E0,-1.526138488E0,8.010916994E0,1.125926066E1
2.933012499E-2,-6.338416851E0,1.334814084E0,5.818911620E0,8.707295174E0
3.926712500E-2,-4.358396434E0,3.824015887E0,4.040429524E0,7.067091885E0
4.920312499E-2,-3.044216005E0,4.826273088E0,2.833484691E0,6.370933880E0
5.914012500E-2,-2.590370036E0,5.237240548E0,2.132146257E0,6.219706837E0
6.907612500E-2,-2.091771672E0,5.703976995E0,1.566257404E0,6.274075593E0
7.901312500E-2,-1.553043866E0,6.626413271E0,6.202281976E-1,6.834177428E0
8.894912500E-2,-1.054455807E0,7.121506376E0,-4.561763033E-1,7.213586274E0
9.888612499E-2,-3.067014445E-1,7.964497118E0,-8.587723037E-1,8.016531045E0
1.088221250E-1,2.762196900E-1,8.587095777E0,-4.298204172E-1,8.602282069E0
1.187591250E-1,5.394201889E-1,8.703134356E0,3.523930494E-1,8.726952654E0
1.286951250E-1,1.124357224E0,8.666543650E0,1.052270630E0,8.802296944E0
1.386321250E-1,1.563243749E0,8.704604346E0,1.286682289E0,8.936969238E0
1.485681250E-1,2.058670438E0,8.087261750E0,-3.407618411E-1,8.352128184E0
1.585051250E-1,3.029175797E0,6.568902982E0,-1.608538620E0,7.410383855E0
1.684411250E-1,3.783808970E0,4.702985716E0,-4.696553779E-1,6.054408405E0
1.783781250E-1,3.402007423E0,4.062373540E0,2.159106453E0,5.721736970E0
1.883141250E-1,2.426660569E0,3.873851706E0,3.938793222E0,6.034028555E0
1.982497500E-1,1.643825105E0,3.743741802E0,3.436336133E0,5.340989579E0
2.081867500E-1,7.442996087E-1,3.465506138E0,1.610089448E0,3.893083962E0
2.181227500E-1,3.014645319E-1,1.848377958E0,-1.516258886E0,2.409652039E0
2.280597500E-1,2.144871260E-1,-5.969363987E-1,-5.313440877E0,5.351167326E0
2.379957500E-1,8.503437616E-2,-3.503417146E0,-8.578174095E0,9.266403474E0
2.479327500E-1,-1.197712664E0,-6.050205252E0,-9.931253711E0,1.169056455E1
2.578687500E-1,-2.625973732E0,-8.597065864E0,-9.620722121E0,1.316676018E1
2.678057500E-1,-1.062829751E0,-9.341895888E0,-7.852402486E0,1.224993268E1
2.777417500E-1,2.948314359E0,-6.480433440E0,-4.593859130E0,8.473022886E0
2.876787500E-1,3.057088650E0,-4.822398723E0,-3.304245193E0,6.596920248E0
2.976147500E-1,-6.630654842E-2,-4.707421998E0,-2.883012947E0,5.520505600E0
3.075517500E-1,-1.191692078E0,-3.621163697E0,-3.007369190E0,4.855638575E0
3.174877500E-1,-1.219110330E0,-2.583226200E0,-3.881786962E0,4.819497652E0
3.274247500E-1,-9.602391100E-1,-2.211978877E0,-5.109515723E0,5.649961117E0
3.373607500E-1,-1.159400172E0,-3.317027791E0,-6.281860827E0,7.197823113E0
3.472977500E-1,-1.513154600E0,-5.730757828E0,-5.287840598E0,7.943077509E0
3.572337500E-1,-3.234367165E0,-7.026993737E0,-5.942130581E-2,7.735845321E0
3.671707500E-1,-4.313737155E0,-6.281112968E0,4.169144282E0,8.685762626E0
3.771067500E-1,-4.684591545E0,-4.540795648E0,5.412971013E0,8.477291917E0
3.870437500E-1,-4.591997961E0,-2.673714786E0,4.365651659E0,6.877071356E0
3.969797500E-1,-2.789500181E0,-2.871594504E0,1.552363250E0,4.293855833E0
4.069157500E-1,-2.384124414E0,-4.631107648E0,1.368059013E0,5.385424100E0
4.168527500E-1,-2.523557119E0,-5.122607054E0,2.405273355E0,6.196352433E0
4.267887500E-1,-1.773466793E0,-4.507315076E0,2.556407361E0,5.476887095E0
4.367257500E-1,-9.134552452E-1,-2.892904682E0,3.025780903E0,4.284699296E0
4.466617500E-1,-4.204422873E-1,-2.431535393E0,4.816391294E0,5.411724418E0
4.565987500E-1,2.486655633E-1,-1.847934154E0,7.165984976E0,7.404595592E0
4.665347500E-1,2.984401327E0,5.523437780E-1,1.393632746E1,1.426299260E1
4.764717500E-1,6.143881155E0,4.841399251E0,1.958096516E1,2.108555474E1
4.864077500E-1,4.483205252E0,2.721718673E0,1.258584284E1,1.363489354E1
4.963447500E-1,9.042719007E-1,6.936926150E-1,7.941149186E0,8.022516283E0
5.062807500E-1,-1.964096548E0,2.498016481E0,2.405637929E0,3.985580941E0
5.162177500E-1,-1.885461292E0,4.629865115E0,-6.729034245E-1,5.044146537E0
5.261537500E-1,-1.438544128E0,5.931892106E0,-2.771503036E0,6.703579808E0
5.360907500E-1,-2.147986949E0,5.648998550E0,-3.870544521E0,7.176778347E0
5.460267500E-1,-2.571020722E0,5.003671179E0,-4.442177678E0,7.167971495E0
5.559637500E-1,-3.256733935E0,4.487142767E0,-4.485785043E0,7.131832414E0
5.658997500E-1,-3.712610349E0,4.759414855E0,-4.247789333E0,7.381003968E0
5.758367500E-1,-4.184130111E0,4.745921820E0,-2.841296571E0,6.935682008E0
5.857727500E-1,-4.092335842E0,5.233237544E0,-1.551102591E0,6.822016350E0
5.957097500E-1,-3.379954941E0,6.008973611E0,-1.587134303E0,7.074662858E0
6.056457500E-1,-2.043200898E0,7.960169009E0,-2.045525604E0,8.468951267E0
6.155817500E-1,-1.718159881E0,7.007357032E0,-1.323607310E0,7.335329731E0
6.255187500E-1,-1.028339950E0,4.816225818E0,-1.491036483E0,5.145551863E0
6.354547500E-1,-8.184032730E-1,2.465812356E0,-1.851317353E0,3.190202256E0
6.453917500E-1,-1.102293340E0,9.390774518E-1,-1.039204588E0,1.782375730E0
6.553277500E-1,-9.831270124E-1,4.103365445E-1,-8.640605986E-1,1.371683462E0
6.652647500E-1,-3.471949477E-1,2.402445495E-1,-1.975470114E0,2.020085133E0
6.752007500E-1,-2.469898975E-1,-1.765987766E0,-2.258165449E0,2.877330011E0
6.851377500E-1,1.795380403E0,9.462712812E-1,-2.809394163E0,3.465763364E0
6.950737500E-1,1.851526976E0,-2.183968960E0,-2.223100866E0,3.624920692E0
7.050107500E-1,3.794004175E0,-6.236474739E0,-1.874431397E0,7.536682155E0
7.149467500E-1,6.348315602E0,-7.029321513E0,-1.642914401E0,9.613097297E0
7.248837500E-1,7.585870609E0,-5.091600439E0,-3.469990368E0,9.772955596E0
7.348197500E-1,8.052918128E0,-1.461778770E0,-5.048733916E0,9.616444338E0
7.447567500E-1,7.624783829E0,-8.924511695E-1,-4.320296561E0,8.809015831E0
7.546927500E-1,6.945607511E0,-6.469230759E-1,-5.135997178E0,8.662473098E0
7.646297500E-1,4.586045496E0,-6.264946586E-1,-8.512440866E0,9.689476681E0
7.745657500E-1,3.801852601E0,-2.017856580E0,-1.063825927E1,1.147599184E1
7.845027500E-1,4.584246892E0,-4.006302835E0,-7.478902230E0,9.643638346E0
7.944387500E-1,2.864509433E0,-5.862599677E0,-4.370297272E0,7.853342442E0
8.043757500E-1,2.299089673E0,-6.377793755E0,-3.258040495E0,7.521761387E0
8.143117500E-1,2.948174318E0,-5.654575040E0,-1.399045748E0,6.528650679E0
8.242477500E-1,5.411627322E-1,-3.912496539E0,1.767041434E0,4.326999156E0
8.341847500E-1,-5.557470037E-1,-3.096360889E0,2.212712703E0,3.846089312E0
8.441207500E-1,-4.673303787E-1,-2.992780387E0,1.661740097E0,3.454925799E0
8.540577500E-1,-9.499110268E-1,-5.540373071E0,2.120024979E0,6.007709267E0
8.639937500E-1,-1.991398368E0,-7.975632555E0,2.706459779E0,8.654554099E0
8.739307500E-1,-3.369994794E0,-7.425965633E0,2.345851318E0,8.485567094E0
8.838667500E-1,-4.981328384E0,-8.522150168E0,2.986222150E0,1.031301114E1
8.938037500E-1,-5.659845720E0,-7.366094822E0,5.027475779E0,1.056260949E1
9.037397500E-1,-7.186943736E0,-4.794612755E0,8.393167022E0,1.204515356E1
9.136767500E-1,-8.299910949E0,-1.898468716E0,1.065621490E1,1.363992746E1
9.236127500E-1,-8.087192752E0,8.190604270E-1,1.077218156E1,1.349494135E1
9.335497500E-1,-6.848039702E0,3.664254168E0,9.353692646E0,1.215787697E1
9.434857500E-1,-5.236104434E0,5.724834598E0,6.692528908E0,1.024599746E1
9.534227500E-1,-4.162455068E0,6.783146133E0,4.542538118E0,9.163610435E0
9.633587500E-1,-3.593924150E0,7.143190191E0,2.626123713E0,8.416530322E0
9.732957500E-1,-3.160124776E0,7.166533445E0,1.078963169E0,7.906310881E0
9.832317500E-1,-2.654048553E0,6.968078361E0,-4.182185912E-1,7.468132066E0
9.931687500E-1,-1.913253254E0,7.470479316E0,-9.834324563E-1,7.774042618E0
1.003104750E0,-1.336807253E0,7.614959337E0,-1.424566651E0,7.861555157E0
1.013041750E0,-8.095879376E-1,7.249809490E0,-1.696517143E0,7.489548764E0
1.022977750E0,-7.187413560E-1,7.201120310E0,-1.451820377E0,7.381091062E0
1.032913750E0,-7.884926453E-2,6.694474277E0,-2.543982028E0,7.161986289E0
1.042850750E0,1.430108496E0,6.125851851E0,-4.076933692E0,7.496176327E0
1.052786750E0,3.370591210E0,5.151342611E0,-5.088728871E0,7.987013041E0
1.062723750E0,3.812981314E0,5.591166664E0,-2.847173023E0,7.342095436E0
1.072659750E0,2.954877274E0,6.662234484E0,1.892346096E-1,7.290574584E0
1.082596750E0,2.325115483E0,6.679655678E0,1.796492251E0,7.297352013E0
1.092532750E0,2.627150484E0,4.863850220E0,2.192986682E0,5.947112679E0
1.102469750E0,2.987672260E0,1.969865558E0,5.791222715E-1,3.625181161E0
1.112405750E0,3.202917624E0,-1.457488668E0,-3.278510720E0,4.809530857E0
1.122342750E0,3.058224764E0,-3.410817715E0,-7.273704722E0,8.596115202E0
1.132278750E0,1.664065973E0,-5.034346842E0,-7.487412268E0,9.174699241E0
1.142215750E0,7.510302655E-1,-5.962741431E0,-5.938963144E0,8.449237543E0
1.152151750E0,2.175133525E0,-5.293314176E0,-5.466105831E0,7.913829274E0
1.162088750E0,3.354844658E0,-4.184600227E0,-4.361602754E0,6.912990694E0
1.172024750E0,3.217660793E0,-4.694322481E0,-2.723018801E0,6.309107380E0
1.181961750E0,2.288412657E0,-5.106069374E0,-3.431944582E0,6.564070426E0
1.191898958E0,2.169229737E0,-4.274474856E0,-4.322985403E0,6.454835067E0
1.201835958E0,2.242857438E0,-2.546560650E0,-4.879057366E0,5.943112098E0
1.211771958E0,2.887650958E0,-2.343055326E-1,-5.462532012E0,6.183258294E0
1.221708958E0,3.328490673E0,1.433380013E0,-5.674007092E0,6.732591247E0
1.231644958E0,1.510816883E0,-2.749349105E-1,-2.760980679E0,3.159299158E0
1.241580958E0,-1.012006703E0,-4.358993434E0,1.402861056E0,4.689669548E0
1.251517958E0,-3.817903792E0,-7.385169024E0,5.659812391E0,1.005736482E1
1.261453958E0,-5.965976111E0,-8.270435720E0,9.197881891E0,1.373295341E1
1.271390958E0,-6.183545158E0,-8.311017736E0,8.566694841E0,1.344237728E1
1.281326958E0,-3.968404984E0,-8.277372272E0,5.572643269E0,1.073859781E1
1.291263958E0,-1.866447024E0,-6.918423806E0,-3.551715732E-2,7.165854723E0
1.301199958E0,-1.229649864E0,-5.602656443E0,-2.299674687E0,6.179830229E0
1.311136958E0,-1.184971289E0,-5.240071769E0,3.350105198E-1,5.382819071E0
1.321072958E0,-6.076476207E-1,-5.669400070E0,2.302158730E0,6.149086729E0
1.331009958E0,8.457646608E-1,-5.456659654E0,3.120673027E0,6.342637667E0
1.340945958E0,7.666828233E-1,-2.871642451E0,3.613230779E0,4.678629028E0
1.350882958E0,-1.825760928E-1,-1.117317542E0,3.969295807E0,4.127595150E0
1.360818958E0,-9.885776407E-1,-2.298341668E-1,3.684458052E0,3.821693425E0
1.370755958E0,-1.591730507E0,1.031288627E0,3.374296006E0,3.870792655E0
1.380691958E0,-1.552313549E0,2.403110324E0,2.781128722E0,3.989898940E0
1.390628958E0,-1.317153738E0,3.984810809E0,1.891756697E0,4.603515456E0
1.400564958E0,-1.322864714E0,5.221957095E0,1.198199810E0,5.518558665E0
1.410500958E0,-1.465396442E0,6.306348381E0,4.371588922E-1,6.489108146E0
1.420437958E0,-1.955159810E0,7.063814238E0,1.960491009E-1,7.332022690E0
1.430373958E0,-2.258364547E0,7.572954694E0,1.378903186E-1,7.903724879E0
1.440310958E0,-2.764375865E0,7.860622501E0,1.580455979E-1,8.334034944E0
1.450246958E0,-3.116946889E0,8.017902077E0,5.002234519E-1,8.616979467E0
1.460183958E0,-3.076795813E0,7.958402565E0,1.038195359E0,8.595387918E0
1.470119958E0,-3.297135271E0,7.537249256E0,1.665028571E0,8.393661149E0
1.480056958E0,-3.335198306E0,7.677123426E0,2.258447285E0,8.669622597E0
1.489992958E0,-4.106780511E0,7.424665797E0,2.566456386E0,8.864423655E0
1.499929958E0,-5.186363339E0,5.643567072E0,2.874246801E0,8.185933585E0
1.509865958E0,-5.351515607E0,3.731704724E0,1.926395602E0,6.802597993E0
1.519802958E0,-4.871213911E0,2.203503338E0,4.334833324E-1,5.363959333E0
1.529738958E0,-3.965020908E0,8.760234171E-1,-1.205918646E0,4.235923466E0
1.539675958E0,-2.357218744E0,-4.821719277E-1,-2.420257868E0,3.412714187E0
1.549611958E0,-9.991418052E-1,-1.254716000E0,-3.028869987E0,3.427338616E0
1.559548958E0,-1.191411120E-1,-2.156971196E0,-3.879738683E0,4.440618379E0
1.569484958E0,7.325359610E-1,-2.948894695E0,-4.639134121E0,5.545642817E0
1.579421958E0,1.172012105E0,-2.885317919E0,-4.730533703E0,5.663622603E0
1.589357958E0,3.354611647E0,-1.547284943E0,-3.977424021E0,5.428389434E0
1.599294958E0,6.433344058E0,3.311985737E-1,-3.140117943E0,7.166446048E0
1.609230958E0,8.200102487E0,5.726891649E-1,-5.007285343E0,9.625100528E0
1.619166958E0,9.611688173E0,6.808837044E-1,-7.393870851E0,1.214567735E1
1.629103958E0,1.067709998E1,4.489726067E-2,-7.305728168E0,1.293739324E1
1.639039958E0,1.040400811E1,-1.747845025E0,-6.670702422E0,1.248185154E1
1.648976958E0,8.629206254E0,-4.464681857E0,-5.809525085E0,1.132021053E1
1.658912958E0,1.052717737E1,-5.857367588E0,-3.115959002E0,1.244344884E1
1.668849958E0,1.052527703E1,-5.564784027E0,-2.908997973E0,1.225604124E1
1.678785958E0,7.607155058E0,-5.950721310E0,-2.915200700E0,1.008852255E1
1.688722958E0,5.931527824E0,-6.566462939E0,-2.472920816E0,9.187861297E0
1.698658958E0,3.523693243E0,-6.385415016E0,-1.754506173E0,7.501215295E0
1.708595958E0,3.072750709E0,-5.106812555E0,-2.058516364E0,6.305459620E0
1.718531958E0,1.565861548E0,-3.746268384E0,-2.427396734E0,4.730613501E0
1.728468958E0,-3.529379368E-2,-2.858771560E0,-1.340273629E0,3.157555049E0
1.738404958E0,-7.475638899E-1,-4.344047951E0,-6.691980439E-1,4.458411196E0
1.748341958E0,-8.776892889E-1,-6.669506081E0,1.568690833E-1,6.728837772E0
1.758277958E0,-6.339387488E-1,-8.689428483E0,1.227914118E0,8.798625959E0
1.768214958E0,-1.495688528E0,-9.098751120E0,3.139191159E0,9.740578897E0
1.778150958E0,-3.634066163E0,-8.798876665E0,5.325917666E0,1.090834847E1
1.788087958E0,-6.023648368E0,-8.613111209E0,7.925250607E0,1.316357176E1
1.798023958E0,-9.226863030E0,-7.153477197E0,9.739686062E0,1.520423369E1
1.807959958E0,-1.080450964E1,-4.109730724E0,1.017816759E1,1.540202619E1
1.817896958E0,-1.015426535E1,-7.633908409E-1,8.955397857E0,1.356064236E1
1.827832958E0,-8.373368350E0,1.856073478E0,6.809378496E0,1.095107035E1
1.837769958E0,-6.678190951E0,3.902405414E0,4.702717036E0,9.052212432E0
1.847705958E0,-5.620693349E0,5.372710594E0,2.847329729E0,8.280428698E0
1.857642958E0,-5.188822678E0,6.345776156E0,1.590311680E0,8.349960901E0
1.867578958E0,-4.633980385E0,6.721845093E0,1.284116385E0,8.264740199E0
1.877515958E0,-4.491474384E0,7.001534960E0,9.770557022E-1,8.375528149E0
1.887451958E0,-3.740737210E0,6.954899322E0,-3.083249970E-1,7.903088242E0
1.897388958E0,-2.851802556E0,7.481001965E0,-1.382051546E0,8.124545200E0
1.907324958E0,-2.195449676E0,8.002338544E0,-1.958849842E0,8.526107796E0
1.917261958E0,-5.874937302E-1,7.951060801E0,-4.474142067E0,9.142344556E0
1.927197958E0,1.061992649E0,7.539686961E0,-6.726521112E0,1.015976349E1
1.937134958E0,3.948887855E-2,7.255760202E0,-3.324683551E0,7.981299154E0
1.947070958E0,-6.448543310E-1,7.011924877E0,-4.782800210E-1,7.057738970E0
1.957007958E0,-2.281022215E-1,7.043406286E0,1.421868015E0,7.189110612E0
1.966943958E0,8.526295844E-1,6.758103678E0,3.305121983E0,7.571180479E0
1.976880958E0,7.711191058E-1,5.333064133E0,3.443544581E0,6.394857074E0
1.986816958E0,1.634784433E0,3.074013416E0,2.266135204E0,4.154208394E0
1.996752958E0,3.117459397E0,1.370514843E0,-7.911585371E-1,3.496111534E0
2.006689958E0,4.121284822E0,5.784170973E-1,-3.839320389E0,5.662149413E0
2.016625958E0,5.063166014E0,-3.052334279E-1,-5.896217659E0,7.777801759E0
2.026562958E0,4.847570110E0,-1.621875535E0,-7.641499264E0,9.193580762E0
2.036498958E0,3.001041918E0,-3.667906339E0,-9.903678242E0,1.097919087E1
2.046435958E0,2.235235300E0,-5.854045785E0,-8.582920865E0,1.062697791E1
2.056371958E0,2.236771656E0,-7.003475066E0,-3.578709110E0,8.176733415E0
2.066308958E0,1.889414010E0,-6.370655474E0,-2.173670551E0,6.991421897E0
2.076244958E0,1.369607063E0,-5.513097564E0,-4.137641531E0,7.027812298E0
2.086181958E0,1.107929545E0,-4.537600145E0,-5.291007450E0,7.057767549E0
2.096117958E0,9.000522575E-1,-2.293590805E0,-5.165626774E0,5.723141866E0
2.106054958E0,9.306481057E-1,3.243549925E-1,-4.942104092E0,5.039415136E0
2.115990958E0,2.071797144E0,2.146771313E0,-5.832563699E0,6.551318172E0
2.125927958E0,1.437137726E0,2.565819624E0,-4.957863507E0,5.764477925E0
2.135863958E0,-1.018246705E0,-5.142380583E-1,-1.235260267E0,1.681408654E0
2.145800958E0,-2.908924883E0,-3.733204535E0,3.608978976E0,5.951755147E0
2.155736958E0,-4.212555181E0,-6.061275201E0,7.823605533E0,1.075609045E1
2.165672958E0,-4.567206059E0,-6.664299721E0,8.919737443E0,1.203469892E1
2.175609958E0,-4.556364152E0,-8.386317009E0,7.437025641E0,1.209959163E1
2.185545958E0,-2.023644154E0,-9.255293362E0,1.923157707E0,9.667167447E0
2.195482083E0,-1.408774637E0,-8.049976979E0,-1.903984102E0,8.391181728E0
2.205418083E0,-7.989749488E-1,-6.001265811E0,-2.873726691E-1,6.061034182E0
2.215355083E0,-3.086154574E-1,-5.232492608E0,2.783807917E0,5.934964946E0
2.225291083E0,-4.713966787E-1,-4.873920295E0,4.434856964E0,6.606456702E0
2.235228083E0,3.459701023E-1,-3.654494580E0,4.551881677E0,5.847619408E0
2.245164083E0,5.260912415E-1,-2.540905223E0,4.876710878E0,5.524063752E0
2.255101083E0,2.103872046E-1,-2.159780198E0,5.309034415E0,5.735395340E0
2.265037083E0,-7.750975513E-1,-1.136583533E0,4.879960761E0,5.070169166E0
2.274974083E0,-1.153453335E0,4.064803058E-1,4.255840949E0,4.428076672E0
2.284910083E0,-1.449412786E0,1.856573415E0,3.594021214E0,4.297051403E0
2.294847083E0,-1.674844292E0,2.831908282E0,2.955785054E0,4.422835426E0
2.304783083E0,-2.023031951E0,3.837277957E0,1.995658064E0,4.774935759E0
2.314720083E0,-2.391544823E0,4.865446510E0,9.448714578E-1,5.503166221E0
2.324656083E0,-2.656553793E0,5.545322739E0,2.290014502E-1,6.153074353E0
2.334592083E0,-2.922381665E0,5.954467036E0,-1.464259744E-2,6.632963643E0
2.344529083E0,-3.365948229E0,6.284946402E0,1.493577683E-1,7.131091536E0
2.354465083E0,-4.074310631E0,6.780180425E0,3.702106118E-1,7.918832591E0
2.364402083E0,-4.582145403E0,6.997778124E0,5.480641278E-1,8.382441736E0
2.374338083E0,-4.859681740E0,7.429969806E0,6.344976696E-1,8.900760935E0
2.384275083E0,-5.130786724E0,6.971862679E0,1.216720208E0,8.741410052E0
2.394211083E0,-4.829158105E0,5.473900169E0,2.154487299E0,7.610924161E0
2.404148083E0,-4.711196961E0,4.222712964E0,8.928803551E-1,6.389359663E0
2.414084083E0,-4.567609517E0,3.351573141E0,-6.810860181E-1,5.706135066E0
2.424021083E0,-4.048086745E0,2.432711268E0,-1.984325137E0,5.122756744E0
2.433957083E0,-3.110196278E0,1.257456590E0,-3.152761962E0,4.603740431E0
2.443894083E0,-1.378011851E0,3.573765582E-1,-3.702358718E0,3.966622586E0
2.453830083E0,2.509686354E-1,-9.825994474E-1,-4.494052421E0,4.607059159E0
2.463767083E0,1.138355824E0,-1.862260417E0,-4.968393173E0,5.426674725E0
2.473703083E0,1.639041790E0,-1.867259202E0,-4.414400480E0,5.065574648E0
2.483640083E0,2.651069689E0,-1.331040291E0,-3.442264041E0,4.544119329E0
2.493576083E0,4.961348448E0,-5.524449348E-1,-2.367128313E0,5.524804999E0
2.503512083E0,8.724300692E0,-2.121165186E-1,-1.823633711E0,8.915383104E0
2.513449083E0,1.019074028E1,-7.389535725E-1,-3.745895916E0,1.088250780E1
2.523385083E0,1.017163625E1,-8.534753841E-1,-7.349028554E0,1.257771144E1
2.533322083E0,1.153949178E1,-8.996520156E-1,-8.953160713E0,1.463312445E1
2.543258083E0,1.067545107E1,-6.553418970E-1,-8.112781337E0,1.342430443E1
2.553195083E0,6.439331607E0,-6.953865534E-1,-6.861368430E0,9.435408350E0
2.563131083E0,3.738070295E0,-1.900881277E0,-6.131765140E0,7.428664947E0
2.573068083E0,3.242234594E0,-2.863184454E0,-4.676366851E0,6.370111248E0
2.583004083E0,4.548370424E0,-5.134500875E0,-3.853656592E0,7.867746938E0
2.592941083E0,5.194506757E0,-7.876117038E0,-3.981952690E0,1.024070639E1
2.602877083E0,2.774522538E0,-7.588954430E0,-3.247408503E0,8.708379105E0
2.612814083E0,1.668602974E0,-5.138496278E0,-2.524837074E0,5.963487414E0
2.622750083E0,7.524343282E-1,-3.876654861E0,-1.592214364E0,4.257905226E0
2.632687083E0,-1.108212550E0,-4.780429164E0,-3.859455605E-2,4.907354438E0
2.642623083E0,-2.649641215E0,-6.225560911E0,9.446644664E-1,6.831588261E0
2.652560083E0,-3.481962834E0,-6.665942788E0,2.053611134E0,7.795907717E0
2.662496083E0,-3.877094572E0,-7.636679404E0,3.786065118E0,9.364028178E0
2.672432083E0,-4.995473968E0,-9.384080041E0,6.169215971E0,1.229125478E1
2.682369083E0,-6.502178065E0,-1.094165842E1,8.457550714E0,1.528163515E1
2.692305083E0,-8.976880528E0,-1.040697031E1,9.357861711E0,1.662705599E1
2.702242083E0,-1.104541493E1,-8.332697457E0,8.636884818E0,1.631045116E1
2.712178083E0,-1.015149727E1,-4.536809601E0,6.856676624E0,1.306329027E1
2.722115083E0,-8.163480206E0,-1.587092203E-1,4.938270657E0,9.542227977E0
2.732051083E0,-6.922462478E0,3.046802228E0,3.120296466E0,8.181671016E0
2.741988083E0,-6.213575288E0,5.235125610E0,1.619697447E0,8.284834206E0
2.751924083E0,-5.655070299E0,6.389589928E0,5.349582517E-1,8.549436231E0
2.761861083E0,-4.997980084E0,6.931039174E0,-1.048918860E-1,8.545765692E0
2.771797083E0,-4.036801912E0,7.134987132E0,-4.691104174E-1,8.211204274E0
2.781734083E0,-3.302174109E0,7.200378883E0,-9.751847394E-1,7.981277792E0
2.791670083E0,-2.690005129E0,7.516999764E0,-1.229787712E0,8.077981856E0
2.801607083E0,-2.031271555E0,7.868883448E0,-1.537438671E0,8.270979900E0
2.811543083E0,-1.485859358E-1,7.723621654E0,-4.261137357E0,8.822341005E0
2.821480083E0,1.475146382E0,6.827849851E0,-6.326893158E0,9.424710471E0
2.831416083E0,1.005931592E0,6.630340261E0,-4.080961546E0,7.850322127E0
2.841352083E0,6.343112165E-1,6.715309076E0,-1.980554560E0,7.029958966E0
2.851289083E0,1.652734508E0,6.394570586E0,-2.392207021E-1,6.609031009E0
2.861225083E0,3.425364126E0,5.574927192E0,1.997336069E0,6.841219479E0
2.871162083E0,4.125148370E0,4.365773281E0,1.892060460E0,6.297358033E0
2.881098083E0,2.987211499E0,4.353708136E0,-1.255131152E-1,5.281473338E0
2.891035083E0,1.952430038E0,3.176461312E0,-9.124080089E-1,3.838538510E0
2.900971083E0,2.399403481E0,1.561619393E0,-1.052108223E0,3.050036706E0
2.910908083E0,2.463828103E0,6.656253952E-1,-2.231327606E0,3.390033772E0
2.920844083E0,4.208503645E0,3.148649615E-1,-4.194298127E0,5.950023500E0
2.930781083E0,5.693151460E0,-1.403786085E0,-6.171118655E0,8.512654955E0
2.940717083E0,6.091662011E0,-3.132677361E0,-7.757140233E0,1.034868292E1
2.950654083E0,6.653534997E0,-4.968631155E0,-8.672243516E0,1.200685767E1
2.960590083E0,5.238836253E0,-5.610101702E0,-5.765892577E0,9.600216852E0
2.970526083E0,1.403274162E0,-5.535079587E0,-5.589109029E0,7.990270592E0
2.980463083E0,-1.859840547E0,-5.121965615E0,-7.058337736E0,8.917043805E0
2.990399083E0,-3.014173888E0,-2.984970261E0,-5.549979461E0,6.985525299E0
3.000336083E0,-3.167340825E0,-4.013376796E-1,-3.987654310E0,5.108278255E0
3.010272083E0,-2.050792484E0,2.081443881E0,-3.663841062E0,4.686351435E0
3.020209083E0,-2.518404845E0,2.038459829E0,-2.397565117E0,4.030632695E0
3.030145083E0,-4.808628238E0,-1.944106818E0,9.433172679E-1,5.271840696E0
3.040082083E0,-5.723659308E0,-6.071630620E0,5.229162619E0,9.847289777E0
3.050018083E0,-5.891665601E0,-8.380602525E0,9.253582467E0,1.380489083E1
3.059955083E0,-5.376853346E0,-9.589798536E0,9.544213643E0,1.455907971E1
3.069891083E0,-4.035637439E0,-1.056452003E1,6.023958271E0,1.281341197E1
3.079828083E0,-5.076020533E-1,-1.147636758E1,1.374630114E0,1.156954108E1
3.089764083E0,1.038578059E0,-9.475325257E0,-9.405164516E-1,9.578361253E0
3.099701083E0,1.793733389E0,-6.585773368E0,-4.398781398E-1,6.839837945E0
3.109637083E0,2.350840601E0,-6.595692000E0,5.684282988E-2,7.002345007E0
3.119573083E0,1.811657151E0,-5.928252799E0,1.240811029E0,6.321858500E0
3.129510083E0,1.919656394E0,-4.256071914E0,2.241227381E0,5.179027802E0
3.139446083E0,1.155069797E0,-2.766249897E0,3.364453973E0,4.506204086E0
3.149383083E0,6.537040919E-1,-1.673519313E0,4.059431806E0,4.439254725E0
3.159319083E0,3.317549363E-1,-9.774375254E-1,4.260088659E0,4.383354975E0
3.169256083E0,-8.066540971E-1,6.410033548E-1,3.951282874E0,4.083406970E0
3.179192083E0,-1.360841210E0,2.333219724E0,3.534828973E0,4.448687329E0
3.189129083E0,-1.896239757E0,3.609477451E0,3.148662479E0,5.151517067E0
3.199065708E0,-2.240919379E0,4.727299608E0,2.733602554E0,5.902682794E0
3.209002708E0,-2.706785468E0,5.562514722E0,2.435936300E0,6.648461722E0
3.218938708E0,-3.106447336E0,6.160772007E0,2.419545093E0,7.311588420E0
3.228875708E0,-3.358488643E0,6.835411470E0,2.298158065E0,7.955113225E0
3.238811708E0,-3.762523059E0,7.578055220E0,2.249813578E0,8.754722259E0
3.248748708E0,-4.215320621E0,8.241190871E0,2.381678524E0,9.558166535E0
3.258684708E0,-4.294621437E0,8.863125871E0,2.531588269E0,1.016895829E1
3.268620708E0,-4.590316595E0,9.142087174E0,2.334153378E0,1.049271349E1
3.278557708E0,-5.018840611E0,8.734303524E0,2.180137864E0,1.030678516E1
3.288493708E0,-5.379006291E0,7.249842820E0,2.379792212E0,9.335809583E0
3.298430708E0,-4.598867270E0,5.641568493E0,2.346780002E0,7.647499697E0
3.308366708E0,-4.230380418E0,4.368995097E0,1.385425243E0,6.237278232E0
3.318303708E0,-3.672535872E0,2.704803262E0,2.653407991E-1,4.568794825E0
3.328239708E0,-2.695265577E0,7.522472173E-1,-1.273875571E0,3.074588001E0
3.338176708E0,-1.527083690E0,-9.639807433E-1,-3.123722350E0,3.608169174E0
3.348112708E0,2.238197207E-2,-2.289995352E0,-4.641694032E0,5.175896362E0
3.358049708E0,1.483478372E0,-2.756077496E0,-5.868934550E0,6.651395643E0
3.367985708E0,1.889420442E0,-3.029496809E0,-6.451507849E0,7.373582171E0
3.377922708E0,2.973897389E0,-2.388008720E0,-5.260363362E0,6.497543692E0
3.387858708E0,5.057543916E0,-1.352331172E0,-3.863842442E0,6.506675686E0
3.397795708E0,8.833881022E0,-6.340954542E-1,-2.706680219E0,9.260974504E0
3.407731708E0,1.066145049E1,-7.674868155E-1,-3.937356561E0,1.139115180E1
3.417667708E0,1.037895162E1,-1.271106330E0,-8.155335619E0,1.326076345E1
3.427604708E0,1.123126283E1,-1.599601151E0,-9.721219971E0,1.493995001E1
3.437540708E0,1.045128402E1,-8.529953277E-1,-8.678129908E0,1.361127758E1
3.447477708E0,7.157085514E0,-1.203116661E0,-6.686562994E0,9.868205887E0
3.457413708E0,4.693632510E0,-2.014027823E0,-5.641468506E0,7.610036867E0
3.467350708E0,4.227472597E0,-3.202296649E0,-4.477682557E0,6.940883911E0
3.477286708E0,5.665290062E0,-6.075271096E0,-4.125084343E0,9.274737259E0
3.487223708E0,5.617348741E0,-7.989883389E0,-4.042374893E0,1.057041334E1
3.497159708E0,2.493602418E0,-6.145238294E0,-3.442064651E0,7.471935209E0
3.507096708E0,1.473860872E0,-3.316699762E0,-2.742620714E0,4.549146246E0
3.517032708E0,2.699659467E-3,-2.542803814E0,-1.215813890E0,2.818521232E0
3.526969708E0,-1.292462993E0,-3.374633975E0,5.374620295E-1,3.653420382E0
3.536905708E0,-2.024082988E0,-5.428318784E0,6.946024418E-1,5.834897541E0
3.546841708E0,-1.996121602E0,-6.815126309E0,1.205877058E0,7.203095692E0
3.556778708E0,-3.004696428E0,-7.476590826E0,3.284783320E0,8.701575286E0
3.566714708E0,-4.090689851E0,-8.895721759E0,5.205489582E0,1.108894634E1
3.576651708E0,-5.062535099E0,-1.044232024E1,7.551445127E0,1.384541936E1
3.586587708E0,-7.083828088E0,-9.919338255E0,9.276871927E0,1.531777544E1
3.596524708E0,-9.392570198E0,-7.953969791E0,9.790755644E0,1.572720275E1
3.606460708E0,-1.012627823E1,-4.649130521E0,9.015390290E0,1.433294065E1
3.616397708E0,-8.947245669E0,-5.732183379E-1,6.883838110E0,1.130349554E1
3.626333708E0,-7.447037244E0,2.910521173E0,4.609071246E0,9.228923825E0
3.636270708E0,-6.380652459E0,4.889100251E0,2.520072471E0,8.424179030E0
3.646206708E0,-5.574899125E0,6.083022750E0,1.297266919E0,8.352578494E0
3.656143708E0,-4.495496684E0,6.803447666E0,4.226672991E-1,8.165478444E0
3.666079708E0,-3.659949155E0,7.092450977E0,-1.676605766E-1,7.982869080E0
3.676016708E0,-3.221873420E0,7.036591356E0,-1.004270983E-1,7.739778540E0
3.685952708E0,-2.676345156E0,7.247608014E0,-7.016552071E-1,7.757768065E0
3.695888708E0,-2.576286725E0,7.230376854E0,-1.475240815E0,7.816133200E0
3.705825708E0,-1.381390080E0,6.875154995E0,-3.327112484E0,7.761808567E0
3.715761708E0,5.630339500E-1,6.777573152E0,-4.829140563E0,8.341049312E0
3.725698708E0,5.223075083E-1,6.817747616E0,-3.268697923E0,7.578843830E0
3.735634708E0,-3.056807399E-2,6.995053321E0,-8.305007967E-1,7.044248501E0
3.745571708E0,9.731620413E-1,6.703826314E0,1.243356322E-1,6.775233646E0
3.755507708E0,1.845218415E0,6.291656667E0,1.831580954E0,6.807676799E0
3.765444708E0,1.824316958E0,5.660769580E0,2.513176264E0,6.456663189E0
3.775380708E0,1.908247014E0,4.413344473E0,1.329097553E0,4.988538505E0
3.785317708E0,1.860458013E0,2.443102355E0,-3.517337027E-1,3.090917296E0
3.795253708E0,2.334164050E0,8.374253619E-1,-1.705697125E0,3.009818222E0
3.805190708E0,3.597941480E0,2.667523170E-1,-3.958070322E0,5.355619513E0
3.815126708E0,4.718545449E0,-4.268303704E-1,-6.492427833E0,8.037317618E0
3.825062708E0,4.220058036E0,-2.426752955E0,-7.914501085E0,9.291789233E0
3.834999708E0,3.142432563E0,-4.769488438E0,-7.361939206E0,9.317781455E0
3.844935708E0,3.557077921E0,-5.816992564E0,-5.389779786E0,8.691371121E0
3.854872708E0,2.854592555E0,-4.937002396E0,-2.041847998E0,6.057378522E0
3.864808708E0,1.067270931E0,-3.793868228E0,-1.510567060E0,4.220700915E0
3.874745708E0,4.688715586E-1,-3.659985116E0,-4.094780855E0,5.512037903E0
3.884681708E0,1.179012099E-1,-3.413463580E0,-6.173944030E0,7.055722443E0
3.894618708E0,3.209747171E-1,-1.741420105E0,-6.550121140E0,6.785252811E0
3.904554708E0,4.901402208E-1,2.743115973E-1,-6.502495569E0,6.526709195E0
3.914491708E0,-2.606240841E0,-4.152131224E-1,-3.139182388E0,4.101141222E0
3.924427708E0,-5.622352204E0,-3.999729395E0,1.307828891E0,7.022755580E0
3.934364708E0,-6.598867038E0,-7.039398605E0,5.552207251E0,1.113216889E1
3.944300708E0,-5.941237711E0,-8.854024095E0,8.668072697E0,1.374145307E1
3.954236708E0,-5.575763344E0,-9.825177033E0,8.131014125E0,1.391893068E1
3.964173708E0,-3.477070469E0,-9.412274145E0,4.110585587E0,1.084333148E1
3.974109708E0,-8.224453801E-1,-8.350392301E0,-3.105596566E-1,8.396541865E0
3.984046708E0,1.714386088E-1,-6.463453125E0,-9.802754715E-1,6.539614476E0
3.993982708E0,1.036024580E0,-5.953810979E0,1.106271274E0,6.143699881E0
4.003919708E0,5.787699768E-1,-5.699898562E0,2.543700777E0,6.268511143E0
4.013855708E0,5.992744079E-1,-4.393731158E0,3.429641364E0,5.605929289E0
4.023792708E0,1.241319444E0,-3.800386704E0,4.025081460E0,5.673190797E0
4.033728708E0,5.863979620E-1,-2.720377321E0,5.281706868E0,5.969986833E0
4.043665708E0,-3.189398861E-1,-1.174970503E0,5.287779787E0,5.426130611E0
4.053601708E0,-7.059825853E-1,2.130672759E-1,4.487198315E0,4.547390218E0
4.063538708E0,-1.205865729E0,1.655934396E0,3.593828548E0,4.136645321E0
4.073474708E0,-1.622093051E0,2.778824919E0,2.606691077E0,4.141001349E0
4.083411708E0,-2.089494912E0,3.502945275E0,1.547149873E0,4.362371754E0
4.093347708E0,-2.453826441E0,4.186897014E0,7.275399537E-1,4.907207474E0
4.103283708E0,-2.738767692E0,5.144499614E0,2.252910264E-1,5.832450668E0
4.113220708E0,-2.844090663E0,6.299618821E0,2.313662104E-1,6.915748644E0
4.123156708E0,-3.187492669E0,6.903915694E0,2.542193949E-1,7.608468238E0
4.133093708E0,-3.354349984E0,7.492579452E0,8.825483251E-1,8.256470324E0
4.143029708E0,-3.557455359E0,7.975348381E0,1.586104023E0,8.875663152E0
4.152966708E0,-3.887094480E0,7.761754856E0,1.602561597E0,8.827374785E0
4.162902708E0,-4.286685596E0,7.677196516E0,1.068956391E0,8.857634419E0
4.172839708E0,-4.143552189E0,7.147101978E0,7.407720566E-1,8.294506294E0
4.182775708E0,-4.090693944E0,6.026134019E0,3.770647180E-1,7.293164332E0
4.192712708E0,-3.924064670E0,4.686983641E0,-4.724667192E-1,6.131013292E0
4.202647875E0,-3.138405586E0,2.895254678E0,-1.862417707E0,4.658399831E0
4.212583875E0,-1.404914013E0,1.008164644E0,-3.593880588E0,3.988252376E0
4.222520875E0,1.311322895E0,-5.806565809E-1,-4.623974045E0,4.841266959E0
4.232456875E0,2.128963910E0,-7.893249965E-1,-3.667356116E0,4.313353934E0
4.242393875E0,1.962608286E0,-4.890587783E-1,-2.881850520E0,3.520805617E0
4.252329875E0,3.054745086E0,-3.249280196E-1,-2.718479315E0,4.102094044E0
4.262266875E0,4.362836224E0,-4.368256009E-1,-2.264729533E0,4.934993048E0
4.272202875E0,5.639589211E0,-9.632703066E-2,-1.123862330E0,5.751287847E0
4.282139875E0,6.302372859E0,-4.142442387E-1,-1.233709293E0,6.435335311E0
4.292075875E0,5.688999352E0,-1.310755715E0,-4.120920541E0,7.145962516E0
4.302012875E0,6.119770746E0,-1.696758487E0,-7.073680830E0,9.506184504E0
4.311948875E0,7.870722397E0,-1.586641967E0,-7.645966537E0,1.108722274E1
4.321885875E0,9.150335256E0,-1.399690111E0,-7.124796605E0,1.168120261E1
4.331821875E0,7.844386538E0,-2.164351552E0,-6.499911100E0,1.041478094E1
4.341757875E0,6.942071700E0,-2.720761483E0,-4.928925052E0,8.938076119E0
4.351694875E0,7.490761553E0,-4.249055255E0,-3.188163929E0,9.183156780E0
4.361630875E0,6.834088830E0,-6.642691920E0,-3.082947376E0,1.001672055E1
4.371567875E0,5.536098171E0,-7.508517793E0,-2.930161970E0,9.778142542E0
4.381503875E0,2.242085021E0,-7.622639655E0,-2.183747351E0,8.240165838E0
4.391440875E0,-8.583466995E-1,-6.384263699E0,-2.079278657E0,6.768971988E0
4.401376875E0,-7.746052158E-1,-5.721567174E0,-2.644292766E0,6.350482533E0
4.411313875E0,-1.156140715E0,-6.447400180E0,-1.630614198E0,6.750150598E0
4.421249875E0,-2.022908867E0,-7.635719292E0,8.160257220E-1,7.941175440E0
4.431186875E0,-3.301425666E0,-8.490540120E0,3.590813724E0,9.791967430E0
4.441122875E0,-5.116754576E0,-9.683370944E0,5.250617223E0,1.214569189E1
4.451059875E0,-6.261448781E0,-1.097475951E1,6.217584139E0,1.408223845E1
4.460995875E0,-8.312406449E0,-1.030425695E1,6.579635546E0,1.478395807E1
4.470931875E0,-9.430464249E0,-7.352105944E0,6.629639765E0,1.367257259E1
4.480868875E0,-8.944303350E0,-3.619451047E0,5.512697614E0,1.111264250E1
4.490804875E0,-7.930091516E0,-4.384979045E-1,4.064855683E0,8.921977561E0
4.500741875E0,-7.605955210E0,1.916218523E0,2.872258748E0,8.352982605E0
4.510677875E0,-6.672301050E0,3.873169920E0,1.875964537E0,7.939791526E0
4.520614875E0,-5.410663701E0,5.116721247E0,9.798154418E-1,7.511068919E0
4.530550875E0,-5.090677164E0,5.560698577E0,5.923568594E-1,7.562225155E0
4.540487875E0,-5.032298563E0,5.808003640E0,4.381948726E-1,7.697333944E0
4.550423875E0,-4.589721056E0,6.287221554E0,8.958589268E-1,7.835640207E0
4.560360875E0,-3.824602655E0,6.549397840E0,1.395669565E0,7.711685358E0
4.570296875E0,-2.805600489E0,6.866634432E0,1.218377455E0,7.517080960E0
4.580233875E0,-1.911484910E0,7.352221718E0,1.036222508E0,7.666987403E0
4.590169875E0,-1.387923466E0,7.584239236E0,2.515238285E-1,7.714290672E0
4.600105875E0,1.632546118E0,7.120507087E0,-4.320021157E0,8.487014246E0
4.610042875E0,2.094548368E0,7.048726083E0,-4.902347703E0,8.837685515E0
4.619978875E0,1.430861325E0,7.211392699E0,-1.695580711E0,7.544968041E0
4.629915875E0,2.563231354E0,7.422284811E0,1.210891850E0,7.945232901E0
4.639851875E0,3.816670907E0,7.362298225E0,3.537539450E0,9.015797099E0
4.649788875E0,2.752215703E0,6.116627283E0,3.779399000E0,7.698810129E0
4.659724875E0,3.667337404E0,5.629956508E0,2.055851787E0,7.026542570E0
4.669661875E0,3.915838223E0,4.784769552E0,4.751964918E-1,6.201098318E0
4.679597875E0,4.053462968E0,3.000956549E0,-1.510410940E0,5.264754833E0
4.689534875E0,4.359932497E0,1.892530868E0,-4.775071360E0,6.737357862E0
4.699470875E0,4.485140388E0,3.717835128E-1,-6.354194977E0,7.786559002E0
4.709406875E0,3.757574852E0,-1.641077791E0,-8.315804851E0,9.271737454E0
4.719343875E0,2.735834143E0,-5.158201395E0,-9.999280218E0,1.157918110E1
4.729279875E0,2.419142219E0,-8.434827265E0,-8.165136137E0,1.198615903E1
4.739216875E0,2.315276958E0,-8.452691678E0,-3.573233485E0,9.464486332E0
4.749152875E0,4.165840021E-1,-7.015341405E0,-1.941488728E0,7.290948892E0
4.759089875E0,-1.166238564E0,-5.616501480E0,-3.672939622E0,6.811437934E0
4.769025875E0,-8.487277374E-1,-3.869228897E0,-4.807194209E0,6.228995681E0
4.778962875E0,3.101582453E-1,-8.883236200E-1,-5.508860672E0,5.588636944E0
4.788898875E0,1.850616272E0,2.612454677E0,-6.456273329E0,7.206466910E0
4.798835875E0,2.288276563E0,5.012229749E0,-6.424658019E0,8.463739560E0
4.808771875E0,5.449379870E-1,4.885283189E0,-3.382030995E0,5.966664302E0
4.818708875E0,-2.885449774E0,8.241972059E-1,9.523135015E-1,3.148336456E0
4.828644875E0,-5.046706687E0,-4.395078941E0,4.513320459E0,8.071928446E0
4.838580875E0,-5.393509140E0,-8.718921838E0,6.840889142E0,1.232506808E1
4.848517875E0,-6.247393245E0,-1.296527217E1,8.744610411E0,1.684032114E1
4.858453875E0,-6.123567343E0,-1.343832829E1,7.132317878E0,1.639989947E1
4.868390875E0,-4.347385542E0,-8.654735198E0,9.104743347E-2,9.685684903E0
4.878326875E0,-1.680451479E0,-3.447167516E0,-1.744031763E0,4.212900171E0
4.888263875E0,-5.413878500E-2,-2.170899264E0,2.631448188E0,3.411781673E0
4.898199875E0,1.108658985E0,-3.412301738E0,4.178710035E0,5.507680587E0
4.908136875E0,2.397678553E0,-4.873958302E0,3.978149368E0,6.732756075E0
4.918072875E0,1.679605387E0,-4.359222060E0,3.667620410E0,5.939303890E0
4.928009875E0,6.250214526E-1,-2.638891109E0,3.233981541E0,4.220549100E0
4.937945875E0,-9.403372344E-1,-1.183321497E0,3.752490406E0,4.045450300E0
4.947881875E0,-1.176519723E0,4.171748632E-1,4.048847176E0,4.236908894E0
4.957818875E0,-1.284698183E0,1.802425860E0,3.753362811E0,4.357398397E0
4.967754875E0,-1.483961937E0,2.671141427E0,3.204530870E0,4.427884105E0
4.977691875E0,-1.294024492E0,3.506527280E0,2.866932227E0,4.710576752E0
4.987627875E0,-1.459306567E0,4.374012008E0,2.406457855E0,5.201211023E0
4.997564875E0,-1.779704749E0,5.319538938E0,2.165747867E0,6.012928349E0
5.007500875E0,-1.953288994E0,5.842258968E0,1.652065294E0,6.377824666E0
5.017437875E0,-2.250416134E0,6.235266119E0,1.087248893E0,6.717516394E0
5.027373875E0,-2.382843582E0,6.678623645E0,9.907697618E-1,7.159859080E0
5.037310875E0,-3.205140150E0,6.671636807E0,8.533321273E-1,7.450626603E0
5.047246875E0,-3.519848991E0,6.540854473E0,1.092151126E0,7.507656641E0
5.057183875E0,-3.701220265E0,6.522160340E0,1.267300962E0,7.605501869E0
5.067119875E0,-4.139079361E0,6.240212279E0,1.133575140E0,7.573454948E0
5.077055875E0,-4.435513022E0,5.499488170E0,4.772579642E-1,7.081378472E0
5.086992875E0,-4.358794337E0,4.335443189E0,-6.291054404E-1,6.179881015E0
5.096928875E0,-3.727510516E0,2.986280038E0,-2.374710982E0,5.333990566E0
5.106865875E0,-2.751774823E0,1.070909945E0,-5.101529011E0,5.894464440E0
5.116801875E0,-4.833203208E-1,-3.906016070E-1,-6.252879102E0,6.283682457E0
5.126738875E0,1.279488606E0,-7.835619807E-2,-4.701635009E0,4.873253794E0
5.136674875E0,1.306077942E0,-1.027537054E-1,-3.827959834E0,4.045945428E0
5.146611875E0,2.187696560E0,-5.176311976E-1,-3.526921783E0,4.182479595E0
5.156547875E0,3.026426143E0,-5.324363476E-1,-3.219267608E0,4.450441281E0
5.166484875E0,4.858783023E0,-7.697321463E-1,-2.715933437E0,5.619301956E0
5.176420875E0,7.192351241E0,-1.370645236E0,-2.015584352E0,7.594153344E0
5.186356875E0,7.969611093E0,-2.231203938E0,-3.231105881E0,8.884425541E0
5.196294708E0,8.731731334E0,-2.050792776E0,-5.729042839E0,1.064287625E1
5.206230708E0,9.775031312E0,-1.670734869E0,-6.375187651E0,1.178921582E1
5.216167708E0,9.627097925E0,-1.652490386E0,-6.076924104E0,1.150394478E1
5.226103708E0,7.515622745E0,-2.382359140E0,-6.296851918E0,1.009012212E1
5.236040708E0,5.104459051E0,-2.959437225E0,-6.314283053E0,8.641987119E0
5.245976708E0,5.526508738E0,-4.215448383E0,-4.941112404E0,8.528006548E0
5.255913708E0,6.028568215E0,-6.534036035E0,-3.876573585E0,9.698715605E0
5.265849708E0,4.640236321E0,-6.871509840E0,-3.260907969E0,8.909711633E0
5.275786708E0,3.743065864E0,-6.152452589E0,-1.993764297E0,7.472503663E0
5.285722708E0,1.630940181E0,-5.460559747E0,-1.133124320E0,5.810477549E0
5.295659708E0,1.132347517E0,-4.450170237E0,-1.153481401E0,4.734632550E0
5.305595708E0,8.024280220E-2,-4.662462173E0,-8.180032504E-1,4.734355472E0
5.315531708E0,-6.487082309E-1,-5.385966817E0,5.370667577E-1,5.451412810E0
5.325468708E0,-1.151208004E0,-6.304544515E0,2.098439398E0,6.743590239E0
5.335404708E0,-1.665389052E0,-8.150922140E0,4.108619753E0,9.278567169E0
5.345341708E0,-2.977982254E0,-8.872169759E0,6.747367605E0,1.153736296E1
5.355277708E0,-4.918745635E0,-8.220983478E0,7.620369766E0,1.224126886E1
5.365214708E0,-6.857757774E0,-6.519458342E0,8.072922038E0,1.243801628E1
5.375150708E0,-8.514483883E0,-4.363601625E0,8.715705285E0,1.294221672E1
5.385087708E0,-9.141467369E0,-2.049046798E0,7.536059933E0,1.202319499E1
5.395023708E0,-8.193486947E0,6.766503203E-1,5.768950671E0,1.004349918E1
5.404959708E0,-7.055644509E0,2.817425314E0,4.233154922E0,8.697103277E0
5.414896708E0,-6.222540239E0,4.386563056E0,2.670828016E0,8.068163655E0
5.424832708E0,-5.832689999E0,5.352617807E0,1.499455304E0,8.057242470E0
5.434769708E0,-5.673207777E0,5.759417955E0,1.066954304E0,8.154420467E0
5.444705708E0,-4.887112198E0,5.892370775E0,1.258118641E0,7.758012729E0
5.454642708E0,-3.737654266E0,6.114245712E0,1.453717214E0,7.312137429E0
5.464578708E0,-2.921958619E0,6.568744522E0,1.457641865E0,7.335595857E0
5.474515708E0,-2.239917751E0,7.239172820E0,1.431262883E0,7.711768156E0
5.484451708E0,-1.715548514E0,7.894529920E0,1.087358748E0,8.151629188E0
5.494388708E0,-8.133079362E-1,7.920027289E0,1.911655064E-1,7.963971767E0
5.504324708E0,2.696933495E0,6.445678759E0,-6.987602799E0,9.881640442E0
5.514261708E0,5.607389764E0,4.933704566E0,-9.353804913E0,1.196987582E1
5.524197708E0,5.215454407E0,5.869533305E0,-1.778657220E0,8.050838925E0
5.534133708E0,3.535315461E0,5.954516737E0,3.394134147E0,7.711995306E0
5.544070708E0,2.712281851E0,5.798184410E0,2.985617841E0,7.063237868E0
5.554006708E0,2.967819501E0,6.673585684E0,2.100059954E0,7.599667774E0
5.563943708E0,2.793811918E0,5.830247617E0,7.364898482E-1,6.506887859E0
5.573879708E0,3.328047161E0,4.761439746E0,-1.609846789E0,6.028168299E0
5.583816708E0,3.219740940E0,2.844033068E0,-4.583920325E0,6.282322927E0
5.593752708E0,2.364852869E0,4.761680067E-2,-6.961856339E0,7.352702914E0
5.603689708E0,1.330811957E0,-2.617291494E0,-7.559039490E0,8.109275753E0
5.613625708E0,3.087131059E-1,-6.191276931E0,-7.419137839E0,9.668030828E0
5.623562708E0,8.987075441E-1,-8.286093979E0,-5.637761956E0,1.006237490E1
5.633498708E0,9.246685968E-1,-7.965062544E0,-1.495716302E0,8.156862178E0
5.643434708E0,-1.521178003E-1,-6.801319279E0,-8.731097496E-1,6.858819461E0
5.653371708E0,-8.565638834E-1,-5.192090102E0,-2.797261190E0,5.959544570E0
5.663307708E0,-5.150816654E-1,-3.491576534E0,-4.214981483E0,5.497498041E0
5.673244708E0,3.220396413E-1,-1.746768553E0,-5.294349133E0,5.584356960E0
5.683180708E0,8.283472672E-1,-5.182053941E-1,-6.592066727E0,6.664085815E0
5.693117708E0,7.680247593E-1,-1.590760746E0,-7.186777090E0,7.400685558E0
5.703053708E0,-1.102717337E0,-4.717908980E0,-3.156882495E0,5.782781143E0
5.712990708E0,-3.354992885E0,-6.836545830E0,3.901802566E0,8.556775059E0
5.722926708E0,-3.762947567E0,-6.569963667E0,8.468421857E0,1.135950552E1
5.732863708E0,-4.919042673E0,-4.399089546E0,8.419602284E0,1.069760124E1
5.742799708E0,-4.827421774E0,-2.968731374E0,5.367100775E0,7.805327520E0
5.752735708E0,-2.889092297E0,-4.742118791E0,3.085260243E0,6.352430692E0
5.762672708E0,-7.046057121E-1,-7.820009496E0,1.572171278E0,8.007542710E0
5.772608708E0,-3.514517207E-1,-8.791381119E0,3.404295731E-1,8.804986803E0
5.782545708E0,7.580523330E-1,-7.473200026E0,1.131291803E0,7.596261127E0
5.792481708E0,1.925003088E0,-5.595558507E0,2.955875978E0,6.614613722E0
5.802418708E0,1.411227837E0,-3.604372832E0,4.591175843E0,6.005161375E0
5.812354708E0,9.208975813E-1,-1.815825924E0,5.059440753E0,5.453734214E0
5.822291708E0,9.931264821E-1,-9.333267152E-1,4.883504758E0,5.070110225E0
5.832227708E0,1.752009997E0,-1.820787871E-1,4.449347534E0,4.785330207E0
5.842164708E0,1.055140005E0,1.560138293E0,3.624290203E0,4.084462192E0
5.852100708E0,-1.113222152E-2,2.779976821E0,2.988648452E0,4.081717117E0
5.862036708E0,-1.125425583E0,3.632449992E0,3.059179322E0,4.880558760E0
5.871973708E0,-1.637208981E0,4.882549616E0,3.086655096E0,6.003930685E0
5.881909708E0,-1.923724886E0,6.066785032E0,2.729111892E0,6.924929587E0
5.891846708E0,-2.326394562E0,6.803962221E0,2.005837044E0,7.465212375E0
5.901782708E0,-2.243004203E0,7.377395151E0,1.687676153E0,7.893369234E0
5.911719708E0,-2.886277740E0,7.647074000E0,1.764543650E0,8.361934838E0
5.921655708E0,-3.250813336E0,7.722559215E0,2.273550643E0,8.681862744E0
5.931592708E0,-3.416628970E0,7.736372092E0,2.185221580E0,8.734987122E0
5.941528708E0,-3.619257797E0,7.504731136E0,1.938965946E0,8.554507897E0
5.951465708E0,-3.953648658E0,7.823892632E0,1.159657230E0,8.842479206E0
5.961401708E0,-4.214815714E0,7.472059234E0,2.876175213E-1,8.583651003E0
5.971337708E0,-4.708773582E0,6.181234338E0,-6.059937358E-1,7.794064088E0
5.981274708E0,-4.890367050E0,4.228383594E0,-1.785524483E0,6.706937854E0
5.991210708E0,-4.469069900E0,1.768604980E0,-3.679573288E0,6.053082597E0
6.001147708E0,-2.160970107E0,-9.399966341E-1,-5.558902313E0,6.037779426E0
6.011083708E0,1.175681525E0,-2.425387046E0,-6.069240863E0,6.640814259E0
6.021020708E0,2.475457630E0,-2.497061630E0,-4.107205896E0,5.406694697E0
6.030956708E0,2.380703793E0,-1.626542782E0,-2.160483618E0,3.602926788E0
6.040893708E0,2.943406498E0,-1.140455559E0,-1.069821194E0,3.332986361E0
6.050829708E0,3.820711918E0,-1.562719254E0,-3.146544617E-1,4.139920102E0
6.060766708E0,6.513504707E0,-2.101861773E0,1.812871106E-1,6.846636509E0
6.070702708E0,9.814371378E0,-2.926204575E0,-8.903783315E-1,1.027994807E1
6.080638708E0,1.033366611E1,-3.380179474E0,-5.411491082E0,1.214473154E1
6.090575708E0,1.034402153E1,-3.220842263E0,-8.262733768E0,1.362517433E1
6.100511708E0,1.041479038E1,-3.015995588E0,-8.390728734E0,1.371015743E1
6.110448708E0,8.910295944E0,-2.273176421E0,-8.111254045E0,1.226185741E1
6.120384708E0,6.246488096E0,-2.599502510E0,-7.504830539E0,1.010438065E1
6.130321708E0,5.581079632E0,-4.135943792E0,-5.833363014E0,9.070975965E0
6.140257708E0,6.603385767E0,-6.314369591E0,-4.877001193E0,1.035669385E1
6.150194708E0,5.473761590E0,-6.402283648E0,-3.715108572E0,9.206157372E0
6.160130708E0,4.846032877E0,-5.660973063E0,-1.996278015E0,7.714646886E0
6.170067708E0,3.059563776E0,-4.785967062E0,-6.786722875E-1,5.720752336E0
6.180003708E0,1.279011181E-1,-3.542413396E0,-5.571063352E-1,3.588233386E0
6.189939708E0,-6.349389151E-1,-3.566079417E0,-1.253461772E0,3.832914850E0
6.199876583E0,-1.007153075E0,-4.136504540E0,-8.359261358E-1,4.338640297E0
6.209812583E0,-1.261675941E0,-5.788730047E0,1.253291034E0,6.055737788E0
6.219749583E0,-2.269193590E0,-8.913956301E0,4.003988507E0,1.003193802E1
6.229685583E0,-4.052321007E0,-1.052050453E1,7.037906395E0,1.329038929E1
6.239622583E0,-5.762640356E0,-9.512080269E0,8.797908951E0,1.418065220E1
6.249558583E0,-8.444199767E0,-7.852252797E0,1.014209612E1,1.535657831E1
6.259495583E0,-1.030942355E1,-5.659756842E0,1.075172683E1,1.593476361E1
6.269431583E0,-1.037237234E1,-2.573974151E0,8.673897693E0,1.376400930E1
6.279367583E0,-8.885018431E0,8.672140020E-1,6.034762756E0,1.077561943E1
6.289304583E0,-7.543908066E0,3.247988546E0,3.687964920E0,9.003391791E0
6.299240583E0,-6.530839362E0,4.907564004E0,1.828278446E0,8.371299141E0
6.309177583E0,-5.439716177E0,5.998997676E0,5.552703094E-1,8.117069072E0
6.319113583E0,-4.805330701E0,6.341631650E0,2.684595577E-1,7.961128416E0
6.329050583E0,-3.959625389E0,6.268779436E0,2.872270735E-1,7.420156887E0
6.338986583E0,-3.477895803E0,6.348707950E0,4.826994927E-1,7.254987985E0
6.348923583E0,-3.106933824E0,6.753226515E0,3.366932023E-1,7.441267934E0
6.358859583E0,-3.019265935E0,7.021092142E0,-8.488565223E-1,7.689750259E0
6.368796583E0,-1.542207806E0,7.312183494E0,-5.958767371E-1,7.496766066E0
6.378732583E0,-6.140241556E-1,7.465476438E0,9.077919245E-2,7.491235210E0
6.388668583E0,1.174386367E0,6.830399237E0,-2.909196779E0,7.516446166E0
6.398605583E0,2.307272997E0,6.555368432E0,-5.740502797E0,9.013863563E0
6.408541583E0,2.176214821E0,6.842433391E0,-3.655312898E0,8.057053931E0
6.418478583E0,3.084253060E0,7.168280593E0,1.901620950E0,8.032000114E0
6.428414583E0,3.961328976E0,6.380866467E0,5.600328081E0,9.368631636E0
6.438351583E0,4.515015274E0,6.089011468E0,3.577239413E0,8.382008435E0
6.448287583E0,5.004572235E0,5.412931252E0,2.163842844E0,7.682954109E0
6.458224583E0,5.654491425E0,4.024056151E0,-3.425065041E-1,6.948641010E0
6.468160583E0,4.147615127E0,1.717927161E0,-4.192528467E0,6.142579256E0
6.478097583E0,3.040089040E0,-2.133005798E-1,-6.480887768E0,7.161671926E0
6.488033583E0,2.445478663E0,-1.333501968E0,-8.115087479E0,8.579815743E0
6.497969583E0,1.348584569E0,-3.656317742E0,-9.024216662E0,9.829741916E0
6.507906583E0,1.539279228E0,-7.023923364E0,-7.533362027E0,1.041424137E1
6.517842583E0,2.832398279E0,-8.066464373E0,-3.839370675E0,9.371824511E0
6.527779583E0,2.016522245E0,-6.813900148E0,-6.276863211E-1,7.133693806E0
6.537715583E0,4.900112897E-2,-5.444723732E0,-1.292401012E0,5.596223549E0
6.547652583E0,-6.284161998E-1,-4.409734402E0,-3.182429857E0,5.474351488E0
6.557588583E0,4.058479294E-1,-2.872280967E0,-4.882076576E0,5.678853950E0
6.567525583E0,1.746084136E0,-3.450617373E-2,-5.967057846E0,6.217377246E0
6.577461583E0,2.403342019E0,2.483894286E0,-6.592570172E0,7.443639241E0
6.587398583E0,-1.693954454E-1,1.204966135E0,-4.263425372E0,4.433670501E0
6.597334583E0,-4.506081021E0,-2.839274020E0,5.223911235E-1,5.351554504E0
6.607270583E0,-6.409405557E0,-6.419093224E0,4.554779557E0,1.015043123E1
6.617207583E0,-6.773327488E0,-8.662664607E0,8.046083318E0,1.362568090E1
6.627143583E0,-5.432924051E0,-9.342404011E0,7.189541069E0,1.298024180E1
6.637080583E0,-3.774358993E0,-7.736194337E0,2.946631823E0,9.098193652E0
6.647016583E0,-2.881364032E0,-5.289633354E0,7.438111469E-1,6.069244988E0
6.656953583E0,-9.851298299E-1,-5.063292899E0,1.816148398E0,5.468620554E0
6.666889583E0,5.221206897E-1,-4.914384196E0,3.139480011E0,5.854922441E0
6.676826583E0,2.065141259E0,-5.097433621E0,3.159690620E0,6.342892302E0
6.686762583E0,2.632576408E0,-4.929198117E0,3.640915299E0,6.669611446E0
6.696698583E0,1.297544516E0,-3.645876369E0,3.859528951E0,5.465528336E0
6.706635583E0,3.571274668E-1,-2.687921766E0,4.847314294E0,5.554180346E0
6.716571583E0,1.650055021E-2,-1.746780832E0,5.171012059E0,5.458102350E0
6.726508583E0,-1.261329201E-1,1.769683206E-1,5.241599647E0,5.246102759E0
6.736444583E0,-2.919406602E-1,2.156901614E0,4.514913533E0,5.012174990E0
6.746381583E0,-6.357601565E-1,3.643329906E0,3.839260747E0,5.330850483E0
6.756317583E0,-9.336369100E-1,4.238371807E0,3.249080222E0,5.421438531E0
6.766254583E0,-1.211741304E0,4.726192730E0,2.074807437E0,5.301890287E0
6.776190583E0,-1.350122094E0,5.300610917E0,9.889021611E-1,5.558527974E0
6.786127583E0,-1.945799003E0,5.839342377E0,6.293112624E-1,6.187090254E0
6.796063583E0,-2.461125520E0,6.205824804E0,6.163197725E-1,6.704420212E0
6.805999583E0,-2.916445572E0,6.455466413E0,2.227148893E-1,7.087192908E0
6.815936583E0,-3.094613741E0,6.860452171E0,3.269121992E-1,7.533213775E0
6.825872583E0,-3.189120241E0,6.678026644E0,1.242622204E0,7.504041425E0
6.835809583E0,-3.323391024E0,5.993215365E0,2.446037657E0,7.276445460E0
6.845745583E0,-4.155613825E0,5.478728215E0,1.786693926E0,7.104777569E0
6.855682583E0,-4.535463572E0,5.030550245E0,8.728805387E-1,6.829259551E0
6.865618583E0,-4.881998223E0,4.180016595E0,-1.380305421E-1,6.428491099E0
6.875555583E0,-4.568639212E0,3.316360039E0,-1.687728631E0,5.892294637E0
6.885491583E0,-3.124758184E0,1.877546209E0,-3.796390132E0,5.263256740E0
6.895427583E0,-1.236411291E0,1.098867238E-1,-4.548015790E0,4.714364814E0
6.905364583E0,7.839885351E-1,-9.620657802E-2,-3.300208275E0,3.393415446E0
6.915300583E0,1.302981257E0,4.021130204E-3,-2.803532329E0,3.091531958E0
6.925237583E0,1.441999686E0,-4.292458552E-1,-2.897593564E0,3.264914020E0
6.935173583E0,1.908164861E0,-9.985085517E-1,-2.700928313E0,3.454435730E0
6.945110583E0,3.197296403E0,-1.670276447E0,-2.325314873E0,4.291808122E0
6.955046583E0,5.605757221E0,-1.985545451E0,-1.951698843E0,6.259076061E0
6.964983583E0,9.118900040E0,-2.006283186E0,-1.900270243E0,9.528406853E0
6.974919583E0,1.018631978E1,-2.081262617E0,-4.369742371E0,1.127773972E1
6.984855583E0,1.122480633E1,-1.650871292E0,-6.644769436E0,1.314817912E1
6.994792583E0,1.129602308E1,-1.677107164E0,-6.327017704E0,1.305541952E1
7.004728583E0,9.206738083E0,-1.029881787E0,-6.020843459E0,1.104876638E1
7.014665583E0,5.482275136E0,-1.986298572E0,-6.624248632E0,8.825043492E0
7.024601583E0,3.888083536E0,-3.703428174E0,-6.108285645E0,8.132879401E0
7.034538583E0,4.756335711E0,-5.851651350E0,-5.243477188E0,9.184694113E0
7.044474583E0,4.985469382E0,-7.534431483E0,-4.342352259E0,1.002390073E1
7.054411583E0,3.013896437E0,-6.838508155E0,-2.820882772E0,7.987874883E0
7.064347583E0,2.532113349E0,-5.563221066E0,-1.536707330E0,6.302578525E0
7.074284583E0,2.163438216E0,-3.276020683E0,-3.474275208E-1,3.941253901E0
7.084220583E0,4.034017467E-1,-2.066314210E0,3.593757212E-1,2.135775806E0
7.094156583E0,-4.518894902E-1,-2.724267474E0,8.326283062E-1,2.884286268E0
7.104093583E0,-4.697954187E-1,-3.965747132E0,7.028494278E-1,4.054855776E0
7.114029583E0,-8.968871596E-1,-5.269655172E0,1.497566653E0,5.551250138E0
7.123966583E0,-1.791168800E0,-7.457459906E0,3.110076703E0,8.276144695E0
7.133902583E0,-3.058563902E0,-8.670530866E0,5.770927030E0,1.085525299E1
7.143839583E0,-4.803076015E0,-7.860751725E0,8.050172861E0,1.223381543E1
7.153775583E0,-6.582448642E0,-6.419696656E0,9.789763956E0,1.343058501E1
7.163712583E0,-7.763113164E0,-3.906287965E0,1.023442716E1,1.342641095E1
7.173648583E0,-9.093027281E0,-1.644858016E0,8.802825290E0,1.276238364E1
7.183584583E0,-8.960276774E0,7.650841945E-1,6.401857971E0,1.103882689E1
7.193521583E0,-7.190915750E0,2.967619234E0,3.912240723E0,8.707563420E0
7.203457958E0,-5.688220503E0,4.831006994E0,2.192271129E0,7.778208905E0
7.213394958E0,-5.051965088E0,6.129709843E0,1.084436017E0,8.016962984E0
7.223330958E0,-4.353687086E0,6.578262035E0,2.384599793E-1,7.892083743E0
7.233267958E0,-3.442765439E0,6.617851778E0,-1.130737486E-1,7.460655581E0
7.243203958E0,-2.269648796E0,6.680012943E0,-3.820734429E-1,7.065398693E0
7.253140958E0,-1.297655613E0,6.954540887E0,-5.903781617E-1,7.099161600E0
7.263076958E0,-7.460213944E-1,7.278314667E0,-1.171080205E0,7.409577664E0
7.273013958E0,-1.721312115E-1,7.134274941E0,-1.303319957E0,7.254388396E0
7.282949958E0,1.706532985E0,6.164144096E0,-3.997452781E0,7.542450266E0
7.292885958E0,2.953173980E0,5.569099857E0,-5.076765468E0,8.093803641E0
7.302822958E0,3.102019532E0,5.560643613E0,-1.818696029E0,6.622004064E0
7.312758958E0,2.815680504E0,5.621025470E0,1.005360027E0,6.366689314E0
7.322695958E0,2.507684560E0,5.643534327E0,3.479787085E0,7.088503348E0
7.332631958E0,2.512364963E0,5.662555904E0,4.446780314E0,7.625639137E0
7.342568958E0,2.859223258E0,5.598196186E0,3.032017251E0,6.979117909E0
7.352504958E0,2.831900973E0,4.330708698E0,4.306512335E-1,5.192317540E0
7.362441958E0,2.655751263E0,2.192333402E0,-2.568189793E0,4.295921243E0
7.372377958E0,2.243623424E0,3.821740150E-3,-5.142612133E0,5.610732592E0
7.382313958E0,1.547354818E0,-1.982016656E0,-7.121301724E0,7.552194065E0
7.392250958E0,6.015998456E-1,-4.178541927E0,-6.922163100E0,8.107926800E0
7.402186958E0,2.237295274E-1,-6.441720779E0,-4.505741883E0,7.864320149E0
7.412123958E0,1.921688886E-1,-6.988717278E0,-1.497213774E0,7.149877423E0
7.422059958E0,-1.174249542E-1,-5.436215449E0,-1.134015143E0,5.554477237E0
7.431996958E0,-1.062377688E-1,-3.500590602E0,-2.979973523E0,4.598441391E0
7.441932958E0,6.055864772E-1,-2.770727111E0,-4.599284177E0,5.403432117E0
7.451869958E0,2.385057630E0,-1.417066866E0,-6.177854648E0,6.772183285E0
7.461805958E0,3.649370957E0,8.860396975E-1,-7.038557775E0,7.977735912E0
7.471741958E0,2.620058689E0,8.720613438E-1,-5.893137345E0,6.508015542E0
7.481678958E0,-1.989720948E0,-2.782607483E0,-1.503249562E0,3.736529553E0
7.491614958E0,-5.671177039E0,-7.085886308E0,3.237082905E0,9.635908857E0
7.501551958E0,-6.385103359E0,-9.660800107E0,8.074256372E0,1.411716046E1
7.511487958E0,-5.234456103E0,-9.889503422E0,8.669191854E0,1.415474111E1
7.521424958E0,-4.416460454E0,-7.921914185E0,3.806908980E0,9.836381616E0
7.531360958E0,-2.500584286E0,-5.662674603E0,3.393349743E-1,6.199512372E0
7.541297958E0,-4.109388077E-1,-6.159483865E0,1.028671121E0,6.258296611E0
7.551233958E0,-7.322205037E-2,-6.557524885E0,3.085405546E0,7.247497600E0
7.561170958E0,6.390214410E-1,-6.205603779E0,3.373209886E0,7.091996305E0
7.571106958E0,1.144596265E0,-5.681739450E0,3.362655077E0,6.700724807E0
7.581042958E0,1.765386087E0,-5.071252713E0,4.787120132E0,7.193796722E0
7.590979958E0,1.647699763E0,-3.547731439E0,5.833452476E0,7.023566093E0
7.600915958E0,1.161459635E0,-2.037616076E0,6.091163244E0,6.527107891E0
7.610852958E0,5.525993013E-1,-1.733202428E-1,5.546671107E0,5.576824030E0
7.620788958E0,1.799626797E-2,1.276768774E0,4.777034563E0,4.944746867E0
7.630725958E0,-9.782441488E-1,2.303980722E0,4.313053907E0,4.986754736E0
7.640661958E0,-1.479611901E0,3.472231021E0,3.557809700E0,5.186872805E0
7.650598958E0,-1.530988461E0,4.293036257E0,2.659018979E0,5.276785755E0
7.660534958E0,-1.886080512E0,5.102382120E0,1.668791839E0,5.690032443E0
7.670470958E0,-2.233948621E0,5.798301355E0,8.006523688E-1,6.265131224E0
7.680407958E0,-2.701225059E0,6.353231941E0,3.951489866E-1,6.914934247E0
7.690343958E0,-2.566122217E0,6.748589088E0,3.709801054E-1,7.229527243E0
7.700280958E0,-2.815093152E0,6.704529734E0,4.653521195E-1,7.286427176E0
7.710216958E0,-3.161090151E0,6.658968814E0,1.213342856E0,7.470378672E0
7.720153958E0,-3.692530133E0,6.580287511E0,9.188326371E-1,7.601264100E0
7.730089958E0,-3.863185800E0,6.795363305E0,-8.090792298E-2,7.817142257E0
7.740026958E0,-4.105345897E0,6.567511929E0,-8.086652470E-1,7.787170048E0
7.749962958E0,-4.091198851E0,6.085357543E0,-1.219157327E0,7.433426468E0
7.759898958E0,-3.454508695E0,5.026104607E0,-1.781275896E0,6.353605406E0
7.769835958E0,-2.493626391E0,3.351409419E0,-2.920705268E0,5.097120456E0
7.779771958E0,-1.544745498E0,1.280175946E0,-4.071953033E0,4.539371169E0
7.789708958E0,5.851022190E-1,-2.434306973E-1,-3.738224369E0,3.791559646E0
7.799644958E0,2.412048377E0,-5.526612818E-1,-2.505037233E0,3.521167903E0
7.809581958E0,2.380785947E0,-5.070155776E-1,-1.516981748E0,2.868177147E0
7.819517958E0,2.784382698E0,-3.840942407E-1,-4.849019927E-1,2.852270208E0
7.829454958E0,3.490648581E0,-4.746845680E-1,-2.004601856E-2,3.522833348E0
7.839390958E0,4.381558424E0,-6.700885749E-1,-6.289734760E-2,4.432948116E0
7.849327958E0,7.071426144E0,-7.114330673E-1,-2.593592802E-2,7.107170843E0
7.859263958E0,9.465879080E0,-1.670392222E0,-1.039006952E0,9.668123519E0
7.869199958E0,9.518242650E0,-2.667122051E0,-5.662046027E0,1.139163063E1
7.879136958E0,1.045258327E1,-1.961556664E0,-8.229663670E0,1.344736278E1
7.889072958E0,9.904113275E0,-1.175447636E0,-7.844345607E0,1.268884924E1
7.899009958E0,7.372636102E0,-1.956097704E0,-7.369421303E0,1.060615160E1
7.908945958E0,5.749792269E0,-3.860385568E0,-6.939580202E0,9.804104306E0
7.918882958E0,6.720234770E0,-6.091379006E0,-5.111180425E0,1.041108154E1
7.928818958E0,6.306472342E0,-7.083287805E0,-4.189816529E0,1.036817834E1
7.938754958E0,4.178372358E0,-6.497601449E0,-3.492867014E0,8.478074082E0
7.948691958E0,3.390762935E0,-5.644262890E0,-2.255890297E0,6.960173697E0
7.958627958E0,5.480852509E-1,-4.446305813E0,-1.142153006E0,4.623261436E0
7.968564958E0,-1.080483007E0,-3.060886416E0,-7.112132120E-1,3.322994646E0
7.978500958E0,-1.066104704E0,-2.973916100E0,-1.378913601E-1,3.162241331E0
7.988437958E0,-5.385013720E-1,-3.976765040E0,9.666266084E-1,4.127833683E0
7.998373958E0,-4.230352351E-1,-4.877373660E0,1.805000389E0,5.217830874E0
8.008310958E0,-1.158437501E0,-6.241410373E0,2.740039169E0,6.914115673E0
8.018246958E0,-2.762904121E0,-8.394452825E0,4.679587498E0,9.999950828E0
8.028182958E0,-5.535363761E0,-8.467506183E0,6.632262826E0,1.209652112E1
8.038119958E0,-7.823521333E0,-6.993431888E0,7.955595317E0,1.316841192E1
8.048055958E0,-8.924717517E0,-4.928677715E0,8.913898998E0,1.354252717E1
8.057992958E0,-9.049428102E0,-3.167308080E0,8.769945227E0,1.299368803E1
8.067928958E0,-9.345293121E0,-9.694537371E-1,6.556079453E0,1.145672387E1
8.077865958E0,-7.947596326E0,1.455959621E0,4.036879972E0,9.032192740E0
8.087801958E0,-6.081107202E0,3.434841000E0,2.267393817E0,7.342960726E0
8.097738958E0,-5.406160176E0,5.032208515E0,1.565155789E0,7.549794900E0
8.107674958E0,-5.124302162E0,5.547941122E0,1.015753745E0,7.620359507E0
8.117610958E0,-3.923932523E0,5.521295945E0,6.862629966E-1,6.808297310E0
8.127547958E0,-2.573348499E0,5.801644208E0,3.128625825E-2,6.346824154E0
8.137483958E0,-1.254430656E0,6.737413305E0,-6.270729482E-1,6.881827867E0
8.147420958E0,-1.783292601E-1,7.532770289E0,-1.722499684E0,7.729258355E0
8.157356958E0,8.554564208E-1,7.599481173E0,-3.880729201E0,8.575778618E0
8.167293958E0,2.367787586E0,7.155533663E0,-5.546571704E0,9.358019968E0
8.177229958E0,1.960017385E0,6.679237018E0,-3.371313926E0,7.734315281E0
8.187166958E0,8.315094414E-1,6.660976748E0,-3.663884331E-1,6.722667601E0
8.197102958E0,1.422189612E0,7.001122731E0,6.644180913E-1,7.174942103E0
8.207039500E0,1.385997101E0,7.087424126E0,1.237920165E0,7.327005871E0
8.216975500E0,1.362119119E0,7.170972651E0,2.713956201E0,7.787411349E0
8.226911500E0,1.201310748E0,6.663350133E0,3.553684489E0,7.646702293E0
8.236848500E0,9.882876188E-1,5.242886034E0,3.770065382E0,6.532837008E0
8.246784500E0,1.156153286E0,3.858282325E0,2.390856606E0,4.683932987E0
8.256721500E0,1.377418651E0,1.731086320E0,-2.639816138E-1,2.227920169E0
8.266657500E0,1.985777293E0,-6.550939751E-1,-3.934489671E0,4.455633350E0
8.276594500E0,2.597177657E0,-2.449552419E0,-7.795903764E0,8.574482745E0
8.286530500E0,1.784103609E0,-4.800741806E0,-9.301250138E0,1.061806958E1
8.296467500E0,1.944994718E0,-6.545064468E0,-7.620670313E0,1.023208138E1
8.306403500E0,2.337530584E0,-6.234368572E0,-3.698947745E0,7.616666931E0
8.316339500E0,1.990926790E0,-4.525090612E0,-5.995427951E-1,4.979928322E0
8.326276500E0,1.080192693E0,-3.487595749E0,-1.760622361E0,4.053385185E0
8.336212500E0,5.683670492E-1,-3.134588231E0,-4.543634471E0,5.549170991E0
8.346149500E0,1.280562301E0,-3.135820239E0,-5.954079950E0,6.850129666E0
8.356085500E0,1.276868176E0,-2.813036394E0,-6.633655633E0,7.317715022E0
8.366022500E0,9.637629345E-2,-3.677216275E0,-6.909329631E0,7.827518373E0
8.375958500E0,-2.383085949E0,-6.303976166E0,-3.093709762E0,7.415541398E0
8.385894500E0,-5.575034781E0,-8.812696559E0,2.962353816E0,1.084067219E1
8.395831500E0,-5.604454461E0,-8.843990273E0,6.495770686E0,1.232157095E1
8.405767500E0,-3.509113795E0,-5.885348854E0,5.474882501E0,8.770721132E0
8.415704500E0,-4.263320122E0,-1.979744428E0,4.712286589E0,6.655894483E0
8.425640500E0,-2.898385569E0,-1.024456156E0,3.731578716E0,4.834752221E0
8.435577500E0,-9.739180863E-1,-3.791444557E0,3.298395638E0,5.118884845E0
8.445513500E0,-2.185820773E-1,-6.374351499E0,2.909646722E0,7.010433596E0
8.455450500E0,8.520197198E-1,-7.365101380E0,2.215975157E0,7.738294505E0
8.465386500E0,1.897825229E0,-7.250752062E0,2.015722054E0,7.761332454E0
8.475322500E0,1.623926446E0,-5.882386655E0,3.996669255E0,7.294722406E0
8.485259500E0,1.614342567E0,-4.208978439E0,4.816010056E0,6.596632040E0
8.495195500E0,1.624085782E0,-2.869463194E0,5.264390924E0,6.211705519E0
8.505132500E0,1.304025570E0,-1.537350524E0,5.271784143E0,5.644079852E0
8.515068500E0,5.652599850E-1,1.717093349E-1,4.275329719E0,4.315952635E0
8.525005500E0,-1.432792953E-1,2.091613943E0,3.353423785E0,3.954848787E0
8.534941500E0,-4.575960803E-1,3.105871385E0,2.749788816E0,4.173388284E0
8.544878500E0,-9.830470517E-1,3.843059683E0,2.248485968E0,4.559734464E0
8.554814500E0,-1.367381321E0,4.663097765E0,2.053924691E0,5.275681859E0
8.564751500E0,-1.684499214E0,5.532927226E0,1.778671546E0,6.050991139E0
8.574687500E0,-2.119698120E0,6.536408250E0,1.615066306E0,7.058767039E0
8.584623500E0,-2.264120253E0,6.858938327E0,1.632176574E0,7.405084460E0
8.594560500E0,-2.436474828E0,6.873287979E0,1.435569795E0,7.432318472E0
8.604496500E0,-2.807309923E0,7.490905979E0,1.359068334E0,8.114291598E0
8.614433500E0,-3.059477530E0,8.014390824E0,8.964122926E-1,8.625219884E0
8.624369500E0,-3.198006547E0,7.879845223E0,6.301731420E-1,8.527386751E0
8.634306500E0,-3.651502560E0,7.575157925E0,1.272412598E-1,8.410272223E0
8.644242500E0,-3.812375835E0,6.716386718E0,-6.615855539E-1,7.751242190E0
8.654179500E0,-3.613442448E0,5.615415067E0,-1.517078812E0,6.847728151E0
8.664115500E0,-3.287003508E0,4.462726548E0,-2.641487857E0,6.139851660E0
8.674051500E0,-2.314755679E0,3.021697208E0,-3.485436373E0,5.161105945E0
8.683988500E0,-9.415446845E-1,1.908234150E0,-3.939917057E0,4.477813125E0
8.693924500E0,1.209003637E0,3.895385832E-1,-3.762030138E0,3.970680151E0
8.703861500E0,2.056950772E0,-4.587924206E-1,-3.075688643E0,3.728457803E0
8.713797500E0,2.421686635E0,-8.618532747E-1,-1.902008620E0,3.197654456E0
8.723734500E0,2.872542045E0,-9.439984685E-1,-8.438754255E-1,3.139228670E0
8.733670500E0,3.148557521E0,-9.189636147E-1,-2.523757678E-1,3.289620361E0
8.743607500E0,3.649444925E0,-1.213518857E0,1.041687316E-1,3.847327306E0
8.753543500E0,5.117312400E0,-1.501491889E0,4.851727188E-2,5.333265231E0
8.763479500E0,7.504746923E0,-2.397846075E0,-1.821262665E0,8.086277876E0
8.773416500E0,8.218908302E0,-3.182710816E0,-5.876514296E0,1.059308841E1
8.783352500E0,9.090489589E0,-2.995182424E0,-8.176144690E0,1.258798875E1
8.793289500E0,9.425568960E0,-2.580164014E0,-7.967392074E0,1.260864517E1
8.803225500E0,8.811924727E0,-2.448385314E0,-6.813689064E0,1.140486592E1
8.813162500E0,8.750392138E0,-4.017079253E0,-5.218587345E0,1.095170955E1
8.823098500E0,8.061185507E0,-5.638257800E0,-4.642444814E0,1.087772755E1
8.833035500E0,7.901356544E0,-6.201625333E0,-4.152651626E0,1.086904354E1
8.842971500E0,7.084283001E0,-7.036029439E0,-3.074651347E0,1.044730859E1
8.852907500E0,2.940600420E0,-7.389574317E0,-2.453272417E0,8.322949295E0
8.862844500E0,-5.050301555E-1,-6.090345803E0,-2.185579283E0,6.490310028E0
8.872780500E0,-5.591484752E-1,-5.169604635E0,-2.156532070E0,5.629217500E0
8.882717500E0,-6.544437647E-2,-5.983751062E0,-9.309679484E-1,6.056092887E0
8.892653500E0,-2.469951600E-2,-7.358916780E0,1.430226610E0,7.496653547E0
8.902590500E0,-1.912943206E0,-8.166071692E0,3.330643033E0,9.024259615E0
8.912526500E0,-3.503347564E0,-9.975048187E0,4.445602977E0,1.146901985E1
8.922463500E0,-7.071215059E0,-1.082366629E1,6.839831965E0,1.462659002E1
8.932399500E0,-1.037350085E1,-9.138017512E0,8.612051693E0,1.628742823E1
8.942335500E0,-1.180363624E1,-6.418120247E0,9.212147927E0,1.629054221E1
8.952272500E0,-1.055548140E1,-3.176542003E0,8.151307472E0,1.370957404E1
8.962208500E0,-8.837401630E0,5.458603853E-1,5.805743691E0,1.058793138E1
8.972145500E0,-7.783914049E0,3.484334173E0,3.248413639E0,9.125902351E0
8.982081500E0,-6.357440182E0,5.441838132E0,1.963148861E0,8.595615241E0
8.992018500E0,-5.430766429E0,6.445838388E0,1.004386904E0,8.488277186E0
9.001954500E0,-4.224295513E0,6.702491394E0,8.514459617E-1,7.968250981E0
9.011890500E0,-3.502259982E0,6.370306980E0,6.902028506E-1,7.302261018E0
9.021827500E0,-2.803958884E0,6.451642334E0,1.045220203E0,7.111846420E0
9.031763500E0,-1.853556837E0,7.061330926E0,2.521354473E-1,7.304905179E0
9.041700500E0,-1.188751514E0,7.670862227E0,-6.319543500E-1,7.788107843E0
9.051636500E0,-6.654985106E-1,7.854204013E0,-1.108490731E0,7.959909588E0
9.061573500E0,-3.928840676E-1,8.068092822E0,-2.029444592E0,8.328692877E0
9.071509500E0,2.169258535E-1,7.506002321E0,-3.611018193E0,8.332261401E0
9.081446500E0,6.215379739E-1,6.865952062E0,-3.160990748E0,7.584159128E0
9.091382500E0,1.259126262E-1,7.052566534E0,-6.782528959E-1,7.086224361E0
9.101318500E0,-3.222944337E-1,7.204202963E0,8.091344860E-1,7.256659882E0
9.111255500E0,6.899246693E-2,6.888529331E0,2.261490176E0,7.250581640E0
9.121191500E0,4.295586812E-1,6.134947194E0,3.924057654E0,7.295226262E0
9.131128500E0,6.253453884E-1,4.288794687E0,4.101437033E0,5.967126818E0
9.141064500E0,2.404154344E0,2.766807722E0,2.072812513E0,4.210906648E0
9.151001500E0,3.777433751E0,9.299709982E-1,-1.415669235E0,4.139803278E0
9.160937500E0,4.533007157E0,-6.554290205E-1,-5.309006349E0,7.011653835E0
9.170874500E0,4.463033819E0,-1.531481674E0,-8.323424942E0,9.567837256E0
9.180810500E0,3.964010509E0,-1.808748454E0,-9.809285470E0,1.073345386E1
9.190746500E0,3.712808277E0,-3.144715024E0,-9.382128825E0,1.056875202E1
9.200683583E0,3.690997870E0,-5.673284960E0,-6.713980004E0,9.533475495E0
9.210619583E0,3.509107071E0,-5.957394737E0,-2.303329635E0,7.287641038E0
9.220556583E0,1.999303365E0,-4.708701369E0,-5.521633914E-1,5.145285895E0
9.230492583E0,4.355675724E-1,-3.671301232E0,-2.744616369E0,4.604464231E0
9.240429583E0,3.467691243E-1,-3.113701392E0,-5.273180459E0,6.133662636E0
9.250365583E0,4.171250157E-1,-2.080097267E0,-6.346599444E0,6.691795157E0
9.260302583E0,-5.015282580E-1,-1.281440699E0,-6.255554788E0,6.405121901E0
9.270238583E0,-2.033031128E0,-2.433123497E0,-5.469242277E0,6.321860217E0
9.280174583E0,-3.761885712E0,-5.417954010E0,-2.335751861E0,6.997267075E0
9.290111583E0,-5.437184333E0,-7.311797578E0,3.257197619E0,9.676502137E0
9.300047583E0,-4.831709830E0,-7.395931410E0,6.139934285E0,1.075843921E1
9.309984583E0,-4.083860596E0,-5.526841444E0,5.769842956E0,8.973014067E0
9.319920583E0,-3.523341825E0,-3.543060683E0,4.818849171E0,6.941795442E0
9.329857583E0,-9.813569140E-1,-4.025758860E0,3.545146385E0,5.453242951E0
9.339793583E0,5.172332945E-1,-6.541219339E0,3.173463736E0,7.288755231E0
9.349729583E0,1.231290885E0,-8.287721844E0,3.288381697E0,9.000881334E0
9.359666583E0,2.295258431E0,-7.364732421E0,3.139724133E0,8.328587067E0
9.369602583E0,1.050688812E0,-5.268973972E0,4.068186549E0,6.739152431E0
9.379539583E0,7.580906323E-1,-4.313863454E0,5.725371373E0,7.208605737E0
9.389475583E0,7.454700020E-1,-3.697872149E0,6.693603626E0,7.683379040E0
9.399412583E0,4.152666244E-1,-1.544739066E0,6.595627681E0,6.786823238E0
9.409348583E0,-2.037123156E-1,1.032500170E0,6.146358621E0,6.235806251E0
9.419285583E0,-6.312592623E-1,2.538228368E0,5.351055431E0,5.956079728E0
9.429221583E0,-1.059926828E0,3.543927825E0,4.365730304E0,5.722103669E0
9.439157583E0,-1.308868526E0,3.933107389E0,3.348846585E0,5.328906454E0
9.449094583E0,-1.048868574E0,4.365977933E0,2.538871561E0,5.158270777E0
9.459030583E0,-1.280792535E0,4.796777394E0,1.977181155E0,5.344038567E0
9.468967583E0,-1.783272720E0,5.444819042E0,1.032041749E0,5.821617144E0
9.478903583E0,-2.078103659E0,5.858868569E0,1.169561537E-1,6.217598770E0
9.488840583E0,-2.252084637E0,6.237164710E0,-2.884641250E-1,6.637568861E0
9.498776583E0,-2.275890114E0,6.749663807E0,-3.885030413E-1,7.133622637E0
9.508713583E0,-2.260384760E0,6.817110270E0,1.454092897E-2,7.182098797E0
9.518649583E0,-2.895406120E0,6.272401201E0,1.614498103E-1,6.910315439E0
9.528585583E0,-3.372023193E0,5.674007676E0,-2.855990624E-1,6.606547536E0
9.538522583E0,-3.785882100E0,5.337893348E0,-7.913680136E-1,6.591833737E0
9.548458583E0,-3.613635114E0,4.773004369E0,-1.613007063E0,6.200138807E0
9.558395583E0,-3.119874882E0,4.247943699E0,-2.545540895E0,5.853069571E0
9.568331583E0,-2.422925660E0,2.988895497E0,-3.910146543E0,5.485737055E0
9.578268583E0,-8.091151902E-1,1.579365107E0,-4.729481789E0,5.051441331E0
9.588204583E0,4.634704855E-1,6.781027687E-1,-4.295159966E0,4.372988382E0
9.598141583E0,1.307466364E0,7.179597294E-1,-3.469146615E0,3.776229958E0
9.608077583E0,1.866386505E0,7.598977143E-1,-2.916263723E0,3.544776047E0
9.618013583E0,2.100808690E0,1.719911706E-1,-2.233042887E0,3.070742361E0
9.627950583E0,2.392141532E0,-5.119506276E-1,-1.833544741E0,3.057175309E0
9.637886583E0,3.306653369E0,-1.194162819E0,-1.675084612E0,3.894340740E0
9.647823583E0,5.313764813E0,-1.256456131E0,-1.376816972E0,5.631199115E0
9.657759583E0,8.137019216E0,-9.633895898E-1,-8.303391212E-1,8.235815945E0
9.667696583E0,9.198377734E0,-1.404119961E0,-2.915490721E0,9.750989281E0
9.677632583E0,1.071676281E1,-1.159007605E0,-4.465650156E0,1.166766194E1
9.687568583E0,9.807865182E0,-9.031445575E-1,-5.296078740E0,1.118294861E1
9.697505583E0,7.707824231E0,-1.069082690E0,-6.231665404E0,9.969310201E0
9.707441583E0,5.133962347E0,-2.478745812E0,-6.166513388E0,8.398073443E0
9.717378583E0,6.136624761E0,-5.503392940E0,-5.572481886E0,9.949776464E0
9.727314583E0,6.964695162E0,-7.955559064E0,-5.058666582E0,1.172126300E1
9.737251583E0,5.011316414E0,-7.821573626E0,-4.116917537E0,1.016067499E1
9.747187583E0,3.690383620E0,-7.310966688E0,-2.836997699E0,8.667048005E0
9.757124583E0,1.754130197E0,-6.231212245E0,-1.715406427E0,6.696834924E0
9.767060583E0,7.744029021E-1,-5.231398594E0,-1.668467903E0,5.545359885E0
9.776996583E0,-1.466431984E-1,-5.428761418E0,-6.268706346E-1,5.466801767E0
9.786933583E0,-8.490844175E-1,-5.390432335E0,7.196367109E-1,5.504142268E0
9.796869583E0,-1.127267456E0,-6.526014825E0,2.170889908E0,6.969387663E0
9.806806583E0,-2.319990984E0,-9.121450596E0,3.625243299E0,1.008591137E1
9.816742583E0,-4.678781459E0,-1.067223042E1,5.758001175E0,1.299777195E1
9.826679583E0,-7.503762252E0,-1.055846465E1,7.867764291E0,1.515550523E1
9.836615583E0,-1.030972878E1,-9.002840411E0,8.668361549E0,1.620130041E1
9.846552583E0,-1.057143144E1,-6.016252810E0,8.792419585E0,1.500856764E1
9.856488583E0,-9.668747057E0,-2.822038767E0,7.506883496E0,1.256192152E1
9.866424583E0,-8.472022573E0,8.625783294E-1,5.459174541E0,1.011542360E1
9.876361583E0,-7.181867183E0,3.493345317E0,3.274791598E0,8.631740135E0
9.886297583E0,-5.963334339E0,5.137381799E0,9.947420678E-1,7.933697748E0
9.896234583E0,-4.746245171E0,6.104483786E0,2.401322830E-1,7.736228347E0
9.906170583E0,-3.884834531E0,6.109021225E0,5.035328297E-1,7.257108582E0
9.916107583E0,-2.443459912E0,6.141529405E0,5.764840078E-1,6.634848422E0
9.926043583E0,-1.349926212E0,6.622952889E0,2.303886290E-1,6.763052911E0
9.935980583E0,-7.059548110E-1,7.219343743E0,-5.922001541E-1,7.277911602E0
9.945916583E0,-4.417068565E-1,7.747222770E0,-1.294159416E0,7.866982534E0
9.955852583E0,-4.323059955E-1,8.067029799E0,-1.250742963E0,8.174852672E0
9.965789583E0,-4.041604230E-1,7.796714188E0,-8.356093629E-1,7.851773099E0
9.975725583E0,-8.580786046E-1,7.117050213E0,-5.714108174E-1,7.191329011E0
9.985662583E0,-1.228440952E0,6.539275140E0,-4.726128995E-1,6.670423486E0
9.995598583E0,-7.388012525E-1,6.590822439E0,5.260666832E-1,6.652932727E0
1.000553558E1,-1.258207665E0,6.121053625E0,1.909943584E0,6.534391212E0
1.001547158E1,-6.461623532E-1,5.819834311E0,2.688871354E0,6.443448328E0
1.002540858E1,4.281413162E-1,5.512771874E0,2.131228244E0,5.925883272E0
1.003534458E1,1.056868442E0,4.846909667E0,1.540697763E0,5.194540770E0
1.004528058E1,1.606024902E0,3.022950851E0,8.114719105E-1,3.517958853E0
1.005521758E1,2.140032689E0,1.142172886E0,-1.246592025E0,2.727322953E0
1.006515358E1,4.187394904E0,3.280562800E-1,-5.175321457E0,6.665271877E0
1.007509058E1,6.379799935E0,6.417091137E-1,-8.988274412E0,1.104095624E1
1.008502658E1,6.193575472E0,-8.918734646E-1,-9.152068956E0,1.108675704E1
1.009496358E1,5.131695381E0,-3.779004021E0,-6.664050629E0,9.220886056E0
1.010489958E1,3.888598676E0,-6.126071706E0,-4.048147849E0,8.308878096E0
1.011483558E1,2.486518808E0,-5.797834747E0,-1.271375594E0,6.435375625E0
1.012477258E1,9.036851326E-1,-4.985958794E0,-1.210142967E0,5.209690769E0
1.013470858E1,3.941458967E-1,-4.087735253E0,-3.784058062E0,5.584265923E0
1.014464558E1,1.400711035E0,-3.063418846E0,-6.801335067E0,7.589775037E0
1.015458158E1,2.008123597E0,-1.504400879E0,-7.907862157E0,8.296388749E0
1.016451858E1,1.576038042E0,-3.515930772E-1,-7.995902513E0,8.157326192E0
1.017445458E1,-3.267163906E-1,-2.288342929E0,-6.644869423E0,7.035449283E0
1.018439158E1,-2.683368539E0,-5.039366677E0,-1.505497817E0,5.904422656E0
1.019432758E1,-4.713060761E0,-5.726843117E0,5.383260140E0,9.164560195E0
1.020426371E1,-4.891946383E0,-6.294089109E0,9.592316347E0,1.247233860E1
1.021420071E1,-5.397026825E0,-6.226156157E0,8.466713301E0,1.181431984E1
1.022413671E1,-3.404200421E0,-6.176344312E0,4.023879857E0,8.119570104E0
1.023407371E1,-4.589584816E-1,-6.646348184E0,1.140655241E0,6.759118393E0
1.024400971E1,7.229819030E-2,-6.483299745E0,6.001626000E-1,6.511420563E0
1.025394671E1,1.184469890E0,-7.030292736E0,1.799611010E0,7.352998345E0
1.026388271E1,9.090979001E-1,-6.577710643E0,2.580039760E0,7.123857204E0
1.027381871E1,-8.607832342E-2,-5.613267385E0,3.657426374E0,6.700219988E0
1.028375571E1,1.136687028E-1,-4.548949590E0,5.003922025E0,6.763512296E0
1.029369171E1,-1.439376917E-1,-2.818538623E0,6.127387329E0,6.746091721E0
1.030362871E1,-3.225291994E-1,-1.210705762E0,6.051221498E0,6.179572408E0
1.031356471E1,-3.140568763E-1,1.395613432E-2,5.616132520E0,5.624924087E0
1.032350171E1,-8.312872472E-1,1.247254368E0,4.613219846E0,4.850616383E0
1.033343771E1,-1.531291054E0,2.638410468E0,3.639337428E0,4.748772368E0
1.034337471E1,-1.716504534E0,3.557407996E0,2.669098409E0,4.767140210E0
1.035331071E1,-1.585166130E0,4.343591868E0,1.599496779E0,4.892640588E0
1.036324671E1,-1.729395890E0,5.242897729E0,1.178238512E0,5.645089258E0
1.037318371E1,-2.753487765E0,5.506707727E0,9.252622354E-1,6.225884279E0
1.038311971E1,-3.068393364E0,6.082101814E0,5.701922576E-1,6.836089490E0
1.039305671E1,-3.853195247E0,6.752944095E0,4.261075084E-1,7.786586875E0
1.040299271E1,-4.204380773E0,7.252613230E0,5.128499293E-1,8.398823216E0
1.041292971E1,-4.254894577E0,7.306743829E0,7.807249848E-1,8.491299356E0
1.042286571E1,-4.262794165E0,7.079367832E0,1.180080458E0,8.347541727E0
1.043280271E1,-4.227475813E0,6.208512184E0,2.014057059E0,7.776477424E0
1.044273871E1,-4.522111748E0,4.896600475E0,1.568978698E0,6.847472893E0
1.045267471E1,-4.272174269E0,3.721810066E0,-1.151117591E-1,5.667150418E0
1.046261171E1,-3.823022445E0,2.535359724E0,-2.230844918E0,5.101001724E0
1.047254771E1,-2.951554593E0,1.461146686E0,-4.426189052E0,5.517043926E0
1.048248471E1,-1.694496784E0,7.890501773E-1,-5.095039186E0,5.427093499E0
1.049242071E1,2.217085835E-1,5.478566247E-1,-4.534389439E0,4.572744161E0
1.050235771E1,1.731069071E0,4.118018568E-1,-3.756895698E0,4.156975606E0
1.051229371E1,2.314843095E0,2.158821255E-1,-3.389696403E0,4.110370464E0
1.052222971E1,2.622551064E0,-1.834435272E-1,-3.170591877E0,4.118747196E0
1.053216671E1,3.379124344E0,-3.819512361E-1,-2.975584311E0,4.518680125E0
1.054210271E1,5.159308273E0,-2.545713973E-1,-2.004485752E0,5.540869208E0
1.055203971E1,7.957898535E0,-3.347133350E-1,-1.390911101E0,8.085469424E0
1.056197571E1,9.522617537E0,-7.598778337E-1,-3.042981657E0,1.002583645E1
1.057191271E1,1.105289235E1,-4.331705064E-1,-5.102554613E0,1.218154873E1
1.058184871E1,1.141998054E1,-4.991294378E-1,-6.220388464E0,1.301377418E1
1.059178471E1,9.922879329E0,-7.462830573E-1,-6.494648021E0,1.188279956E1
1.060172171E1,6.550621662E0,-1.804727324E0,-6.168904315E0,9.177312532E0
1.061165771E1,5.843234868E0,-3.856290763E0,-5.458136660E0,8.877253403E0
1.062159471E1,7.584438626E0,-6.969251897E0,-4.652504949E0,1.130221145E1
1.063153071E1,6.713696998E0,-7.948720745E0,-4.001258442E0,1.114746420E1
1.064146771E1,4.547368796E0,-6.879177294E0,-3.213163700E0,8.850201363E0
1.065140371E1,2.109868073E0,-5.964626573E0,-2.178759676E0,6.691435359E0
1.066134071E1,2.502777869E-1,-4.637781660E0,-1.256850818E0,4.811583074E0
1.067127671E1,-8.961776000E-1,-4.254032990E0,-9.376127243E-1,4.447364229E0
1.068121271E1,-1.643755231E0,-4.824054655E0,-2.694432056E-1,5.103531543E0
1.069114971E1,-1.735500383E0,-6.108822420E0,1.151855948E0,6.454180433E0
1.070108571E1,-2.486079098E0,-8.054179958E0,2.696934664E0,8.850076873E0
1.071102271E1,-3.778138925E0,-9.587650854E0,4.973556265E0,1.144262402E1
1.072095871E1,-5.859909958E0,-1.007852870E1,6.275984960E0,1.324021422E1
1.073089571E1,-8.060911857E0,-8.648783902E0,7.458302490E0,1.397877101E1
1.074083171E1,-9.697655107E0,-6.426957144E0,8.358079051E0,1.432507515E1
1.075076771E1,-9.487052432E0,-3.989734164E0,7.886971225E0,1.296635869E1
1.076070471E1,-8.598083864E0,-1.140076075E0,5.747846900E0,1.040502588E1
1.077064071E1,-7.248394464E0,2.034666156E0,3.670213358E0,8.375533103E0
1.078057771E1,-5.965379695E0,4.295776262E0,2.028418698E0,7.625872475E0
1.079051371E1,-5.258743683E0,5.590222923E0,1.344434946E0,7.791821532E0
1.080045071E1,-4.806688132E0,5.828857734E0,7.566509016E-1,7.592914715E0
1.081038671E1,-3.609780045E0,5.778245405E0,4.171789563E-1,6.825882376E0
1.082032371E1,-2.764806805E0,6.360294793E0,2.279911244E-1,6.938983101E0
1.083025971E1,-1.815611916E0,7.053794450E0,-5.615510961E-1,7.305326988E0
1.084019571E1,-1.069699864E0,7.650904511E0,-1.072152479E0,7.799365908E0
1.085013271E1,-7.284584051E-1,7.961026211E0,-1.309989583E0,8.100905053E0
1.086006871E1,-3.466618279E-1,8.256186056E0,-2.137398372E0,8.535411789E0
1.087000571E1,2.911562562E-2,7.841200390E0,-1.811547955E0,8.047793317E0
1.087994171E1,1.807295421E-1,7.230665122E0,-6.064930880E-1,7.258306630E0
1.088987871E1,5.261500061E-2,6.975613083E0,9.378723407E-1,7.038575904E0
1.089981471E1,3.683365792E-2,6.636889143E0,2.052614476E0,6.947149085E0
1.090975071E1,3.454608098E-1,5.724526450E0,2.799624343E0,6.381805599E0
1.091968771E1,1.449143814E0,5.235055443E0,2.395627349E0,5.936737630E0
1.092962371E1,2.409634939E0,4.894513603E0,1.286512135E0,5.605150973E0
1.093956071E1,3.581166987E0,3.824695333E0,-5.160866556E-1,5.264921350E0
1.094949671E1,4.684033136E0,2.373998791E0,-3.027657859E0,6.061579727E0
1.095943371E1,5.919376141E0,1.482362723E0,-6.854428954E0,9.177124246E0
1.096936971E1,5.774288009E0,-1.697581190E-1,-9.391403679E0,1.102586427E1
1.097930671E1,3.102956256E0,-3.394967083E0,-8.815015565E0,9.942768147E0
1.098924271E1,2.471079528E0,-6.163669887E0,-6.963546769E0,9.622268138E0
1.099917871E1,3.343967960E0,-6.584903888E0,-4.108734066E0,8.451318036E0
1.100911571E1,2.762731043E0,-4.971396303E0,-1.012591571E-2,5.687492115E0
1.101905171E1,1.240446747E0,-3.876382965E0,-1.629363187E0,4.384048063E0
1.102898871E1,5.607408182E-1,-3.828902405E0,-4.408005381E0,5.865614659E0
1.103892471E1,1.066654634E0,-3.347297072E0,-5.749093527E0,6.737523742E0
1.104886171E1,1.918510632E0,-1.523659269E0,-6.816755344E0,7.243643698E0
1.105879771E1,2.243493762E0,1.403249896E0,-6.634501140E0,7.142757164E0
1.106873371E1,7.608663055E-1,2.013286396E0,-4.789931474E0,5.251255390E0
1.107867071E1,-3.387621226E0,-1.974504738E0,-8.475319818E-1,4.011602796E0
1.108860671E1,-5.264713106E0,-6.074671757E0,3.038035498E0,8.593515039E0
1.109854371E1,-5.630755822E0,-8.511899414E0,7.880473799E0,1.289417349E1
1.110847971E1,-5.545590541E0,-9.917207530E0,1.024269045E1,1.529762358E1
1.111841671E1,-5.050419669E0,-8.817121732E0,5.219321755E0,1.142320857E1
1.112835271E1,-1.910528890E0,-5.838641880E0,5.341986984E-2,6.143509854E0
1.113828871E1,3.807253674E-1,-5.673741628E0,-1.631031105E-1,5.688839819E0
1.114822571E1,1.720984378E0,-5.968190451E0,1.985314778E0,6.520932392E0
1.115816171E1,1.994668277E0,-6.323224615E0,2.729781983E0,7.170326404E0
1.116809871E1,2.380578663E0,-6.185530872E0,3.458435393E0,7.475876023E0
1.117803471E1,1.504038936E0,-5.029639834E0,4.006232083E0,6.603734208E0
1.118797171E1,2.636258107E-1,-3.847381945E0,5.278710755E0,6.537326184E0
1.119790771E1,-6.077101859E-1,-2.003717428E0,6.305367218E0,6.643933395E0
1.120784383E1,-6.056940660E-1,-2.974958074E-1,5.584166962E0,5.624792415E0
1.121778083E1,-8.667760456E-1,1.395248566E0,4.187938695E0,4.498538628E0
1.122771683E1,-1.290957043E0,2.363383756E0,3.313339952E0,4.269704264E0
1.123765383E1,-1.344224592E0,3.495024637E0,2.295494220E0,4.392201120E0
1.124758983E1,-1.499857885E0,4.385631010E0,1.387029866E0,4.838097237E0
1.125752683E1,-1.626966413E0,5.613422921E0,9.871653919E-1,5.927228029E0
1.126746283E1,-2.669094609E0,6.236582912E0,5.533208477E-1,6.806261559E0
1.127739983E1,-2.904862530E0,6.354414833E0,2.227134275E-1,6.990451735E0
1.128733583E1,-3.647211873E0,6.920887238E0,2.024657623E-1,7.825715749E0
1.129727183E1,-3.584005518E0,7.477677823E0,9.240742274E-1,8.343540877E0
1.130720883E1,-3.539054756E0,7.478234478E0,1.700443987E0,8.446325191E0
1.131714483E1,-3.893350416E0,7.537997115E0,1.457017382E0,8.608279597E0
1.132708183E1,-4.125803843E0,7.084984667E0,1.108093048E0,8.273278388E0
1.133701783E1,-4.213968745E0,6.454316851E0,7.623189732E-1,7.745764573E0
1.134695483E1,-4.269965775E0,5.628006461E0,-7.072912652E-2,7.064847278E0
1.135689083E1,-4.151934173E0,4.157629945E0,-1.363311074E0,6.031837300E0
1.136682683E1,-3.416101844E0,2.245592766E0,-2.696663353E0,4.897390317E0
1.137676383E1,-1.538270291E0,-8.413675547E-2,-3.998550596E0,4.285062584E0
1.138669983E1,2.017347872E-1,-1.567152613E0,-4.568769313E0,4.834285600E0
1.139663683E1,8.062284198E-1,-1.232140485E0,-3.673678710E0,3.957788486E0
1.140657283E1,1.519689009E0,-3.159350020E-1,-2.377106586E0,2.838997241E0
1.141650983E1,2.205367723E0,-3.915482712E-1,-1.814733079E0,2.882744004E0
1.142644583E1,2.779761059E0,-7.458778453E-1,-1.559724310E0,3.273552386E0
1.143638183E1,3.782808512E0,-1.239400973E0,-1.299899774E0,4.187540379E0
1.144631883E1,6.885328565E0,-1.694067598E0,-1.292222965E0,7.207458267E0
1.145625483E1,9.189905119E0,-1.856019099E0,-3.876440268E0,1.014524283E1
1.146619183E1,1.024153972E1,-1.924982915E0,-6.961238288E0,1.253210012E1
1.147612783E1,1.137166383E1,-1.362764944E0,-7.703437650E0,1.380271054E1
1.148606483E1,1.060736843E1,-3.981486082E-1,-6.777776635E0,1.259416704E1
1.149600083E1,7.630166191E0,-3.953290808E-1,-6.106625621E0,9.780930306E0
1.150593683E1,6.810152083E0,-2.412632514E0,-5.442452089E0,9.045399482E0
1.151587383E1,8.720934450E0,-5.586943805E0,-5.128244939E0,1.155714216E1
1.152580983E1,7.587461636E0,-6.849829534E0,-4.449480851E0,1.114843570E1
1.153574683E1,5.510159338E0,-5.918979115E0,-3.048429508E0,8.642285124E0
1.154568283E1,2.974045324E0,-5.483576726E0,-1.595737311E0,6.439016762E0
1.155561983E1,4.938280597E-1,-4.833177481E0,-9.806570023E-1,4.956325138E0
1.156555583E1,-1.350738975E-1,-5.095927379E0,-8.546664619E-1,5.168865985E0
1.157549183E1,-9.071820599E-1,-6.433032401E0,5.239186720E-1,6.517773848E0
1.158542883E1,-1.306371180E0,-8.017989786E0,2.871267060E0,8.616202202E0
1.159536483E1,-3.156612061E0,-1.049025337E1,5.234205258E0,1.214110869E1
1.160530183E1,-5.099409395E0,-1.299331074E1,8.270433966E0,1.622436988E1
1.161523783E1,-7.389593028E0,-1.278517208E1,9.651595420E0,1.764142864E1
1.162517483E1,-1.055541708E1,-1.017323138E1,9.707754418E0,1.758271772E1
1.163511083E1,-1.031559120E1,-5.951630552E0,8.326708739E0,1.453160027E1
1.164504683E1,-8.986067673E0,-2.193026882E0,6.382007843E0,1.123782912E1
1.165498383E1,-7.957206225E0,1.402503206E0,4.401861126E0,9.201115559E0
1.166491983E1,-6.997937168E0,3.937468243E0,2.656247399E0,8.457566495E0
1.167485683E1,-5.795578891E0,5.771083151E0,9.007540695E-1,8.228334783E0
1.168479283E1,-4.865643269E0,6.819767244E0,-2.222188993E-1,8.380518536E0
1.169472983E1,-3.648664614E0,7.218744988E0,-1.248305844E0,8.184210417E0
1.170466583E1,-2.350139081E0,7.208044583E0,-1.333772256E0,7.697922372E0
1.171460183E1,-8.625556715E-1,7.681456797E0,-1.721521006E0,7.919117084E0
1.172453883E1,8.073627797E-1,7.672774851E0,-4.555327148E0,8.959593406E0
1.173447483E1,3.067785839E0,7.076050122E0,-7.766401638E0,1.094526334E1
1.174441183E1,2.863398170E0,6.106768878E0,-5.849928761E0,8.928232843E0
1.175434783E1,2.322878923E0,5.831091371E0,-2.911476608E0,6.919110427E0
1.176428483E1,2.844183927E0,5.695556420E0,-1.167585762E0,6.472403082E0
1.177422083E1,4.930147120E0,4.910096433E0,3.286085495E0,7.695047465E0
1.178415783E1,6.614358652E0,4.014890640E0,7.454687741E0,1.074436860E1
1.179409383E1,3.993840079E0,5.208183979E0,6.466519990E0,9.213675690E0
1.180402983E1,1.285561086E0,7.775255492E0,5.415652546E0,9.562246481E0
1.181396683E1,1.434952037E-1,8.557907646E0,4.054690006E0,9.470949540E0
1.182390283E1,-1.395551013E0,6.172550638E0,1.437147959E0,6.489479044E0
1.183383983E1,-1.977705066E0,2.555689323E0,-1.864288816E0,3.730742290E0
1.184377583E1,-1.387620873E0,-1.056577250E0,-3.775878099E0,4.159218988E0
1.185371283E1,-7.935303140E-1,-4.055951543E0,-5.106233096E0,6.569174203E0
1.186364883E1,8.516263483E-1,-5.723447054E0,-7.144179540E0,9.193607285E0
1.187358483E1,2.105713919E0,-6.589785143E0,-9.120221511E0,1.144717169E1
1.188352183E1,2.495903589E0,-5.523824866E0,-8.391192418E0,1.035153544E1
1.189345783E1,3.390418826E0,-3.438664495E0,-7.579671975E0,8.987256566E0
1.190339483E1,3.196966035E0,-2.354786010E0,-5.928995980E0,7.135727175E0
1.191333083E1,1.795862945E0,-1.025610981E0,-4.121031638E0,4.610846274E0
1.192326783E1,-1.761168198E-1,-1.018185017E0,-3.365570498E0,3.520622479E0
1.193320383E1,6.587473154E-3,-1.963881517E0,-4.667355123E0,5.063701990E0
1.194313983E1,3.055175441E0,-1.531665861E0,-8.173839718E0,8.859557157E0
1.195307683E1,3.220439682E0,2.837653171E0,-6.478100985E0,7.771055247E0
1.196301283E1,-3.102872641E0,4.651090508E0,5.879006964E-1,5.621929274E0
1.197294983E1,-7.886463686E0,-1.438520300E-1,6.657528645E0,1.032180655E1
1.198288583E1,-9.220628144E0,-4.426041117E0,1.050859960E1,1.466425889E1
1.199282283E1,-7.177582344E0,-9.197866688E0,8.850209956E0,1.464392899E1
1.200275883E1,5.542001228E-1,-1.685498270E1,-3.469192515E0,1.721722615E1
1.201269483E1,-2.591685367E0,-1.316580828E1,-3.343230334E-1,1.342263434E1
1.202263183E1,-2.952187262E0,-5.107566846E0,5.889177611E0,8.335770009E0
1.203256783E1,-2.080761365E0,-1.893523725E0,6.227812089E0,6.833786898E0
1.204250483E1,-2.097924843E0,-1.761539204E0,6.875705802E0,7.401326860E0
1.205244083E1,-5.051462227E-1,-2.817827602E0,6.164962707E0,6.797211949E0
1.206237783E1,1.785250102E0,-3.569180780E0,4.437366297E0,5.967946801E0
1.207231383E1,2.782210457E0,-3.539645324E0,3.781728238E0,5.879732351E0
1.208224983E1,4.262592144E0,-3.999245245E0,3.763023288E0,6.951546489E0
1.209218683E1,6.014555948E0,-4.022668607E0,3.729432496E0,8.140357038E0
1.210212283E1,5.289144527E0,-3.441672887E0,3.202772613E0,7.076575054E0
1.211205983E1,3.521473932E0,-1.571943821E0,3.097199965E0,4.946153420E0
1.212199583E1,1.150513062E0,1.724965455E0,2.220322269E0,3.037929740E0
1.213193283E1,-1.105125220E0,4.021327840E0,2.358807871E0,4.791278944E0
1.214186883E1,-1.796172262E0,5.248068421E0,2.539811794E0,6.100745930E0
1.215180483E1,-1.875368998E0,6.015360525E0,2.411614953E0,6.746662716E0
1.216174183E1,-1.991388281E0,7.032423461E0,2.560691908E0,7.744530333E0
1.217167783E1,-2.228282376E0,7.552990546E0,2.720762068E0,8.331593771E0
1.218161483E1,-2.340615283E0,7.502722033E0,2.241601456E0,8.172765437E0
1.219155083E1,-2.335829629E0,7.535243077E0,1.890265657E0,8.112280353E0
1.220148758E1,-2.625936018E0,7.391954134E0,2.555255460E0,8.250203412E0
1.221142358E1,-3.531227965E0,7.680786121E0,3.028868233E0,8.979871333E0
1.222135958E1,-4.433733130E0,7.618073564E0,2.642757872E0,9.202021705E0
1.223129658E1,-4.707645947E0,6.781246372E0,1.539076037E0,8.397379816E0
1.224123258E1,-4.810872984E0,5.399199066E0,2.456321557E-1,7.235757360E0
1.225116958E1,-4.937955492E0,3.609037156E0,-1.198779781E0,6.232625979E0
1.226110558E1,-4.609648951E0,1.915059021E0,-2.474500734E0,5.571307601E0
1.227104258E1,-2.834444219E0,6.985767943E-1,-3.958822274E0,4.918776003E0
1.228097858E1,-9.883039910E-1,-3.504698271E-1,-5.642932064E0,5.739534490E0
1.229091458E1,-2.439499301E-1,-1.287194944E0,-6.093605626E0,6.232849422E0
1.230085158E1,3.398729181E-1,-1.249419007E0,-4.878009837E0,5.046933864E0
1.231078758E1,9.002823454E-1,-1.137601533E0,-4.157386116E0,4.403237998E0
1.232072458E1,2.124628492E0,-9.763440961E-1,-3.592286637E0,4.286235797E0
1.233066058E1,4.358642309E0,-9.143571782E-1,-3.082165019E0,5.416045885E0
1.234059758E1,8.090409890E0,-1.054724852E0,-2.484328734E0,8.528720066E0
1.235053358E1,8.816519469E0,-2.118368463E0,-3.464636657E0,9.706812436E0
1.236047058E1,7.673739057E0,-2.995818016E0,-5.060219017E0,9.667833946E0
1.237040658E1,1.079369580E1,-2.999063221E0,-6.496569416E0,1.295004492E1
1.238034258E1,1.167514251E1,-1.936248161E0,-6.433583794E0,1.347030104E1
1.239027958E1,8.603204856E0,-1.372837942E0,-4.875186802E0,9.983349346E0
1.240021558E1,6.333368365E0,-2.010648133E0,-4.604827337E0,8.084472497E0
1.241015258E1,6.227388750E0,-4.312047894E0,-5.030946102E0,9.093104330E0
1.242008858E1,7.484011527E0,-7.578285601E0,-4.918165591E0,1.173154696E1
1.243002458E1,4.841009826E0,-7.593442168E0,-4.081257707E0,9.886981570E0
1.243996158E1,2.243867837E0,-5.301036009E0,-2.904100930E0,6.447459023E0
1.244989758E1,1.719735413E0,-3.177764656E0,-2.257300646E0,4.260408936E0
1.245983458E1,1.499493896E0,-2.494411672E0,-1.683017530E0,3.362011234E0
1.246977058E1,1.287089109E-1,-3.329173043E0,-4.065101266E-1,3.356368516E0
1.247970758E1,-4.602518857E-1,-4.996731704E0,4.050623195E-1,5.034206492E0
1.248964358E1,3.046592313E-1,-7.598960186E0,1.375122449E0,7.728387600E0
1.249958058E1,5.339925840E-1,-1.041815487E1,3.963042794E0,1.115924760E1
1.250951658E1,-2.011286941E0,-1.079289824E1,6.275558113E0,1.264573277E1
1.251945258E1,-3.392772330E0,-9.640631890E0,1.063625367E1,1.475068065E1
1.252938958E1,-5.671853562E0,-7.720831363E0,1.342429263E1,1.649220399E1
1.253932558E1,-8.613005959E0,-4.663691842E0,1.302886883E1,1.629985632E1
1.254926258E1,-9.361764143E0,-2.100347344E0,1.037133621E1,1.412864826E1
1.255919858E1,-8.014776156E0,5.190362835E-1,7.444558024E0,1.095114056E1
1.256913458E1,-6.552362378E0,2.785912330E0,5.349283140E0,8.905593206E0
1.257907158E1,-5.562586058E0,4.247228000E0,3.251021205E0,7.716893690E0
1.258900758E1,-4.791794981E0,5.538944596E0,1.771287390E0,7.535161936E0
1.259894458E1,-4.868073956E0,6.355704144E0,7.884771502E-1,8.044551909E0
1.260888058E1,-4.424957628E0,6.685254387E0,3.987475093E-1,8.026946855E0
1.261881758E1,-3.923677877E0,6.713833823E0,3.855303168E-2,7.776393703E0
1.262875358E1,-3.577285313E0,6.719256531E0,-3.467128448E-1,7.620077975E0
1.263869058E1,-3.162066051E0,7.193848713E0,-3.494939268E-1,7.865892640E0
1.264862658E1,-3.731177013E0,7.251913319E0,-8.651283002E-1,8.201242324E0
1.265856258E1,-2.708679382E0,7.017858632E0,-2.381671507E0,7.890477992E0
1.266849958E1,-3.363640040E-2,6.150325956E0,-4.593702425E0,7.676571028E0
1.267843558E1,4.472491398E-1,5.581698852E0,-4.423258720E0,7.135867962E0
1.268837258E1,4.718729344E-1,5.920584176E0,-5.821818271E-1,5.967823450E0
1.269830858E1,9.558934593E-1,6.391693756E0,1.187528569E0,6.570974469E0
1.270824458E1,1.170933732E0,6.608599144E0,2.630910829E0,7.208769676E0
1.271818158E1,2.098072046E0,5.910844468E0,2.425758344E0,6.724900905E0
1.272811758E1,4.131999845E0,4.435253406E0,6.121999705E-1,6.092592576E0
1.273805458E1,5.323681106E0,3.073063828E0,-1.015869520E0,6.230352533E0
1.274799058E1,5.802101460E0,1.540569416E0,-2.565416459E0,6.528330344E0
1.275792758E1,5.763239695E0,-2.265363371E-1,-4.762737243E0,7.479967684E0
1.276786358E1,4.168936121E0,-1.738269040E0,-7.088180755E0,8.404993400E0
1.277779958E1,3.328693571E0,-3.569184873E0,-9.011365067E0,1.024812090E1
1.278773658E1,3.480008987E0,-5.657878717E0,-7.414673490E0,9.954870018E0
1.279767258E1,4.651844506E0,-5.904127187E0,-3.977502959E0,8.504052266E0
1.280760958E1,3.586935850E0,-4.933192935E0,-1.932833094E0,6.398307987E0
1.281754558E1,-5.357350543E-2,-4.261633201E0,-1.390547697E0,4.483080476E0
1.282748258E1,-2.010877782E0,-3.432553570E0,-2.188927107E0,4.540644815E0
1.283741858E1,-2.004565859E0,-2.081183095E0,-3.606942683E0,4.621649368E0
1.284735458E1,-9.684820761E-1,2.887922269E-1,-4.380681050E0,4.495745204E0
1.285729158E1,4.447203653E-1,3.461852213E0,-5.017632576E0,6.112187302E0
1.286722758E1,1.085827947E-1,4.624083973E0,-5.111876829E0,6.893854330E0
1.287716458E1,-2.879734705E0,9.197535735E-1,-2.070850773E0,3.664320064E0
1.288710058E1,-4.772533668E0,-3.819305955E0,3.313380883E0,6.952889217E0
1.289703758E1,-5.398269943E0,-6.988010935E0,7.085799769E0,1.132175665E1
1.290697358E1,-4.541401420E0,-1.008715334E1,6.946641299E0,1.306257305E1
1.291690958E1,-2.262801121E0,-1.133985732E1,3.373135918E0,1.204535922E1
1.292684658E1,-2.982819071E0,-8.796057723E0,3.168508806E0,9.813627725E0
1.293678258E1,-1.395762682E0,-5.978398520E0,3.790245000E0,7.214940020E0
1.294671958E1,1.714453477E0,-6.159618351E0,5.014954551E0,8.125885682E0
1.295665558E1,1.952561161E0,-6.943580866E0,5.832751980E0,9.276141762E0
1.296659258E1,2.154032093E0,-7.002733639E0,5.392406355E0,9.097042320E0
1.297652858E1,3.438749864E0,-6.319145597E0,5.552211928E0,9.087555172E0
1.298646458E1,2.659173638E0,-5.014901927E0,5.433432759E0,7.857648332E0
1.299640158E1,1.799395832E0,-3.585828388E0,5.707613379E0,6.976592368E0
1.300633758E1,8.446460885E-1,-1.346313218E0,6.211790718E0,6.411889754E0
1.301627458E1,-6.376616710E-1,8.793142301E-1,5.807479144E0,5.908182456E0
1.302621058E1,-1.097850991E0,2.580603724E0,4.967020247E0,5.704040893E0
1.303614758E1,-1.305639401E0,3.714329138E0,4.092787832E0,5.679071000E0
1.304608358E1,-1.525983244E0,4.508810794E0,3.181788125E0,5.725537120E0
1.305601958E1,-1.961231559E0,5.038923458E0,2.382134607E0,5.908616092E0
1.306595658E1,-2.426624024E0,5.313417488E0,1.683146899E0,6.078971381E0
1.307589258E1,-2.692634914E0,5.942446915E0,9.130218203E-1,6.587607074E0
1.308582958E1,-2.792087574E0,6.761935358E0,4.421641818E-1,7.329053962E0
1.309576558E1,-2.787276777E0,7.477190166E0,2.636999242E-1,7.984160711E0
1.310570258E1,-2.688410009E0,7.606171557E0,4.264468662E-1,8.078567389E0
1.311563858E1,-3.037106083E0,7.330347285E0,1.041679130E0,8.002693302E0
1.312557458E1,-3.896091591E0,6.552314431E0,9.790378352E-1,7.685757553E0
1.313551158E1,-4.416683526E0,5.605519239E0,7.417239833E-1,7.174893294E0
1.314544758E1,-4.839727239E0,4.710575987E0,-5.380607843E-3,6.753703786E0
1.315538458E1,-4.834087307E0,3.566548364E0,-1.326713351E0,6.152140736E0
1.316532058E1,-4.206967582E0,1.820084451E0,-3.031890074E0,5.495783935E0
1.317525758E1,-2.272037968E0,2.278619009E-1,-4.854233889E0,5.364481729E0
1.318519358E1,-1.164557782E-1,-8.023935235E-1,-6.136755154E0,6.190085713E0
1.319512958E1,1.329910024E0,-6.400490892E-1,-5.441077409E0,5.637698722E0
1.320506650E1,2.502975212E0,-3.883182693E-1,-4.027822343E0,4.758048845E0
1.321500250E1,3.630847563E0,-5.940537214E-1,-2.957669027E0,4.720567754E0
1.322493950E1,5.098194344E0,-6.949322248E-1,-2.167238907E0,5.583138978E0
1.323487550E1,6.993806110E0,-1.045642957E0,-1.299772890E0,7.190000185E0
1.324481250E1,1.004430261E1,-1.767563590E0,-7.179316628E-1,1.022387998E1
1.325474850E1,9.333501041E0,-2.892446260E0,-3.443073295E0,1.036027223E1
1.326468450E1,9.019582744E0,-2.703356661E0,-6.300670150E0,1.132958315E1
1.327462150E1,9.602646039E0,-2.633769532E0,-6.514641990E0,1.189908035E1
1.328455750E1,8.664249787E0,-2.502456272E0,-5.596328001E0,1.061368922E1
1.329449450E1,5.862053547E0,-2.531825082E0,-5.003590488E0,8.112319508E0
1.330443050E1,5.719263371E0,-3.633010740E0,-4.415765805E0,8.087504448E0
1.331436650E1,7.830998168E0,-5.537633066E0,-3.381237820E0,1.016969427E1
1.332430350E1,6.529154195E0,-6.372323685E0,-2.519202113E0,9.464816053E0
1.333423950E1,5.862943493E0,-5.786594059E0,-1.597157600E0,8.391048183E0
1.334417650E1,2.987503860E0,-5.677534132E0,-8.551979738E-1,6.472320813E0
1.335411250E1,3.842275572E-1,-4.621341628E0,-8.062503469E-1,4.706853395E0
1.336404950E1,9.714306808E-1,-3.177702675E0,-1.155719715E0,3.518118804E0
1.337398550E1,8.341082364E-1,-2.694493452E0,-5.986145131E-1,2.883465076E0
1.338392150E1,9.456029445E-1,-3.415607754E0,1.114793884E0,3.715280159E0
1.339385850E1,7.841186357E-1,-5.600649093E0,2.017745483E0,6.004449112E0
1.340379450E1,3.398892903E-1,-7.310864947E0,2.740887015E0,7.815160435E0
1.341373150E1,-4.283167326E-1,-7.357946727E0,4.642925748E0,8.710889436E0
1.342366750E1,-2.757780498E0,-6.232299242E0,8.236373935E0,1.069040517E1
1.343360450E1,-5.631694300E0,-4.636441478E0,1.101680450E1,1.321296907E1
1.344354050E1,-7.633263461E0,-3.023691693E0,1.158974977E1,1.420322929E1
1.345347650E1,-8.268615482E0,-1.209712320E0,1.050621043E1,1.342437572E1
1.346341350E1,-6.884350326E0,6.253059196E-1,8.776466042E0,1.117191313E1
1.347334950E1,-5.818353796E0,2.283834726E0,6.679391384E0,9.147863751E0
1.348328650E1,-5.032858726E0,3.535953977E0,4.812727429E0,7.809928475E0
1.349322250E1,-4.488625036E0,4.487444483E0,3.319561390E0,7.162709021E0
1.350315950E1,-3.856120024E0,5.309446644E0,2.259030983E0,6.939964430E0
1.351309550E1,-3.330571404E0,6.067305434E0,1.499713897E0,7.081951912E0
1.352303150E1,-2.772796732E0,6.529379312E0,7.558602118E-1,7.133899395E0
1.353296850E1,-1.950186461E0,7.066841927E0,2.020117991E-1,7.333777391E0
1.354290450E1,-1.878639638E0,7.191131512E0,-4.501454119E-1,7.446092277E0
1.355284150E1,-1.464563214E0,6.911840426E0,-1.563623818E0,7.236256140E0
1.356277750E1,1.879474474E0,6.098304448E0,-6.790762131E0,9.318593873E0
1.357271350E1,3.422883444E0,5.163465643E0,-8.928265607E0,1.086698833E1
1.358265050E1,3.018747872E-1,5.676014441E0,-2.971394781E0,6.413848709E0
1.359258650E1,8.934858343E-1,5.984215915E0,-3.933980379E-1,6.063325744E0
1.360252350E1,9.207816602E-1,5.310519024E0,9.472164837E-1,5.472355090E0
1.361245950E1,9.725024754E-1,5.606036133E0,2.470314127E0,6.202890784E0
1.362239650E1,1.382737571E0,5.501706603E0,2.209882943E0,6.088047417E0
1.363233250E1,2.226394018E0,4.116386610E0,8.002899876E-1,4.747834570E0
1.364226850E1,2.366836098E0,2.286389959E0,-1.402735048E0,3.577311529E0
1.365220550E1,1.248753156E0,-1.342380381E-1,-3.326135122E0,3.555359214E0
1.366214150E1,4.268043503E-1,-1.929173614E0,-4.941027035E0,5.321430348E0
1.367207850E1,-1.163430731E-1,-2.774252397E0,-5.252674273E0,5.941430728E0
1.368201450E1,-4.849591492E-1,-4.248613790E0,-3.697961319E0,5.653390349E0
1.369195150E1,8.925936954E-1,-4.665636041E0,-1.608286021E0,5.015123837E0
1.370188750E1,2.620695158E0,-3.976080916E0,-3.116542554E-1,4.772252187E0
1.371182350E1,4.043006100E0,-3.068092525E0,-1.018151396E0,5.176458474E0
1.372176050E1,3.608134054E0,-3.251163000E0,-3.481407934E0,5.975691876E0
1.373169650E1,3.316655324E0,-3.202616492E0,-5.602382208E0,7.255593796E0
1.374163350E1,3.891397446E0,-1.359471207E0,-7.192175825E0,8.289663994E0
1.375156950E1,4.257983369E0,1.785074247E0,-6.800766717E0,8.219935546E0
1.376150650E1,3.295923143E0,4.030849446E0,-5.463678651E0,7.547359871E0
1.377144250E1,-4.214953709E-1,1.186136346E0,-3.153856561E0,3.395789891E0
1.378137850E1,-4.397630081E0,-4.771709211E0,1.775503817E0,6.727612721E0
1.379131550E1,-5.067773620E0,-7.870310753E0,7.857138730E0,1.222124175E1
1.380125150E1,-3.687133153E0,-7.975387557E0,9.132905291E0,1.267326780E1
1.381118850E1,-1.101533276E0,-7.355057033E0,4.584419678E0,8.736540694E0
1.382112450E1,1.570421791E-1,-6.508845645E0,-3.396413684E-2,6.510828476E0
1.383106150E1,1.182499671E0,-6.580526077E0,2.220032832E-1,6.689612424E0
1.384099750E1,1.501405058E0,-6.116421461E0,2.516469416E0,6.782141768E0
1.385093350E1,2.144654036E0,-4.706189990E0,3.103983904E0,6.031789223E0
1.386087050E1,1.857367175E0,-4.455610487E0,4.589148906E0,6.660522901E0
1.387080650E1,1.920242139E0,-4.104013901E0,6.324760094E0,7.780285998E0
1.388074350E1,2.956973501E0,-3.612195822E0,6.553507848E0,8.046124288E0
1.389067950E1,2.809283651E0,-2.538413140E0,6.903753142E0,7.873844254E0
1.390061650E1,2.611916441E0,-1.201280635E0,6.548687403E0,7.151957030E0
1.391055250E1,1.808098536E0,4.903545213E-1,5.688250909E0,5.988811758E0
1.392048850E1,5.967223907E-1,2.083941227E0,5.074585626E0,5.518179765E0
1.393042550E1,-7.868071854E-2,3.146245240E0,4.432989364E0,5.436583897E0
1.394036150E1,-6.849220839E-1,4.172203546E0,4.043555738E0,5.850362698E0
1.395029850E1,-1.825779054E0,4.831723863E0,3.127675653E0,6.038325896E0
1.396023450E1,-2.801206892E0,5.217715525E0,1.907030793E0,6.221581937E0
1.397017050E1,-3.165079414E0,5.466566007E0,1.059722760E0,6.405004600E0
1.398010750E1,-2.877351673E0,5.933819933E0,4.969583666E-1,6.613345542E0
1.399004350E1,-3.101328976E0,6.453122849E0,3.916194610E-1,7.170383653E0
1.399998050E1,-3.231952850E0,6.572320679E0,6.498454412E-1,7.352769372E0
1.400991650E1,-3.280896091E0,6.289492612E0,1.103546253E0,7.179123262E0
1.401985350E1,-3.931139509E0,5.978339463E0,1.685290343E0,7.350823363E0
1.402978950E1,-4.470474109E0,5.257474253E0,1.533310683E0,7.069456551E0
1.403972550E1,-4.586568529E0,4.176911139E0,1.030824358E0,6.288544855E0
1.404966250E1,-4.635191051E0,2.929687761E0,2.360521142E-1,5.488514103E0
1.405959850E1,-4.180052556E0,1.209746819E0,-1.058107467E0,4.478383430E0
1.406953550E1,-3.226319058E0,-4.600039637E-1,-2.696166340E0,4.229663254E0
1.407947150E1,-1.930497132E0,-1.199980799E0,-4.350379901E0,4.908419132E0
1.408940850E1,-1.221026975E0,-8.570492023E-1,-4.786457058E0,5.013542797E0
1.409934450E1,-5.109554315E-1,-2.729176211E-1,-4.555603722E0,4.592285352E0
1.410928050E1,-7.915024996E-2,-5.486196864E-1,-4.724855472E0,4.757258407E0
1.411921750E1,5.988294348E-1,-1.134244646E0,-5.207274737E0,5.362911317E0
1.412915350E1,3.158402771E0,-1.447686396E0,-5.832183046E0,6.788642209E0
1.413909050E1,7.650347271E0,-2.570359987E-1,-5.487611890E0,9.418479980E0
1.414902650E1,1.165523859E1,7.189993644E-1,-4.306507072E0,1.244618615E1
1.415896350E1,1.039126586E1,-4.676720023E-1,-4.911628988E0,1.150309622E1
1.416889950E1,1.197795694E1,-1.115944616E0,-5.809576541E0,1.335919026E1
1.417883550E1,1.247421365E1,-5.198332590E-1,-6.564889453E0,1.410581462E1
1.418877250E1,9.119446170E0,6.110229260E-1,-5.872951003E0,1.086412449E1
1.419870850E1,4.492884440E0,-8.341842502E-1,-5.050875167E0,6.811256412E0
1.420864500E1,4.657960401E0,-4.501670174E0,-5.088967438E0,8.237670729E0
1.421858100E1,5.406729695E0,-7.549083436E0,-4.687801082E0,1.040177224E1
1.422851700E1,4.087681751E0,-7.279972937E0,-3.136559912E0,8.918809121E0
1.423845400E1,2.332043849E0,-5.197496438E0,-1.702471801E0,5.945654545E0
1.424839000E1,2.219653932E0,-4.023817585E0,-1.715210545E-1,4.598629253E0
1.425832700E1,9.379658961E-1,-3.019854165E0,1.797094953E-1,3.167269282E0
1.426826300E1,-2.015748659E-1,-3.424312504E0,6.177923206E-1,3.485429084E0
1.427820000E1,-5.112448686E-1,-4.687795819E0,1.147111518E0,4.853108879E0
1.428813600E1,3.348867050E-1,-6.967391313E0,2.815138468E0,7.522080524E0
1.429807200E1,-1.509694071E0,-9.141155128E0,4.681211854E0,1.038044497E1
1.430800900E1,-4.665406246E0,-1.151271388E1,7.359980389E0,1.443876406E1
1.431794500E1,-7.010699301E0,-1.192678328E1,9.393360157E0,1.672223906E1
1.432788200E1,-9.206835147E0,-9.952506001E0,1.094183969E1,1.742245806E1
1.433781800E1,-1.032560280E1,-7.276171662E0,1.019461698E1,1.623240471E1
1.434775500E1,-9.672065352E0,-3.304879616E0,7.474099327E0,1.266227619E1
1.435769100E1,-8.246186147E0,7.481804788E-1,4.939531317E0,9.641490011E0
1.436762700E1,-6.871934933E0,3.504852052E0,2.813718764E0,8.211241740E0
1.437756400E1,-5.639494486E0,5.009049448E0,9.344552279E-1,7.600505312E0
1.438750000E1,-4.653940148E0,5.328423783E0,3.583138669E-1,7.083759435E0
1.439743700E1,-3.457884293E0,5.245760525E0,-4.479566529E-2,6.283070422E0
1.440737300E1,-2.935950421E0,5.667070540E0,-5.799736261E-1,6.408733321E0
1.441730900E1,-2.626339768E0,6.243598986E0,-1.167911160E0,6.873442031E0
1.442724600E1,-1.707458599E0,6.845503179E0,-1.849736120E0,7.293685787E0
1.443718200E1,-1.340096166E0,7.233165391E0,-2.328322827E0,7.715933287E0
1.444711900E1,-8.777594554E-1,7.359854089E0,-2.862009748E0,7.945376874E0
1.445705500E1,5.240338987E-1,7.469958914E0,-3.477728573E0,8.256481922E0
1.446699200E1,1.848454556E0,7.395170687E0,-3.584539661E0,8.423435066E0
1.447692800E1,7.671956241E-1,7.423387011E0,-1.889997854E0,7.698529452E0
1.448686400E1,6.727905732E-1,7.231321179E0,2.316342321E-1,7.266244392E0
1.449680100E1,2.050183204E0,6.794266368E0,1.912799364E0,7.350109390E0
1.450673700E1,2.701767973E0,6.554242258E0,4.404447642E0,8.346064988E0
1.451667400E1,3.397893907E0,5.825675095E0,5.059082903E0,8.430806197E0
1.452661000E1,4.222371779E0,4.811996527E0,3.504355331E0,7.298235424E0
1.453654700E1,5.124084061E0,3.547896330E0,1.313119744E0,6.369308384E0
1.454648300E1,5.066716443E0,2.560910887E0,-1.577222980E0,5.892156856E0
1.455641900E1,3.689044023E0,1.460960160E0,-4.693469665E0,6.145901715E0
1.456635600E1,2.386635501E0,-2.936606187E-1,-7.045690209E0,7.444730760E0
1.457629200E1,1.357517945E0,-2.063429194E0,-8.499518520E0,8.851124792E0
1.458622900E1,1.251147298E0,-4.209934459E0,-7.933140839E0,9.067725254E0
1.459616500E1,2.521077022E0,-5.593431875E0,-4.346740886E0,7.519073469E0
1.460610100E1,3.539853193E-1,-5.548080286E0,-1.645593888E0,5.797799557E0
1.461603800E1,-9.945613888E-1,-5.096448950E0,-1.001334219E0,5.288252497E0
1.462597400E1,-5.799245095E-1,-3.467114707E0,-1.599260551E0,3.861972442E0
1.463591100E1,-2.222064739E-1,-2.457386518E0,-4.217130042E0,4.885929800E0
1.464584700E1,7.665993543E-1,-1.545364133E0,-6.691247199E0,6.910037189E0
1.465578400E1,7.428526421E-1,-7.574933392E-1,-7.884322436E0,7.955386004E0
1.466572000E1,-1.484716959E0,-3.981001933E0,-5.687825232E0,7.099585671E0
1.467565600E1,-3.457404821E0,-7.416051094E0,1.812288943E-1,8.184394042E0
1.468559300E1,-4.680284486E0,-9.031806933E0,5.600230433E0,1.161211351E1
1.469552900E1,-4.181238663E0,-8.800588145E0,7.224548349E0,1.212960046E1
1.470546600E1,-4.834132331E0,-5.619560743E0,6.682512628E0,9.980194054E0
1.471540200E1,-2.586263244E0,-3.816499876E0,3.871799625E0,6.020403741E0
1.472533900E1,-2.216202906E-1,-6.000430829E0,1.328978855E0,6.149834996E0
1.473527500E1,-3.494222984E-1,-8.874347847E0,9.314933208E-1,8.929939835E0
1.474521100E1,-4.715364271E-1,-8.470742617E0,6.141152260E-1,8.506054585E0
1.475514800E1,1.363780605E0,-7.079340350E0,1.794681515E0,7.429524821E0
1.476508400E1,8.908007929E-1,-5.309412146E0,4.058032859E0,6.741736725E0
1.477502100E1,4.572209814E-1,-3.180758430E0,5.246773263E0,6.152633980E0
1.478495700E1,7.682715118E-2,-1.410506875E0,5.902076569E0,6.068767575E0
1.479489300E1,3.422945425E-1,-2.970233524E-1,5.435564654E0,5.454424950E0
1.480483000E1,5.498142725E-1,5.649685013E-1,4.353210246E0,4.424016793E0
1.481476600E1,-1.335603458E-1,1.589090196E0,3.607168678E0,3.943946233E0
1.482470300E1,-6.044217119E-1,2.431645905E0,2.587901634E0,3.602146899E0
1.483463900E1,-1.022178373E0,3.162506931E0,1.610858796E0,3.693394750E0
1.484457600E1,-1.558550774E0,3.797143253E0,8.903065570E-1,4.200002758E0
1.485451200E1,-1.734578277E0,4.623044338E0,5.060674515E-1,4.963608064E0
1.486444800E1,-2.165163145E0,5.419172570E0,3.916082051E-1,5.848822084E0
1.487438500E1,-2.474822330E0,5.871996737E0,5.451303604E-1,6.395487343E0
1.488432100E1,-2.355014636E0,6.124808707E0,6.118948920E-1,6.590431776E0
1.489425800E1,-2.397420690E0,6.521262792E0,1.142018666E0,7.041214455E0
1.490419400E1,-2.589342973E0,6.966303731E0,1.734180228E0,7.631609645E0
1.491413000E1,-2.987863464E0,7.046044550E0,1.656189920E0,7.830519582E0
1.492406700E1,-3.262946016E0,6.579733195E0,1.515866246E0,7.499170360E0
1.493400300E1,-3.201565163E0,6.163752333E0,1.377768899E0,7.080968115E0
1.494394000E1,-2.894470566E0,5.595384845E0,8.390953267E-1,6.355342036E0
1.495387600E1,-2.394992634E0,4.771643137E0,1.073864909E-1,5.340046798E0
1.496381300E1,-1.652686560E0,3.474182237E0,-1.294712709E0,4.059260534E0
1.497374900E1,-6.238119560E-1,2.119042062E0,-2.660132289E0,3.457713755E0
1.498368500E1,5.853635895E-1,8.899713653E-1,-3.912687743E0,4.055098634E0
1.499362200E1,1.344051223E0,-7.941220522E-2,-4.272572172E0,4.479693399E0
1.500355800E1,1.834924392E0,-5.202033877E-1,-3.349971589E0,3.854850027E0
1.501349500E1,1.972620473E0,-4.139138710E-1,-2.660608837E0,3.337872917E0
1.502343100E1,2.489871017E0,-8.822466087E-1,-2.715641077E0,3.788472412E0
1.503336800E1,4.217094959E0,-7.966480494E-1,-2.868843974E0,5.162247936E0
1.504330400E1,7.383288560E0,-4.204282540E-1,-2.255199741E0,7.731470478E0
1.505324000E1,8.712102231E0,-9.701606655E-1,-3.219533072E0,9.338486505E0
1.506317700E1,9.499949636E0,-1.012835400E0,-4.695722889E0,1.064540709E1
1.507311300E1,9.497289153E0,-9.917415690E-1,-6.119689470E0,1.134163356E1
1.508305000E1,8.130201362E0,-1.356429486E0,-7.190274310E0,1.093801261E1
1.509298600E1,6.451362838E0,-2.253801087E0,-6.447583197E0,9.395266409E0
1.510292200E1,6.242991461E0,-4.484741900E0,-4.756246249E0,9.039343487E0
1.511285900E1,5.860361363E0,-6.189486514E0,-4.089739679E0,9.454075801E0
1.512279500E1,5.609990020E0,-6.891464633E0,-3.103661138E0,9.412597159E0
1.513273200E1,4.608683868E0,-7.850655922E0,-1.727561034E0,9.265917792E0
1.514266800E1,7.477281967E-1,-7.926706563E0,-1.374585090E0,8.079681836E0
1.515260500E1,-1.838272507E0,-6.637417731E0,-1.297429326E0,7.008415142E0
1.516254100E1,-9.464218470E-1,-6.269153658E0,-9.327115881E-1,6.408428263E0
1.517247700E1,2.070814812E-1,-6.758793064E0,5.590862024E-1,6.785038232E0
1.518241400E1,-9.471270213E-1,-7.209412247E0,2.496465214E0,7.687978480E0
1.519235000E1,-3.151132928E0,-9.076912354E0,3.002492613E0,1.006652564E1
1.520228700E1,-4.907770995E0,-1.102993735E1,2.824327952E0,1.239849033E1
1.521222308E1,-7.032881298E0,-1.018432471E1,4.131497569E0,1.304803285E1
1.522215908E1,-8.336198770E0,-7.446663022E0,4.666069905E0,1.211268791E1
1.523209608E1,-8.469432256E0,-4.537579679E0,5.238798831E0,1.094376193E1
1.524203208E1,-8.701160921E0,-2.105285903E0,5.338461113E0,1.042312799E1
1.525196908E1,-8.282738847E0,4.221397340E-1,4.443901438E0,9.409050151E0
1.526190508E1,-6.509105262E0,2.718093984E0,3.602497630E0,7.920509793E0
1.527184208E1,-4.741669725E0,4.338315926E0,2.461946762E0,6.882266975E0
1.528177808E1,-4.130664048E0,5.278680934E0,2.046748842E0,7.008283578E0
1.529171408E1,-3.821232027E0,5.609560250E0,2.132176663E0,7.114433057E0
1.530165108E1,-3.535651384E0,5.864918683E0,2.531266673E0,7.301055597E0
1.531158708E1,-3.535254358E0,6.311242501E0,2.547582743E0,7.669418694E0
1.532152408E1,-3.287179802E0,6.956055316E0,1.981305781E0,7.944673008E0
1.533146008E1,-2.414180565E0,7.905536719E0,1.206191565E0,8.353482909E0
1.534139608E1,-1.338810948E0,8.461701068E0,7.996184349E-1,8.604196032E0
1.535133308E1,-6.914452377E-1,8.734066712E0,7.249028595E-1,8.791331071E0
1.536126908E1,-1.876517683E-3,8.512642010E0,-9.203951593E-1,8.562254655E0
1.537120608E1,1.163051539E0,7.793418113E0,-3.687790965E0,8.699991780E0
1.538114208E1,1.155882999E0,7.969816915E0,-2.197692814E0,8.347688355E0
1.539107908E1,1.154254988E0,8.292223030E0,2.187513542E-1,8.375029523E0
1.540101508E1,2.697202467E0,7.980887448E0,2.879458132E0,8.902850372E0
1.541095108E1,3.297669999E0,6.561836622E0,4.593982799E0,8.662390272E0
1.542088808E1,3.317718932E0,4.566628647E0,3.471960587E0,6.626904740E0
1.543082408E1,5.025671328E0,3.482582347E0,4.774388990E-1,6.133000897E0
1.544076108E1,4.657907192E0,1.975675351E0,-2.269944372E0,5.545452186E0
1.545069708E1,3.525651183E0,1.129606050E-1,-5.801944170E0,6.790105486E0
1.546063308E1,2.037349443E0,-1.317707469E0,-8.013052397E0,8.372344620E0
1.547057008E1,1.575769216E0,-1.641541475E0,-9.029986110E0,9.312269121E0
1.548050608E1,1.398456494E0,-4.195098903E0,-9.075977969E0,1.009593539E1
1.549044308E1,1.790488769E0,-7.656389784E0,-6.898555552E0,1.046022099E1
1.550037908E1,2.642228699E0,-7.451477619E0,-2.117172707E0,8.184638751E0
1.551031608E1,1.607975826E0,-6.165549182E0,-7.293884048E-1,6.413391491E0
1.552025208E1,2.674969599E-2,-4.965656092E0,-2.181601130E0,5.423821481E0
1.553018808E1,-5.189547148E-1,-2.960854590E0,-4.428483792E0,5.352330576E0
1.554012508E1,5.577400272E-1,-7.631587064E-1,-6.411552655E0,6.480855853E0
1.555006108E1,1.122710283E0,1.195998845E0,-7.814785008E0,7.985095888E0
1.555999808E1,1.056615111E0,3.621098793E-1,-8.231193886E0,8.306630596E0
1.556993408E1,-4.918296276E-1,-3.700467144E0,-4.284025698E0,5.682273281E0
1.557987108E1,-2.182424418E0,-6.848391704E0,1.565992525E0,7.356342696E0
1.558980708E1,-2.333437972E0,-7.305812368E0,4.253572522E0,8.769988958E0
1.559974308E1,-2.368116492E0,-5.656993448E0,5.638650733E0,8.330902273E0
1.560968008E1,-4.084218153E0,-2.396660845E0,6.721723471E0,8.222310353E0
1.561961608E1,-3.394419491E0,-1.624051868E0,5.786168382E0,6.902128128E0
1.562955308E1,-4.648187073E-1,-3.936343823E0,3.258639250E0,5.131236584E0
1.563948908E1,1.407649925E0,-6.912532736E0,1.903408736E0,7.306678586E0
1.564942508E1,-3.321072310E-2,-7.908100138E0,2.713076488E0,8.360618086E0
1.565936208E1,1.278740601E0,-6.956778032E0,3.663878484E0,7.965923905E0
1.566929808E1,4.113795708E0,-6.332286630E0,4.214320163E0,8.647639188E0
1.567923508E1,5.154978994E0,-5.795770680E0,4.839347463E0,9.142431299E0
1.568917108E1,4.940682049E0,-4.437139133E0,5.195178602E0,8.431395110E0
1.569910708E1,4.318302953E0,-2.668799032E0,5.958470625E0,7.827745579E0
1.570904408E1,3.298179584E0,-3.793252516E-1,6.282157280E0,7.105446947E0
1.571898008E1,1.666965461E0,1.905910467E0,5.634753563E0,6.177516999E0
1.572891708E1,6.585751149E-1,3.127830019E0,5.433278393E0,6.303773148E0
1.573885308E1,-4.969343930E-2,3.987067834E0,4.767158908E0,6.214900112E0
1.574879008E1,-8.754913205E-1,4.675537131E0,3.064088352E0,5.658247957E0
1.575872608E1,-1.612208918E0,5.383782881E0,2.027005280E0,5.974369098E0
1.576866208E1,-2.570865186E0,5.626190901E0,1.249394449E0,6.310654352E0
1.577859908E1,-2.821411653E0,6.025171568E0,5.863120079E-1,6.678833574E0
1.578853508E1,-3.147116475E0,6.561730787E0,-1.556879640E-2,7.277423680E0
1.579847208E1,-3.761056577E0,6.893987707E0,-9.870252049E-1,7.914975163E0
1.580840808E1,-3.948076846E0,7.067264680E0,-1.200223970E0,8.183769206E0
1.581834408E1,-3.698468565E0,7.118321398E0,8.840756178E-2,8.022280545E0
1.582828108E1,-3.837751289E0,6.595449926E0,1.086876937E0,7.707762072E0
1.583821708E1,-3.813820097E0,6.116245460E0,1.083111330E0,7.288814198E0
1.584815408E1,-3.762403483E0,5.830083311E0,1.444215488E-1,6.940202372E0
1.585809008E1,-4.218443035E0,5.030627428E0,-1.012158292E0,6.642811029E0
1.586802708E1,-4.436115285E0,3.600423038E0,-2.514845937E0,6.242324484E0
1.587796308E1,-3.926807599E0,1.910665423E0,-4.203453405E0,6.061310156E0
1.588789908E1,-2.358907712E0,8.834827101E-1,-5.605408727E0,6.145371778E0
1.589783608E1,-1.379678600E0,3.032763648E-1,-5.543693120E0,5.720841109E0
1.590777208E1,1.480400982E-1,-5.963236105E-1,-5.071358548E0,5.108443524E0
1.591770908E1,4.083788967E-1,-1.464387213E0,-4.297356180E0,4.558341077E0
1.592764508E1,6.445561230E-1,-1.717742389E0,-3.190841954E0,3.680701548E0
1.593758108E1,4.144880676E-1,-1.708684468E0,-2.243368485E0,2.850281587E0
1.594751808E1,4.405999786E-1,-1.821278452E0,-1.945008459E0,2.700785339E0
1.595745408E1,2.874559920E0,-2.526202399E0,-3.516205006E0,5.196969399E0
1.596739108E1,5.327359589E0,-1.664134532E0,-4.968389665E0,7.472282101E0
1.597732708E1,6.288486307E0,-9.631521928E-1,-5.161331409E0,8.192195316E0
1.598726408E1,7.390635002E0,-1.192834917E0,-4.834187880E0,8.911437220E0
1.599720008E1,7.571322736E0,-2.978585687E0,-4.061000029E0,9.093328428E0
1.600713608E1,8.036582762E0,-4.820808865E0,-3.516715468E0,1.000970271E1
1.601707308E1,7.284165391E0,-5.968556487E0,-3.303033650E0,9.979617391E0
1.602700908E1,6.235327515E0,-6.723592826E0,-2.654755189E0,9.546399050E0
1.603694608E1,5.112962072E0,-7.933872326E0,-1.815851067E0,9.611764996E0
1.604688208E1,3.843473374E0,-8.555371124E0,-1.650525137E0,9.523176774E0
1.605681808E1,3.162791106E-1,-8.619061920E0,-1.334238133E0,8.727453939E0
1.606675508E1,1.018063980E0,-6.968067836E0,-2.506075698E0,7.474679862E0
1.607669108E1,1.954511354E0,-6.162917935E0,-1.085647852E0,6.555936498E0
1.608662808E1,9.890407401E-1,-5.343870372E0,2.154636987E0,5.846162219E0
1.609656408E1,-7.065906957E-1,-4.474453139E0,2.928732326E0,5.394207481E0
1.610650108E1,-2.495479374E0,-4.889597849E0,3.546407629E0,6.535487090E0
1.611643708E1,-3.402456197E0,-6.704120429E0,4.825025293E0,8.933241739E0
1.612637308E1,-5.803856794E0,-7.336302089E0,5.799711703E0,1.100648617E1
1.613631008E1,-7.607591261E0,-6.199243178E0,6.358024904E0,1.169318355E1
1.614624608E1,-7.782292031E0,-4.985173513E0,6.576315497E0,1.134301326E1
1.615618308E1,-8.299034452E0,-2.557618904E0,6.694830372E0,1.096522417E1
1.616611908E1,-8.018725950E0,-1.648920661E-1,6.156404722E0,1.011080978E1
1.617605508E1,-7.782113691E0,1.562434494E0,4.984923252E0,9.372937366E0
1.618599208E1,-6.561992158E0,3.331473922E0,4.352683704E0,8.550106140E0
1.619592808E1,-5.238770179E0,4.322202753E0,3.587997705E0,7.681137752E0
1.620586533E1,-3.832979084E0,4.965533885E0,2.558582525E0,6.774555333E0
1.621580133E1,-3.003430214E0,5.517736745E0,2.106386933E0,6.625924671E0
1.622573733E1,-2.569611836E0,5.748709365E0,8.145205025E-1,6.349331303E0
1.623567433E1,-2.276046234E0,5.750051301E0,-1.224778841E0,6.304249331E0
1.624561033E1,-5.821221855E-1,6.226497050E0,-2.096242160E0,6.595632111E0
1.625554733E1,1.107241035E0,6.864214854E0,-2.419672416E0,7.361945590E0
1.626548333E1,5.625582790E-1,7.161760948E0,-3.513978971E0,7.997208257E0
1.627542033E1,1.071218386E0,6.811314510E0,-4.300397902E0,8.126188300E0
1.628535633E1,9.568257979E-1,6.235774242E0,-2.905313058E0,6.945591406E0
1.629529233E1,2.577946749E-1,6.074216259E0,-3.375553742E-1,6.089047945E0
1.630522933E1,-2.852666482E-1,6.378373214E0,5.445988485E-1,6.407933350E0
1.631516533E1,-2.054553705E-1,6.415596589E0,1.024319623E0,6.500101706E0
1.632510233E1,-2.037919839E-1,6.264751289E0,1.505168326E0,6.446252522E0
1.633503833E1,-3.204896906E-1,5.658856956E0,8.919740367E-1,5.737681881E0
1.634497433E1,2.324165896E-1,4.502342604E0,-7.830658445E-1,4.575838558E0
1.635491133E1,1.538604898E0,2.960169296E0,-3.069592043E0,4.533464747E0
1.636484733E1,2.907678257E0,1.168619258E0,-4.718798049E0,5.664566960E0
1.637478433E1,2.800978850E0,-7.543200552E-1,-5.860306399E0,6.538935109E0
1.638472033E1,2.035566627E0,-1.721160672E0,-5.984376714E0,6.551235777E0
1.639465733E1,1.563790171E0,-2.936885684E0,-5.473623011E0,6.405566804E0
1.640459333E1,1.961233605E0,-4.012081638E0,-5.248563681E0,6.891346533E0
1.641452933E1,1.765818635E0,-4.481368057E0,-3.600893447E0,6.013917918E0
1.642446633E1,2.466836496E-1,-3.924511982E0,-1.531940973E0,4.220129176E0
1.643440233E1,-2.133825870E-1,-3.123484368E0,-1.705903824E0,3.565360372E0
1.644433933E1,5.189709409E-1,-2.489642683E0,-3.561866206E0,4.376590270E0
1.645427533E1,1.533406285E0,-1.345965893E0,-5.388680509E0,5.762016717E0
1.646421133E1,2.411637026E0,-8.561370367E-1,-6.853713255E0,7.315897016E0
1.647414833E1,4.844742689E-1,-3.985656901E0,-5.242969065E0,6.603703572E0
1.648408433E1,-3.900931331E0,-7.279122752E0,2.409891924E-1,8.262019673E0
1.649402133E1,-5.545080079E0,-8.111703111E0,4.382561514E0,1.075892587E1
