Time (s),Linear Acceleration x (m/s^2),Linear Acceleration y (m/s^2),Linear Acceleration z (m/s^2),Absolute acceleration (m/s^2)
0.0001798751763999462,1.8206333582103253,-0.8222068136930466,-1.3046348494291307,2.3859593374272854
0.010206874925643206,1.566705300807953,-1.2610116970539094,-0.6109147524833679,2.1018879214859036
0.020233875140547752,2.027941565215588,-1.5081752568483353,-0.25783531308174135,2.54039734017546
0.030260874889791012,2.9753597778081895,-1.7449383741617204,0.2286653083562851,3.45685746889666
0.04028887487947941,3.6481772482395174,-2.2167496204376222,1.014037002325058,4.387647109370487
0.050315875094383955,4.271953828632832,-2.810007535815239,1.636421653032303,5.368762212262908
0.060343250166624784,4.5968596288561825,-3.046411634087563,2.3919374638795854,6.011082025960264
0.07037125015631318,4.7348454397916795,-2.9634250259399417,3.067168664932251,6.372454224411933
0.08039824990555644,4.775472478866577,-2.9890422624349595,3.50742307305336,6.636379107346224
0.09042525012046099,5.327509278059006,-3.1813905143737795,3.4106411290168763,7.0806831325581685
0.10045224986970425,6.161545593738556,-3.5105402237176895,2.7833290296792987,7.6181006329343255
0.11048024985939264,6.810590039491654,-3.922038609981537,2.3292518037557604,8.197068836450521
0.12050725007429719,7.282156287431717,-4.226027165651321,2.1527132534980775,8.690413117406473
0.13053425028920174,7.035987339019775,-4.253899673223495,2.307451629638672,8.5396202074694
0.140561250038445,6.052721893787385,-4.254413643479348,2.498293638825417,7.808773839672391
0.1505892500281334,4.848890410959721,-4.259673798680305,2.514317348599434,6.926640658943463
0.16061625024303794,3.847862586379051,-3.9887611877918245,2.2737916941940783,5.990525099311086
0.1706432499922812,3.02924830198288,-3.4851352411508563,1.7097131390869618,4.923985371845086
0.18067025020718575,2.563012375831604,-2.9266197270154954,0.8286603856086732,3.9775386233070487
0.19069825019687414,2.430919973552227,-2.4568520826101303,-0.4289879930019379,3.4827467280554187
0.2007252499461174,2.2264226692914963,-1.774310692548752,-1.2670343291759492,3.1161694959257673
0.21075225016102195,2.0261023235321045,-1.2089825874567033,-1.070504733324051,2.590889790451322
0.22078025015071034,1.346923082470894,-1.4501515817642212,-0.25711011216044427,1.9958073579284459
0.2308072498999536,0.5467351287603378,-1.6034117817878724,0.4004351618885994,1.7407460934534627
0.24083425011485815,-0.09051665246486665,-1.4984840816259386,0.911156704723835,1.7560906433959995
0.2508612498641014,-0.9896418339014054,-1.8585275548696518,0.4132940661907196,2.1457697026395826
0.2608892498537898,-1.3718351447582247,-1.7307822650671005,-0.5763635551929475,2.2824841425997415
0.27091625006869435,-1.3390948301553727,-1.5432842785120011,-1.3811123371124268,2.466246665720058
0.2809432502835989,-1.0083944392204285,-1.325998821258545,-1.608610248863697,2.3157631899179716
0.29097025003284216,-1.2188292986154556,-1.098426942229271,-0.693468374311924,1.7812874537113352
0.30099825002253056,-2.132240397334099,-0.7339518642425538,0.5898907962441444,2.3309023151007735
0.3110252502374351,-2.78200405061245,-0.585753014087677,1.8068355372548104,3.3685765227798754
0.32105224998667836,-2.8460164439678195,-0.9080281519889832,2.058682132065296,3.628015551927069
0.33108024997636676,-2.4308582854270937,-0.19230088949203492,2.104063542187214,3.2207351684810073
0.3411072501912713,-2.7206579875946044,0.4126385933160782,2.3580376464128494,3.6238918355900807
0.35113424994051456,-3.025927083492279,0.5349284309148788,1.8985046759247781,3.612022030016067
0.3611612501554191,-3.1831055027246475,0.9982261312007904,1.608444187939167,3.7034725267245223
0.3711892501451075,-3.097620964050293,1.466500981450081,1.3569533962011338,3.6860823763149555
0.38121624989435077,-2.7449636936187747,1.4744754141569139,1.1509092110395431,3.321670579436512
0.3912432501092553,-2.5135735827684402,1.2460027715563775,1.079056578576565,3.005817386749719
0.4012702498584986,-2.422972730398178,0.6680309396982194,1.2679915183782577,2.815113617480916
0.41129824984818697,-2.4128523695468904,0.06985639303922654,1.5665135121345521,2.8776207284103
0.4213252500630915,-1.9845835840702057,-0.14031914234161377,1.1305568075180055,2.2883225644331118
0.43135225027799606,-1.2587330371141434,-0.8478205418586732,0.4574703651666642,1.5850828574323335
0.44138025026768446,-0.9244740307331085,-1.2444295781850816,-1.6759523391723634,2.2829965947716913
0.4514072500169277,-0.683355907201767,-1.5943927440047265,-1.032184420824051,2.018531197835286
0.46143425023183227,-1.312349665760994,-1.8780932155251504,-0.4279834413528443,2.33080792805774
0.4714612499810755,-1.3748131316900254,-1.7646721422672274,-0.8877324664592743,2.406708924811475
0.4814892499707639,-1.5722508001327515,-1.490783298611641,-1.5260104340314866,2.6501160855159624
0.49151625018566847,-1.4867463809251786,-1.0877794548869133,-1.9836661559343338,2.70714062469379
0.5015432499349117,-2.4172570770978927,-0.7537084364891052,-1.757111692428589,3.0819879434682997
0.5115702501498163,-2.7455308735370636,-0.46232326179742816,-0.8240586268901825,2.903576277023963
0.5215982501395047,-2.611199280023575,-0.547931761443615,0.04502005219459534,2.668448556801113
0.5316252498887479,-2.5046647650003435,-0.6099765667319298,0.8324227765202523,2.708937923959496
0.5416522501036525,-1.9890970498323441,0.16576651722192765,1.5233356252312662,2.5108837167384626
0.5516792498528957,-2.0700096505880357,0.03842614710330963,1.2749391800165177,2.4314371131184944
0.5617072498425841,-1.9683072745800019,-0.5652681711316109,0.8153565081954003,2.204215930419619
0.5717342500574887,-1.6054577225446702,0.012052280902862549,0.5801528432965279,1.7071078108714537
0.5817612502723932,-1.5390041166543962,0.8704051199555397,1.1095960012078285,2.0874247363247376
0.5917892502620816,-2.1937583684921265,0.9358348783850671,1.2896936054527761,2.7113967424331338
0.6018162500113249,-2.7399345034360887,0.32805423349142077,1.0053775683045387,2.9369447931619614
0.6118432502262294,-2.171262375712395,0.1653478565812111,0.44724387735128407,2.223004116885177
0.6218702499754727,-1.6066148865222931,0.11825408935546876,0.24409567192196846,1.6293489866493824
0.6318982499651611,-1.524472616314888,-0.33996267288923265,0.11894976183772088,1.566441962759298
0.6419252501800656,-1.5082840150594712,-0.5657084664702415,-0.19869423508644105,1.623091537214281
0.6519522499293089,-1.1075298875570299,-0.44441177845001223,-0.9506423673033715,1.5257277578812507
0.6619792501442134,-0.7515882360935212,-0.38948858946561815,-1.6855381183326246,1.886166744036797
0.6720072501339018,-0.4808007556200028,-0.3848371294140816,-1.7646791589260102,1.8690536420146553
0.6820342498831451,-0.29957156896591186,-0.43883031874895095,-1.4621746265888216,1.5557216371273377
0.6920612500980496,-0.18498192965984345,-0.897955445945263,-1.0578011456876995,1.3998162597361288
0.702089250087738,-0.28668489038944245,-1.1066262003779412,-0.6611037433147431,1.3205559182273547
0.7121162498369813,-0.356390717625618,-0.895294962823391,-0.4850557013601065,1.0788171520181653
0.7221432500518858,-0.2985383659601212,-0.8070148703455925,-0.615197253227234,1.0577645377338882
0.7321702502667904,-0.2560864108800888,-0.4103716278076172,-0.6445198702812195,0.8058479918286321
0.7421982502564788,-0.3348203390836716,-0.022110661268234254,-0.4228706359863281,0.5398269311411806
0.752225250005722,-0.24221973896026613,0.03378462731838226,-0.03666437189094723,0.24729755185035524
0.7622522502206266,-0.24670104503631593,0.08480713874101639,0.37294944763183596,0.4551317906852255
0.7722792499698699,0.06444801092147827,0.34770000100135806,0.40801870822906494,0.5399334246673326
0.7823072499595582,-0.046526294946670536,0.31881680220365527,0.6131039500236511,0.6926076111503778
0.7923342501744628,-0.5272867047786713,0.19470906525850298,0.48642168402671815,0.7433363598140335
0.802361249923706,-0.42021073758602145,0.33686832636594777,0.043267075214535,0.5403048890106429
0.8123892499133945,0.031980176568031315,0.00836736559867859,-0.31618935585021973,0.3179126503512581
0.822416250128299,0.3206864494085312,-0.45013357132673265,-0.888049385547638,1.0459884043531011
0.8324432498775423,0.4327196860313416,-0.6432978022098541,-1.444215488433838,1.6391573341321695
0.8424702500924468,0.6898971873521805,-0.7002955833077431,-0.9455719542503357,1.3639935314295228
0.8524982500821352,1.162914714217186,-1.042193684577942,-0.025794443674385548,1.5617950128110467
0.8625252502970397,2.2992649430036547,-1.5327049112319948,1.3967922306060792,3.0962609965120484
0.872552250046283,1.7851672178506852,-1.9189851334691048,1.0429433707147837,2.820825555166804
0.8825792502611876,2.598439486026764,-2.0541122406721115,1.5375545918941498,3.651758341248339
0.892607250250876,3.174478520751,-2.251740528345108,1.647429621219635,4.226307329403912
0.9026342500001192,1.6240805196762085,-3.442313742041588,-1.2832556748390198,4.0167034443740866
0.9126612502150238,-0.5708993321657181,-1.2202308762073517,-1.8613418197631837,2.297712516551264
0.9226892502047122,-2.388322130441666,1.6141139405965805,-0.9630153679847718,3.039217828810644
0.9327162499539554,-2.618694825768471,2.7598419338464737,-0.8053563076257706,3.8888158702305025
0.94274325016886,-1.5938217633962632,3.2713815021514896,-0.5389851925894619,3.6786831589476705
0.9527702499181032,0.3582150489091873,2.8258084666728975,-0.7743707424402237,2.9518064906651094
0.9627982499077916,2.634160711169243,1.3906965082883835,-0.8837710509449244,3.1070710807642383
0.9728252501226962,4.597597839832306,-0.21380577921867372,-0.6752352941036225,4.6518342092621054
0.9828522498719394,5.601383503675461,-1.1744541943073272,-0.282486589550972,5.730151698083549
0.992879250086844,5.964827717542649,-1.9897952073812486,0.25620452463626864,6.293178483542838
1.0029072500765324,6.39159610748291,-2.6403394639492035,0.4968548709154129,6.933307872064433
1.012934250291437,6.477071875333786,-2.3458614045381547,0.6781660647690296,6.922097588083107
1.0229612500406802,5.626490862965584,-1.589709416627884,1.066829758286476,5.943290434895148
1.0329882502555847,4.261529704928399,-0.440124015212059,0.629429960846901,4.3301878308412025
1.0430162502452731,2.4500079166889193,0.29581590235233307,0.2318374228477478,2.478667874192827
1.0530432499945164,0.39457186639308933,1.1805154180526733,0.02201695963740349,1.244904958830464
1.063070208299905,-1.2749274855852128,1.7271593302488328,0.5534510944783688,2.216941036551386
1.0730982082895935,-2.497812997698784,1.8166497963666917,1.3784761199355127,3.382230427889944
1.083125208504498,-3.3556691157817844,0.8184353595972061,1.2708353117108346,3.6804040596029512
1.0931522082537413,-3.7546626466512683,-0.964360227584839,3.5089696615934374,5.228800084597704
1.1031792084686458,-4.952683458924294,-1.6386997282505036,20.60951494932175,21.259504149673557
1.1132072084583342,-4.649423466324807,1.291920663714409,36.51518581151962,36.83266203277124
1.1232342082075775,-4.594153245091438,0.5692071479558944,6.612234358191491,8.07167169948805
1.133261208422482,-8.066749716997148,-2.6584102839231494,-3.673589247465134,9.253910211009904
1.1432882081717253,-10.35274089574814,-0.8612457489967347,-3.7055244004726413,11.029591985978406
1.153316208627075,-9.246050083637238,0.09441031336784363,-1.754121426343918,9.411445023733455
1.1633432083763182,-7.2773188859224325,-0.5052619975805283,2.2943795943260192,7.647145714347413
1.1733702085912228,-5.3692028492689134,-1.8928419399261476,5.364087120294571,7.822059861714873
1.1833982085809112,-5.281188220381737,-2.961852124929428,3.8958059540390972,7.200057017869669
1.1934252083301544,-5.644266983270645,-4.235564559102059,0.8387748992443085,7.106426686061204
1.203452208545059,-5.292555207610131,-4.293927372694016,-0.26436986893415454,6.820472442226587
1.2134792082943022,-4.2683691930770875,-2.003436761498451,-1.788318282365799,5.04289764964318
1.2235072082839906,-2.027756500840187,0.09035409986972809,-4.184739391207695,4.651021829919557
1.2335342084988952,0.5713261789083481,0.053247669339179994,-6.3107829093933105,6.336815434150403
1.2435612082481384,2.4620122504234314,-0.8559546035528184,-7.995975018739701,8.410099827284315
1.253588208463043,3.1461534386873247,-1.598950356245041,-9.207658435106278,9.860826413596582
1.2636162084527314,2.2442900061607363,-2.729664453864098,-9.954094104766845,10.562759824449111
1.2736432082019746,-0.4968472695350647,-4.142956357598305,-9.409020169973374,10.292745267865829
1.2836702084168792,-2.9036758375167846,-3.6185482370853426,-7.380550308823586,8.717668700665802
1.2936972086317837,-2.0414886868000033,-1.2492131853103638,-5.7244276320934295,6.204617744531927
1.3037252086214721,-0.2279823535680771,1.2159477907419205,-4.86691591501236,5.021690502923213
1.3137522083707154,0.24301496028900146,2.153876849412918,-3.1346016794443132,3.8110325952602784
1.32377920858562,-0.0023535043001174927,1.9077599412202837,-0.2996488253027201,1.931150680504401
1.3338072085753083,-0.8971967697143555,1.148603653907776,2.554290668964386,2.940859265404365
1.3438342083245516,-1.0015631371736526,0.4170304369926453,2.8140959089994433,3.0159872161815953
1.3538612085394561,0.021969743371009827,-1.1255819964408875,1.3304584926366807,1.7428532069467901
1.3638882082886994,0.5571513587236405,-2.131807118654251,0.4319747507572174,2.2453555203941087
1.3739162082783878,0.5268505024909973,-2.7062966412305833,0.33349484838545324,2.7771985482155555
1.3839432084932923,1.7713432306051256,-0.8023175096511841,0.24127599835395813,1.9594857320953323
1.3939702082425356,1.3503296703100205,1.5447414046525956,0.34614361837506297,2.080728629665441
1.4039972084574401,0.12469070434570313,0.22496402084827424,0.5442741818726063,0.6019891755501466
1.4140252084471285,-1.5151065462827684,0.06714182317256928,-0.40194812893867493,1.5689544828850635
1.4240522081963718,-4.343390139341355,2.0155305576324465,-0.9082911305129528,4.873642796620037
1.4340792084112763,-3.3651907217502597,1.364978114962578,0.39471760824322705,3.652872272382116
1.4441072084009647,-1.4656437796354294,0.9155769073963166,1.8930205723643303,2.563185449696531
1.4541342086158693,-0.5267604553699494,1.116012443304062,1.628369744718075,2.0431711569186435
1.4641612083651125,1.1846651870012284,0.6817414909601212,1.3910887102782727,1.9502130308386447
1.474188208580017,3.256269958019257,1.3819397181272508,0.7834426975250245,3.6230972777917025
1.4842162085697055,3.656054032444954,1.3269314521551132,1.1623036801815034,4.05936300567453
1.4942432083189487,2.048075575232506,2.1606122571229935,1.9846503885090352,3.577945786635558
1.5042702085338533,1.0961237239837647,3.735253399014473,2.642802311182022,4.705104592792624
1.5142972082830966,0.09158786237239838,3.320319188833237,3.801194204092026,5.047968425960186
1.524325208272785,-0.35202167809009555,0.42079838275909426,4.773196742534638,4.804622532907378
1.5343522084876895,0.047358938455581666,-1.4845495820045471,4.421659798622132,4.664461995260829
1.5443792082369328,1.008613709807396,-1.0403050339221955,3.2551379370689393,3.5630687852693397
1.5544062084518373,2.478439418077469,0.8723905420303345,2.296217812746763,3.4894617708866926
1.5644342084415257,2.428427013158798,-0.20633479177951813,1.188316846266389,2.7114440307073564
1.574461208190769,0.8873863112926483,-2.1174370014667514,-0.09766363106667995,2.297940840292284
1.5844882084056735,-0.746736216545105,-2.7992930978536608,-2.5189711475372314,3.839123919192539
1.594516208395362,-1.1869970566034318,-3.5307148718833927,-3.3529162466526032,5.011682040591836
1.6045432086102664,-1.3304964995384216,-3.8347659927606585,-3.135914379358292,5.12928943901431
1.6145702083595097,-1.5585069197416306,-3.9995428687334065,-2.726750786304474,5.085317770634482
1.6245972085744143,-1.863052715063095,-4.266592808961868,-2.024474458694458,5.076738761300931
1.6346252085641026,-2.1048701655864717,-4.681662674546242,-1.356398495435715,5.309261783961661
1.644652208313346,-2.169478974938393,-4.957360646724701,-0.9035024070739747,5.486199067112216
1.6546792085282505,-2.5252317613363267,-4.7703789693117145,-0.38355275195091965,5.411138851742985
1.6647062082774937,-2.7987797123193743,-4.392469913363457,0.6026947732642294,5.243109841269179
1.6747342082671821,-0.4332237160205841,-2.55644653737545,1.9995384228229525,3.2743328466921184
1.6847612084820867,3.820430081784725,-0.9885712087154389,2.6516889095306397,4.754409860059873
1.69478820823133,4.545651760697365,-0.6808158767223359,3.229372766017914,5.6174112052996845
1.7048152084462345,-0.5314990389347076,-1.778190320134163,2.5128093516826633,3.1238858623373553
1.7148432084359229,-5.813463184833527,-3.0608870011568072,1.32627130150795,6.7025651060224005
1.7248702081851661,-6.663123845458031,-4.482034054398537,1.3739050590991975,8.146991086046306
1.7348972084000707,-3.9389823791384697,-5.487705445289612,1.2786784744262696,6.874991772968584
1.744925208389759,-0.4721534545719624,-6.1332748907804495,0.5423562220484018,6.175284612237462
1.7549522086046636,2.7209506407380104,-6.170872487425805,0.16007922291755677,6.746025867354143
1.7649792083539069,3.2269841784238817,-5.750992702245712,-1.485523728132248,6.759742945994724
1.7750062085688114,3.8723358151316645,-5.31416944026947,-1.5217155079543592,6.74914806417774
1.7850342085584998,5.143041318655015,-5.046392691135407,0.15930746354162695,7.207102889960545
1.795061208307743,5.285247942209244,-4.843863267302513,1.9958909296989442,7.441803394756149
1.8050882085226476,5.389172260165215,-4.825457401871682,3.667848451137543,8.110568971873954
1.8151152082718909,4.986511355638505,-4.702636637091637,4.020319780111313,7.9462606284202995
1.8251432082615793,4.3902032402157785,-4.6421343272924425,4.1138857555389405,7.599167823693208
1.8351702084764838,3.658003494143486,-4.772251247763634,3.5193630874156954,6.9671578190831625
1.845197208225727,3.122543551325798,-4.6354404348135,2.6565783512592316,6.188294982546446
1.8552252082154155,4.332825974822045,-0.6023035579919815,1.8833975172042847,4.762702668850289
1.86525220843032,12.995099987983703,21.885573871135712,2.4276066488027572,25.568422739933403
1.8752792081795633,18.76690059185028,39.84633755207062,3.5756524783372883,44.1895062744967
1.8853062083944678,13.310054411888123,39.225274372100834,-0.13834514060989023,41.42220222769358
1.8953342083841562,5.9011059308052065,19.572127676010133,-3.3963879561424255,20.722612869067827
1.9053612085990608,3.4414691117405893,5.385367476940155,-2.4420463478565217,6.841745601367294
1.915388208348304,1.6860659757256509,-1.071659558415413,-1.7854519772529602,2.6793863936952644
1.9254152085632086,0.49253122039139274,-4.9351178383827214,-0.6251726031303406,4.998881461435983
1.935443208552897,-0.06918052799999715,-6.819384251832963,0.8040728437900544,6.866973180209924
1.9454702083021402,-0.2133362478017807,-7.239919509887696,2.1444569849967956,7.553849523572745
1.9554972085170448,0.20952262066304686,-5.419247998595238,2.277693979740143,5.8821797374946385
1.965524208266288,1.873559576869011,-1.9217885810136797,1.6482365369796754,3.149631807057281
1.9755522082559764,2.213522834479809,-0.0590972238779068,1.008319594860077,2.4330812205950694
1.985579208470881,1.2753566712141038,0.738239627480507,0.3722337484359741,1.5198981379906922
1.9956062082201242,0.7929382833838463,1.1559103345870971,-0.057334288358688354,1.4029137690829658
2.005633208435029,0.5916259574890137,1.4364726054668426,-0.670093252658844,1.6918923686483136
2.015661208424717,0.5363732413575053,1.7056725668907167,-1.3054306554794313,2.2138573476521426
2.0256882081739604,0.4947989533469081,1.987524148821831,-1.806634100675583,2.7311179066651468
2.035715208388865,0.48143547087907795,2.2120671701431274,-1.9387437522411348,2.980561795148629
2.0457422086037695,0.4499017657712102,2.234657303094864,-1.6614383804798127,2.820723728628993
2.055770208593458,0.5270077925920487,1.983154524564743,-1.284882370233536,2.4210662500417675
2.065797958523035,0.7394233962893486,1.5286551296710968,-1.0074062597751618,1.974436840388675
2.0758249582722783,0.565453527867794,0.9324291676282883,-0.3362792193889618,1.1411597426368345
2.0858529582619667,0.31199836403131487,0.27672532796859745,0.6026245701313019,0.7328548688679642
2.0958799584768713,0.03114634534344077,-0.18173029303550722,1.3560899086296558,1.3685670734466078
2.1059069582261145,-0.35613285541534423,-0.4280308037996292,1.9698123478889467,2.046998208500293
2.115933958441019,-0.5942311844229698,-0.954543337225914,2.570133115053177,2.8053249209808224
2.1259619584307075,-0.7873577007651329,-1.7662824654579163,2.7600424933433536,3.370092055389474
2.1359889581799507,-1.459920524954796,-2.5114235615730287,2.55226051568985,3.8668656538284156
2.1460159583948553,-1.9131238844990732,-2.8947804683446887,2.155355171710253,4.084770847130699
2.15604295860976,-1.9898387691378594,-2.924000174403191,2.1382976742088795,4.132983461205847
2.166070958599448,-1.821179634332657,-2.652171304821968,1.9774279077351093,3.7763645243697996
2.1760979583486915,-1.21435179322958,-2.3579633867740633,1.892236168384552,3.2580975013080193
2.186124958563596,-0.37938752442598345,-2.06215859413147,1.8761536940932275,2.813607230034075
2.1961519583128393,0.4032503038644791,-1.583833549618721,1.5161032041907312,2.2292842901303627
2.2061799583025277,0.9189700466394425,-1.17358295917511,1.0820424592494966,1.8419062930305128
2.216206958517432,1.2353301411867141,-0.7740818899869919,0.6046289956569671,1.5782330475944841
2.2262339582666755,1.3878939378261568,-0.2276473081111908,0.05862096816301346,1.4076609312804118
2.236261958256364,1.399050717651844,0.18213842868804933,-0.5373111712932587,1.5097087840254575
2.2462889584712684,1.3369424700737,0.6611417502164841,-0.6445056907832623,1.6247803444213904
2.2563159582205117,1.082746756374836,1.159035086631775,-0.4372550788521767,1.6452643782887229
2.266342958435416,0.8834309622645379,1.3729589796066284,-0.48797938227653503,1.7039925182632436
2.2763709584251046,0.813610529601574,1.3058224189281464,-0.6266344070434571,1.6612660725316142
2.286397958174348,0.7459956666827202,1.0618058305978775,-1.4060704462230207,1.9133675173219726
2.2964249583892524,1.043911888897419,0.38576069712638855,-2.5736133778095245,2.8039345865531464
2.306451958604157,1.9064136198163033,-0.4959456288814545,-2.9175375393033027,3.520284114936136
2.3164799585938454,2.0771289280056955,-1.157472710609436,-2.1017082837224006,3.1735446064662463
2.3265069583430886,1.4140730917453768,-1.6416093027591707,-0.4137697371840477,2.205830729478836
2.336533958557993,0.5206998163461686,-2.4334491866827013,1.6809376752376557,3.0030575603779237
2.3465609583072364,0.2242989366129041,-3.526520664095879,3.591455455720425,5.038373775106897
2.356588958296925,0.3624759149551392,-4.680761618614197,5.2033740592002875,7.008282223139479
2.3666159585118294,1.2209734725952148,-7.160992623567582,5.266414060592652,8.97249734651276
2.3766429582610726,1.751373234987259,-7.449522310495377,3.6410339972376824,8.474657481682593
2.386670958250761,3.7694245272874833,-7.753628979921341,-2.5728745821118357,8.997055476124935
2.3966979584656656,4.582498282492161,-4.148239316940308,-6.846546907424927,9.224011301772284
2.406724958214909,0.8927575635910034,3.154635994434357,-9.027889298200607,9.60476597868448
2.4167519584298134,-2.003466289937496,10.442398592233658,-4.016326131820679,11.366109322505439
2.426779958419502,-3.8985310488939287,12.999447977542879,4.738766582608223,14.374981766405064
2.436806958168745,-5.428620500564575,10.363006267547608,10.349672276973726,15.619780269937841
2.4468339583836496,-4.765817264020443,4.386128607988358,12.151080136299134,13.76952747332357
2.456860958598554,-2.5515687900781634,-2.192056828737259,6.778782355785371,7.567529759308624
2.4668889585882425,1.0905365632474422,-6.942380433082581,0.866449186205864,7.080723851817993
2.476915958337486,2.2222923423349856,-8.103773701786995,2.3124369657039643,8.71533683714688
2.4869429585523903,0.37400764748454096,-7.412000727653504,6.032209276556969,9.563743266278792
2.4969699583016336,-1.55102423787117,-6.870501780509949,6.425457918047905,9.533938344622266
2.506997958291322,-3.4976851201057437,-5.321590141654015,3.980420134663582,7.5097847694586815
2.5170249585062265,-4.235908667743206,-3.366747250556946,-0.16039380311965942,5.41328324242081
2.52705195825547,-3.2737022620439533,-2.0484018498659133,-2.2439023357629777,4.466337910580473
2.537079958245158,-1.8306296119093897,-0.6507401382923127,-0.29887341141700746,1.9657041536396722
2.5471069584600627,-1.5875956481695177,0.9483359330892563,1.7401325476169587,2.539264119257969
2.557133958209306,-2.7231208348274234,2.729886063337326,2.016594750881195,4.35135833839919
2.5671609584242105,-3.9852426257729534,3.6816777008771897,1.44947272002697,5.615859742329436
2.577188958413899,-3.9109671995043755,3.2916602307558063,0.7189461547136307,5.162128929396861
2.5872159586288035,0.003757128417491913,2.004930140376091,-0.4422079628705979,2.0531212497630533
2.5972429583780468,4.283322570025921,0.5087141937017441,-0.6322500729560853,4.359516317726091
2.6072699585929513,5.070586130619049,-0.08537870407104492,-0.19127470314502718,5.074910762092111
2.6172979585826397,3.5284882521629335,-0.09261872649192811,1.0525087577104568,3.6832841675882175
2.627324958331883,2.130778885781765,-0.030058781504631045,0.49074686944484713,2.1867680901981448
2.6373519585467875,1.0273736241459848,0.22204918384552003,-0.8095797514915467,1.3267334991106658
2.6473789582960308,-0.18836132794618607,0.9536101216077805,-1.3874992507696153,1.694109330823929
2.657406958285719,-0.7006127947568894,1.9216090714931489,0.226163284778595,2.057811833769955
2.6674339585006237,-1.0912594252824783,2.4699650484323503,1.816596001982689,3.254473153701649
2.677460958249867,-1.2050354245305062,2.2643950724601747,0.493594463467598,2.6121314884441027
2.6874879584647715,-0.8175281640887261,1.9251057064533235,-0.523840355873108,2.156105980358734
2.69751595845446,-0.6301786968111992,1.5702352648973465,-0.9923935335874557,1.9615322843501959
2.707542958203703,-1.2267160230875016,1.1751640462875368,-0.5969983792304993,1.800624836491587
2.7175699584186077,-2.080503648519516,0.7400674670934677,-0.2002162653207779,2.2172690049365142
2.727597958408296,-2.3266626566648485,-0.056027435660362244,-0.25856329143047335,2.341656073624128
2.7376249586232007,-2.5545938470959664,-0.8513218545913697,-0.3637184482812882,2.7171657537488594
2.747651958372444,-1.8049471789598466,-1.4952809768915176,-0.3072828769683838,2.3639209557780747
2.7576789585873485,-0.5029374369978905,-1.5510850489139558,-1.3848510468006134,2.139304400108402
2.767706958577037,-0.3906475076079369,-0.9896576213836671,-1.7793509924411774,2.073190207642433
2.77773395832628,-0.631233534514904,-0.37014161467552187,-1.481250582933426,1.652139182832789
2.7877609585411847,-0.5504296919703484,0.17090066492557526,-1.6241781681776049,1.723407846407616
2.797787958290428,-0.39513319909572603,0.3199771821498871,-1.9837632197141648,2.0478847999862966
2.8078159582801163,-0.4855481100082398,0.2745548415184021,-2.4225575780868533,2.485945000855773
2.817842958495021,-0.7034811463952065,0.33314043402671817,-2.4096896106004717,2.5322859813916905
2.827869958244264,-1.276966117322445,0.48821034729480745,-1.2860383647680282,1.8769353967706242
2.8378969584591687,-1.942926557958126,0.48151177704334264,-1.0600481575727463,2.2650649653870465
2.847924958448857,-2.2121431839466097,0.2071212422847748,-2.1216165912151337,3.0720894575852373
2.8579519581981003,-2.4111069756746293,0.035018389821052556,-2.35085375726223,3.3676663320178353
2.867978958413005,-2.4142779207229617,0.10028559565544129,-2.3577634119987487,3.37606922117221
2.8780059586279094,-2.3864358186721804,0.46461273908615114,-2.8118242657184602,3.71716244133154
2.888033958617598,-2.3429693716764453,0.7968012464046479,-2.5307018315792087,3.539611484788165
2.898060958366841,-2.2327563732862474,0.86462543964386,-2.5041145420074464,3.464587682946249
2.9080879585817456,-2.1162880235910415,0.7737363195419312,-2.528296287059784,3.3866834818349147
2.918115958571434,-1.978347528576851,0.9127538716793061,-2.4953361171483994,3.3126546622968336
2.9281429583206773,-1.4794642585515976,0.9513835018873216,-2.9691044265031814,3.451018133171108
2.938169958535582,-1.4975526201725007,0.9078790479898453,-3.256284576058388,3.6973365354319894
2.948196958284825,-1.8586605790257456,0.8269705402851105,-2.8279725211858753,3.483665885687972
2.9582249582745135,-2.433238979279995,0.8795989894866943,-2.807410787343979,3.817839918263848
2.968251958489418,-2.8155080115795137,0.917207111120224,-3.07301178753376,4.267523367748485
2.9782789582386613,-2.982612079381943,0.816208155155182,-3.3802724450826647,4.581311206587262
2.988305958453566,-2.805873846709728,0.6146955621242524,-3.747633708715439,4.721815020989824
2.9983339584432542,-2.66625520080328,0.5409072089195252,-3.566067722439766,4.485346854536267
3.0083609581924975,-2.5411168920993807,0.6052388602495193,-3.7911954653263096,4.603993070539934
3.018387958407402,-2.60721557199955,0.7357124608755112,-3.4641215175390245,4.397611141545068
3.0284149586223066,-2.7167643266916275,0.7692871731519699,-3.04538486301899,4.152948365374358
3.038442958611995,-2.914386767148972,1.109033791422844,-3.833502994179726,4.941594012607236
3.0484699583612382,-2.9476471915841103,1.6411602365970612,-3.5731849533319475,4.914232554423818
3.058496958576143,-2.9227111557126046,2.275875495672226,-3.3377877455949787,4.986248770987285
3.068523958325386,-2.9533020338416103,3.076511346101761,-3.3454242092370987,5.420219377989744
3.0785519583150744,-2.6107066521048545,4.163164334893227,-2.4236048144102096,5.479195816824204
3.088578958529979,-2.021371633708477,5.38706083059311,-2.621106802225113,6.322702629630984
3.0986059582792222,-1.058294577598572,6.483299744725228,-2.296850042939186,6.959072000825864
3.108632958494127,-0.23930636376142503,7.046032270789147,-0.6308555120229722,7.0782636976725115
3.118660958483815,0.31175979763269424,7.425525922179222,1.175894948244095,7.524517148739948
3.1286879582330585,0.6356904284656049,7.812933195233345,1.7668288877606393,8.035403645906495
3.138714958447963,0.9784107944369317,8.462186386585236,1.3536865568161012,8.625448012601074
3.1487419581972063,1.538884394913912,9.603466987609863,0.6120941358804703,9.745224604605134
3.1587699581868947,1.7214930859208109,10.498377496004105,0.8120694959163666,10.669532574563725
3.168796958401799,1.7929086390137674,10.83250377058983,1.9268978780508041,11.147672167772505
3.1788239586167037,1.7069636321067811,10.412314667701722,2.7397783827781677,10.901211270648329
3.188851958606392,1.8396468955278398,9.371691545248032,2.9526638102531435,9.996555741648084
3.1988789583556354,1.7958788783848287,7.180381990671158,2.564712746143341,7.833314620772842
3.20890595857054,1.1447031225264073,3.598108710050583,0.9332099170982838,3.8894231291329264
3.218932958319783,-0.7295429174602032,-1.1825455713272095,-1.3200334918498993,1.9165425422586837
3.2289609583094716,-2.633186857402325,-5.847291081547738,-2.3762521617114545,6.838937077820091
3.238987958524376,-3.6232055443525315,-9.681908555030823,-1.9026886510849,10.511288968893075
3.2490149582736194,-4.052524489760399,-12.358526483774186,-2.2090406513214114,13.192270168149461
3.259041958488524,-3.8847488692402843,-13.026932229995728,-4.553653675317764,14.336247727236723
3.2690699584782124,-2.2080045247077944,-11.32343950510025,-5.867856323719025,12.943233909753946
3.2790969582274556,-0.04407484978437424,-9.660537566542626,-3.1216202759742737,10.152459889816779
3.28912395844236,1.1147175773978233,-9.272512827515603,-0.5944560098648072,9.35817649766585
3.2991509581916034,1.3021798959374429,-9.847540293931962,0.3287211084365845,9.938701116802388
3.309178958181292,1.3932558345794679,-10.304811269044876,-0.3976246976852417,10.406171366618622
3.3192059583961964,1.3180381295084953,-10.167033326625825,-1.2254465925693512,10.32509130840005
3.329232958611101,1.4910361906886103,-9.21015168786049,-2.0626076602935792,9.555335336640175
3.339259958360344,2.1807892441749575,-8.277324324846267,-2.201279057264328,8.838301261789589
3.3492879583500326,2.6809656259417536,-8.22198393702507,-0.6506780116260052,8.672483982285186
3.359314958564937,2.667420258522034,-8.763064808249474,2.2113315904140474,9.42318539942398
3.3693419583141804,2.568372810781002,-9.191625369787216,4.5493758523464205,10.572574732750192
3.3793699583038688,2.3210142463445664,-9.550595294237137,5.88121838092804,11.453807543791052
3.3893969585187733,2.138034257143736,-9.846814069747925,6.240148544311523,11.8520205730491
3.3994239582680166,2.073809463679791,-9.97511601448059,5.745796866416931,11.69691441467029
3.409450958482921,1.9302907249331476,-10.076259981393815,4.074056861400605,11.038794173519442
3.4194789584726095,2.181211705505848,-10.248797281980515,0.8920347015559674,10.516237736954551
3.429505958221853,2.7137360537052158,-10.29958034992218,-2.5419378411769866,10.95021309117271
3.4395329584367573,2.748436062633991,-10.078623425960542,-4.256603425741196,11.280568411065966
3.4495599581860006,2.0534822031855584,-9.780898407697679,-3.4802031147480013,10.582749006775343
3.459587958175689,1.5938928070664407,-9.725650990605354,-1.3982924799621106,9.954094802190687
3.4696149583905935,1.096564311683178,-9.728918414711952,0.5036559136211872,9.803467554345458
3.479641958605498,0.6890203973650932,-9.765399193167687,2.115783408880234,10.015703167686137
3.4896689583547413,-0.12590513449162247,-9.782985863685608,2.750520887374878,10.163071861590337
3.4996969583444297,-0.940995923280716,-9.404206742048265,2.003741401433945,9.661239950370627
3.5097239585593343,-1.3549290901422502,-8.647147850990295,0.7006085555255414,8.780652091062223
3.5197509583085775,-1.378873145878315,-7.789965916872025,-0.3356466968357563,7.918176484743753
3.529777958523482,-1.019731313288212,-7.066648383736611,-0.7413263726234436,7.178226530377458
3.5398059585131705,-0.622541356086731,-6.340770939588547,-0.8513089907169342,6.42788152084685
3.5498329582624137,-0.2815910884737969,-5.72963340818882,-1.1871297883987428,5.858094371708682
3.5598599584773183,-0.18592358719557525,-5.070119522809983,-1.6423798196017743,5.332737667248385
3.5698879584670067,-0.1546018071100116,-4.208605971336365,-1.6668971948325635,4.529328007427863
3.57991495821625,0.09966345191001892,-3.0795027816295626,-2.16180099606514,3.7638615453147404
3.5899419584311545,0.8254673673212528,-1.549985187649727,-3.139191743731499,3.5969953100272245
3.5999689581803977,1.3619293767213823,0.5977205103635789,-4.438212096691132,4.680795664296988
3.609996958170086,1.18843342512846,7.510642086267472,-15.055594464540482,16.866921569589298
3.6200239583849907,3.0583411234617235,16.537270724773407,-11.768419632911682,20.52633611018308
3.6300509585998952,7.657812995910645,25.559414548873903,5.343657533526421,27.211770390717664
3.6400779583491385,6.950173602104187,28.559387011528017,11.91469825744629,31.715982313963014
3.650105958338827,1.4422324052453042,21.766442699432375,8.577119842171669,23.439817552305893
3.6601329585537314,-3.957503142356873,13.855736457109453,0.41348117709159854,14.415763267147723
3.6701599583029747,-5.744587662220002,8.588310828208924,5.081669527888298,11.514457672054268
3.6801869585178792,-5.283670363426209,3.367411494255066,10.72544242143631,12.421422938477507
3.6902149585075676,-1.6532198265194893,-2.0111299431324006,4.945070384144783,5.588515057428645
3.700241958256811,1.9351345583796502,-5.999647886753083,5.265369747877121,8.21368608518219
3.7102689584717155,1.6482409223914147,-9.81004443883896,0.8180178683996201,9.981123346761223
3.7202959582209587,0.948745238184929,-9.416961273550987,-3.64021567940712,10.140534864943715
3.730323958210647,-0.02269830644130707,-3.5166721987724308,-3.33541962325573,4.846908564222521
3.7403509584255517,-2.181866008937359,4.885408319234848,-3.1607872653007507,6.214364799647081
3.750377958174795,-2.2941986230015754,9.123819302916527,-3.1367394214868547,9.916983422007128
3.7604049583896995,-2.1467289206385614,9.636362838149072,-2.848983905911446,10.27543882777319
3.770432958379388,-1.8070615321397783,7.649662562012673,-1.5599301320314407,8.013500527885256
3.7804599585942924,-0.10692423194646836,3.738259452581406,0.2809967190027237,3.7503300764441883
3.7904869583435357,0.9486969986557962,-1.1862702476978302,-1.023342261314392,1.8315273625102195
3.80051395855844,0.19712981253862383,-5.201047452092171,-1.5313594669103623,5.425386306872715
3.8105419585481286,-0.9543182194232941,-6.76986652135849,-1.5041488641500473,7.000305692357844
3.820568958297372,-3.230370008647442,-4.581287616491318,-1.8008330780267716,5.887825268526653
3.8305959585122764,-4.286589701771736,-0.3973609882593155,-1.299210387468338,4.496742671893907
3.8406229582615197,-2.820504749715328,2.3990804225206377,-1.0323522359132766,3.8440323952697995
3.850650958251208,-2.1671702018380166,3.1801935893297197,0.46057991445064544,3.875873038032056
3.8606779584661126,-1.7031395530700684,2.2870463088154795,1.5263963502645492,3.234370259262096
3.870704958215356,-1.349193848669529,0.48809632658958435,-0.5508264255523682,1.5368707871531493
3.8807329582050443,-1.0614146518707277,-1.3816798093914986,-1.7908571434020997,2.498561479523831
3.890759958419949,0.13970986247062683,-1.4341117921471596,-0.3542330950498581,1.483804759284624
3.900786958169192,1.884182798266411,0.12907553136348726,0.6661487209796906,2.002638117220055
3.9108139583840966,3.0178678661584857,1.1269028824567795,-0.19518707513809205,3.227310731612674
3.920841958373785,3.111124231517315,1.262617634832859,-0.7456462955474854,3.4393728605355967
3.9308689585886896,2.5089174449443816,1.2663309091329575,-0.836138974428177,2.932130471437032
3.940895958337933,1.616023641228676,1.5072113433480263,-1.0856466829776765,2.462081875727812
3.9509229585528374,0.2558712333440781,1.4662808337807656,-1.310130062699318,1.9828994812532368
3.9609509585425258,-1.1062744903564454,1.2265499621629716,-1.091213817000389,1.9796503863328896
3.970977958291769,-2.1579663920402528,0.615315951704979,-0.7276871573925019,2.3590170132137263
3.9810049585066736,-2.350823351740837,-0.23731831043958665,0.09538445949554444,2.3646963032645822
3.991031958255917,-2.0685080856084825,-1.1684736621379852,0.45830125451087955,2.41952401087984
4.001059958245605,-1.8369326180219652,-1.5542679807543756,-0.12002988874912263,2.4092483419822956
4.01108695846051,-1.4244495606422425,-1.5545892852544785,-0.42050719141960147,2.150030393896214
4.021113958209753,-0.18574528366327286,-0.6403885200619698,0.311271847486496,0.7358593140458072
4.031140958424658,0.4329807642102242,0.009090958535671234,0.5852267646789551,0.7280421373792619
4.041168958414346,0.5656821539998055,-0.07024216309189797,0.2543357545137406,0.624193028520635
4.0511959586292505,0.07722476184368134,-0.16500491738319398,-0.856574993133545,0.8757345519415005
4.061222958378494,-0.9562258735299111,0.18342773973941803,-0.5514725428819657,1.118988660562141
4.071250208187848,-1.5943886509537697,0.24877066701650621,-0.4852130645513535,1.6850500684161687
4.081277208402753,-2.1416386270523073,0.23765993401408197,-1.6330337762832643,2.7036822238569473
4.091304208617657,-1.9929404246807099,0.5622293731570244,-2.4203169250488283,3.185254687155312
4.101331208366901,-1.69353959441185,1.1684479343891145,-2.6661484891176226,3.36774326504308
4.111359208356589,-1.776059887111187,1.8491948139667511,-2.742588554620743,3.754424345028626
4.121386208571494,-2.0021462810039523,2.186417773962021,-2.950461748838425,4.182611259033488
4.131413208320737,-1.9349465703964235,2.105626064389944,-2.9019772213697435,4.074205584733792
4.141440208535641,-1.5146259051561357,1.7760198336839677,-3.140014446973801,3.9125476111368993
4.15146820852533,-0.945615223646164,1.3668072701990606,-3.1898397409915926,3.596863611296612
4.161495208274573,-0.7152781963348389,1.056704134941101,-2.942276816368103,3.207060864887173
4.171522208489478,-0.7744409090280533,0.9808531764149666,-2.908467046022415,3.165598242521922
4.181549208238721,-1.1486171025037766,1.1330516682565213,-3.0724902158975604,3.4703491838558973
4.191577208228409,-1.8205639225244523,1.506439949423075,-3.269264810085297,4.033845152664821
4.201604208443314,-2.4074302464723587,1.7178517323732376,-3.8474854409694674,4.852821775474524
4.211631208192557,-2.8977847677469253,1.638618305772543,-4.4362719905376435,5.546416472482734
4.221658208407462,-3.1246924030780794,1.4173826158046723,-4.4546269851922995,5.622844268752479
4.23168620839715,-3.1994788759946826,1.0595651775598527,-4.1529340463876725,5.348476852065411
4.241713208612055,-2.9354963850975038,0.42387986540794376,-4.057832007408142,5.026212666368661
4.251740208361298,-2.2817566251754764,-0.12541400492191315,-3.5721634447574617,4.240577041538596
4.261767208576202,-1.6337442129850388,-0.4932073777914047,-2.308317017555237,2.8706621404312074
4.271795208565891,-0.87477503657341,-0.7088743257522583,-2.3324987626075746,2.5900356468374324
4.281822208315134,-0.49671044468879705,-0.6838368406891823,-2.814522755742073,2.9386888969635176
4.291849208530039,-0.4817252004146576,-0.7287072041630746,-2.2281540298461917,2.393270511002367
4.301876208279282,-0.7662916445732117,-0.6966135916113854,-2.0713281977176665,2.3157879616279096
4.31190420826897,-1.2242543452978134,-0.5485787558555604,-2.1182673060894013,2.5073479482121863
4.321931208483875,-1.6520495063066483,-0.5289932146668435,-2.446805981397629,2.999326741629664
4.331958208233118,-2.1111015433073046,-0.45724670916795734,-2.582610488533974,3.366853310538655
4.341985208448023,-2.653209185600281,-0.41465032786130906,-2.6121997386217117,3.746337057901296
4.352013208437711,-3.059954954981804,-0.46002939909696583,-2.6552656513452533,4.077424070876751
4.362040208186954,-3.2161478260159493,-0.6331938135623932,-2.447745044231415,4.090965295120487
4.372067208401859,-3.177331961989403,-0.8807158076763153,-2.3763838702440263,4.064271032956138
4.382095208391547,-2.876718711555004,-1.1876437586545945,-2.389476955533028,3.92372378792204
4.392122208606452,-2.476812137961388,-1.3304713565111161,-2.4023887771368027,3.6981379414189313
4.402149208355695,-1.7663245654106141,-1.2304845535755158,-2.3817989766597747,3.2104456189411588
4.4121762085706,-1.1064996081590652,-0.959212338924408,-2.0743067693710326,2.5391294310175465
4.422204208560288,-0.8167355740070343,-0.7047707498073579,-1.6828017675876619,1.9988948438146477
4.432231208309531,-0.6625608694553375,-0.43237528502941136,-1.5489736193418504,1.7393258942057608
4.442258208524436,-0.6176267713308334,-0.017862074375152588,-2.0516365295648575,2.1426605731684303
4.452285208273679,-0.8018351143598557,0.5871966916322708,-2.125849975347519,2.3466950426012776
4.462313208263367,-1.3601673182845115,1.3791593670845033,-2.106274082064629,2.861560099372963
4.472340208478272,-1.791726039648056,2.7794827312231067,-2.6955968213081363,4.266385903474614
4.482367208227515,-1.5266281923651697,4.759737036824227,-2.413399668931961,5.550692592770862
4.49239420844242,-0.9533110365271569,6.418162347078324,-1.9706958621740343,6.781242660973598
4.502422208432108,-0.48937394320964817,7.288458416461945,-0.9268418607115746,7.363433219603123
4.512449208181351,-0.005541990995407105,8.192031574845315,1.170804362297058,8.275276121779902
4.522476208396256,0.29228681534528733,9.642212977409363,2.817365671992302,10.049639397205596
4.5325032086111605,0.19841736942529678,10.751985272169113,3.4109405064582825,11.281802687692648
4.542531208600849,0.004452069997787476,10.180016484260559,3.1799190625548364,10.66511325233556
4.552558208350092,-0.03573598936200142,7.760647392868996,2.417798529267311,8.12863301825757
4.562585208564997,-0.08072870582342148,3.9634070760011677,1.8534679591655732,4.376123427154843
4.57261220831424,0.24912237703800202,0.25384985089302065,1.4719502940773965,1.5143115180748006
4.582640208303928,0.532995487600565,-2.865021649003029,1.400682090818882,3.233317732391816
4.592667208518833,0.48322486504912376,-5.5522809255123144,1.3705301924049855,5.739310303015796
4.602694208268076,0.3836174002289772,-7.7407346999645235,1.0847579061985015,7.825780198807878
4.612721208482981,0.20455285280942917,-9.609941609501838,0.5216184139251709,9.626261235670528
4.622749208472669,-0.0349549475312233,-10.910677535533905,0.14686363846063616,10.911721910911359
4.632776208221912,-0.037292956709861755,-11.598480834960938,0.003874657452106476,11.598541436600842
4.642803208436817,0.2843645690381527,-11.927840459346772,-0.18385970279574396,11.932646212054818
4.652831208426505,0.7321773804724216,-12.033056427240373,-0.5120475451648235,12.06618097768037
4.662858208175749,1.1464413535594942,-11.765203664302826,-0.6322430562973023,11.83782396903722
4.672885208390653,1.4134715594351293,-11.235051823854446,-0.04293858960270882,11.32369794088946
4.682912208605558,1.4652505543828012,-10.687512702941895,0.7120903674513102,10.81096478831008
4.692940208595246,1.3034879180788994,-10.359514310359955,1.2811283116042615,10.519501283327283
4.702967208344489,1.2755089911818505,-10.127073454856873,1.609291741847992,10.333167948747983
4.712994208559394,1.2235576495528222,-10.04245839715004,1.7196158373355865,10.261829398712685
4.723021208308637,1.2379461854696274,-9.756663452982902,1.6281712317466737,9.968747867850734
4.7330492082983255,1.3294513097405434,-9.346443268060685,1.374901132285595,9.540115076434244
4.74307620851323,1.46777918279171,-9.006259278059007,1.1167129397392273,9.1931566778143
4.753103208262473,1.5766253945231439,-8.828386977910997,0.9451368483155966,9.017729643787712
4.763130208477378,1.6768463784456253,-8.789604735374452,0.3864108344167471,8.956465737888905
4.773158208467066,1.8931255298852923,-8.893079987168312,-0.2901375981420279,9.096976187499484
4.7831852082163095,2.0661427406966686,-9.083713835477829,-0.28683742962777614,9.320143699579976
4.793212208431214,2.21199057161808,-9.237762824892998,0.19387042835354806,9.500881540198906
4.803239208180457,2.2520910689234737,-9.401927497386932,0.5706753838062286,9.684721226887627
4.813267208170146,2.3534703862667086,-9.310496340394021,0.8630140931904317,9.642041188906534
4.82329420838505,1.8514882381260396,-8.81265329003334,0.9532763186842204,9.055363186864382
4.833321208599955,0.7709254167973996,-8.349068491458894,0.9638727159798146,8.439805761150327
4.843348208349198,-0.02249760076403618,-8.117651483416557,0.6717480877786876,8.145429223907694
4.8533762083388865,-0.67646708317101,-7.561357911229134,0.273569074049592,7.596484793284171
4.863403208553791,-0.9496465864777566,-7.303594518899918,0.22634484082460404,7.3685516570545735
4.873430208303034,-0.9891861165314914,-7.217170917391777,0.2759489639103413,7.289869206965754
4.883457208517939,-0.9964203648269176,-7.01240317940712,0.4800577206909657,7.099092005967798
4.893485208507627,-0.7678683462738991,-6.3559935808181764,0.917977774143219,6.46768578321738
4.9035122082568705,-0.26038901142776016,-4.784437429904938,1.2639864680171014,4.95543194376414
4.913539208471775,0.6401812362670899,-2.576476759314537,1.4707817280292512,3.0350063258683844
4.923566208221018,0.9168320122361183,-0.015377007722854615,-8.100560656785966,8.152294176812815
4.933594208210707,0.11388620099052787,6.0791647571325305,-24.130460293293,24.884700684905344
4.943621208425611,0.7086264038085938,14.624264076948167,-22.37586290359497,26.740428041693143
4.9536482081748545,5.527606844902039,21.601944150924684,-8.597275779247285,23.89794090200888
4.963675208389759,9.986915695667268,25.42659153699875,12.170081248283386,29.905867649870327
4.9737032083794475,10.352150326967239,25.288356342315677,29.228420748710633,40.0121051976989
4.983730208594352,5.961463814377785,17.5680108833313,25.704612607955934,31.700176127776796
4.993757208343595,-0.05085878938436508,7.291000201106072,-3.2423477375507357,7.979604589212851
5.0037842085585,-1.8461156702041628,0.32192956745624546,-14.732420024871827,14.851127280560904
5.013812208548188,-0.1466484609246254,-2.512946176528931,8.510221263170243,8.87469831629999
5.0238392082974315,-0.4383686810731888,-5.356498603820801,16.66164684891701,17.50699060693488
5.033866208512336,-1.0584737947583198,-8.354015820622445,12.949957144260408,15.447049464010314
5.043894208502024,-2.022666791975498,-10.42424064874649,1.9241438394784929,10.791584849749462
5.053921208251268,-2.482216719388962,-11.93779475927353,-4.031379203796387,12.842288029839334
5.063948208466172,-2.671793975830078,-12.473874506950379,-2.475635678172112,12.994798970182924
5.0739752082154155,-3.9083029156923295,-9.721705874204636,-2.4780780601501466,10.766952570600077
5.084003208205104,-4.373788059353829,-3.7021318459510804,-6.699009377360344,8.815470993141155
5.094030208420008,-3.8213489717245106,3.8187364357709885,-9.362666367888451,10.809485531049773
5.104057208169252,-3.3613502705097202,11.216161808967591,-6.976806499958038,13.629995975929548
5.114084208384156,-3.214094576239586,17.76395809650421,-2.8354926252365114,18.27371417164942
5.124112208373845,-4.854344986081124,21.711170139312745,-0.2766949224472046,22.248958046213858
5.134139208588749,-6.6780476939678195,18.651538535356522,2.1190672051906585,19.924022097932756
5.144166208337992,-4.707179338932038,6.952749300599098,3.200393380522728,8.985587234896983
5.154193208552897,-0.3385789293050766,-2.836200723052025,1.0998466461896896,3.0607732483712202
5.164221208542585,2.848927772641182,-7.784301719069481,0.33787024676799776,8.296137595947009
5.174248208291829,3.461606045365334,-10.641001610755922,0.39698033452034,11.196929270090788
5.184275208506733,1.7233065998554231,-11.01206123828888,-0.07300248742103577,11.146327095330522
5.194302208255976,-1.360441845059395,-6.00628213763237,0.02027580499649048,6.158460703690373
5.204330208245665,-1.1068416702747346,1.341699180006981,0.11199522972106934,1.742928026100976
5.214357208460569,-1.421872692704201,5.0088196527957916,-0.7756314021348953,5.264180880295527
5.224384208209813,-2.539307763576508,5.845309460163117,-1.1080415189266206,6.468653848436904
5.234411208424717,-1.9800367891788484,4.406589769721031,-1.1426295536756517,4.9642906222384635
5.244439208414406,1.325434564948082,1.4145274204015732,-1.5398262351751328,2.475627080874796
5.25446620862931,3.400358800292015,-0.9672040209174156,-1.7346765106916429,3.937896162362271
5.264493208378553,3.337407091856003,-2.1416579228639603,-1.5857795029878616,4.2707939996484425
5.274520208593458,1.4292355066537858,-1.6471574333310128,-0.1721689260005951,2.18757488620109
5.284548208583146,-1.1293031644821168,-0.4737314718961716,0.9322777247428895,1.539119521293267
5.29457520833239,-2.740574773550034,0.19562123090028763,1.3979125571250917,3.0827223800994106
5.304602208547294,-3.4309122562408447,0.29133430391550064,1.8524417728185654,3.909932877728819
5.314629208296537,-3.4119076359272005,0.0616428092122078,1.2790532809495927,3.6442956586333426
5.324657208286226,-1.86017120718956,-0.1381276059150696,0.2597590470314026,1.8832925736824737
5.33468420850113,-0.4227922832965851,-0.37534856021404267,-0.06878430604934693,0.569535896347706
5.344711208250374,0.6726040470600129,-0.6108197352290153,-0.23966976821422578,0.9396480994833188
5.354738208465278,2.028005007505417,-0.6620752581954003,-0.07564133584499359,2.1346825454080913
5.3647662084549665,2.641900670528412,-0.7863537338376045,0.5020167928934097,2.8017873238355904
5.37479320820421,2.3499293124675753,-0.3127532395720482,0.7267440015077591,2.4795441529008215
5.384820208419114,2.324065323472023,0.3910784474015236,0.6007283180952072,2.432097138674482
5.394847208168358,2.0589929115772247,0.9532961261272431,0.4088577836751938,2.3055129583861067
5.404875208623707,1.0107496976852417,1.2010546401143074,0.1904525846242905,1.5812714463054687
5.4149022083729506,-0.14946711122989656,1.1177899968624117,0.2890062350034714,1.1641819008625593
5.424929208587855,-0.6426774126291276,0.7375435164570808,-0.47442027390003205,1.0872346994365696
5.4349572085775435,-1.2368246895074846,0.38352355241775515,-1.071951334476471,1.6810429177508548
5.444984208326787,-2.2363839858770374,0.06794771566987037,-1.1257439643144609,2.5046615934178527
5.455011208541691,-2.9199655956029895,-0.24235685616731645,-0.9556911456584931,3.0819282099241816
5.465038208290935,-2.9761064672470092,-0.24575584262609482,-0.5976041507720947,3.045445182497031
5.475066208280623,-2.1669342666864395,0.32953752592206004,-0.6133454400300979,2.2760473909689236
5.4850932084955275,-1.6158423775434494,0.909779539257288,-0.9106810337305069,2.065910294352815
5.495120208244771,-1.3934540551900865,1.1296418644487858,-1.0493383973836898,2.0782001871967957
5.505147208459675,-1.0027857899665833,1.2429630964994431,-0.9495603400468827,1.8580100751094812
5.515175208449364,-0.7414485794305802,1.3157096220552922,-1.2986864769458772,1.9918394440593348
5.525202208198607,-0.783946727514267,1.1378289896249771,-1.814127307534218,2.2804133768140975
5.5352292084135115,-1.2929679000377656,0.936003278195858,-2.3740385520458225,2.8607563989129323
5.545256208628416,-1.8322788190841677,0.9103551976382733,-2.313704057335854,3.088562565606189
5.5552842086181045,-2.3444183117151263,1.103175758421421,-2.6913821482658387,3.7358843454097883
5.565311208367348,-2.7915408593416213,1.2025395405292512,-3.0486259746551516,4.304988042869821
5.575338208582252,-3.2092793941497804,1.1598083809018136,-3.4174642449617387,4.829460795546059
5.5853652083314955,-3.690969511270523,1.0829031693935396,-3.172930762767792,4.986323779371867
5.595393208321184,-3.9134198141098024,1.032658191472292,-2.6797005808353425,4.85407383388544
5.6054202085360885,-3.7432757788896565,0.879864745438099,-3.3249542766809466,5.0834630390222895
5.615447208285332,-3.7138075661659244,0.9156404958665372,-3.5951769161224365,5.249386746506835
5.625474208500236,-3.4849528080224994,0.9981828618049622,-3.468565986156464,5.017191953679529
5.635502208489925,-2.6767284411191943,0.8552602466940881,-3.4714767301082614,4.466261963292657
5.645529208239168,-1.9181521975994111,0.49907242745161057,-3.0442025560140613,3.63256800941709
5.6555562084540725,-1.753111612200737,0.13278061956167223,-2.635218472480774,3.167871117243906
5.665583208203316,-1.7901145470142366,-0.20738962948322298,-2.566569237112999,3.1360481818275647
5.675611208193004,-1.7715513914823533,-0.3567047131061554,-2.867973908185959,3.38982402538106
5.685638208407909,-1.7398635756969454,-0.3934807759523392,-2.4225131392478945,3.0084085980647153
5.695665208622813,-1.816721717119217,-0.37858382463455204,-2.665597096681595,3.2479549552856906
5.7056922083720565,-2.0285131305456163,-0.3723047921061516,-2.4171752160787583,3.177453761150046
5.715720208361745,-2.1429408019781113,-0.44648052334785465,-1.6471056854724886,2.7394337512755005
5.725747208576649,-2.222610869407654,-0.6532693514227867,-1.414336801171303,2.714241792741551
5.735774208325893,-2.384090500473976,-1.0825149142742156,-1.5722028529644014,3.054103446994841
5.745801208540797,-2.6447535270452502,-1.3990287905931473,-1.8194786792993547,3.501786035746864
5.755829208530486,-2.931819655895233,-1.4773209616541862,-1.599799371957779,3.6520407649632003
5.765856208279729,-3.119619358778,-1.4713758051395418,-1.318574026823044,3.692642572443863
5.775883208494633,-3.0771545398235323,-1.5024476167559624,-1.4739655369520188,3.7281098839994646
5.785910208243877,-2.9224301970005038,-1.5269962745904924,-1.3658470112085344,3.5690130200072026
5.795938208233565,-2.512380166053772,-1.677682530283928,-0.7940957397222519,3.1236614437299846
5.80596520844847,-1.8120047682523728,-1.5290784680843355,-0.5632049810886384,2.43693292736003
5.815992208197713,-1.377624472975731,-1.2561462289094925,-1.269993020296097,2.2558002590092063
5.8260192084126174,-1.2845496636629106,-1.1353901159763338,-1.8420413303375245,2.5164051376010352
5.836047208402306,-1.4722283291816711,-1.2895320761203766,-1.2670922166109087,2.3314956388516643
5.84607420861721,-1.9371995025873185,-1.1606506723165513,-1.1440141743421555,2.5315252965493316
5.856101208366454,-2.3876333284378055,-0.3988116824626923,-2.2118274343013766,3.2790279456363174
5.866128208581358,-2.881265214085579,0.5871312028169632,-2.7293615680933,4.011960474955559
5.876156208571047,-3.339053083062172,1.6623172169923783,-1.622179589867592,4.0674366182153685
5.88618320832029,-3.0187680450081826,2.8454434168338776,-0.7081112641096116,4.208435613185105
5.896210208535194,-1.9538023790717125,4.146978072524071,0.05013578116893769,4.584461197023611
5.906238208524883,-1.243378248810768,5.485491104722024,1.4779165005683899,5.815568700673434
5.916265208274126,-0.38272160679101946,7.904850255846978,3.1543573746085167,8.519571810978288
5.926292208489031,0.6173969757556915,10.04316707968712,4.090754170417786,10.86188996901432
5.936319208238274,1.0442244225740434,10.562239615917207,4.696192128360272,11.606271186527737
5.946347208227962,1.128216459453106,9.462805198431015,5.398666384220124,10.952769208330025
5.956374208442867,0.0319310599565506,6.2919390875101096,5.068772324323654,8.07972585855219
5.96640120819211,-0.8180523669719696,4.533754431009293,3.868849997520447,6.015990294134358
5.976428208407015,-1.7537817031145098,2.0891037333011626,2.7437135589122774,3.868858845193394
5.986456208396703,-2.227453533411026,-0.9249646121263505,1.5589577400684358,2.871838785954149
5.9964832086116076,-2.19434718310833,-3.750796467661858,-0.15261013582348823,4.348209235466504
6.006510208360851,-1.9946887421607973,-6.226870102286339,-1.1301719876378775,6.635509262331856
6.016537208575755,-1.2300851887464523,-8.065204882621765,-0.41585631608963014,8.169062115437182
6.026565208565444,-0.4117653116583824,-9.37085656285286,0.3928627252578736,9.38812252339863
6.036592208314687,0.1725367158651352,-10.693683854341508,0.00728095293045044,10.69507813469361
6.046619208529592,0.9539545226097107,-11.64707353591919,-0.3961184549331665,11.692786708593264
6.056646208278835,2.281437513381243,-11.241929318904877,-0.48218713045120243,11.481221031209573
6.066674583591521,3.192918884754181,-10.39497650384903,-1.1231682658195496,10.932144093156538
6.076701583340764,3.7059927624464035,-9.625133845210076,-2.467237322330475,10.604944313772425
6.086728583555669,4.36585865020752,-8.680396288633347,-4.5349858546257025,10.722690808885922
6.096755583304912,4.6837375590205195,-7.863423317670822,-5.274955673217773,10.563899902454637
6.1067835832946,4.545383665859699,-7.459087185859681,-4.191337974071503,9.688436836198813
6.116810583509505,4.234560884535313,-7.440964325666428,-3.0501766562461854,9.08862110636075
6.126837583258748,3.9902411180734636,-7.7966054302454,-2.501185086965561,9.108512900279338
6.136864583473653,3.7969406470656395,-8.344951466917992,-1.562911627292633,9.300412142334473
6.146892583463341,3.795344064831734,-9.006782019138337,0.06273594617843628,9.77398049464342
6.156919583212584,3.8152722528576852,-9.804183189868928,1.2691779184341432,10.596656216589036
6.166946583427489,3.8262398752570155,-10.489511947631836,2.7541110777854922,11.500221750527189
6.176973583176732,3.6255245500802995,-10.90276976108551,4.248636009693146,12.25013161844953
6.187001583632082,3.15638723552227,-11.079423501491547,5.262394684553147,12.665275493331535
6.197028583381325,2.1698359474539757,-10.889926936626434,5.357987304925919,12.329100724857138
6.2070555835962296,1.0691578271985054,-10.080810284614563,4.887894555330277,11.254214661089327
6.217082583345473,0.5517847841978073,-9.38240715265274,3.4226992571353914,10.002444732714933
6.227110583335161,0.16065020352602005,-9.236722020506859,1.0674372839927675,9.299584105069812
6.237137583550066,-0.4233732041716576,-9.241325533390045,-0.7248394902795554,9.27937146420845
6.247164583299309,-0.6568890702724457,-8.986373482346535,-1.7985520792007448,9.18810106586022
6.257191583514214,-0.7099665856361389,-8.62503251194954,-1.4149478352069855,8.76911145791085
6.267219583503902,-0.5652497524023057,-8.325414165258408,-1.0197123098373413,8.4066545962416
6.277246583253145,-0.3953700113296509,-7.954127665758134,-1.0714426267147066,8.035698704616735
6.28727358346805,-0.37841981023550036,-7.260723903179169,-2.3065090584754944,7.6276665624426405
6.297300583217293,-0.3043253552913666,-5.985452016592026,-3.308099677562714,6.845565954797989
6.307328583206981,-0.24248359456658364,-4.2856412833929065,-2.6953755041956904,5.068586451090058
6.317355583421886,-0.21986554116010668,-2.4497956627607347,-2.375968133211136,3.419804704293177
6.327382583171129,0.06861941456794739,1.5499846029281616,-7.7739644265174865,7.927274676591532
6.337409583386034,0.9988523679971696,9.081315307617189,-11.392320874929428,14.603183512055468
6.347437583375722,2.846026676595211,22.5605624127388,-8.336453708410264,24.21931676689996
6.357464583590627,-0.2965514820814133,36.39486882448197,-1.193723401129246,36.415647668154655
6.36749158333987,-2.6955994525551796,31.123377041816713,16.15933126330376,35.17179042603441
6.3775185835547745,-1.266499016582966,16.793481681346893,16.390392175912858,23.500425579571207
6.387546583544463,0.06039033561944962,3.3267674982547764,-2.6027950769662858,4.224401873965178
6.397573583293706,1.7880370312929155,-2.5443030399084092,-3.9962163877487185,5.063625164037457
6.407600583508611,1.0616771918535233,-5.315116104483605,3.2489521676301956,6.319280643506181
6.417627583257854,-0.9576046469807625,-7.911540055274964,3.9591415321826937,8.898554622970703
6.427655583247542,-2.698033940792084,-5.793856301307678,-1.7532747495174408,6.627377334448688
6.437682583462447,-4.3133778432011605,3.2876706755161287,-7.177038552761078,8.995770632729927
6.44770958321169,-5.680110415220261,11.070177884101868,-5.915989433526993,13.777206672339457
6.457737583201379,-7.6472844994068145,14.8039244556427,-2.91119360268116,16.914851098828375
6.467764583416283,-8.636045742630959,14.486811239719392,-0.20820999383926392,16.866900644920186
6.477791583631188,-6.728520274758339,10.938809659481048,3.113200285434723,13.21448288323916
6.487818583380431,-1.8021937251091005,5.718998492360115,3.2216123414039615,6.806881228339907
6.497846583370119,0.3213562479615212,0.21662939965724945,2.0987171405553817,2.134200499241045
6.507873583585024,0.2753278434276581,-3.700675304532051,2.7376464879512787,4.611454371880078
6.517900583334267,1.9699254915118218,-7.4179344820976265,1.7996759140491487,7.883222172335986
6.527927583549172,3.805004834532738,-10.456479856967926,0.735655158162117,11.151556900349117
6.53795558353886,5.135382635593414,-10.656992576122285,1.2249601042270661,11.89303043124114
6.547982583288103,3.8391587135195735,-8.324069890379906,0.45510692059993746,9.17803908668407
6.558009583503008,0.4991040024161339,-3.5591721010208133,-0.30050419986248017,3.606537622713467
6.568036583252251,-0.7041374963521958,0.2456374365091324,1.684717900156975,1.8423956597574918
6.5780645832419395,-0.4974381306767464,1.5590115344524385,2.658708491921425,3.1219693309547454
6.588091583456844,-0.5732081052660942,1.1882156163454056,1.9930111759901048,2.390087326959268
6.598118583206087,-0.5195408982038499,-0.0698698416352272,1.7831522673368454,1.8586114570251435
6.608145583420992,-0.08976586997509003,-1.1415320312976838,2.239205852150917,2.5149942620606347
6.61817358341068,0.14859763026237488,-1.786034944653511,1.345294048190117,2.2409413547299306
6.628200583625585,-0.3221388977766037,-1.623086785376072,0.23251394569873812,1.671001770575828
6.638227583374828,-1.2138299292325974,-0.8526827940344811,-0.530119680762291,1.5752707450704386
6.648254583589733,-1.549074776172638,-0.007436781227588654,-0.057563499212265015,1.5501617736000641
6.658282583579421,-0.6364723473787308,0.7523998296260834,0.41594577848911285,1.0696791309743616
6.668309583328664,0.14379823565483094,1.1353333979845048,-0.013594191670417786,1.1444844512721246
6.678336583543569,0.7025721967220306,1.0609272864460946,-0.912469112277031,1.5658142544990215
6.688363583292812,0.9464560532569886,1.1187413388490677,-1.6338991641998293,2.1947637054520244
6.6983915832825005,0.27930862784385685,1.4983314692974092,-1.3004687082767488,2.003554182616968
6.708418583497405,-0.6945468932390213,1.9226960688829422,-0.7779726272821427,2.187326443173532
6.718445583246648,-1.5136406493186951,2.0616855543851855,-0.747587571144104,2.6646843184436713
6.728472583461553,-2.1144327020645144,1.9200849947333336,-1.0629659181833269,3.0475315555018083
6.738500583451241,-2.255970988869667,1.3609710180759431,-1.176563869714737,2.88547218911955
6.7485275832004845,-1.1973630005121232,0.6469856411218643,-0.6885523277521134,1.5252451877865796
6.758554583415389,-0.1437789398431778,0.057913455069065096,-0.7433460009098053,0.7593349912186748
6.768581583630294,-0.0519548499584198,-0.5312695357203484,-0.9449866479635239,1.0853323872657876
6.778609583619982,0.182066507935524,-0.9920073249936104,-0.8221319693326951,1.301202413597389
6.788636583369225,0.23204382956027986,-1.0754751589894296,-0.40933491647243503,1.1739021382908519
6.79866358358413,-0.5990986990928651,-1.035564988553524,0.5620349532365799,1.3218159423430587
6.808690583333373,-0.773550962805748,-0.7740014907717705,0.3548868137598038,1.1503929982206988
6.8187185833230615,-0.6160029995441437,-0.4240283846855164,-0.24904285490512848,0.7882145076346208
6.828745583537966,-0.6883739876747131,-0.11595934957265855,0.04279752552509308,0.6993832610604653
6.838772583287209,-0.38329609572887424,0.20554483294487,0.10301390647888184,0.44696357824701183
6.848799583502114,0.08638676404953004,0.5529182669520378,0.14406194508075715,0.5778712027369466
6.858827583491802,0.6117842334508896,0.5833544862270356,0.3133593034744263,0.9015411571161235
6.8688545832410455,0.8162789064645768,0.32703711032867433,0.06378142833709717,0.8816646728047206
6.87888158345595,0.7697678142786026,0.1000622320175171,0.07753407955169678,0.7801067053086479
6.888908583205193,0.9826713681221009,-0.031905624568462375,-0.23538025081157685,1.0109722296275927
6.898936583194882,0.9408766400814057,0.007280660569667817,-0.8722215574979783,1.2829934938390783
6.908963583409786,0.5004368752241135,0.12354962021112442,-1.2055917870998383,1.3111647996575295
6.918990583624691,-0.0037948429584503175,0.6898623964190483,-1.7293765944242478,1.8618990123442574
6.929017583373934,-1.0533852553367615,1.3585800915956499,-1.7207519513368608,2.432354340853847
6.939045583363622,-1.9720781439542772,2.132599124014378,-1.2670091861486437,3.1689719953628632
6.949072583578527,-2.7475101560354234,2.6298457583785058,-1.2088048321008682,3.9907530482967277
6.95909958332777,-3.0836139589548113,2.0711849409341814,-1.3177378749847413,3.9414356793664402
6.969126583542675,-2.972311624288559,0.8229023399949075,-1.4360755795240403,3.4020755022714138
6.979154583532363,-2.392050315141678,-0.06836769193410874,-1.2003678846359254,2.677211592298062
6.989181583281606,-1.9271802985668183,-0.40481414169073104,-1.427493036389351,2.4322077956944765
6.999208583496511,-1.480392211675644,-0.24300999015569688,-2.1493511044979097,2.6211305053567555
7.009235583245754,-0.48594981372356416,0.42762471467256546,-2.069473460912705,2.1683474176152604
7.019263583235443,-0.0006636589765548706,0.9348045989871026,-2.055559426546097,2.258137426020213
7.029290583450347,-0.3150099724531174,1.2680754259228706,-1.985518553853035,2.376874101897076
7.0393175831995904,-0.7438459378480912,1.2494225156307222,-1.6792063146829606,2.221282793587804
7.049345583189279,-1.2244566589593888,0.8251880165934563,-1.7330416291952133,2.276765833572489
7.059372583404183,-1.999862358570099,0.28960323572158814,-1.9159501361846925,2.784633622527767
7.069399708416313,-2.6116442531347275,0.14405639022588732,-1.5263057184219362,3.028373671557733
7.0794267086312175,-2.9243293726444244,0.13085191547870637,-1.573321425318718,3.323276216456029
7.089454708620906,-3.159255294799805,0.04987499535083771,-2.007588284611702,3.7435000004530528
7.099481708370149,-3.2692028295993807,-0.054674974679946906,-1.996006704568863,3.8307596190051787
7.109508708585054,-3.129560210108757,0.09983155936002731,-2.5071545094251633,4.011226393893912
7.119535708334297,-3.0566156101226807,0.3770211562514305,-2.701420063376427,4.096671124110344
7.129563708323985,-3.099297360777855,0.5137729123234749,-2.502462703585625,4.016456936007033
7.13959070853889,-2.9238358676433567,0.6235008841753006,-2.6824294763803485,4.0165902740059645
7.149617708288133,-2.6698222947120667,0.7929812604188919,-2.7408519315719606,3.9075618581820155
7.159644708503038,-2.4699825900793075,0.7785918474197389,-2.439882293343544,3.558095679648696
7.169672708492726,-2.273992107510567,0.6376295113563538,-1.9069775837659837,3.0354859584189877
7.179699708241969,-1.9624542117118837,0.24970739096403125,-1.1724790048599243,2.2996276505132505
7.189726708456874,-1.5803462702035904,-0.28988565623760226,-1.1049115043878557,1.949963450931155
7.199753708206117,-1.2559620416164399,-0.7946956640481949,-1.620744683146477,2.199044150622245
7.2097817081958055,-0.9752378028631211,-1.2439924988150597,-1.5307390773296357,2.2004018342351492
7.21980870841071,-0.9028007411956788,-1.5984702998399736,-1.8519079220294954,2.6076271645788562
7.229835708625615,-1.0612409895658494,-1.7593681329488755,-1.8092314338684083,2.7376864404946475
7.239862708374858,-1.2442424672842027,-1.8228835129737855,-1.729839109182358,2.8041731335496998
7.249890708364546,-1.783926438689232,-1.65130632519722,-2.743346938490868,3.6654001886858154
7.259917708579451,-2.5600694721937183,-1.2482729530334473,-3.007510693073273,4.142132498687499
7.269944708328694,-3.2622674471139907,-0.6946305084228516,-2.8740363013744354,4.402838300613533
7.279971708543599,-3.8257174265384677,-0.0055302965641021735,-2.7934733641147615,4.737049487594451
7.289999708533287,-4.151959315538407,0.9217579990625382,-2.661427447199822,5.017130656404165
7.30002670828253,-4.0664788699150085,2.062196601033211,-2.951852216720581,5.431605354785671
7.310053708497435,-3.704815133213997,3.3286041086912155,-2.8896583074331286,5.758071345286091
7.320080708246678,-3.2174842071533205,4.533763201832771,-2.415907539725304,6.061668304524386
7.3301087082363665,-2.635054750442505,5.73883224785328,-2.013429945409298,6.628092429342037
7.340135708451271,-2.235418610572815,6.849669320583343,-0.802718043923378,7.249787750263876
7.350162708200514,-1.8656804537773133,8.112914654016496,0.9117642304301262,8.374452922481215
7.360189708415419,-1.1050635319948197,11.062073643207551,2.7451049038767814,11.451036618174811
7.370217708405107,-0.022280522882938386,14.688313307762147,3.9419100800156595,15.208080067109444
7.380244708620012,0.04523347556591034,14.757455463409425,4.298108424246311,15.370695294891561
7.390271708369255,-0.4422860231995583,11.302326378822327,3.7737845036387445,11.92391076701116
7.40029870858416,-0.8901482436060906,6.3407680159807205,2.6149941229820253,6.916349990515925
7.410326708573848,-0.9420434519648553,1.8992727077007294,1.5104012918472292,2.6030740953765608
7.420353708323091,-1.1050152924656869,-1.8091963505744935,0.702250599861145,2.2332501285168287
7.430380708537996,-1.2350863122940063,-5.0383229488134385,-0.5220708422362804,5.213702551898166
7.440407708287239,-1.2546502187848092,-7.791855736970902,-1.06984151288867,7.964403547031193
7.4504357082769275,-1.4503698290884495,-10.22483422279358,-0.7225694549828768,10.35243517931965
7.460462708491832,-2.0315147987008095,-12.373990030288697,-0.1375627648830414,12.54039892353137
7.470489708241075,-2.4646399891376496,-13.561235593557358,-0.11114847980439664,13.78382802724215
7.48051670845598,-2.065128248780966,-13.750770750045778,-1.0745802426338196,13.946439459664486
7.490544708445668,-0.14896037690341474,-12.460801302194596,-3.3188293182849886,12.896060884261122
7.5005717081949115,1.8680117386579516,-10.52390527009964,-3.280173375606537,11.180410876342286
7.510598708409816,2.5773243132233623,-9.532160192728043,-1.3852217602729797,9.971134232397795
7.520625708624721,2.960573338866234,-9.544969103336335,-0.042227421998977666,9.993658631032956
7.530653708614409,3.5193440839648247,-9.431530780792237,-0.28976695775985717,10.070924512683979
7.540680708363652,3.3832589104771618,-8.512987580895425,-1.9216488325595857,9.36002845313413
7.550707708578557,3.0432664167881014,-7.612017602920533,-1.8244084668159486,8.398377743618827
7.5607347083278,2.978488622903824,-6.994151680469513,-0.7064301896095276,7.634696838707729
7.570762708317488,2.9222875249385836,-6.6391216099262245,0.23539369940757754,7.25762428922315
7.580789708532393,2.6808863961696625,-7.06361133992672,0.9033971571922302,7.609065872650329
7.590816708281636,2.429472495317459,-7.9138321638107305,1.0539161825180055,8.345167190790285
7.600843708496541,2.2787055480480194,-8.936344120502472,0.7951663649082185,9.256513099576173
7.610871708486229,2.559532405436039,-9.600584895014764,0.1978394452482462,9.937885937509998
7.620898708235472,2.9006773853302,-10.226674926280976,-0.19833989381790162,10.631939994896028
7.630925708450377,3.2108850395679474,-10.736925183534623,0.8952753746509552,11.242458055540954
7.64095270819962,3.446219974458218,-11.103374866247178,2.2242691397666934,11.83675372468663
7.650980708189309,3.81072458088398,-11.183204562664033,3.196559361219406,12.239431272389353
7.661007708404213,3.6499457386136056,-11.123831934928894,2.5373699963092804,11.979148021021283
7.671034708619118,2.4098033389449123,-11.010300056934357,0.8272172927856446,11.301245414802846
7.681061708368361,1.0004264384508132,-10.145613806247711,-0.6714147233963013,10.216904144361386
7.691089708358049,-0.24192650109529495,-9.587127528190614,-2.053549153804779,9.807579048920013
7.701116708572954,-1.254038015305996,-9.525463376641275,-1.8252481269836427,9.7794986890241
7.711143708322197,-1.5153816577792167,-9.475511198043824,-0.8191585139930249,9.630821081508827
7.721170708537102,-1.464685713350773,-9.256739963293077,0.8707650160789491,9.41226703298137
7.73119870852679,-1.4675087490677834,-8.952455538511277,1.8333757567405702,9.255339473137427
7.741225708276033,-1.4012676894664766,-8.619465962648393,2.0691577112674713,8.974416875368258
7.751252708490938,-1.2705192697048189,-8.225999804735185,1.5077969419956208,8.459003701411055
7.761279708240181,-1.154972148835659,-7.754110790491104,0.21165517330169678,7.842511888941068
7.77130770822987,-1.0215878042578699,-6.80352601826191,-1.809965844154358,7.113900778052824
7.781334708444774,-0.6616174212098122,-4.599615129232407,-4.860658224821091,6.724596294769887
7.791361708194017,0.14676964446902277,-0.0010489904880523681,-8.315583826303483,8.31687903009288
7.801388708408922,1.7719547031819822,6.667482360005379,-11.081379979848862,13.053433523364909
7.81141670839861,5.638336152434349,14.860456506013872,-6.6012410080432895,17.210473119041517
7.821443708613515,7.415962216258049,23.46879638671875,0.5496615140140056,24.618753567437533
7.831470708362758,4.937240377664566,33.3446009516716,4.236570864915848,33.97333201007099
7.841497708577663,-3.3553755855560303,34.135043935775755,1.4658759140968323,34.330868937634186
7.851525708567351,-13.327507181167602,23.169713644981385,6.1524566817283635,27.42828469436349
7.861552708316594,-12.699940727949143,9.408057133555413,9.965159375667573,18.684336619321535
7.871579708531499,-5.596445530056954,1.798277844786644,5.172618874311447,7.830069718516431
7.881606708280742,0.238605574965477,-2.023890906572342,1.3988887497782707,2.471832671595518
7.891634708270431,2.5265362751483917,-4.674165959358215,2.0548867043852805,5.696821248128049
7.901661708485335,2.3091672027111056,-7.502782843708992,2.9687369289994243,8.392699358581574
7.911688708234578,2.2291147273778917,-9.833004115819932,2.2758348575234413,10.33616692532892
7.921715708449483,2.900372745394707,-9.554367917776108,-1.4660276493430138,10.09194458165006
7.931743708439171,3.544334206581116,-4.225914899110794,-4.0329407027363775,6.8326621762132635
7.941770708188415,2.799538096189499,3.0133678489923477,-4.678186797201634,6.2292239528587166
7.951797708403319,0.5712484109401703,7.587310777902603,-3.4181419372558595,8.341301090999288
7.961824708618224,-2.621382206082344,10.359966884851456,-1.6642272099852562,10.815276729332414
7.971852708607912,-5.19636090874672,11.944023213386536,-1.7600209745764732,13.143802001202566
7.981879708357155,-5.9804251652956015,11.540893946886063,-0.39029345870018006,13.004231897150882
7.99190670857206,-3.657455025315285,7.610418974161148,0.27232354402542114,8.448053878681565
8.001933708321303,-2.2218793827295302,2.802668110728264,0.3428871577978134,3.5929469983948215
8.011961708310992,-2.7679566997289657,-0.9146951472759247,2.088538892269135,3.5861185435712217
8.021988708525896,-3.902330569624901,-3.5503153234720233,3.3077722334861757,6.226899703651198
8.03201570827514,-4.148858537077904,-4.991768002510071,2.1816850376129153,6.847665628147424
8.042042708490044,-3.248113676905632,-5.546855294108391,0.439443399310112,6.442899705340518
8.052070708479732,-1.1592473405599595,-6.03478263616562,1.5747990167140962,6.3436935459876285
8.062097708228976,0.03182171702384949,-6.084766974449158,2.7169531917572023,6.663875479120326
8.072123833466321,0.10761624991893769,-5.049298172593117,1.2181369882822037,5.195271986645169
8.08215183345601,-0.28140953242778777,-2.336625727415085,0.7281993734836578,2.463591979712
8.092178833205253,0.11049366474151612,0.5441038817167282,0.30996207118034363,0.6358729193931995
8.102205833420157,0.6790389078855514,2.0494683820009234,0.5791971158981324,2.2353710623313976
8.1122328331694,1.21016021668911,2.195090364217758,1.8823105198144914,3.1346454903454366
8.12226083362475,2.2235160183906557,1.6913521510362626,1.53156762778759,3.1859684526595258
8.132287833373994,2.403138390183449,1.2280608826875687,1.2091831469535828,2.957250671964999
8.142314833588898,2.2297427183389664,0.5912523204088211,2.007447951436043,3.0579697797884173
8.152341833338141,1.730716776251793,-0.4706113976240158,1.311825755238533,2.2221031612596605
8.162368833553046,0.3142819941043854,-1.3647611832618713,0.9010880917310715,1.6653245954516243
8.172396833542734,-0.7540276944637299,-1.9488378006219864,0.798731997013092,2.2370738343210648
8.182423833291978,-1.5848199748992922,-1.7646955311298371,-0.47913722276687626,2.419788657852203
8.192450833506882,-2.33775190114975,-0.46291412293910983,-0.7705811619758607,2.5046294663558166
8.20247883349657,-2.20243388235569,1.0957693827152253,-0.7081796765327454,2.5598718718909517
8.212505833245814,-1.866578586101532,1.831028099656105,-0.7544299829006196,2.72138643322158
8.222532833460718,-1.093914645910263,1.8986078792810441,-0.4748652470111847,2.2420655955221367
8.232559833209962,-0.30435400664806367,1.5834476333856584,-0.19973503947257998,1.624755937065775
8.24258783319965,-0.08332516193389893,1.3308549338579179,-0.24144030511379244,1.3551425602196672
8.252614833414555,-0.1906987524032593,1.1351319614052773,-0.1549178856611252,1.161417295923246
8.26264183362946,0.2918854039907456,0.8417300820350647,0.4092431151866913,0.980401217560089
8.272668833378702,0.3028033250570297,0.3852531588077545,0.023186548948287963,0.49055832078263384
8.28269683336839,-0.21661419689655306,-0.07328052252531052,-0.5844221878051759,0.6275675572220966
8.292723833583295,-0.13880997598171235,-0.30303662896156314,-0.6375599294900894,0.7194317699517025
8.302750833332539,0.235612969994545,-0.11968841135501862,-0.8078004437685014,0.8499296114355155
8.312777833547443,0.2149793154001236,0.3142129969596863,-0.3190772956609726,0.49674564327693244
8.322805833537132,0.6769350796937943,0.5860538533329964,-0.558516098856926,1.0552916439586055
8.332832833286375,1.3155656343698503,0.6422938352823258,0.007320713996887208,1.4640040648953303
8.34285983350128,0.7740737038850785,0.7371421051025391,0.040005480051040654,1.0696583662999515
8.352886833250523,-0.008091377019882202,0.7877608662843705,0.09504532098770142,0.7935151327308351
8.362914833240211,-0.8687284308671952,0.7820358574390411,0.1440841645002365,1.1777221299513425
8.372941833455116,-1.2925083088874818,0.6719719630479813,-0.012973217368125916,1.4568089620930456
8.382968833204359,-1.5878634506464004,0.5987300321459771,0.18490006864070893,1.7070372065879393
8.392995833419263,-2.36543788254261,0.6774201062321663,0.16748355209827423,2.4662208166988457
8.403023833408952,-2.887189028263092,0.950887950360775,0.14811055719852448,3.043350968294283
8.413050833623856,-2.9074168860912324,1.3114787229895593,0.05113507032394409,3.18993168983284
8.4230778333731,-1.9201566231250764,1.6482634341716766,-0.4039747738838196,2.5626098851938015
8.433104833588004,-1.0005708646774292,1.7412742164731028,-1.0546184331178665,2.26834697338554
8.443132833577693,-0.1482175612449646,1.4444976165890695,-1.0399676495790482,1.786077971972074
8.453159833326936,0.9635655909776688,0.984422901570797,-0.7435389590263367,1.5653744858158318
8.46318683354184,1.5828845465183259,0.6786073833703995,-0.8295099860429764,1.9115748181319938
8.473213833291084,2.0461085718870162,0.8601634293794632,-0.8973166376352311,2.3940798987018708
8.483241833280772,1.8592549484968186,1.1878802785277367,-0.4749096858501435,2.256862363844841
8.493268833495677,1.3192487955093384,1.1434174659848213,-0.5234959548711777,1.8225994899424494
8.50329583324492,0.013274933695793153,1.1565658074617386,-0.3003948569297791,1.1950137074210128
8.513322833459824,-1.7309401398897173,1.3021038821339608,-0.06549173891544342,2.1670065656605506
8.523350833449513,-3.2446778529882434,1.164144091308117,-0.5782983988523483,3.49536763060986
8.533377833198756,-3.973981180787087,0.8040246042609215,-0.895917398929596,4.1523065849250145
8.54340483341366,-3.9487375813722614,0.4596040141582489,-1.434934203028679,4.226440642360139
8.553431833628565,-3.535081572532654,0.17265424489974976,-1.9854402011632921,4.058150318203747
8.563459833618253,-3.2738075119256975,0.04098781228065491,-1.9235743206739426,3.797319290374843
8.573486833367497,-3.0506999820470813,0.05661946624517441,-1.728051615357399,3.506585023888522
8.583513833582401,-2.913628968000412,-0.02697846829891205,-1.2944256108999252,3.188338009539852
8.593540833331645,-2.7441503459215166,0.229497367143631,-1.2957786566019058,3.043365323035024
8.603568833321333,-2.734282584786415,0.2711771973967552,-1.6272485411167146,3.1933957068332
8.613595833536237,-2.62708674967289,0.22835803717374803,-1.7809458205103874,3.182059113065333
8.62362283328548,-2.527568308711052,0.08063047260046005,-1.6948522943258286,3.044277767861163
8.633649833500385,-2.550121604204178,-0.08510710090398789,-0.963433443903923,2.727373721308788
8.643677833490074,-2.549997643232346,-0.4000059762597084,-1.4330733266472817,2.9523197525135902
8.653704833239317,-2.644407371878624,-0.47687815099954606,-1.4573404410481454,3.056819307787289
8.663731833454221,-2.886272769570351,-0.3673203331232071,-0.7966983354091645,3.0166575816842025
8.673758833203465,-3.3646744126081467,-0.13786565065383913,-1.0498073440790177,3.527341250881806
8.683786833193153,-3.769086558222771,0.15578970551490784,-1.0401565146446228,3.9130818405289767
8.693813833408058,-3.8892684745788575,0.45426901459693914,-0.5730101770162582,3.9574120669877213
8.703840833622962,-3.640564758181572,0.6905918365716934,-0.3983985766768456,3.7268418626433895
8.713867833372205,-3.20396661400795,0.7334174287319184,-0.7009221124649048,3.36074322080512
8.723895833361894,-2.7889090275764468,0.584389443397522,-1.3977535128593446,3.1738367110427257
8.733922833576798,-2.5192997610569003,0.2636445218324661,-2.100411956012249,3.2906093820009734
8.743949833326042,-2.3432821977138523,-0.12491231381893159,-2.2543410775065422,3.2540172461128134
8.753976833540946,-2.5681421381235126,-0.4271040201187134,-2.2779114961624147,3.4592849940350483
8.764004833530635,-3.1467293894290926,-0.3252203804254532,-2.1317430916428566,3.814708737886539
8.774031833279878,-3.8331363737583164,0.24576958358287812,-1.754487754404545,4.2227437085855755
8.784058833494782,-4.468617618083954,1.2821751093864442,-1.5882452738285064,4.912742561708178
8.794085833244026,-4.832530778646469,2.6602439707517624,-1.570667081773281,5.735612154971146
8.804113833233714,-4.510779551267624,4.46867959856987,-1.4459600052237511,6.512068016499474
8.814140833448619,-3.762126325070858,6.451704899668694,-0.859172180145979,7.517730204878131
8.824167833197862,-2.4202330175042155,8.62440744459629,-0.36283814996480945,8.964908429677092
8.834194833412766,-0.7730662286281587,11.206614475250245,0.18719714730978013,11.234806725649293
8.844222833402455,0.7537014198303224,13.50705178499222,1.191921873986721,13.580470960405009
8.85424983361736,1.8000901892781258,14.7516328060627,1.9810588824748994,14.992517781556016
8.864276833366603,1.2286385875940324,13.752046612501145,1.7689135663211346,13.919676505452426
8.874303833581507,-0.8586492928862572,10.46208382844925,1.0353827016055583,10.548198613055094
8.884331833571196,-2.0027763184905054,6.418931255936623,-0.047681558579206466,6.724289180379963
8.894358833320439,-2.2336410570144656,2.8816768580675127,-0.6091629266738892,3.696524497029128
8.904385833535343,-2.4532037124037744,-0.1365196216106415,-0.9252118762582541,2.625426265886302
8.914412833284587,-2.9389386409521103,-2.9563861477375033,-0.8279002475738526,4.250058612507418
8.924440833274275,-2.8117403581738474,-5.757401250600815,-0.17746884226799012,6.409761945047521
8.93446783348918,-2.292193905115128,-8.249723712801934,0.662402994632721,8.587832786187203
8.944494833238423,-1.349046645015478,-10.20289897799492,1.2067178877443077,10.362202587587225
8.954521833453327,-0.4820125910639763,-11.660126860141755,1.4692579436302187,11.762211247782618
8.964549833443016,-0.11948288172483444,-12.397963614463807,0.7411392617225647,12.42067088968468
8.974576833192259,0.3351220554113388,-12.434297043085099,-0.25557711839675906,12.44143759423106
8.984603833407164,1.0928443130850793,-12.047845205068588,-2.1890607154369355,12.293773610808273
8.994630833622068,1.9127274432778358,-11.532252931594849,-3.853268337249756,12.308495473834228
9.004658833611757,2.479931335151196,-10.972543416023255,-3.9183197808265686,11.912178572721148
9.014685833361,2.624939944446087,-10.7304008603096,-3.5428829276561737,11.601027186157234
9.024712833575904,2.764844519197941,-10.746740319728852,-2.8871609616279605,11.46614543486054
9.034739833325148,3.202011012732983,-10.810678453445435,-2.232262283563614,11.493765181700613
9.044767833314836,3.818589670658112,-10.561388261318207,-2.0110632848739627,11.40915968049071
9.05479483352974,4.160029057860375,-10.115686587095261,-0.5667530715465546,10.95235892101282
9.064821833278984,3.974799790978432,-9.953308238983155,1.7668590009212495,10.86228194293025
9.074849333614111,3.6233602032065395,-9.76707675933838,3.672650184631348,11.045944367217388
9.0848773336038,3.3986598917841913,-9.660280873775482,4.979915696382522,11.387338405585913
9.094904333353043,3.1655346196889877,-9.687164617180825,5.19097913146019,11.43713391073414
9.104931333567947,3.162012549340725,-9.656035210490227,4.377838425636292,11.063580280785823
9.11495833331719,3.05539295732975,-9.6315470713377,1.8749506294727327,10.27704067200545
9.124986333306879,1.981680733859539,-9.544334095716478,-0.2806476402282715,9.75192980694446
9.135013333521783,1.000813231766224,-9.263001161813737,-1.1318502116203308,9.385409024128142
9.145040333271027,-0.04761098999530077,-8.886287276744843,-1.5723677444458009,9.02445060349821
9.155067333485931,-0.8266308170557023,-8.58887216091156,-1.4090573501586914,8.742853431244518
9.16509533347562,-0.9967482474446298,-8.483437507152559,-0.8861279173940421,8.587633066947602
9.175122333224863,-0.9762596037983895,-8.581195936203004,-0.34060148119926453,8.643264191178623
9.185149333439767,-0.8674917447566987,-8.649889025688172,0.0939694333076477,8.693788146621577
9.19517633318901,-0.721377426981926,-8.83396756052971,0.40780119180679325,8.872748732196202
9.205204333178699,-0.6752642378211022,-8.96981182873249,0.18758459843695166,8.997149216019494
9.215231333393604,-0.6479241192340851,-8.915270755290985,-0.09319540813565255,8.939269751413116
9.225258333608508,-0.5245010912418365,-8.643501527309418,-0.280558762550354,8.663944440412687
9.235285333357751,-0.3062186106294394,-8.14693024635315,0.005195908918976784,8.152684789313833
9.24531333334744,-0.08393846176564694,-7.104392160773278,0.006761793270707131,7.104891227968844
9.255340333562344,0.24490653455257416,-5.4072360634803776,-1.1902264738082886,5.542095282095341
9.265367333311588,1.1407119593024255,-3.056137307882309,-3.0855920720100403,4.490220201012075
9.275394333526492,2.08161520421505,-0.46662768959999085,-6.105605281591416,6.467555884081535
9.28542233351618,2.471614547967911,3.320960043668747,-11.250323581695557,11.987803584403029
9.295449333265424,2.4807332807779314,8.802232382297516,-13.944439888000488,16.67575294589079
9.305476333480328,3.159359959959984,15.93513030409813,-3.5216423320770267,16.622632098445237
9.315503333229572,3.8974493139982225,23.091505966186524,8.909165092706681,25.055557898213248
9.32553133321926,0.08816782593727113,25.446355125904084,16.97087334036827,30.586521618091492
9.335558333434165,-13.396160509586334,19.001102628707887,17.142399072647095,28.88530532071943
9.345585333183408,-19.698422856330872,9.16947319328785,-3.7904572543501858,22.056170743497134
9.355612333398312,-6.969742478728294,4.040316672921181,-13.801395943164826,15.980613224068751
9.365640333388,0.4337885570526123,2.633414021730423,6.218375852108002,6.766922502892737
9.375667333602905,3.1885907757282257,-2.004424356222153,13.728402811288834,14.235654950998176
9.385694333352149,4.1103148609399796,-6.2730116504430775,9.649444813728334,12.221176237819634
9.395721333567053,2.8154893004894257,-8.996393855810165,-1.43120192527771,9.534695661684642
9.405749333556741,-0.24887620925903323,-6.7869134938716895,-3.739958068728447,7.753155518669788
9.415776333305985,-1.0425503647327423,0.7586697989702225,2.9534894371032716,3.222668301571617
9.42580333352089,-2.0560587787628175,5.0014088916778565,0.20891399860382082,5.411572198750989
9.435830333270133,-4.017450551390648,5.301113777160645,-5.324142451286316,8.519871422319735
9.445858333259821,-5.152312663793564,4.899103083014489,-4.9489815866947175,8.66256056538325
9.455885333474725,-4.4607086741924284,2.4267342442274096,-1.2572539839148522,5.231409805032609
9.465912333223969,-2.051839427947998,-1.2930988776683807,0.39366964101791385,2.4570562736267085
9.475939333438873,-0.685712919831276,-2.340749183893204,-0.08296409636735917,2.4405310880229094
9.485967333428562,-1.2043831676244736,0.10598663091659546,-0.48376149326562884,1.3022277691543835
9.495994333177805,-0.739603198170662,2.7471493828296665,0.9456769117712975,2.9980239231505452
9.50602133339271,-0.44110868632793426,3.7491522306203846,2.078755038678646,4.309517586963954
9.516048333607614,-1.343190804719925,3.379955525994301,1.30049560546875,3.8625832955972745
9.526076333597302,-1.4008051747083665,2.1177486580610276,1.1053769427537918,2.7692910106705546
9.536103333346546,-0.5240432542562485,0.07696163713932037,0.04236921697854996,0.5313563554433306
9.54613033356145,-1.0826499849557878,-2.139267581105232,-1.116252179145813,2.6447335784423305
9.556157333310694,-1.0337643384933473,-3.155056993961334,-1.6278671765327455,3.6977026499054264
9.566185333300382,0.14299248933792116,-2.5465325832366945,-1.5944491696357728,3.007913430277775
9.576212333515286,1.4910312205553056,-0.41599314093589784,-0.9478260558843613,1.8151029244066748
9.58623933326453,2.2500957065820697,1.4190379625558853,-0.7019775348901749,2.7512491503759358
9.596266333479434,2.553133504986763,2.512610546350479,-0.2081895285844803,3.5881813404188305
9.606294333469123,2.2126431208848953,2.7880942180752757,0.4464916330575943,3.587285007865206
9.616321333218366,0.9897394824028015,2.050910597741604,0.9850649258494377,2.481163322132291
9.62634833343327,0.01777787446975708,0.7745207235217095,0.9913588687777519,1.2581696271526979
9.636375333182514,-1.2071126478910448,-0.32381383270025255,0.39250750690698627,1.309976521134976
9.646403333172202,-2.3486066722869876,-1.0382561695575714,0.37895453810691837,2.5956763505273814
9.656430333387107,-3.0424244177341464,-1.021255390048027,0.23565273106098175,3.217893894923139
9.666457333602011,-3.448970212340355,-0.5643270617723465,-0.07041947990655899,3.4955427992530708
9.676484333351254,-2.879525082707405,0.1720835566520691,-0.7142724752426148,2.9717776870587618
9.686512333340943,-1.8222625386714937,0.8399034118652344,-1.3691419172286987,2.4291208472657377
9.696539333555847,-0.15052896559238435,1.5314682251214982,-1.0264132189750672,1.8497507913570046
9.70656633330509,1.4880216586589814,2.0164152413606646,-0.6084934204816819,2.578837553045812
9.716593333519995,1.9882556354999543,2.195346764624119,-0.472715225815773,2.9993611942813705
9.726621333509684,1.6811189389228822,2.09917497754097,-0.5674722790718079,2.7485853198789885
9.736648333258927,1.261238569021225,1.7411982026696207,-0.7693921306729317,2.283518810894287
9.746675333473831,0.7722628211975098,1.2296767607331276,-1.2123421052098275,1.8916310900795776
9.756702333223075,0.5255822414159775,0.9032720267772675,-1.3547779396176338,1.711011488133483
9.766730333212763,-0.6235611104965211,0.8554669457674027,-0.38162993162870407,1.1252970978986803
9.776757333427668,-1.950560390353203,0.885234535932541,-0.15953894019126894,2.147970831612919
9.78678433317691,-2.373781859278679,0.9032822594046593,-0.6345415967702865,2.617900340659956
9.796811333391815,-2.554451467394829,1.0000261965394022,-0.6740038704872132,2.824810774277173
9.806839333381504,-2.201490141749382,1.4423414558172227,-0.24135347396135332,2.642945178921022
9.816866333596408,-1.5455822342634202,1.700390192270279,0.057851182222366335,2.298586088908612
9.826893333345652,-2.049864238500595,1.028705912232399,-0.22194890409708024,2.304222334362596
9.836920333560556,-2.069827217459679,0.4896385297179222,-0.5773982200026513,2.2039326905292356
9.846948333550245,-1.712445981502533,-0.15821396112442018,-0.7777048248052597,1.88741296265132
9.856975333299488,-1.9454282891750336,-0.4970891980826855,-1.0566497558355332,2.2689860302964138
9.867002333514392,-1.855724984407425,-0.3569365552067757,-0.983639082312584,2.130414224147398
9.877029333263636,-1.473474955558777,0.24091083973646166,-1.1106932312250137,1.8608616099136788
9.887057333253324,-1.7108608013391495,0.4978386649489403,-1.8250048828125,2.5505942131523875
9.897084333468229,-2.5163399004936218,0.8495194503664971,-2.3945932692289356,3.5759931091102186
9.907111333217472,-3.6153655976057055,1.617292487025261,-1.9572846883535386,4.4178577098184615
9.917138333432376,-4.203085615038872,1.7239319595694542,-2.0576737797260285,4.987172693254533
9.927166333422065,-4.802359145879746,1.20810959815979,-2.2244284763932227,5.428652154427444
9.937193333171308,-5.021670663356781,0.9148454207181931,-2.0902989041805267,5.5157472661322595
9.947220333386213,-4.945350465774537,0.6406279635429383,-1.9290505304932595,5.346787013357267
9.957247333601117,-4.612112967967987,0.4887675869464875,-1.9812921863794328,5.043411396183754
9.967275333590806,-4.11654039144516,0.7617869496345521,-1.7938567650318147,4.554574211107269
9.977302333340049,-3.375544971227646,0.8448925486207008,-1.8109446680545809,3.9227117995400005
9.987329333554953,-2.9751574641466143,0.8063193440437317,-2.2284498989582064,3.803643223701885
9.997356333304197,-2.4813975244760513,0.7148478412628174,-2.2497358104586604,3.4248580010701275
10.007384333293885,-2.1921907299757004,0.3727202367782593,-2.01511189699173,3.0008826249776988
10.01741133350879,-2.447708206772804,0.11565032422542573,-1.7920336031913757,3.035792301519234
10.027438333258033,-2.971766663789749,0.20637864589691163,-1.271715025305748,3.239019659570268
10.037465333472937,-3.0949797767400744,0.32613956272602085,-0.9461935132741929,3.2527755836158323
10.047493333462626,-2.9496419692039493,0.3234676775336266,-1.5542589175701143,3.349737283391725
10.057520333211869,-2.7090553575754166,0.3842021217942238,-1.5702984148263932,3.154747107519957
10.067547333426774,-2.3075118559598926,0.4846961706876755,-0.9955475217103958,2.559424976680988
10.077574583236128,-2.0068567979335787,0.337686936557293,-0.7724505168199539,2.176737576160498
10.087602583225816,-1.6680767244100572,0.09721112966537476,-0.5132095330953599,1.7479456476416426
10.097629583440721,-1.4725475871562959,0.06104317724704743,-0.348798985183239,1.514524149029358
10.107656583189964,-1.642494571208954,0.13855620682239533,-0.3455643054842949,1.6841617879897226
10.117683583404869,-1.9304260879755022,0.15965471506118775,-0.4358251422643662,1.985441528680063
10.127711583394557,-2.0810521173477174,0.033442565202713014,-0.729014182984829,2.20530224669495
10.137738583609462,-2.214214267730713,-0.18211971759796144,-1.1226794385910035,2.4892411568177217
10.147765583358705,-2.2368044006824492,-0.6858029669523239,-1.0492553669214248,2.5640897919937196
10.15779258357361,-2.4596721947193148,-1.4451487040519715,-0.7936001881957054,2.9611219733409637
10.167820583563298,-2.483016618490219,-1.7046715235710146,-1.0831148386001588,3.200689657646985
10.177847583312541,-2.476537903547287,-1.4163032197952272,-1.7144828590750696,3.3284540363614674
10.187874583527446,-2.80912051320076,-0.857151528596878,-1.9720439377427101,3.5376297280875852
10.197901583276689,-3.072127103805542,0.14352575540542603,-1.6331203150749207,3.482189906928072
10.207929583266377,-3.3364920026063922,1.1009044075012206,-1.5638059589266777,3.84573250175914
10.217956583481282,-3.3835106331110003,2.0292393547296523,-1.415711189210415,4.191681611765663
10.227983583230525,-3.2875566548109054,3.1408652168512345,-0.6225510039925576,4.589186509784666
10.23801058344543,-3.0283349668979644,4.769160994291306,0.06100049257278443,5.649728340486882
10.248038583435118,-2.338967244923115,6.839384068250657,0.22794873207807542,7.2318671745490555
10.258065583184361,-1.2388349622488022,8.773329010605812,1.443711750805378,8.977211015200716
10.268092583399266,-0.0720312649011612,10.026732895374298,2.825878048539162,10.417588387122992
10.27811958361417,1.3452042934298516,10.273962528705598,2.8475188860297203,10.745801246933835
10.288147583603859,2.240290218293667,9.096196471452714,2.0504536378383635,9.589788873086606
10.298174583353102,1.3906044146418572,6.5346119856834415,1.3141804289817811,6.808965019838026
10.308201583568007,-0.31500558704137804,3.0278554952144625,1.1172181391716003,3.242732457397889
10.31822858331725,-1.9598463535308839,-0.14036884367465974,0.652002990692854,2.070219563620074
10.328256583306938,-3.314055359065533,-2.8220539695024494,-0.43397683739662174,4.374389948910852
10.338283583521843,-4.337513102889061,-5.342251278162003,-1.1227801568806173,6.972395852032694
10.348310583271086,-4.893673358559608,-7.704150425791741,-0.9821356169879437,9.179682080206232
10.35833758348599,-4.5238317060470585,-9.816399192810058,-0.5275742416083813,10.821510107080586
10.36836558347568,-3.4176583725214007,-11.821108893156053,-0.005489366054534912,12.305244180765307
10.378392583224922,-1.8244211845099927,-13.36520301103592,0.3746544226258993,13.494351785880106
10.388419583439827,-0.4188375920802355,-13.787301814556123,0.13721653662621974,13.794344661205397
10.39844658318907,0.9124562484025955,-13.256844749450684,-0.156901809386909,13.289135686495039
10.408474583178759,1.9855510058999062,-12.231383457183838,0.026947551146149638,12.391524532688194
10.418501583393663,2.2228386184573177,-11.370468660593033,0.2790209448337555,11.589064749706488
10.428528583608568,2.31817717730999,-10.502572288513184,0.5062414427474141,10.767276837678176
10.438555583357811,2.330227704048157,-9.889395833015442,0.95282491363585,10.20480212502045
10.4485835833475,2.0106922790408137,-9.764363651275636,1.3571118557453157,10.061184500065174
10.458610583562404,1.877883300483227,-9.65524642109871,1.4365907192230225,9.940524233506547
10.468637583311647,2.035067274570465,-9.432216074466705,0.4007752140238881,9.657578353791992
10.478664583526552,2.565570532679558,-9.091477183699608,-1.2017068239301443,9.522668157116707
10.48869258351624,3.28974263638258,-8.613250957131386,-2.045688157081604,9.44432838798938
10.498719583265483,3.9504011142253876,-7.949255180954934,-1.9068144464492798,9.07922178539547
10.508746583480388,4.577787473201752,-7.273027614355088,-1.1767592398077251,8.673974356513131
10.518773583229631,4.90895973443985,-7.227100659012795,-0.17494752287864687,8.738390941450051
10.52880158321932,4.967343013286591,-8.010904129743576,0.9284723567962647,9.471596618570947
10.538828583434224,4.249533849656582,-8.996811347007752,2.307176810503006,10.213922713039654
10.548855583183467,2.7964978364109996,-9.520134809017183,3.1261015820503237,10.40316673096272
10.558883583173156,1.8502961370348932,-9.733346511125566,1.8381143403053284,10.076720420275764
10.56891058338806,0.9259924795478582,-9.494968977570535,-0.12454097907990218,9.54082849718389
10.578937583602965,-0.2609591880440712,-8.976774108409883,-1.1558261346817018,9.054640089194926
10.588964583352208,-0.9222360089421273,-8.213079797029495,-1.1894452857971192,8.349849046328236
10.598992583341897,-0.9441993203759194,-7.997566046118736,-0.6309473133087159,8.077788653511622
10.609019583556801,-1.0291798290610314,-8.069283900260926,-0.227416854724288,8.137829698965747
10.619046583306044,-1.1310178604722023,-8.11822918832302,0.1639933490753174,8.198276670946639
10.629073583520949,-1.064734408557415,-8.022364087700844,0.3736943829059601,8.10133522378958
10.639101583510637,-0.9050849559903146,-7.876140426993371,0.355694168061018,7.935948912667718
10.64912858325988,-0.6809997716546059,-7.4947914540767675,-0.01086895063519478,7.525674571969192
10.659155583474785,-0.5473704287409783,-6.674283841252327,-1.6103582739830018,6.887592681804544
10.669182583224028,-0.45266936257481577,-4.973922300338745,-5.354614630937577,7.322343234748814
10.679210583213717,-0.1980146424472332,-2.769759981036186,-10.626115769147873,10.982946621490344
10.689237583428621,1.5560244843363762,-0.7578827637434006,-5.61169682264328,5.872541162793012
10.699264583177865,5.21835521042347,2.0230149936676027,4.758150687217713,7.346006992171196
10.709291583392769,9.811273523569108,8.375009078979492,3.6020593813061716,13.393158589882107
10.719318583607674,12.051269334554673,19.79946274280548,4.519605338573456,23.6152207250786
10.729346583597362,11.695159868001939,29.929492549896242,9.901818827390672,33.62435582614017
10.739373583346605,-1.041006115078926,34.62657257795334,3.4525656652450563,34.813839660409926
10.74940058356151,-29.812714297771457,21.94079263687134,5.564603347778321,37.43208684742062
10.759427583310753,-27.573013186454773,8.95200004041195,8.117537462711335,30.10487959388754
10.769455583300442,-8.715200670361519,3.970226683616638,-1.0798225638270378,9.63760548130714
10.779482583515346,0.006496256589889527,1.8167953920364381,4.587831820249558,4.934469425254237
10.78950958326459,5.453391060233116,-0.2884601050615311,4.399730108678341,7.012867339202511
10.799537583254278,9.633919286727906,-2.99919185936451,-2.2587010538578034,10.33969453529284
10.809564583469182,10.22869806289673,-6.001753469109535,-4.326307791173458,12.623955317959732
10.819591583218426,8.09176118195057,-8.65644316971302,0.20222273737192156,11.851223625082074
10.82961858343333,4.762928447127343,-9.235949018597603,2.0004766085743904,10.582539786272585
10.839645583182573,1.7624250572919846,-5.725298282504082,0.3156403023004532,5.998734142021228
10.849673583172262,1.8532960510253906,-1.6928718423843385,-0.6075093340873718,2.582554727104023
10.859700583387166,1.5363179057836533,0.04986447036266327,0.04565622925758362,1.5378048199644974
10.86972758360207,0.4318630689382553,0.29492537140846253,-0.6342077207565308,0.8220134537100847
10.87975558359176,-1.0863033252954484,-0.03323674321174622,-3.336092345416546,3.508656684942849
10.889782583341002,-2.3094899690151216,-0.3732324528694153,-4.952036756873131,5.476834343147412
10.899809583555907,-3.4015352600812916,0.19892169177532196,-1.8233492437005043,3.8645328863315753
10.90983658330515,-5.972992184758187,1.3523019361495972,2.123776260316372,6.481958174007274
10.919864583294839,-9.108345816135406,2.658474018573761,2.9491823780536652,9.936152389771674
10.929891583509743,-10.669580461978914,2.818394781947136,2.045849832594395,11.223582223117338
10.939918583258986,-7.886635594367982,1.644899531006813,1.9340136471390725,8.28523531668103
10.949945583473891,-2.968577007651329,0.1227810037136078,2.545340920686722,3.9123247600054074
10.959972583223134,0.9555198222398759,-1.6756687492132187,0.7292302376031876,2.0621980087319254
10.970000583212823,3.0421905291080478,-3.2716668462753296,-0.7366658493876458,4.527847583793638
10.980027583427727,3.4087343519926074,-4.393452245593071,-0.16272771924734117,5.563126173957651
10.99005458317697,2.995412219166756,-4.759444676041603,0.4339993491768837,5.6403158973696
11.00008258363232,3.0426284855604173,-3.74781994253397,-0.1239872843027115,4.8289869817041104
11.010109583381563,2.7625994807481766,-1.7741215351223947,-0.31284240961074833,3.2980802727747847
11.020136583596468,1.4908218902349473,-0.06682665824890137,-0.5486755272746087,1.5899875926831903
11.030163583345711,-0.9008267211914063,1.2303293099999428,-1.2358970287442208,1.9628144227909545
11.0401915833354,-2.062827515602112,1.9878819984197618,-1.3659013903141022,3.173738931737853
11.050218583550304,-1.9924890196323395,2.0252439522743226,-1.0564111894369126,3.0311103841243843
11.060245583299547,-2.281552557349205,1.4401630756258965,0.36620117604732516,2.7228027944897852
11.070272583514452,-2.0888119572401047,0.9507104873657227,1.4766497012972832,2.7290071754830114
11.080300458241254,-1.3232734340429306,0.6080876237154007,0.8859882420301438,1.7046402272547947
11.090327458456159,-0.6687980943918228,0.27117632031440736,0.226457399725914,0.7563798263121632
11.100354458205402,0.2924543380737305,0.2631282126903534,-0.13934207260608675,0.41735142190955055
11.110381458420306,0.4920595693588257,0.6345138224959374,-0.12804963737726213,0.8130972391838797
11.12040845816955,0.5071319371461869,1.3822469893097877,-0.17420083343982698,1.4826110317614485
11.1304364586249,0.1736576271057129,1.6770847986638546,-0.03696668207645416,1.6864569158283025
11.140463458374143,0.16224327743053438,2.307979779392481,-0.24037377297878268,2.326128348542277
11.150490458589047,-0.1295357072353363,3.033331997394562,-1.0818717205524444,3.223093068094334
11.160518458578736,-1.276803272366524,2.8656057858467103,-1.0018467271327973,3.2932688898525586
11.170545458327979,-2.766488463878632,2.4404309083521367,-0.5046629503369332,3.723418608302962
11.180572458542883,-3.728181776404381,2.1308410124480726,-0.6521002006530762,4.343392389588608
11.190599458292127,-4.027359827756882,1.6587011526525022,-1.0756397581100465,4.486414780787408
11.200626458507031,-3.580686931014061,1.229244505316019,-1.2474198442697526,3.9860277494847542
11.21065445849672,-3.0598421037197117,0.8058514206111431,-1.5351917320489885,3.51693671622741
11.220681458245963,-2.4599072527885437,0.6646019862592221,-1.5188657212257386,2.966444432578498
11.230708458460867,-2.2108024173974994,0.632676773518324,-1.6850424206256867,2.8508411368977153
11.240736458450556,-1.8252469575405121,0.4699639646708966,-1.7609556519985199,2.5794102799681977
11.250763458199799,-1.3733185833692552,0.38157759904861455,-1.7321417427062988,2.243194243115976
11.260790458414704,-1.3061767601966858,0.18106385663151742,-1.4918895918130874,1.991134451315734
11.270817458629608,-1.4919948416948319,-0.018018779754638673,-1.620541200041771,2.202845220413966
11.280845458619297,-1.7615304332971573,0.10343461364507675,-1.8485767632722856,2.555567302272084
11.29087245836854,-2.250642421245575,0.3398970378935337,-1.698231984972954,2.8398790783172654
11.300899458583444,-3.559551585316658,0.3961592392623425,-2.082478837966919,4.142953987430141
11.310926458332688,-4.985786885619164,0.7392136274278164,-2.514109187722206,5.632517435709919
11.320954458322376,-5.77696428000927,1.0069684495031834,-2.575350000858307,6.4046646577099375
11.33098145853728,-5.929490654468537,1.2040101152658462,-2.672582765221596,6.61446886877939
11.341008458286524,-5.689517415761948,1.4642717304825783,-2.87757971405983,6.541801367797528
11.351035458501428,-5.168146339058876,1.6578861969709398,-3.013363171219826,6.207953030242613
11.361063458491117,-4.55766194164753,1.3429048758745195,-2.6462241017818453,5.438582340724559
11.37109045824036,-3.79899798989296,0.9710798478126527,-2.3657635724544526,4.579543544807828
11.381117458455265,-2.7952614426612854,0.7997162295877934,-2.6725506055355073,3.949121335163453
11.391144458204508,-1.5769642406702042,0.6949977135658264,-2.78920138835907,3.2786403314542514
11.401171458419412,-1.1822842007875443,-0.1000522917509079,-2.274532097876072,2.5654049693537617
11.4111994584091,-1.557277250289917,-0.45102848768234255,-2.0079636758565904,2.5807861698581416
11.421226458624005,-1.760791929960251,-0.40284596890211105,-2.10251841545105,2.771868824923831
11.431253458373249,-2.3149746572971344,-0.3472135126590729,-1.7873365348577501,2.945205727302992
11.441281458362937,-3.3503510731458666,0.0925672709941864,-1.362867854833603,3.618125177868742
11.451308458577842,-4.020920289158822,0.23626522690057755,-1.3466114258766175,4.246997005121725
11.461335458327085,-3.733267684578896,0.2196524101495743,-1.5292629477381707,4.0403192880427685
11.47136245854199,-3.4249925351142885,-0.1571775421500206,-1.3943457555770875,3.701280688010673
11.481390458531678,-3.0993248426914217,-0.6293285116553307,-1.3068801802396774,3.4219591846791233
11.491417458280921,-2.302560433745384,-1.1106008452177047,-1.226662228703499,2.83547509454339
11.501444458495826,-1.5230692845582963,-1.5136093667149544,-0.9920128798484803,2.365342029043039
11.511471458245069,-0.8362781381607056,-1.8119843029975893,-0.8848310780525208,2.1830195316035956
11.521499458234757,-0.20259081959724426,-1.870507915019989,-1.2696313700079918,2.2697591757818447
11.531526458449662,0.38164425730705265,-1.6029077517986299,-1.3493309658765793,2.1297088193894047
11.541553458198905,0.21700245201587678,-1.447414500117302,-1.1621338185667993,1.8688643106409233
11.55158045841381,-0.7788251513242722,-1.0297683513164522,-0.9249049705266953,1.5882193419717776
11.561608458403498,-1.9108098489046097,-0.5276387071609497,-0.3170728701353073,2.0075188888130486
11.571635458618402,-3.1786113327741625,-0.07917305409908296,-0.3597648534178734,3.199885799070101
11.581662458367646,-4.073479156494141,0.4142407304048538,-0.8508879911899567,4.181965828969654
11.59168945858255,-4.685335895419121,0.7500767308473587,-1.6870828065276147,5.035994038036845
11.601717458572239,-5.08895281970501,0.7745829963684082,-2.3524266582727433,5.6596228498018215
11.611744458321482,-4.837052430510521,0.5613052207231521,-2.5581875458359717,5.5005875400714315
11.621771458536386,-3.7832303881645206,0.23047209799289706,-2.4173126256465913,4.495481051900357
11.63179845828563,-3.343246413767338,0.007474495768547059,-1.9919309028983117,3.8916758823386672
11.641825458500534,-3.1239381122589114,0.18963222026824952,-0.7574553322792054,3.2200447649971946
11.651853458490223,-2.458128529787064,0.7893811297416687,0.3155160489678383,2.6009745892841054
11.661880458239466,-1.7429833576083185,1.9013870608806611,1.691940965652466,3.0847897775110975
11.67190745845437,-0.8592015624046326,3.267069765329361,2.9976452708244326,4.516397828586837
11.681935458444059,0.7407322955131531,4.907518395781517,3.5295615085959438,6.090174511581114
11.691962458193302,2.5989002466201785,7.1835336399078376,3.4540859413146974,8.38380270149279
11.701989458408207,3.5022956496477127,9.701189748644829,3.121716462671757,10.776097207712478
11.712016458623111,3.1383421432971956,10.994573385715485,2.4610065293312076,11.695571319080114
11.7220444586128,0.5303494763374329,9.755787540078163,1.5991364438831808,9.900196889979062
11.732071458362043,-2.7965504613518717,6.058247512578965,0.5226146332919598,6.692995103949164
11.742098458576947,-5.293820545077324,1.7996899473667145,-1.3233067631721498,5.74582984951632
11.75212545832619,-6.610791850090028,-1.853569115996361,-1.5651242136955261,7.0418677321636975
11.762153458315879,-6.541674837470055,-4.961444926857949,-0.21894657813012602,8.213244367818861
11.772180458530784,-5.5917186409235,-7.476566852331162,1.0758852680772544,9.398079504169676
11.782207458280027,-4.686426401138306,-9.484287868738175,2.0369138252735137,10.773269082408117
11.792234458494931,-3.8802415430545807,-10.999597313404085,2.470448613166809,11.922689790470553
11.80226245848462,-2.415499111711979,-11.764031882286073,2.456644506454468,12.258147670721604
11.812289458233863,-0.7367032715678216,-11.584161003828049,1.902750631570816,11.762481789099285
11.822316458448768,0.5027105650305749,-11.017236024141312,0.11484399318695068,11.029297197310513
11.832343458198011,1.221642394065857,-10.735383857488634,-1.8408274483680727,10.960361417456625
11.8423714581877,1.6630551356077194,-10.764181394577028,-3.0980571663379672,11.323926513596222
11.852398458402604,2.300435847938061,-10.794694504737855,-2.767703515291214,11.378823194410375
11.862425458617508,3.057949067652226,-10.765453748703003,-1.8945563435554504,11.350567856046888
11.872452458366752,3.4183021509647373,-10.819173288345338,-1.6266603112220765,11.462343739682584
11.88248045835644,3.3770512139797213,-10.811148569583894,-2.40718407869339,11.579289420520274
11.892507458571345,3.622492184042931,-10.899439187049866,-3.6254654932022095,12.04426105072662
11.902534458320588,3.9512062758207325,-10.928650707006454,-2.0992229247093204,11.80907169075804
11.912561458535492,4.411064351499081,-11.005954406261445,1.8205715239048006,11.995957726643786
11.92258945852518,4.6859703183174135,-11.010061490535737,5.224239263534546,13.056509783712713
11.932616458274424,4.203998950123787,-11.057557253837587,6.596374955177308,13.544568732293714
11.942643458489329,3.525619608163834,-11.045878025293351,6.814367340803146,13.449052651638047
11.952670458238572,2.877289399802685,-10.799630724191665,5.925703997612,12.650090352896154
11.96269845822826,1.796764146834612,-10.271445887088776,3.0694888401031495,10.869807898498529
11.972725458443165,0.4052801647782326,-9.458915630578995,0.07901693344116212,9.467923774204392
11.982752458192408,-0.6775173161923885,-8.682933980226517,-1.6740685124695303,8.868758515325286
11.992779458407313,-1.2527352556586266,-8.174056064486503,-2.0764374947547912,8.52620260349015
12.002807458397001,-1.3699152114987374,-7.919930225014687,-1.4401376402378083,8.165534818897447
12.012834458611906,-1.2999608775973321,-7.78018352508545,-0.5687516498565675,7.908516447887635
12.022861458361149,-1.0304518908262252,-7.533495343923569,0.3780774557590485,7.61303656623155
12.032888458576053,-0.7674144561588765,-7.095818388462067,0.8781405477225781,7.191014835968046
12.042916458565742,-0.607476370409131,-6.479692012667656,0.6975542624294758,6.545381430342162
12.052943458314985,-0.45678273260593416,-5.766204818487168,0.3513521718978882,5.79493026897209
12.06297045852989,-0.32868664640933276,-5.226487517952919,0.2680891366302967,5.2436703244983525
12.072997458279133,-0.29582878449931743,-5.257560791373253,0.1588970620930195,5.268273761021296
12.083025458268821,-0.10765310565009714,-5.20269344329834,-0.12510264068841934,5.205310646522729
12.093052458483726,-0.09705500900745392,-4.521623797416687,-1.6802593982219698,4.8247044557621965
12.103079458232969,-0.9730588379502297,-3.0650759464502335,-7.372321522235871,8.043174664698205
12.113106458447874,-1.1779375999420882,-0.5570636504888535,-19.045632684230807,19.0901540392605
12.123134458437562,5.773834265470505,2.0487719786167147,-10.836257683038712,12.448257280386755
12.133161458186805,9.109116479158402,5.520915876030922,8.223776693344117,13.456857666003433
12.14318845840171,8.370412582755089,12.36140565276146,16.519746619462968,22.265897351980357
12.153215458616614,8.981909133195877,18.57712102174759,15.714563974142076,25.93707072957638
12.163243458606303,7.942373008131981,23.80009027004242,-3.986389849483967,25.40505638439994
12.173270458355546,2.1002143201231958,19.121559948921206,-18.69440213441849,26.823974840317543
12.18329745857045,1.6626063618063927,10.635051484107972,3.8042432346940043,11.416691577364318
12.193324458319694,-0.18577013432979583,3.5703180634975435,16.35435578584671,16.74056853238275
12.203352458309382,-7.391281118988991,-0.9946148908138276,13.08012552022934,15.056891411772439
12.213379458524287,-19.84569784641266,-1.7859092295169832,2.5580071592330933,20.089415009249766
12.22340645827353,-21.23039569616318,1.0158420377969741,-7.7198823595047,22.61323108505309
12.233433458488435,-9.235247937440873,5.501871494650841,-5.95354259133339,12.28841176867369
12.243461458478123,-0.881115757226944,6.570841918587685,3.82198865711689,7.652445739228267
12.253488458227366,4.415718442797661,3.1614339673519134,5.349434582591057,7.622970841437806
12.26351545844227,7.441716277599335,-2.0866835707426072,0.14499866902828218,7.730097935648293
12.273542458191514,8.817518758177759,-6.946248950958252,-2.8211473587155345,11.574017623932189
12.283570458181202,7.566145026683808,-10.022347483634949,0.8777012756466867,12.5882627545189
12.293597458396107,3.3970942997932436,-9.724475700259209,0.7469765371084214,10.327809606766095
12.303624458611012,-1.2664086771011354,-5.322452605962754,-0.5450815361738205,5.4981275504697384
12.313651458360255,-3.085579208135605,-1.9976257985830308,1.1394986620545389,3.8483457591109613
12.323679458349943,-4.5557253438234335,-0.3729371684789658,2.2141867858171462,5.079009614331865
12.333706458564848,-5.984577857851982,0.5878398853540421,1.29628619492054,6.151510852355448
12.343733458314091,-6.65209599673748,0.646823673248291,0.6128925731778145,6.71151244656089
12.353760458528996,-5.418423541188241,0.31471995055675506,0.9316894948482514,5.506941767786541
12.363788458518684,-2.258565398454666,0.39297528415918354,0.20186722666025161,2.301368638496705
12.373815458267927,0.2727901518344879,0.5207085871696473,0.3742223864793778,0.6968459616245286
12.383842458482832,1.1605781668424606,0.706962286233902,0.5482688534259796,1.4653791629286634
12.393869458232075,1.302011203765869,0.39473354190588,-0.0992915689945221,1.3641504900526196
12.403897458221763,1.701134542822838,-0.6519180598855019,-0.4887944841384888,1.886206758898439
12.413924458436668,1.325481927394867,-1.5454763996601106,-1.6680059731006622,2.632041710926382
12.423951458185911,-0.006974558830261231,-1.677275856435299,-2.1576974201202392,2.732940010290233
12.433978458400816,-1.1154318147897722,-0.7055802968144417,-1.750989072918892,2.1927139398880375
12.444006458390504,-1.718051707148552,0.8389661031961442,-0.44892349004745485,1.9639496151033418
12.454033458605409,-1.9448043912649156,2.1839569732546806,0.7866335231065751,3.0283204059323228
12.464060458354652,-2.142475363612175,2.9057437053322794,1.3217467260360718,3.84454959293678
12.474087458569556,-1.5878143340349198,2.6853475293517115,0.27515418112277984,3.131765562131279
12.484115458559245,-1.0508639359474183,1.9604173341393472,-0.24940011978149415,2.2382474294894092
12.494142458308488,-0.389399419426918,1.1257536122202874,-0.330519711971283,1.2362024038476167
12.504169458523393,0.7436067867279053,0.6082194784283639,-0.6176975226402283,1.142117426836377
12.514196458272636,1.387470014691353,0.7981411358714104,-0.5973860496282578,1.708500045867188
12.524224458262324,1.270299414396286,1.181448633670807,-1.023017156124115,2.01396265554812
12.534251458477229,0.3111174809932709,1.755208716094494,-0.7351663309335709,1.9282171190433948
12.544278458226472,-0.679376876950264,2.0232269552350046,-0.03548558235168457,2.1345396412058126
12.554305458441377,-1.777275230884552,2.0224337804317476,-0.5959704387187958,2.757558051315305
12.564333458431065,-3.021896013021469,1.7918261732161045,-1.3679514241218567,3.7701177232673166
12.574360458180308,-3.747477588057518,1.6606361424922944,-1.07139175593853,4.2366473732703
12.584387458395213,-4.142156458497047,1.5124368537962438,-0.5511211252212525,4.4439464283511585
12.594414458610117,-4.046275570392609,1.5398734514415264,-0.7192186349630356,4.388716404928503
12.604442458599806,-3.670753932595253,1.4303150488436223,-1.2708051985502244,4.139466321311761
12.614469458349049,-2.4309354686737064,1.1862798956036569,-1.5674110597372055,3.1262572948744616
12.624496458563954,-1.3276921749114992,1.0561047953367233,-1.9532144415378572,2.5871162526424074
12.634523458313197,-0.5461919224262238,1.0442750009894373,-2.133990468978882,2.4377758747489175
12.644551458302885,0.39862164795398713,0.49683944888412956,-1.8894710201025011,1.9939532070718773
12.65457845851779,0.8021812695264817,0.4346707557141781,-1.2455750477313996,1.5439853155335808
12.664605458267033,0.24133213162422182,1.0523630158603192,-1.4470911490917207,1.8054866127126266
