Time (s),Linear Acceleration x (m/s^2),Linear Acceleration y (m/s^2),Linear Acceleration z (m/s^2),Absolute acceleration (m/s^2)
0.008117708377540112,-1.287462746500969,0.5404031789302827,-6.491922633647919,6.640380666851556
0.01814470812678337,-1.2907474198937416,0.3716946351528168,-5.55429879963398,5.7144046898499585
0.028172708116471767,-0.30108629018068317,0.2611272954940796,-3.2194833701848986,3.244058197610507
0.038199708331376314,0.1533826991915703,-0.19374135106801987,-1.7354436653852463,1.752947996733141
0.048226708080619574,0.8517761832475663,-0.1664602893590927,-1.8664709973335267,2.0583842396813368
0.05825370829552412,1.132637831568718,0.8414500004053116,-2.5846084821224213,2.944674441520141
0.06828170828521252,1.902088288217783,2.2912735533714295,-3.9987014544010164,4.985728399540371
0.07830870850011706,1.7911764013767244,1.3832319527864456,-5.275632780790329,5.740552654040182
0.08833570824936032,1.9523265418410303,-0.7405410915613175,-5.470793543457985,5.855728992141744
0.09836370823904872,2.206694748401642,-1.1348020322620869,-4.90867439031601,5.5002146899183675
0.10839070845395327,2.2492466908693314,-0.15312615260481835,-2.936058302521706,3.701755887522141
0.11841770820319653,2.410036350488663,0.7437713858485222,-2.3806125766038897,3.4682542186189806
0.12844470841810107,0.7932048433274032,1.517888359129429,-2.7552816903591157,3.2441849804668763
0.13847270840778947,-1.0709975805133582,2.6147339218854904,-2.6279696792364122,3.8587684479261095
0.14849970815703273,-0.1674599439650774,3.1409891778230667,-2.9806860065460206,4.33339877205568
0.15852670837193727,1.1068793117254974,2.7965764814615253,-2.5181461054086687,3.9226370767092997
0.16855370812118053,1.7360329185426235,1.9043346422910692,-1.9791754943132402,3.249220885286738
0.17858170811086893,2.6875568997859958,1.1464303900301458,-1.41414033472538,3.246083427003871
0.18860870832577348,2.14356250718236,0.6867879304289818,-0.6093950611352921,2.331930578751635
0.19863570854067802,0.9325312015414239,-0.16969277635216715,-0.07156991958618164,0.9505431781797031
0.20866370853036642,0.3127868610620499,-2.0089517091214657,1.2696918886899948,2.397048201901721
0.21869070827960968,-0.04109423160552979,-2.438910339921713,-0.01098984181880951,2.4392812791212695
0.22871770849451423,-0.6722201773524284,-1.0814233852922917,-1.2870411622524263,1.8104782402527921
0.2387447082437575,-0.48402681067585945,0.09002117402851582,-0.8267793363332748,0.9622628727194077
0.24877270823344588,1.4559327238798143,0.07243538059294224,-1.0603229767084121,1.802573658900387
0.25879970844835043,0.9043093228340149,-1.2324433708190918,-1.0080237257480622,1.8310663137394683
0.2688267081975937,-1.4201677908003332,-2.4547201877832414,-3.030111935734749,4.15019350120202
0.27885370841249824,-3.264069558978081,-2.6558483263850214,-5.398857003450394,6.8450958621713145
0.28888170840218663,-4.031949599683285,-2.862954950630665,-6.987698108553887,8.560435355752324
0.2989087081514299,-4.916989130973816,-4.302323389649391,-9.655796059370042,11.658523328594617
0.30893570836633444,-4.2348014974594115,-5.562756797075272,-11.676470997333528,13.609473974326217
0.31896370835602283,-0.8927917698025704,-6.033704994320869,-11.478437497615815,12.998353760741882
0.3289907081052661,0.3195079430937767,-7.6934330642223365,-8.885630049705506,11.757781211589156
0.33901770832017064,-0.029776360988616943,-9.622317241430283,-6.472188280820847,11.596512271747695
0.3490447085350752,-2.325714823007584,-9.26878230392933,-6.581787906289101,11.603413587344207
0.3590727085247636,-3.541028775572777,-8.465594728589059,-7.135944321155549,11.624408813044276
0.36909970827400684,-3.29150352537632,-7.635508207082749,-7.191731436252594,10.99345178227369
0.3791267084889114,-2.763482410311699,-7.129296036958695,-8.120718932747842,11.153912900833785
0.3891547084785998,-2.7487795865535736,-8.107442829608917,-8.420054858922958,12.007653487592936
0.39918170822784305,-2.658485713005066,-8.462640715241433,-8.518283404111862,12.298170039248998
0.4092087084427476,-2.6184515815973284,-9.209362313747407,-8.010074994564057,12.483186465385389
0.41923570819199085,-2.987721961140633,-10.630263783931733,-6.958370813727379,13.051739922875635
0.42926370818167925,-3.4728461480140687,-11.831698200702668,-5.414724007844925,13.467330053184972
0.4392907083965838,-3.033182308673859,-11.856484547853471,-2.816658158898354,12.558263571657863
0.44931770814582705,-1.4017278653383256,-10.767853446006775,-0.40106461465358734,10.866110696485341
0.4593447083607316,2.11215755045414,-9.71783911049366,0.7689895498752595,9.974414841142211
0.46937270835042,6.080365775227547,-8.558832090497017,0.6598217412829399,10.519497109850342
0.47939970809966326,8.735878763794899,-6.892219508886337,0.6227553641796112,11.144778677838811
0.4894267083145678,10.085588629245759,-6.1448143708705905,1.4046315926313402,11.89331037019749
0.4994547083042562,9.9549092066288,-5.9859057605266575,2.876153870522976,11.966768409769337
0.5094817085191607,8.24609785437584,-6.3224621379375465,4.32644286185503,11.255654807539718
0.5195088335312903,6.014158921837807,-6.835802063941956,5.404172122478485,10.587888067215673
0.5295358332805336,4.825517043471336,-6.617661159038544,6.453767797350884,10.427376119369772
0.539563833270222,5.497002518177033,-6.023247249126435,7.13419483423233,10.834817951481282
0.5495908334851265,6.682229037880898,-4.805254394710064,6.998489145040512,10.803772721870306
0.5596178332343698,7.518657449483872,-3.939953894019127,5.686959258913994,10.217384799557243
0.5696458332240582,7.874711952209473,-3.2396311211586,4.150218014717102,9.472624119067135
0.5796728334389627,8.234813897609712,-2.421677572131157,3.3380727973580364,9.20974550094034
0.589699833188206,8.304946571588516,-1.995966358780861,3.855686745643616,9.37135740129767
0.5997268334031105,7.7701298224926,-2.0497923177480697,4.95090765953064,9.438646759863781
0.6097548333927989,7.829106009006501,-2.1379496186971667,5.8061225903034215,9.978817014354997
0.6197818331420422,10.132984989881516,-1.4456059563159944,6.3328970789909365,12.03630951742237
0.6298088333569467,11.792225986719131,0.271960431933403,6.5145759165287025,13.47480076181489
0.63983583310619,11.468544008731843,0.5350857210159302,5.803767331838608,12.864584472542097
0.6498638330958784,8.925581150650979,-0.4289529097080231,5.409519985914231,10.445712323896755
0.6598908333107829,6.339582200646401,-2.011520537137985,5.250103837251664,8.473494418007554
0.6699178335256875,5.017273557186127,-2.7705639731884,4.794664210081101,7.4724737245842
0.6799458335153759,4.8570814830064775,-2.4999981021881106,4.285192801952363,6.942917858754552
0.6899728332646191,5.343122513294221,-1.9536705243587495,3.953924354016781,6.92815303721755
0.6999998334795237,5.892347971200944,-1.1709803634881975,3.6434877812862396,7.026091576244431
0.7100268332287669,6.367775720357895,-0.4368712091445923,2.888611071109772,7.00596160411238
0.7200548332184553,6.19893795311451,0.24169290482997896,1.8776625680923462,6.481578814334036
0.7300818334333599,5.760789127349854,0.46467939734458924,0.9858534228801727,5.86297921568151
0.7401088331826031,5.862952848672867,0.7839958441257477,1.2432981419563294,6.044390445624751
0.7501368331722915,5.839071650505066,1.1126269054412843,2.287871643304825,6.369227035259626
0.7601638333871961,5.396992911100388,0.9199757677316666,2.71841733455658,6.1125837990574015
0.7701908331364393,5.480221009254456,0.8842077648639679,2.7514599502086643,6.195577256343587
0.7802178333513439,6.621875832080842,1.262241951227188,2.352058868408203,7.139655117678433
0.7902458333410323,8.21380251288414,2.1704104363918306,1.8031421434879304,8.6849614145765
0.8002728330902755,8.885930596590043,2.9175278913974765,0.9347674691677094,9.399229850679868
0.8102998333051801,8.963437778949737,3.164743491411209,0.1637158986926079,9.507135271942738
0.8203268335200846,8.662494453191758,3.037503401041031,-0.34554003953933715,9.186110982447287
0.830354833509773,8.908549965620042,2.4479976439476014,-0.4345802700519562,9.248989943006766
0.8403818332590163,10.420365114212037,2.3038485753536224,0.3216468545794487,10.67685272309715
0.8504088334739208,12.87903743505478,2.8666202777624132,0.8695732073485851,13.222831566399066
0.8604368334636092,14.901769423484803,3.447744051218033,0.23952694997191432,15.297288784395056
0.8704638332128525,16.850400817394256,3.8119571739435196,-1.2307383227348327,17.319981005239832
0.880490833427757,19.61731612801552,4.6908398795127875,-2.821090933084488,20.366679280001858
0.8905178331770003,21.205016441345215,5.556398534774781,-4.717048269510269,22.42268564048156
0.9005458331666887,21.819579856395723,5.293050466775894,-6.362171748876572,23.336402415875284
0.9105728333815932,21.748947830200198,4.032342240214348,-5.942675541043282,22.903971451455767
0.9205998331308365,21.22681720018387,1.251162647008896,-2.775938733816147,21.444090381109497
0.930626833345741,21.93057404279709,-1.7898748111724854,2.5197014647722247,22.147293856312345
0.9406548333354294,24.920599222183228,-3.525130780935288,8.213921211361885,26.475107446086735
0.9506818330846727,28.463775680065158,-4.789549650549889,12.083811428546905,31.291289689957367
0.9607088332995772,29.112255284786226,-6.8795392370224,12.155139273405076,32.28929975450333
0.9707368332892656,27.361301879882813,-10.035653407573701,8.995257741808892,30.50032527237369
0.9807638335041702,23.89786273241043,-13.372420814037323,5.886441113948822,28.01034934792526
0.9907908332534134,19.487568751573562,-17.02953377723694,3.829692948460579,26.161745060237262
1.000817833468318,15.051103802919389,-18.758896923065187,5.000450533032417,24.564943415154517
1.0108458334580064,12.82508868455887,-19.167727224826812,9.370559524297715,24.89361469394458
1.0208728332072496,13.732525098323823,-20.024416823387146,13.584380042552949,27.82256091436147
1.0308998334221542,15.78685076236725,-20.58851175069809,15.109152621030809,30.02329039308468
1.0409278334118426,16.585000376701355,-20.97131024837494,13.641131948232651,30.015638788103
1.0509548331610858,15.2467633330822,-21.127826178073885,10.188795493841171,27.976068071858172
1.0609818333759904,11.90132684469223,-21.12167724609375,7.3019081819057465,25.319650342161687
1.0710088331252337,8.4660853099823,-20.924438967704774,5.209164556860924,23.165537808770083
1.081036833114922,5.736275260448456,-20.663968899250033,3.346618795394898,21.70493773072146
1.0910638333298266,3.1467580407857896,-19.74200098514557,2.3211943405866626,20.12552191202778
1.1010908330790699,-0.06731607019901276,-18.37297484278679,1.966549309194088,18.47804243453497
1.1111188335344195,-3.522343413233757,-16.937801488637923,1.6838960739970208,17.381931088842773
1.1211458332836628,-6.0592666822671895,-15.166973397731782,1.7588412988185884,16.42696921190171
1.1311728334985673,-7.457003822922707,-13.136233062744141,2.648236128687859,15.335601706066306
1.1411998332478106,-7.357653197050095,-11.41238150238991,4.092651007175446,14.181935847784924
1.151227833237499,-6.908464828133583,-9.750314546227456,5.71261976480484,13.244981865188507
1.1612548334524035,-7.710221005082131,-9.024594976902009,6.544987285137177,13.554618438264574
1.1712818332016468,-9.200349415540696,-9.100563172101975,6.16069891691208,14.332511662730315
1.1813088334165514,-11.279690637588502,-9.242045325636864,4.668431010246277,15.3114686029217
1.1913368334062397,-13.42227885246277,-9.409114310145378,2.469037680029869,16.576644677378443
1.201363833155483,-15.358470879793169,-9.421219800710679,-0.3951244282722473,18.02215674142735
1.2113908333703876,-16.22808399438858,-9.266359802484512,-3.096145711541176,18.942076242722877
1.221418833360076,-15.527187609672547,-8.731754722595216,-4.5358904188871385,18.38236648241147
1.2314458331093192,-14.300109643936159,-7.893021923303604,-4.8392199933528905,17.035579856712058
1.2414728333242238,-12.50105002641678,-7.099497456550599,-4.499019046425819,15.063873614666504
1.2514998335391283,-11.039218046665193,-6.373658604025841,-3.771071687936783,13.293187757571525
1.2615278335288167,-10.753571037054062,-6.156534529924393,-3.1381848531961443,12.78242589025843
1.27155483327806,-10.880459125041963,-6.471063861250878,-2.807665141224861,12.966959621027023
1.2815818334929645,-11.085227447748185,-6.805124062299729,-2.580386207699776,13.260858722288226
1.291609833482653,-11.29858649969101,-7.03123121380806,-2.4681471490859987,13.5346968795969
1.3016368332318962,-11.242565495967865,-6.970652305483818,-2.6022729206085207,13.481731967681542
1.3116638334468007,-10.57720848798752,-6.640612649917603,-2.7674386364221575,12.791942478410503
1.321690833196044,-9.810909826755525,-6.102155424356461,-2.779756380915642,11.883488460421558
1.3317188331857324,-9.455252934694292,-5.822669041156769,-2.526621644496918,11.388112212141696
1.341745833400637,-9.528191687464714,-5.927513126134873,-1.8796687477827072,11.377829463257212
1.3517728331498802,-9.929549832344057,-6.164526504278183,-1.1452783423662187,11.743466667745311
1.3617998333647847,-10.537477827072145,-6.670136411190033,-0.6678262871503831,12.489001187033702
1.3718278333544731,-11.201941380500793,-7.2580277520418175,-0.39551436446607113,13.353609592693813
1.3818548331037164,-11.636887686252594,-7.859351316690446,-0.41409045696258545,14.048417314707326
1.391881833318621,-12.1510941696167,-8.237146936655044,-0.6312472754716874,14.693473118964384
1.4019098333083093,-12.701338212490082,-8.33261501133442,-0.9562296742200852,15.220737186648863
1.4119368335232139,-13.195689890384674,-8.393841791152955,-1.3048365783691407,15.693483048525469
1.4219638332724571,-13.20004138827324,-8.373941377401353,-1.421441752910614,15.69663924224541
1.4319908334873617,-13.092685339450837,-8.167091445922852,-1.3534310334920885,15.49037015846802
1.44201883347705,-13.2397100687027,-8.233595337867737,-1.1330664324760438,15.632205680308488
1.4520458332262933,-13.531528229713441,-8.42468000650406,-0.8674367809295654,15.963393624553348
1.4620728334411979,-14.119364022016526,-8.696822286844254,-0.4291382664442063,16.588409143944226
1.4721008334308863,-14.771382361650467,-9.30491400361061,-0.053480388522148134,17.45789281788108
1.4821278331801295,-15.57827239394188,-9.670152727961542,-0.038825530204921965,18.335646483932585
1.492154833395034,-16.414235951900483,-9.771787276268006,-0.3663964730501175,19.106261142169057
1.5021818331442773,-17.091575074195863,-9.941126149892808,-0.8423908174037934,19.790339813510077
1.5122098331339657,-17.659180669784547,-10.028411046266557,-1.3773882454633712,20.354677310626027
1.5222378331236541,-17.35263220310211,-9.93641446352005,-1.786907349228859,20.075836586347155
1.5322648333385587,-16.079576411247253,-9.506739422678947,-1.9249396455287935,18.778611893715297
1.542291833087802,-15.12667906522751,-9.00555644273758,-1.8326606422662737,17.699579413518176
1.5523198330774903,-14.541159939765931,-9.200313747525216,-1.8181080919504167,17.30308130018381
1.5623468332923949,-13.951330246925355,-9.94961981534958,-1.9225376093387605,17.243279879074436
1.5723738335072994,-13.836152962446214,-10.803781077861787,-2.092964649796486,17.67883806713188
1.5824018334969878,-13.19579514026642,-11.06038964509964,-2.6158951789140703,17.415629074838844
1.592428833246231,-10.89987188100815,-10.677915083169937,-4.001279491782189,15.774514734759256
1.6024558334611356,-7.957244816422463,-9.839605622291565,-5.360263041257858,13.74292558890533
1.6124828332103789,-3.9616458946466446,-9.297478684186936,-6.06013265490532,11.784012723708798
1.6225108332000673,1.60082146525383,-8.059109745025635,-5.649908376932144,9.971626944170776
1.6325378334149718,8.46316637992859,-6.2168766260147095,-3.969676460623741,11.226445179105978
1.642564833164215,15.70603990316391,-5.260963870882988,-1.2754059340059758,16.612768901872162
1.6525928331539035,20.229953470230104,-4.818913198113441,0.25249812081456185,20.797516609433007
1.662619833368808,20.94321788549423,-4.5736774653196335,0.28257254362106327,21.438674124079284
1.6726468331180513,19.65805835723877,-4.797481398582459,0.41870946496725087,20.239328145034925
1.6826738333329558,16.932417372465135,-4.412492826282978,0.9490282434225082,17.523627068166324
1.6927018333226442,12.654462254047395,-4.5137043285369876,2.0263508301973343,13.587311705838108
1.7027288335375488,8.986088138222694,-4.62760458111763,4.067187260091305,10.89525201157534
1.712755833286792,7.051670156121254,-4.5275967282056815,6.552653569579125,10.637784211334049
1.7227828335016966,6.3413591694831855,-4.642783368229867,9.923022000789643,12.658382169489736
1.732810833491385,6.671859585642815,-5.3659570598602295,12.006259807348252,14.746439572328768
1.7428378332406282,6.693090240955353,-5.976410467028618,9.900185115337372,13.361459664345384
1.7528648334555328,5.867283881306649,-6.310779401063919,5.924297742247582,10.456971862424288
1.7628928334452212,5.623275479078293,-6.15232921242714,2.620512140393257,8.737245889274034
1.7729198331944644,6.184262026548386,-5.007047946453095,0.9448842485994101,8.013016422942098
1.782946833409369,6.338202257752418,-3.5123031592369083,1.049578133225441,7.321932504490083
1.7929738331586123,5.792858181595802,-2.4921464610099795,2.7160264080762864,6.866207056634235
1.8030018331483006,4.274734472036362,-2.1584686678647995,4.843628209233284,6.811246290206401
1.8130288333632052,2.8942670828104022,-3.3855475106835367,6.207402967214585,7.640063186330317
1.8230558331124485,2.2055410927534105,-5.7838990777730945,6.378627567887307,8.888463855104565
1.8330838331021369,1.4076961183547974,-7.319828143715859,6.019337800741196,9.580914360049242
1.8431108333170414,1.4472560405731203,-7.78397719860077,4.945349881052971,9.334952411305732
1.853137833531946,2.8738889515399935,-7.28498517036438,3.4094336789846422,8.541339745590696
1.8631648332811892,4.80438462138176,-6.064180682301521,2.2071613562107086,8.045368866007227
1.8731928332708776,7.094998024106026,-5.0778963196277624,1.49609593257308,8.852250054896738
1.8832198334857821,9.394460602998734,-3.7108225625753404,1.5097464036941528,10.21300290392992
1.8932468332350254,11.349265487194062,-2.5365870541334155,1.9543721902370454,11.792356492236124
1.9032748332247138,12.235696363449097,-1.5852327883243562,2.6624401849508286,12.62195770196292
1.9133018334396183,12.168014842271806,-1.0120699989795685,3.6688524180650712,12.749327392067528
1.9233288331888616,11.390075544118881,-1.0405880391597748,4.811033782660961,12.408170309351917
1.9333558334037662,10.407797108888627,-1.140256753563881,5.490526142120362,11.822364545265284
1.9433838333934546,9.431059495210649,-1.0411166274547576,4.961784065365792,10.70738568211137
1.9534108331426978,8.508160704374314,-0.9367695558071137,3.965183167755604,9.433398821527618
1.9634378333576024,8.502477210760118,-0.7207897818088532,2.316913594007492,8.841931080434405
1.9734648331068456,8.61858186364174,-0.19077827453613283,1.2185082864761354,8.706383413021754
1.983492833096534,8.660891146659852,0.6142289543151855,1.146979297399521,8.75807479822325
1.9935198333114386,8.776542640328408,0.7710974711179733,1.0348051428794862,8.870913916344646
2.003546833526343,8.184757053852081,0.6039624130725861,1.493355196416378,8.341770098105657
2.0135748335160315,7.1052873694896705,0.7728960746526718,2.8009309029579166,7.676437381258809
2.0236018332652748,5.821330028772355,1.0343841433525085,3.6629949697852138,6.955240183385303
2.0336288334801793,5.0147879058122635,1.0816916263103487,3.4141471195220947,6.162349800883741
2.0436558332294226,4.557091545760632,0.9895617270469667,2.540314069390297,5.310321208667277
2.053683833219111,4.320225517451763,0.8735330879688263,1.4648511895537377,4.644695639646876
2.0637108334340155,4.311100060343742,0.7284923189878464,0.6230100104212761,4.416381580231176
2.0737378331832588,4.513944064378738,0.6757977962493897,-0.22128963053226472,4.569612979053771
2.083765833172947,4.6096030506491665,0.690623996257782,-1.0497307455539704,4.7777961893453
2.0937928333878517,4.975054321289063,0.5391454428434372,-1.7874976256489754,5.313848988258563
2.103819833137095,4.733923626244068,0.327522429227829,-1.6925514149665832,5.038058567847784
2.1138468333519995,4.2978043690323835,0.42054812192916874,-1.0344759446382523,4.440509384897998
2.123874833341688,4.263653121292592,0.26365797042846684,-0.6523329198360444,4.321318282929451
2.133901833090931,4.303508912622929,-0.01672069787979126,-0.7027189618349076,4.360536948826933
2.1439288333058357,4.416587923765182,-0.04679234325885773,-1.0325951877236368,4.5359333365302135
2.153956833295524,4.33719764560461,0.022673163414001465,-1.2719050598144532,4.519904862998665
2.1639838335104287,4.1127575352787975,0.062348860502243045,-1.5691573306918145,4.402376250715324
2.174010833259672,4.188201235234738,0.07685697197914124,-2.1700938096642495,4.7176523529936665
2.1840378334745765,4.308832510113716,0.053333623409271246,-2.558479614257813,5.011456875218188
2.194065833464265,4.782915107309819,-0.11463583230972291,-3.0319041073322297,5.664085170072911
2.204092833213508,5.4578109705448155,-0.1219764268398285,-3.2820924317836764,6.369828064373138
2.2141198334284127,6.071003798246384,-0.2617587947845459,-2.9995570179820064,6.776647186411152
2.224147833418101,6.775332498550416,-0.6621480560302735,-2.5589833518862726,7.272686320009216
2.2341748331673443,7.484486905932427,-1.1052804636955262,-2.1379256451129915,7.8619282121202785
2.244201833382249,7.566925045251847,-1.5185768687725067,-1.7827724906802178,7.921029484881162
2.254228833131492,7.019121630191803,-1.7788311749696732,-1.828117940425873,7.468220940262637
2.2642568331211805,6.7066019868850715,-1.5529099649190903,-2.438643560707569,7.30321997380719
2.274283833336085,6.703901742696763,-1.0345765167474748,-3.3248344087600707,7.554281632982249
2.2843108330853283,6.773426306247711,-0.7849635583162308,-4.178432584404946,7.997172661414157
2.294337833300233,6.968422762155533,-1.0275879245996475,-4.9770979231596,8.624752545530217
2.3043658332899213,7.837867476940155,-1.671663991212845,-5.545278300046921,9.74560098252361
2.314392833504826,8.352220140695572,-2.459108523130417,-5.438156139850617,10.265492594540623
2.324419833254069,8.681212559938432,-3.2240576469898223,-4.589622822403908,10.335503706829055
2.3344478332437575,8.981379375457765,-3.7698016726970676,-3.171997254788876,10.243932190411838
2.344474833458662,8.999511591196061,-4.312784643173218,-1.4405910918116571,10.082986807105826
2.3545018332079053,8.850772458314896,-4.79339477956295,0.05380140066146851,10.06557008878881
2.36452883342281,9.143736088871956,-5.1916199862957,0.9042333090305329,10.55359965235581
2.3745568334124982,9.621870514154434,-5.388072398900986,1.876092444509268,11.18621648401719
2.3845838331617415,10.04499725818634,-5.626242356300354,2.5584562253952026,11.794162591132222
2.394610833376646,10.41755377292633,-6.5744356173276906,2.4366797733306886,12.557310166431243
2.4046388333663344,10.49800795197487,-8.788672689199448,2.1496118903160095,13.858923835442484
2.4146658331155777,10.472276694774628,-11.10027233362198,2.44491484567523,15.45516850943711
2.4246928333304822,9.978205683231355,-12.081131064891816,2.868370349407196,15.92940252882458
2.4347198330797255,10.091437014341356,-11.771107013225556,2.982554776668549,15.788973821216343
2.444747833535075,11.746843407154083,-10.616153283119202,2.912635526061058,16.098897051368297
2.4547748332843184,14.058782190084457,-9.542556542158128,2.86145543217659,17.23071876675067
2.464801833499223,15.934528040885926,-9.140487960577012,2.7838868540525437,18.57976668474068
2.4748298334889114,16.792178921699524,-9.648746071457863,3.173710781335831,19.625188249120328
2.4848568332381546,16.64962614297867,-10.619724762439729,4.064563322067261,20.162075283314184
2.494883833453059,16.78010325193405,-11.360482785701752,5.095952521562577,20.895003382909838
2.5049108332023025,18.26453121185303,-11.510286111831666,6.530153483748436,22.554881761744845
2.514938833191991,20.03239710330963,-11.046592555046082,8.440977365970612,24.383893037714788
2.5249647083692253,21.367585408687592,-10.581563494205476,9.54019192814827,25.681870146182234
2.5349917081184685,20.900285289287567,-10.336938210725785,9.27519962310791,25.093894572076177
2.545019708108157,18.884527859687807,-10.422739083766938,8.178097075223922,23.068163218240716
2.5550467083230615,16.27074294090271,-10.70054029941559,7.362726241350174,20.819423052847043
2.565073708537966,12.9093201649189,-11.058697460889817,7.343474868535996,18.51680209422492
2.5751007082872093,9.489287238121033,-11.436089622974396,7.762765254378319,16.76577593035445
2.5851287082768977,6.164334715604783,-11.67011975169182,8.348986045718194,15.617179178598002
2.595155708491802,3.035110135674477,-12.043584923744202,9.083570578694344,15.387367734906256
2.6051827082410455,0.08866016149520875,-12.682095025777818,9.52126799941063,15.858686552917796
2.615210708230734,-2.2155766689777376,-13.616358464956285,9.743365715146066,16.889262070362605
2.6252377084456384,-4.096838783025742,-14.533295434713365,10.320787031650545,18.289871764434277
2.6352647081948817,-6.386461082696915,-15.845191941261293,10.491742075681687,20.048282834169203
2.6452917084097862,-8.663031227588654,-17.302813925743102,9.150104876160622,21.4046700288466
2.6553197083994746,-10.191388149261476,-18.149459177255633,5.258165393471718,21.468944178530986
2.665346708148718,-11.520764322280884,-18.36450924396515,0.2600490689277649,21.680655798648523
2.6753737083636224,-12.870364844799042,-18.37266260147095,-3.2225584208965303,22.662433785492222
2.6854007081128657,-14.007098650932313,-18.507763688564303,-4.477497199773788,23.63861481861133
2.695428708102554,-14.883605632781983,-18.359866554737092,-4.05891608119011,23.980851033565862
2.7054557083174586,-15.621003845930101,-18.24627269625664,-2.645186805725098,24.16483481627602
2.715482708532363,-15.973138375282288,-18.583833625316622,-0.5895338237285614,24.51219231114762
2.7255107085220516,-16.251091618537902,-18.533547570705416,1.6271842217445374,24.702997648892893
2.735537708271295,-16.221743273735047,-18.088857464790344,3.0628779780864717,24.48944549656273
2.7455647084861994,-15.794861447811128,-17.446938436031342,3.2556419670581818,23.758630296460453
2.7555917082354426,-15.223754539489747,-16.593836688995363,2.674944455623627,22.677597892641867
2.765619708225131,-14.399133410453796,-15.430948287248611,2.061966805458069,21.206152765709263
2.7756467084400356,-13.41817878484726,-14.301594836711883,1.6771999888122082,19.682381374672648
2.785673708189279,-12.605579531192781,-13.355227661132814,1.6460591800510884,18.438336476541043
2.7957017081789672,-11.71344645023346,-12.688376104831697,1.7284651596844198,17.354748852357208
2.805728708393872,-10.94087372660637,-12.359005955457688,1.8502683627605438,16.60937202674492
2.815755708143115,-10.648457980155946,-12.366893849372865,2.134677078276873,16.458631992523678
2.8257827083580196,-10.881904556751252,-12.600656175613404,2.633942610025406,16.856157228478125
2.835810708347708,-11.447579401731492,-12.936419670581818,3.304659175872803,17.587461451870865
2.8458377080969512,-12.181629499197006,-12.984967932701112,3.836118453741074,18.21310775952626
2.855864708311856,-12.828992285728456,-12.826641705036163,3.910311141908169,18.557917817556593
2.865892708301544,-13.102143795490266,-12.561030764579774,3.6603204533457756,18.516036609588056
2.8759197085164487,-12.853088661432267,-12.140293192863465,3.3074000582098964,17.986870269515276
2.885946708265692,-12.04357790708542,-11.741852223873138,2.7852390226721764,17.04923514016762
2.8959737084805965,-11.002497532367707,-11.405357826948167,2.3175217044353484,16.01586856717469
2.906001708470285,-9.897758520841599,-11.213936358690262,1.7771699810028077,15.062414332869263
2.916028708219528,-8.969818260669708,-11.361387934684753,1.5560350093245507,14.558846808112506
2.9260557084344327,-8.54824161350727,-11.687642687559128,1.7297084239125253,14.583048978410025
2.936083708424121,-8.968600870370866,-11.935299167633056,1.9347270074486733,15.05424645693934
2.9461107081733644,-10.241416926383973,-11.994480006694795,2.386957097947598,15.95154335725756
2.956137708388269,-11.194489688873292,-11.80690132856369,3.9216059160232546,16.73614386103675
2.966164708137512,-11.657944679260254,-11.047902331352235,5.643500413298607,17.02389253322201
2.9761927081272006,-11.817564311027528,-9.477516208291055,6.639771820306779,16.539791702117387
2.986219708342105,-12.137430396080017,-7.419359448552132,6.7116972506046295,15.729303583766214
2.9962467080913484,-13.486036891937257,-5.988384979963303,5.219755618572235,15.651830386142038
3.006273708306253,-16.010960505008697,-6.343957087397576,2.4957156014442443,17.40187473184951
3.0163017082959414,-19.304127563238143,-7.9305820977687835,-0.2368429318070412,20.8710222069157
3.026328708510846,-22.74682663679123,-9.93963978767395,-2.328439771682024,24.932633092461305
3.036355708260089,-25.486188697814942,-11.675041937828064,-1.7479900360107423,28.087504121168667
3.0463837082497776,-25.842071292400362,-12.064068889617921,1.7320867788791658,28.571918582141418
3.056410708464682,-21.94850628376007,-11.89964167714119,6.062569774389267,25.692278069528
3.0664377082139254,-14.501922783851624,-11.245988456010819,7.90965725183487,19.98351066812404
3.07646470842883,-6.196517205834389,-8.819340750575066,5.960190875530243,12.316715147705152
3.0864927084185183,2.43810532450676,-5.583995053768159,2.993100814819336,6.788520517871891
3.0965197081677616,10.352090685367585,-2.337677349150181,0.29356750175356866,10.616812083902117
3.106546708382666,14.70658117890358,-1.2121713665127756,-1.9117810714244843,14.879778098430481
3.1165747083723545,13.52941855430603,-3.9328275999426845,-1.7445388631522656,14.197031914929253
3.1266017081215978,8.6410655772686,-7.842231838703156,0.45287591546773914,11.677915529641261
3.1366287083365023,8.178628587126733,-9.666953716278076,3.8468083333969116,13.233967435078608
3.1466557080857456,12.616530196666718,-7.502064220905305,7.002555883526802,16.26325891941423
3.1566837085410953,18.615558278560638,-3.863518213927746,9.213782808780671,21.127223590884373
3.1667107082903385,23.913208165168765,-1.200092334598303,8.541807922124864,25.421334129835337
3.176737708505243,27.85058753013611,0.5931698416918516,4.555490285754204,28.226929836212555
3.1867657084949315,29.09635319709778,2.545138314664364,-0.04679775193333626,29.207493703510764
3.1967927082441747,25.87936483383179,3.8720551487803463,-4.0811290687322614,26.483767665372262
3.2068197084590793,19.85309106588364,2.3754183487594127,-6.80260098874569,21.120208744564422
3.2168467082083225,12.806184636354446,-0.23177748888731003,-7.950017657876015,15.074974842609059
3.226874708198011,6.543139564990998,-1.2409900997579097,-6.511641783714294,9.31419403459374
3.2369017084129155,3.65465713262558,-0.9916971302032471,-3.6808070504665378,5.280939546886383
3.2469287081621587,3.5370438981056216,-0.8972020322084427,-1.4834095211327076,3.939055068301577
3.256956708151847,3.7958668059110643,-1.307927855104208,0.3689318257570267,4.031797461980372
3.2669837083667517,3.1403173327445986,-1.9603638321161272,1.7567803014814856,4.097669622148491
3.277010708115995,2.1771212857961655,-2.9007911136746407,2.3529985159635545,4.3233144917259025
3.2870377083308995,1.790487599372864,-3.865380844473839,2.0916706609725955,4.745745575808592
3.297065708320588,3.3070980495214464,-4.134277627766132,1.8703623193502428,5.614926911210985
3.3070927085354924,5.8838309168815615,-3.2559685340523723,3.2427219593524934,7.46565757712322
3.3171197082847357,7.661251158714295,-1.9615859001874925,5.968999121189118,9.908155179924867
3.3271467084996402,7.909512240886689,-1.4676213079690934,8.003905012607575,11.347986237354448
3.3371747084893286,6.901659838557244,-1.564457631111145,8.586362535953523,11.126817056351834
3.347201708238572,5.28679102241993,-1.4265452027320862,7.720405685305596,9.465191729483184
3.3572287084534764,4.393441720604897,-1.5707498198747636,5.894637740850449,7.517734981019669
3.367256708443165,3.7135309928655627,-2.3946950107812883,3.2751523715257647,5.500136333432539
3.377283708192408,2.4826961910724643,-2.441759834289551,0.6885972051322461,3.5496672486912626
3.3873107084073126,2.4022390884160996,-2.8302856796979907,-1.1307510812580586,3.8807045332496006
3.397338708397001,3.0039199179410936,-3.600382692217827,-1.6590604640543463,4.973808603797812
3.4073657081462443,3.5377929264307024,-3.4644483768939973,-0.13806036293506624,4.953528238566964
3.417392708361149,4.282976707220078,-2.437587261199951,2.982036128640175,5.76005734373099
3.427419708110392,5.4022945815324785,-1.8105219143629074,5.969920642375946,8.252437750405024
3.4374477081000805,6.62867848277092,-1.0860162270069122,7.336411432027817,9.946946384356405
3.447474708314985,8.733769673109055,-0.49060010433197027,7.42572297334671,11.474353264658497
3.4575017085298896,10.171348571777344,-0.02578739047050476,7.387236599922181,12.570929215508857
3.467528708279133,9.616361267566681,0.28663869738578795,6.31774051129818,11.509579094792906
3.4775567082688212,8.552019499540329,0.30175258040428166,4.885120636224747,9.85355244420851
3.487583708483726,7.31275242805481,0.2646233457326889,3.4954070448875427,8.10951564512812
3.497610708232969,6.457628129124641,0.5900466245412826,2.2555752785503866,6.865619848957706
3.5076387082226574,6.17535554766655,1.2149613654613496,1.5596114587783814,6.4840986391334745
3.517666125204414,6.324157830476762,1.7958050572872162,1.137973415851593,6.671946609779176
3.5276931249536574,7.477479602694512,2.3109956270456316,0.8426904872059823,7.871691638660902
3.537720125168562,9.169728716611862,3.0772761619091034,0.8552888980507851,9.710050072581458
3.5477481251582503,9.644942457675935,3.831302686929703,0.8706159120798111,10.414497940713284
3.5577751249074936,8.90248932659626,4.028941499590874,0.56632125467062,9.78812574402156
3.567802125122398,7.586350665092469,3.554080345630646,0.061686809509992606,8.377828404748723
3.5778301251120865,5.945556464195252,2.3991096585989,-0.20505205884575844,6.414625099704064
3.58785712486133,4.487087218165398,1.072319124341011,-0.2274464562535286,4.61904231397733
3.5978841250762343,3.0696060767769815,0.40008052825927737,0.17727705359458923,3.1006407482018252
3.6079111248254776,2.1279839166998866,0.4832612639665604,0.5884655374288559,2.260121387829729
3.617939124815166,2.080772328078747,0.657738670706749,0.7371160849928856,2.3033831125100677
3.6279661250300705,2.7812214007973672,0.6326324808597565,0.33676307648420334,2.8720768976082702
3.637993124779314,4.051107709407806,0.7318106138706207,-0.5171315529942513,4.149029463729958
3.648021124769002,5.394204958677292,1.152578006386757,-1.1581670674681663,5.636242911123772
3.6580481249839067,6.305674197077751,1.4948055982589723,-1.2660426414012909,6.602941376850538
3.6680751251988113,6.529399192929268,1.4685627096891405,-1.1751523518562317,6.7949034800347325
3.6781021249480546,6.149698550105096,0.9436751174926759,-1.2267169001698495,6.3414627127896805
3.688130124937743,5.542621325254441,0.358785737156868,-1.4631438025832177,5.743706829860849
3.6981571251526475,5.23605648636818,0.16655326008796692,-1.7562194073200226,5.5252451641109745
3.7081841249018908,6.008853743076325,0.19070109128952029,-2.064034088551998,6.356329674474575
3.718212124891579,8.098606517314911,0.6037098133563996,-2.4507791644334795,8.48281861021793
3.7282391251064837,10.12713894367218,1.414925031065941,-2.682415735423565,10.571485714204346
3.738266124855727,10.983963028192521,1.6871497571468355,-2.596977389752865,11.41219565511512
3.7482931250706315,11.051050472259522,1.1637619757652284,-2.5963415050506593,11.411443716178646
3.75832112506032,10.772020171880722,0.10254729866981507,-2.3014053162932395,11.015598075535094
3.768348124809563,10.500013546943665,-0.742669478058815,-1.3777721151709557,10.61603025810417
3.7783751250244677,10.60694742679596,-0.6737232041358948,-0.47249537050724033,10.638819885013344
3.788403125014156,12.471367220878602,-0.22186090350151064,0.19385785683989526,12.474846832212663
3.7984301247633994,16.468002269268037,0.15221471786499025,1.3779150795936586,16.52624936358893
3.808457124978304,19.630843076705933,0.9349288523197175,2.287740811854601,19.785799197489553
3.8184841251932085,20.21472264289856,0.5270159786939621,3.3034745299816133,20.489648638796904
3.828512125182897,19.133149130344393,-1.8601969349384309,5.473586758375168,19.987443065139992
3.83853912493214,17.781317310333254,-5.098209546804428,9.020499587059021,20.579999967784662
3.8485661251470447,16.495816304683686,-7.128200268745423,12.592875870466234,21.943192960874704
3.858594125136733,15.412478102445602,-7.90881466805935,14.531226689815522,22.610846508321686
3.8686211248859763,14.618682324886322,-8.337304478287697,14.604981129169465,22.282773450874917
3.878648125100881,14.24208772301674,-8.878234491348268,12.916920375823976,21.177982490993962
3.888675124850124,15.151304029226305,-9.153492168188096,10.628421911001206,20.647319074818906
3.8987031248398125,16.042223228216173,-9.309045061469078,9.135932394862175,20.675504994651824
3.908730125054717,15.67758501291275,-10.002203825712204,8.497999413013458,20.446191509221844
3.9187571248039603,15.081495290994646,-10.758796108961105,8.153168640732765,20.240487958809652
3.9287851247936487,14.828329564332963,-11.3857310628891,7.853522227406502,20.277870718625184
3.9388121250085533,14.55163815021515,-11.96795820593834,7.465564731359482,20.266150429521698
3.9488391247577965,14.744864069223405,-12.364316396713258,7.0298366528749465,20.486725940081588
3.958866124972701,15.18207441687584,-12.202073704004288,6.846475571393967,20.64607018362582
3.9688941249623895,14.639846906661989,-12.313257340192795,6.626565299034119,20.244821348648042
3.978921125177294,13.638091396093369,-13.12427784562111,6.077004210948944,19.87898855769952
3.9889481249265373,12.407595148086548,-13.475728250741959,5.379265322685242,19.09136361443335
3.9989761249162257,10.80798639535904,-13.853151987791062,4.658131139874459,18.177474402000232
4.00900312513113,8.501949791908265,-14.386958338022232,4.22892241448164,17.2380829929497
4.0190301248803735,5.9882873314619065,-14.800088682174684,4.097149270176888,16.482986449866825
4.029057125095278,3.4477306026220322,-14.761350878477097,3.999537606239319,15.677392229879802
4.039085125084966,0.6311391019821168,-14.620139451026917,3.551674216389656,15.058592360273638
4.04911212483421,-1.8506829303503038,-14.45000535607338,3.1250028902292253,14.899440431210172
4.059139125049114,-3.7041467964649204,-13.893686056137085,2.856587040424347,14.659989946646611
4.069167125038803,-4.7686762601137165,-13.3146479845047,2.3688035398721694,14.339851967002941
4.079194124788046,-5.339256919026375,-12.639745981693268,1.7711058336496355,13.835015677731988
4.08922112500295,-6.367735374569893,-12.213101552724838,1.3306369788944723,13.837575586327254
4.099248124752194,-7.606238214969635,-12.103254590034485,1.217502565383911,14.3466352832562
4.109276125207543,-8.75284562945366,-11.917423059940338,0.8813361972570419,14.81263084314327
4.119303124956787,-9.905295581817628,-11.947215793132782,0.36622222602367405,15.52369042752692
4.129330125171691,-11.134746347665788,-11.985158375501634,0.17647306144237518,16.360248783381273
4.13935812516138,-11.801292679309846,-11.84280089378357,0.08466242015361786,16.719139022028596
4.149385124910623,-12.013055441379548,-11.574971519708633,-0.16733499627560378,16.682969391589236
4.159412125125527,-11.789579536914825,-11.549634364843369,-0.1446028216648847,16.504822010395785
4.169439124874771,-10.982208863496782,-11.314364626407624,0.21537868022918702,15.769278562973916
4.179467124864459,-9.780040036439896,-10.693778579235078,0.512109671831131,14.500632390763421
4.189494125079364,-9.182358117699623,-10.300186121463776,0.4885419209674001,13.807541705423947
4.199521124828607,-9.320758788585664,-10.345283356904984,0.03915536798536778,13.924904497787201
4.209549124818295,-9.863906650543214,-10.604938323497773,-0.472450420036912,14.490844718483993
4.2195761250332,-10.875867891311646,-11.040228445529939,-0.9209059866517783,15.524793536630467
4.229603124782443,-12.152651867866517,-11.516102921962739,-1.4414604265987874,16.804326290936174
4.239630124997348,-13.43135957837105,-11.87253749370575,-1.9601422226428986,18.033322605552645
4.249658124987036,-14.155903272628786,-11.901592308282853,-2.0817561221122745,18.611050628284044
4.2596851252019405,-14.236480243206024,-11.80116404056549,-1.7580973868072034,18.575137922745817
4.269712124951184,-13.563451688289643,-11.659754977226259,-1.181901354342699,17.925233572841297
4.279740124940872,-12.313628053665163,-11.338256349563599,-0.5683880992233753,16.748270296474434
4.289767125155777,-10.81334595322609,-10.692370569705965,-0.3128622901439667,15.210296575565495
4.29979412490502,-9.765616124868393,-10.08115643978119,-0.32285752058029177,14.039273857298552
4.3098211251199245,-9.524570506811143,-9.710970970988274,-0.6793156273663045,13.619172891926208
4.319849125109613,-10.035599613189698,-9.584917865395546,-1.178276957720518,13.92739195512667
4.329876124858856,-10.847696006298065,-9.854738216400147,-1.3788691990077497,14.720382271761995
4.339903125073761,-11.845651996135713,-10.412709939479829,-1.02909942984581,15.805158813938093
4.349931125063449,-12.826178605556489,-10.972047572135926,-0.19778893992304802,16.880041647211797
4.359958124812692,-13.303040091991425,-11.221997330188751,0.7791137114167214,17.421570478668453
4.369985125027597,-13.296191833019257,-11.321341524124145,1.6986081071197987,17.54556242096214
4.38001212477684,-13.02954476594925,-11.24397584438324,2.359027726203203,17.37127057557808
4.390040124766529,-12.521405353546143,-11.071836154460907,2.708177690505982,16.93237650958648
4.400067124981433,-12.02579535484314,-10.80350625872612,2.6247262287139894,16.377566643876023
4.410094125196338,-11.702891056537629,-10.591220755577089,2.2352500645816327,15.94139137672015
4.420122125186026,-11.582085242271424,-10.543066595792771,1.913042754381895,15.778488025874214
4.430149124935269,-11.651806272268296,-10.572527207136154,1.850381944924593,15.841932782782786
4.440176125150174,-11.791368784904481,-10.522237644195558,2.1924018144607547,15.954951851340596
4.450203124899417,-11.990940102338792,-10.501875300407411,2.9137926900386812,16.20377169685215
4.460231124889106,-11.786955306529999,-10.529892818927765,3.7723686003685,16.24936069614089
4.47025812510401,-11.109894511699677,-10.208660824298859,4.2291109871864325,15.669457285707436
4.480285124853253,-10.014371881484985,-9.299813477396965,4.4561513543128966,14.374681206468408
4.490313124842942,-9.374459617137909,-8.260688996315002,4.076407442092895,13.142928647799147
4.500340125057846,-9.035942083597183,-7.733405799865723,3.026365624666214,12.272436738385768
4.51036712480709,-9.297641236782075,-7.533050370812417,1.8463027811050416,12.10792362119219
4.5203942083753645,-10.381132636070252,-7.967113162279129,0.5146344995498657,13.096093143238223
4.530421208124608,-11.228190701007843,-9.415732773542405,-0.4688320899009705,14.661108198546264
4.540448208339512,-10.113091592788697,-10.318273898363113,-0.8335229301452637,14.471909282498038
4.550475208088756,-5.969310193061829,-9.426767638921739,-0.031332378163933756,11.157848987019648
4.560503208078444,1.719365576505661,-7.97394387960434,1.210217519402504,8.24649170405336
4.5705302082933486,10.785182254314423,-5.5966086673736575,1.8808734203875066,12.295522341812928
4.580557208508253,17.18198940038681,-2.601867708563805,2.148622687608004,17.510198593436215
4.5905852084979415,18.929383020401,-1.3504375514388085,2.7478107029199603,19.175392741022627
4.600612208247185,16.565285904407503,-1.441848096996546,3.716858643293381,17.038270487458497
4.610639208462089,11.857217788696289,-2.2965532967448237,4.856877999901772,13.017566386974758
4.620666208211333,8.034323397874832,-4.04965146034956,6.0330968838930135,10.832741454608335
4.630694208201021,7.508620119094849,-4.438676950335503,6.628688423037529,10.955397727696944
4.6407212084159255,9.402861882448198,-3.3938780388236047,6.475408927202225,11.910631406323374
4.650748208165169,13.00976948261261,-1.4373450100421907,4.725172975659371,13.915722127094705
4.660775208380073,16.092335035800936,1.4580324590206146,1.6826397997140885,16.24562655768025
4.670803208369762,16.560575387477876,3.0969005870819095,-1.0592991292476654,16.88092311029913
4.680830208119005,14.47295801639557,2.6749178507924083,-1.531866859048605,14.797578022321359
4.6908572083339095,11.541106785535813,0.8747082321345807,-0.29001780331134797,11.577839636682759
4.700885208323598,9.451634677648546,-0.771898174211383,0.7529184776544572,9.512944397244887
4.7109122085385025,6.721256278753281,-1.7588044613599778,0.9998990195989609,7.019150742602351
4.720939208287746,4.183833072781563,-2.162062805145979,0.5935818511247635,4.746716145745521
4.730967208277434,2.956376207470894,-2.149276552498341,0.1653885678201914,3.6588117412057093
4.740994208492339,3.881657153964043,-2.114027782380581,0.3029284737445414,4.430365829793561
4.751021208241582,32.7223636507988,11.190829331874848,-6.6974136722087865,35.22560281850345
4.7610482084564865,49.16305240631104,27.32383292198181,-15.745589300394059,58.40822844318039
4.771076208446175,-5.6241864752769475,-6.215816525816917,-1.2966820514202118,8.482289368665876
4.781103208195418,-9.060646569728851,-13.396610745191575,6.498818255066872,17.42983460713589
4.791130208410323,-9.031468963623047,-2.4695034107565883,5.343617187738419,10.780543742581735
4.801158208400011,-4.8817426997423174,-0.5331923925876618,3.0785637187957766,5.79596933089595
4.811185208149254,1.6825854206085207,-3.450082352757454,1.1581509876251221,4.009423356118659
4.821212208364159,8.115199161171914,-2.807585619091988,0.5371801936626435,8.603926835723378
4.831239208113402,11.73689846277237,-1.1062160181999208,2.379214507341385,12.026602224913495
4.8412672081030905,9.962882469892502,0.04990306198596955,4.795639525651932,11.0571097437116
4.851294208317995,5.750252444744111,-0.6967056852579118,5.705705432295799,8.130552039701001
4.8613212085329,2.769857044816017,-1.0432122695446016,5.275851466655731,6.049380843215176
4.871349208522588,1.7486595422029496,1.1022372803092004,4.774242809414864,5.2025120489904095
4.881376208271831,2.20757943212986,1.6758172684907915,4.19391659617424,5.026997800099028
4.891403208486736,2.163977914452553,-0.07075949549674988,3.1571058583259584,3.8282012383255744
4.901430208235979,-0.15144113123416902,-2.2284487295150757,1.5682349324226381,2.7291535243693192
4.9114582082256675,-2.0427908617258073,-3.130643699169159,0.710437798127532,3.8050816470749114
4.921485208440572,-1.9668045401573182,-2.8142169463634494,0.7564689069986343,3.515733540477487
4.931512208189815,0.08537753462791443,-2.543997230529785,0.979522642493248,2.727393598203111
4.941540208179504,3.2652840256690983,-1.9461030578613283,1.8488638615608217,4.227019571600373
4.951567208394408,5.143055936694146,-0.6577281457185745,3.0153921550512317,5.998018050187896
4.9615942081436515,5.551402673721314,-0.3365364968776703,3.5367053443193437,6.590873474135871
4.971621208358556,4.958700828552247,-0.6634326893091202,3.8590904098749164,6.3183412088868085
4.981649208348244,3.8902905678749087,-0.4455145633220673,4.069918202161789,5.6477498263393695
4.991676208097488,3.1386052680015566,-0.1672596037387848,4.131901026964188,5.191476177350493
5.001703208312392,2.397653701901436,-0.25928776144981386,3.844593992829323,4.53837816705248
5.011731208302081,1.6444896411895753,-0.3641254144906998,3.1637383550405502,3.584155950375559
5.021758208516985,1.9279872143268586,-0.35697836279869083,2.3866616673767567,3.0888059448013037
5.031785208266228,3.5987425482273103,-0.3973522174358368,1.7179164902865887,4.0075021872385
5.041812208481133,5.1857020193338395,-0.28359639108181,1.0843357372283937,5.305442143439916
5.051840208470821,6.264544882178307,-0.09864837527275086,0.4061313731968403,6.278470894657801
5.061867208220065,7.1511178457736975,0.1259770917892456,-0.2835969758033753,7.157847715373912
5.071894208434969,7.5571461617946625,0.30591287434101105,-1.0800672698020937,7.640064535376198
5.081922208424658,7.277687260508538,0.4054798471927643,-1.8191788633167745,7.5125599834534595
5.091949208173901,6.72207079589367,0.515106954574585,-2.2568445628881455,7.109494942729437
5.101976208388805,6.726839784979821,0.8258981609344482,-2.509959418773651,7.227197074171482
5.112004208378494,7.3314921694993975,1.1216234314441682,-2.4968587321043016,7.8257983670345785
5.122031208127737,8.455480214953424,1.2184235018491745,-2.283981636911631,8.842865690095985
5.132058208342642,9.4247795855999,1.4125574934482574,-1.8455518524348737,9.707103097704445
5.142085208091885,10.42471544265747,1.6277502322196962,-1.354298175573349,10.637593074903444
5.152113208081573,11.121455626487732,1.7997712236642838,-0.8774488221108914,11.300259649445648
5.162140208296478,11.061566104888916,1.7111303579807282,-0.8553606726229191,11.225767398049033
5.172167208511382,10.803285233974457,1.0034757614135743,-1.267727955132723,10.923601494863316
5.182195208501071,10.89842878818512,0.07840180635452271,-1.3939329421520235,10.987490429647638
5.192222208250314,10.65688732624054,-0.49654379904270174,-1.3666944189369679,10.755633726717708
5.2022492084652185,10.144712165594102,-0.8270336902141572,-1.186283696293831,10.247264935366646
5.212276208214462,9.994893636703491,-1.0129786562919618,-0.621889830082655,10.065325207258791
5.22230420820415,10.190465458631516,-1.1259000849723817,0.11247016981244087,10.253091572984243
5.232331208419055,11.153638701438904,-1.402046538591385,0.9957493968307972,11.28542899671522
5.242358208168298,12.636031830310822,-1.9311067038774492,1.862919837087393,12.91777627294274
5.252386208157986,14.009856197834015,-2.4374574530124664,2.2730618155002595,14.400836070739766
5.262413208372891,14.962100994586946,-2.8836105322837833,2.5908825445175174,15.45614273464124
5.272440208122134,14.945782585144043,-3.6018129211664203,3.035173870325089,15.670410135812672
5.282467208337039,14.125743334293366,-4.694852823615075,3.012028251886368,15.187184794157922
5.292495208326727,13.711996693611146,-5.833205139040947,2.626119035482407,15.1308174501003
5.302522208541632,14.359661196470261,-6.3423227906227115,2.749606967568398,15.936915213866412
5.312549208290875,16.010835374593736,-6.45401922762394,3.2652220451831817,17.568804415418594
5.322577208280563,18.29137694835663,-6.90646391093731,4.006848964691162,19.958170082595206
5.332604208495468,20.5151198387146,-7.910835465788842,4.713461587429047,22.487066947465003
5.342631208244711,21.786936020851137,-9.335695500969887,5.2059497576951985,24.26783271211372
5.3526592082344,21.835664377212524,-11.166677992343903,5.299361366629601,25.091316567153108
5.362686208449304,21.25413539171219,-12.920060330629349,5.383856556415558,25.449010621562355
5.372713208198547,19.79530888080597,-14.27286746621132,5.802579177618027,25.084635227706134
5.382740208413452,17.436560797691346,-15.142719147205353,6.225870228409767,23.918550451976085
5.39276820840314,14.867418200969697,-15.901042206287384,7.0239935302734375,22.873997296536977
5.402795208152384,12.596319880485535,-16.507789063453675,7.810237044095993,22.1849989177364
5.412822208367288,10.208752040863038,-16.476291282176973,7.298254256844521,20.71113970414268
5.4228502083569765,7.531371635198593,-16.252903085947036,6.112645329236985,18.92730436036002
5.43287720810622,4.433795694708825,-15.961614682674409,4.839197773933411,17.258317491454022
5.442904208321124,1.1254896104335785,-15.23564075946808,3.740280250310898,15.728355685373623
5.452931208536029,-2.013515607118607,-14.313258862495424,3.0164452385902405,14.76558722985062
5.462959208525717,-5.459657521247864,-13.274898612499237,2.57483544588089,14.582886236778274
5.4729862082749605,-8.52649347960949,-11.84702258348465,2.911494734287262,14.883878417240611
5.483013208489865,-10.937628521919251,-10.82788330078125,3.5378332722187045,15.792119513252699
5.4930412084795535,-12.83585691690445,-9.894211599826813,3.0951008141040806,16.499524084738294
5.503068208228797,-14.558093476295472,-8.571114166975022,2.0414828395843507,17.016748688048317
5.513095208443701,-16.05964676141739,-7.380233974456788,1.1808381843566895,17.713680770434614
5.523122958373278,-16.50170094251633,-7.051993507146836,0.36742032051086426,17.949143269610662
5.533150958362967,-16.680534524917604,-7.237433858513833,-0.11330036479979753,18.18333076930611
5.54317795811221,-17.242204027175905,-7.586774003505707,0.20353107014670968,18.83863488662451
5.553204958327115,-17.954169191122055,-8.04375378727913,0.6714474678039551,19.685146888855673
5.563232958316803,-18.408489661216738,-8.199444090127946,0.9885887503623962,20.17624054950775
5.5732599585317075,-18.351741263866426,-8.168761995434762,1.263700246810913,20.12739472131818
5.583286958280951,-17.691355558633806,-8.04346961259842,1.229363057613373,19.472873399635244
5.593314958270639,-16.544281536340716,-7.782205492258072,1.0445746707916261,18.313031155990956
5.603341958485544,-15.133643099069596,-7.442910279035568,0.6457933938503265,16.877236621536444
5.613368958234787,-13.781782042980195,-6.942693843841553,0.13881640791893007,15.432361584820201
5.6233959584496915,-12.725056858062745,-6.479774458408356,-0.3156150861829519,14.283352616084127
5.63342395843938,-11.991640598773957,-6.04759037733078,-0.6300993939489127,13.44506671119197
5.643450958188623,-11.613427487611771,-5.629565913677216,-0.8541331958770753,12.934189340764739
5.653477958403528,-11.676821830272676,-5.498456135988236,-1.0880780283361673,12.952416829729776
5.663505958393216,-11.763138427734376,-5.663432402014733,-1.069117773771286,13.099194824737328
5.673532958142459,-11.83493171095848,-5.7122724401950835,-0.6379616332054139,13.156848409839837
5.683559958357364,-11.619037306308748,-5.675771781206131,-0.03809453688561917,12.931274663832285
5.693586958106607,-11.360466413497925,-5.631332357525825,0.47590027727186685,12.688521676185891
5.703614958096296,-11.268016086816788,-5.61334515273571,0.8325137007236482,12.616295391215125
5.7136419583112,-11.225591028928758,-5.606457717418671,1.1949884462356568,12.6045332905509
5.723668958526105,-11.142828369140625,-5.59272611618042,1.5064978368580342,12.558293881224056
5.733696958515793,-11.01146950006485,-5.6455586332082754,1.8303422212600708,12.508994583050157
5.743723958265036,-11.09555480003357,-5.704918981790543,2.250352545529604,12.677599279379105
5.753750958479941,-11.575392519235612,-5.787333147525787,2.7525136184692385,13.230996491371506
5.763777958229184,-12.132308235168457,-5.916725013256073,3.210916614532471,13.874816160984157
5.7738059582188725,-12.539718832969665,-6.0835484147071845,3.3366738510131837,14.331346835243908
5.783832958433777,-12.803360431194307,-6.115468364953995,3.1415019786357883,14.53251617358803
5.79385995818302,-12.888283052444459,-6.01560026049614,2.748056870698929,14.486100341313527
5.803887958172709,-12.791546716690064,-5.782811495661736,2.2890750002861022,14.223376552582609
5.813914958387613,-12.433180224895478,-5.445764536857605,1.8839155805110932,13.703629439317176
5.823941958136857,-11.855173602104188,-5.0917226457595826,1.6601544781029225,13.00872374710656
5.833969958126545,-11.207234280109406,-4.764386450350285,1.5671789252758026,12.278335727669667
5.8439969583414495,-10.92951960325241,-4.4569071069359785,1.556856396943331,11.905554231468543
5.854023958090693,-11.388809037208558,-4.424790690243245,1.4990297730267048,12.30978611507475
5.864050958305597,-12.13786075115204,-4.813758585155011,1.5451432545483113,13.148665445876508
5.874078958295286,-12.969468133449555,-5.295534363985062,1.5148463451862335,14.090583639943175
5.88410595851019,-13.636036684513092,-5.6143625682592395,1.5966443605720997,14.832795984688927
5.8941329582594335,-13.391941158771516,-5.739416384696961,1.913798360824585,14.695156093176465
5.904160958249122,-11.700224726200105,-5.600932098627091,2.268560628890991,13.168601533343239
5.9141879584640265,-9.75976364672184,-4.533575506210328,2.469660408496857,11.04108309196522
5.92421495821327,-8.571018857359887,-3.308509275019169,2.12521145939827,9.430011750961096
5.934241958428174,-7.97223649263382,-3.097867131829262,1.1082566964626313,8.62447496177041
5.944269958417863,-8.410554302930832,-4.006723834276199,0.15425071835517884,9.317459570656498
5.954296958167106,-8.820557556152345,-5.636393122673035,-0.7781369340419769,10.496507043909054
5.9643239583820105,-9.065716690421105,-6.973760100603104,-1.5851813328266144,11.547006058268332
5.974351958371699,-7.69180636882782,-7.463516451716424,-2.0501431506872176,10.911968199133081
5.984378958120942,-3.4930447697639466,-6.656213605999947,-2.720281426906586,7.994152386203744
5.994405958335847,3.2825292187929156,-5.201256197690964,-2.9357162404060366,6.815166465350032
6.00443295808509,10.38243305683136,-3.9146275565028192,-1.6973589956760406,11.224983414059826
6.01446095854044,15.006461480855943,-2.9700513830780984,0.03972422897815705,15.297603387750161
6.024487958289683,17.00931410551071,-2.602214448451996,1.562906949520111,17.278048631385325
6.034514958504587,16.291475998163225,-1.9193345046043397,2.3256224370002747,16.568178984389696
6.044542958494276,14.12779102921486,-1.321167559325695,2.1322257792949677,14.348740357915341
6.054569958243519,11.017906115055085,-1.3358010935783386,1.4446961295604706,11.192219021648045
6.064596958458424,8.170612054467203,-1.3721514791250229,0.5114062517881394,8.300797394265068
6.074624958448112,7.243547707200051,-1.7432616850733758,-0.13683200910687449,7.451621815943439
6.084651958197355,7.603739699721337,-1.6718978798389437,-0.37949657499790196,7.7946210679008265
6.09467895841226,7.851509615778923,-1.067935320585966,-0.5960493761301041,7.946191789430269
6.104705958161503,7.546674383282662,-0.5410370171070099,-0.9279198680073023,7.6227324879348535
6.1147339581511915,6.895023248791695,-0.6431003125011922,-1.2811658799648284,7.042464740792329
6.124760958366096,5.643193434476853,-1.0261299213767052,-1.2838316255807878,5.87765245632205
6.134787958115339,4.386921490430832,-1.5266933888196945,-0.7755425244569779,4.709282224916101
6.144815958105028,3.717131123542786,-2.407556546330452,0.3786621773242951,4.444859655593756
6.154842958319932,2.8402195143699647,-3.2326667949557306,1.7380499155819418,4.640883429485351
6.164869958534837,2.0919823175668717,-4.056477207541466,2.66425808429718,5.284852740811115
6.174897958524525,1.655285355448723,-4.8010932236909865,2.860004737973213,5.8283868138416945
6.184924958273768,1.5892024630308152,-5.267606307864189,2.238493222743273,5.9400414637796395
6.194951958488673,1.787364601492882,-5.514589188694954,1.4005426347255707,5.963797935076701
6.204978958237916,2.5674837416410448,-5.841587707400322,0.8032974299043417,6.431283423060483
6.215006958227605,3.632070508003235,-6.042774025797844,0.8955933900922537,7.106978374973495
6.225033958442509,4.513984994888306,-5.766902391314507,1.711770043373108,7.520863009416893
6.235060958191752,5.548417085409165,-5.437499497532845,2.9527749073505403,8.310849089762685
6.245088958181441,6.745647938847542,-5.508005223870278,4.223902287483216,9.679010186752894
6.255115958396345,7.499262819886208,-5.47470591545105,5.338492103219033,10.710314917803974
6.265142958145589,7.979713327288628,-4.9702344614267355,6.215565680265427,11.269973918024615
6.275169958360493,8.332760607004166,-4.666331859827042,6.40565632224083,11.499651528561257
6.285197958350182,8.209694843888283,-4.517193946838379,6.074028562903405,11.166823790410842
6.295224958099425,7.67436587870121,-4.093507624268532,5.480878236293793,10.2806965985383
6.305251958314329,7.448297903537751,-3.735656272172928,4.822899245023728,9.627701001346075
6.315279958304018,7.5428970819711685,-3.3409411489963534,4.084137461185455,9.205289943946612
6.325306958518922,7.685193167924881,-2.6962335830926896,3.5717506313323977,8.89321494934984
6.335333958268166,7.6452251100540165,-1.9863418418169023,3.4901968833804133,8.635768360760459
6.34536095848307,7.419193387627602,-1.4845390570163728,3.3219207412004472,8.263379704796453
6.3553889584727585,7.165427736639977,-1.2375930136442186,2.8305154752731325,7.802999998218068
6.365415958222002,6.821070004105568,-1.122047354578972,2.31337485909462,7.2895603094780315
6.375442958436906,6.388341547250748,-1.161662240624428,1.8269192612171175,6.745220594808501
6.385470958426595,5.821104326248169,-1.3915671586990357,1.477299619317055,6.164748891842162
6.395497958175838,5.260265713334084,-1.4315743929147722,1.2361351566016674,5.589975916112167
6.4055249583907425,5.040584067106248,-1.2509784597158433,1.209400371015072,5.332455728991079
6.415552958380431,5.066739832162857,-1.1251785385608675,1.1946373209357262,5.325883738783278
6.425579958129674,5.218563956022263,-1.095780492424965,1.082302075624466,5.44109570156369
6.435606958344579,5.200289652943612,-0.7707127243280412,0.6542560690641404,5.297646796631576
6.445633958093822,5.645929931402207,-0.42145093202590944,-0.152488075196743,5.66369122494209
6.45566195808351,5.893965311050415,-0.44488657236099244,-0.8486353513598442,5.971342655526509
6.465688958298415,5.930390540957451,-0.46393270790576935,-1.3806553772091865,6.106633671374027
6.4757159585133195,6.080593231916428,-0.42077265501022343,-1.386884708404541,6.250928960853624
6.485743958503008,6.561852993965149,-0.4182507508993149,-1.2336467278003693,6.689897805949639
6.495770958252251,7.110135880708695,-0.5413679695129395,-1.1639262825250627,7.22508379963225
6.505797958467156,7.44276994585991,-0.5873136359453202,-0.9191960415244103,7.52227911850637
6.515825958456844,7.347967284321785,-0.5357388550043106,-0.8418163284659386,7.415409230993019
6.525852874852717,7.1085588866472245,-0.4146459424495697,-1.0616815772652626,7.199354726225509
6.5358798750676215,7.062943003177643,-0.38796041965484623,-1.5009217858314514,7.231074841303902
6.545906874816865,6.778352585434914,-0.57430650472641,-1.7072372817993164,7.013597569736145
6.555934874806553,6.461891334056855,-0.6390281653404236,-1.972307939529419,6.786338866987723
6.565961875021458,6.7091718381643295,-0.9489189004898072,-2.536075130403042,7.234992114769229
6.575988874770701,6.902732217907906,-1.1951293641328813,-3.179499524831772,7.6931959222134685
6.586016874760389,6.890285249948502,-1.3074187088012696,-3.863489270210266,8.006992184760225
6.596043874975294,7.148518173694611,-1.559420839548111,-4.461402153968812,8.569551599348511
6.606070875190198,7.188862792253494,-1.9896554589271547,-4.890809977054596,8.919557125930755
6.616098875179887,6.97136683523655,-2.459948183298111,-4.627202292680741,8.721370401108857
6.62612587492913,6.536277857422829,-2.9030209493637087,-3.6448493054509163,8.027165459944536
6.636152875144035,6.102041988372803,-3.296846711039543,-2.527696362733841,7.381962040415464
6.646179874893278,5.612370421886444,-3.628660411834717,-1.6552204513549806,6.8851748619382285
6.656207874882966,5.28747865498066,-4.160648862719536,-1.3203471949696541,6.8565112266363055
6.666234875097871,5.213005592823029,-4.753073549866676,-1.5765754008293154,7.22860467004155
6.676261874847114,4.933044415712357,-5.320118982195854,-2.1309043085575103,7.561702610149415
6.6862898748368025,4.496979537606239,-5.688356158733368,-2.5261810567975047,7.678659484699892
6.696316875051707,3.9082880052924156,-6.2630509185791015,-2.4270842000842094,7.771181355194685
6.70634387480095,2.880430231690407,-7.03766958296299,-1.4538555005192757,7.742051878861874
6.716371874790639,1.9985315322875978,-7.687667709589005,0.3843854320049286,7.952491135420579
6.726398875005543,2.36701370716095,-8.391112895607948,1.8594870829582215,8.914663298656563
6.7364258747547865,3.3037344387173655,-8.738753839731217,2.5787191665172577,9.691763124052697
6.746452874969691,4.276256794631482,-8.821980183720589,2.7623141366243362,10.185484079069846
6.756480874959379,5.017422661185265,-9.13717551290989,2.2792434918880464,10.67040099574564
6.766507875174284,5.680793370008469,-9.98893766283989,1.1325685420632363,11.546990969395647
6.776534874923527,5.9782219344377525,-10.709210550785066,0.41097096741199496,12.27172462429362
6.786562874913216,5.841744412779808,-11.248176484107972,0.8403045308589936,12.70250226162018
6.79658987512812,4.686648010611535,-11.795241980552674,2.7487322241067886,12.986451855491717
6.806616874877363,2.936224363446236,-11.855940756797791,4.681960882544518,13.080730195477287
6.816643875092268,1.718905400633812,-12.149449932575227,5.435430167913437,13.420419909628155
6.826671875081956,1.8831607049703598,-12.410873097181321,5.4042504751682285,13.666820715639743
6.8366988748312,3.240983582139015,-11.8472354221344,5.40348507463932,13.418592052783355
6.846725875046104,3.7476483267545704,-10.633735860586167,4.9952307236194615,12.331809936742228
6.856753875035793,4.167296562194824,-9.37850062787533,4.102448017001152,11.052271911083958
6.866780874785036,4.364336035251617,-7.886290608644486,3.2169456785917285,9.570253292969838
6.87680787499994,4.099672343730926,-6.13787781894207,2.947175028920174,7.9477479890409155
6.886835874989629,3.748707842230797,-4.207368700504303,3.132358687520027,6.447203487999129
6.896862875204533,3.304932240843773,-2.517843804359436,3.2012616920471193,5.245015820823443
6.906889874953777,2.3121697479486465,-1.231601956486702,3.20210544526577,4.137203355547256
6.916916875168681,0.682208098769188,0.04883652985095978,3.3447646433115006,3.4139776530933625
6.9269448751583695,-1.1518968057632446,1.239816125035286,3.3553241300582886,3.7579529391380744
6.936971874907613,-2.7971875154972077,2.0177203398942947,3.039709555506706,4.597313079257858
6.946998875122517,-3.937532562017441,2.592800431251526,2.532686376571655,5.351754575400239
6.957026875112206,-4.4612524652481085,3.3612350803613666,1.9492985612154008,5.916116944828816
6.967053874861449,-4.3730758684873585,4.488796944022178,1.8592362374067308,6.536807320297551
6.9770808750763535,-4.303902137875557,5.544546228647232,1.6638942110538484,7.213467296633052
6.987108875066042,-4.464234545230866,5.73218337893486,1.2332754296064377,7.369415489022223
6.997135874815285,-4.931224177479744,4.910051994323731,0.939722399711609,7.022012579313923
7.00716287503019,-5.875650662183762,3.3390791031718257,0.8842019176483155,6.815756230414363
7.017189874779433,-7.1506103074550635,2.284772619009018,1.4912756341695785,7.653451293810121
7.027217874769121,-8.43027813076973,1.8192731496691705,2.697453896999359,9.036348913232523
7.037244874984026,-10.099200947284698,1.2182577332854272,3.2528078216314316,10.679830073686215
7.0472718751989305,-11.432646782398225,0.8462058332562447,2.9511043578386307,11.83767264685806
7.057299875188619,-12.260799629688263,0.5628968328237534,2.3388014763593676,12.494560926642745
7.067326874937862,-13.05520117878914,0.054123874604702,1.4881362640857698,13.139853756908664
7.077353875152767,-13.776063466072083,-0.6799063423275948,0.4726930063962937,13.800928806927425
7.087381875142455,-14.507398116588593,-1.188194274008274,-0.9373472607135773,14.58612442128311
7.097408874891698,-15.32729001760483,-1.1890001665055752,-2.0262157595157624,15.506291980477762
7.107435875106603,-16.416488299369814,-0.8862765097618104,-2.653900911211968,16.653220835070712
7.117462874855846,-17.40685694217682,-0.5688071984052658,-2.8978163427114487,17.655581264587482
7.127490874845535,-18.326181914806366,-0.2956043793261051,-2.9232119697332384,18.560212653513545
7.137517875060439,-19.383504685163498,-0.31132403388619423,-3.26276329100132,19.65865714709263
7.147544874809682,-20.083805823326113,-1.3768612651526928,-3.7308428442478183,20.473743957103228
7.157572874799371,-20.681753790378572,-2.9146212404966354,-4.063478078842163,21.277730398673242
7.167599875014275,-21.177656149864198,-4.173199034035206,-3.993859959840775,21.951301272552673
7.177626874763519,-21.21875739812851,-4.748100492954254,-3.7764540499448778,22.069021931276676
7.187653874978423,-20.436727387905123,-4.728973665833474,-3.2293575632572176,21.223849050798123
7.1976818749681115,-19.168011399507524,-4.198034790158272,-2.2025274378061295,19.745563659346836
7.207708875183016,-17.692229132652283,-3.322263388037682,-1.2641539907455446,18.04578873349912
7.217735874932259,-16.03512120008469,-2.2925780671834946,-0.5461381280422211,16.207383902111953
7.227763874921948,-14.188406774997713,-1.35494692414999,-0.28768008649349214,14.255859420330625
7.237790875136852,-12.437520028352738,-0.7022962081432342,-0.3615743473917246,12.46257840209399
7.2478178748860955,-10.780317370891572,-0.43654025673866276,-0.6378821110725403,10.807992579592494
7.257845874875784,-9.62504964530468,-0.5464746353030205,-0.8355074751377106,9.676687860142039
7.2678728750906885,-9.475322917699815,-0.18460800021886825,-1.2706367987394334,9.561921479636974
7.277899874839932,-9.540708822011949,0.6770698580145836,-1.9019150644540788,9.751965408646909
7.287926875054836,-9.385659958720208,1.102180854678154,-2.3906575083732604,9.74785406227875
7.297954875044525,-9.339576297998429,0.923449306190014,-2.4251028710603717,9.693377532236228
7.307981874793768,-9.475383144021034,0.7475416705012322,-1.949977422952652,9.702789095160153
7.3180088750086725,-9.225991795063019,0.8774001440405846,-1.1219526296854019,9.335284319108368
7.328036874998361,-8.96256420493126,0.8850152653455735,-0.07530396063812077,9.006468777156648
7.338063874747604,-9.153054211735727,0.4868420988321305,0.9630522054433823,9.216446505165521
7.348090874962509,-8.971784094572067,0.14447358906269075,1.8504168820381166,9.1617588428688
7.358118874952197,-8.123806262612343,0.20256626129150393,2.310202159881592,8.448330918127834
7.368145875167102,-6.140700269937516,0.1792437645792961,2.2976709920167924,6.558934373806973
7.378172874916345,-2.9398905676603317,-0.7443540608882905,2.1910639715194704,3.7413608279701855
7.388199875131249,-0.0672073119878769,-2.414976662993431,1.878767107129097,3.060456656843511
7.398227875120938,1.9948676669597627,-4.9824370157718665,1.3735279136896135,5.539923695729003
7.408254874870181,2.554018188714981,-8.49636687040329,1.8354298835992815,9.05980473091903
7.418281875085086,2.522164312005043,-12.052397847175598,3.1473106026649478,12.709333999584794
7.428309875074774,2.9342602837085727,-14.64317046403885,4.54325732588768,15.610045220327882
7.438336874824017,4.6580071789026265,-15.385647568702698,5.805413907766343,17.09146022513941
7.448363875038922,8.592020886540414,-15.0895702958107,6.547917324900627,18.557833276562572
7.45839187502861,12.717129203081132,-13.580195775032044,6.819763736128808,19.815556259481454
7.4684188747778535,15.699885123968125,-11.02825568675995,6.809267399311066,20.358657591149502
7.478445874992758,16.955402777194976,-8.625406733751298,7.105838177204133,20.307049536064195
7.488472875207663,16.592061474323273,-6.765333175063134,7.482003008723259,19.417687966384577
7.498500875197351,15.386377301216127,-5.347786837220192,7.103147873282433,17.770597632647057
7.508527874946594,13.652380821704865,-4.058327851295472,5.932404906749726,15.42889999407228
7.518554875161499,11.591024465560913,-3.4479808634519578,4.106945110559463,12.77135146870177
7.528582999948412,9.44491271853447,-3.617480535507202,1.9565333211421967,10.301483598115729
7.538610000163317,7.248375168442727,-4.332687980532646,-0.25004799127578736,8.448292828559522
7.54863699991256,5.372406538724899,-4.97331535935402,-1.811483781337738,7.541756504354296
7.558664999902248,3.7797784844040874,-5.076322833895683,-2.8434939551353455,6.938388629789053
7.568692000117153,2.6912134560942653,-4.607926361560822,-3.669988824427128,6.476452207130847
7.578718999866396,2.272677068710327,-3.684507753252983,-3.7735620170831683,5.742858934293607
7.588746000081301,1.6677966427803042,-2.363177933692932,-3.2734248116612434,4.368233691729633
7.598774000070989,0.7731855118274689,-1.3721058708429337,-2.264556455612183,2.7583883514031093
7.608800999820232,0.7840271267294884,-1.169188776612282,-1.1754412043094635,1.8339473699079545
7.618828000035137,1.0946212819218637,-2.0680221819877627,-0.056635838449001316,2.3405382103752363
7.628856000024825,1.08340807646513,-3.2618657433986664,1.4705957865715027,3.738474709769944
7.638882999774069,0.8704260237514974,-3.965094582438469,2.954523809552193,5.020839317456549
7.648909999988973,0.6402847319841385,-3.914865245819092,3.9045127505064015,5.566089673172832
7.6589379999786615,0.8298897626996041,-3.150413135290146,4.343009485602379,5.429139096880327
7.668965000193566,1.52789206802845,-2.0944480884075167,4.384825263619423,5.093904156838181
7.678991999942809,2.671512140035629,-1.2346957182884217,3.771934152245522,4.784238484857716
7.689019000157714,3.208075160086155,-0.5770201975107193,3.180928291976452,4.554448741592482
7.699047000147402,3.191301544904709,0.11177946746349335,2.8734828624129296,4.295789096363834
7.7090739998966455,3.2465208953619005,0.5355260163545609,2.2133836707472803,3.9655709944653275
7.71910100011155,3.5216864785552024,0.37426507115364077,1.1286272263526917,3.7170081265432757
7.7291290001012385,3.5237160471081737,0.2806979262828827,-0.0774791157245636,3.5357275234158845
7.739155999850482,3.0692993903160097,0.48848165810108185,-1.2163240590691566,3.3374627030673887
7.749183000065386,2.6919920128583907,0.9037912595272065,-2.0196423196792606,3.484625480238955
7.759211000055075,2.540432767868042,1.2230188286304475,-2.4984708094596866,3.7672178180939335
7.769237999804318,2.4290360006690026,1.5640319538116456,-2.658855257034302,3.9263116436356498
7.7792650000192225,2.6386607283353807,1.9153665840625764,-2.6568555092811588,4.205953017783317
7.789291999768466,3.3319539785385133,2.0247048389911653,-2.857084053754807,4.833660754578549
7.799319999758154,4.170838220715523,1.9751754140853883,-2.5702214080095294,5.2823524556753405
7.809346999973059,5.113390672802925,1.2142596995830537,-1.791355910897255,5.552490143192153
7.819374000187963,5.244617394804955,0.34520382463932037,-1.0434745171666147,5.358546105653326
7.829402000177652,4.878986322283745,0.051857201457023626,-0.6191517251729965,4.918388512628859
7.839428999926895,4.715639967620373,-0.07902687370777131,-0.5478922927379608,4.748019746739513
7.8494560001417994,4.419758868813515,-0.16203687071800232,-0.7573588532209397,4.487105619269502
7.859484000131488,3.497621093094349,-0.14885841608047487,-1.0570754331350327,3.6569004102154756
7.869510999880731,2.374788457453251,0.09166855394840241,-1.270062017440796,2.6946392837598814
7.879538000095636,1.1682128763198854,0.08015830993652344,-0.971029854118824,1.5211987564554095
7.889564999844879,0.1668804118037224,-0.32821766316890716,-0.36766239523887634,0.5203379124498098
7.899592999834567,-0.3387318339943886,-1.0531338250637055,0.24888322591781617,1.13391929562812
7.909620000049472,-0.5505846066400409,-1.9356394654512405,0.6973719754815102,2.129828918356664
7.919646999798715,-0.6418088087439537,-2.648195782899857,0.8167493149638176,2.8446333498438396
7.9296749997884035,-0.6343281733989716,-3.008947938680649,0.5369053745269776,3.1216033236870686
7.939702000003308,-0.46828186690807344,-3.040552724003792,0.1081787520647049,3.0783033340981953
7.949728999752551,-0.6162652471661568,-2.9732536107301715,0.06276021212339401,3.0370970897899427
7.959757000207901,-1.075593565106392,-2.541022167205811,0.5936765760183335,2.822436367474464
7.969783999957144,-0.8602178084850312,-2.267450242638588,0.8600912162661553,2.5731424719931026
7.979811000172049,-0.12080552190542222,-2.2421271210908893,0.456640060544014,2.291341996766917
7.989837999921292,0.7472267979383469,-2.379873488545418,-0.15563650846481325,2.499273580824166
7.9998659999109805,1.6473547768592836,-2.372942199110985,-0.8604847338795663,3.01414439242757
8.009893000125885,2.291468265652657,-2.1166359329223634,-1.4115845167636871,3.423966315984766
8.019919999875128,2.7007552349567416,-1.7837492680549623,-1.5412576335668564,3.58487313352383
8.029947999864817,3.2049930927157404,-1.4069950371980668,-1.310350502729416,3.7374636050480583
8.039975000079721,3.793444304466248,-1.2105864787101746,-0.9942067551612854,4.104166953905707
8.050001999828964,4.478868664205074,-1.6332010066509248,-0.7209488260746002,4.821553406231448
8.060029999818653,5.315102655887604,-2.5759148418903353,-0.48988966763019565,5.926689244573668
8.070057000033557,5.283389112353325,-2.707505845427513,0.12160688281059266,5.937977488127142
8.0800839997828,5.002466068267823,-2.4520947879552843,0.5571683156490326,5.598917051113687
8.090111999772489,5.2664076286554335,-2.5471494644880295,0.6056344243884086,5.881310462950079
8.100138999987394,5.382614607810974,-2.932703754901886,0.37008840501308443,6.140867752831095
8.110166000202298,5.277393377423286,-3.452042924165726,-0.058919176161289215,6.3064215431315205
8.120192999951541,4.857995695173741,-3.8597201550006868,-0.3778353810310364,6.216133961265957
8.13022099994123,4.086925121247768,-4.505248669981957,0.14767815560102462,6.084573227655494
8.140248000156134,3.3336505481600764,-5.753438007831574,1.199180607497692,6.7567232455242285
8.150274999905378,2.0682177713513377,-6.4400601696968085,2.051655825376511,7.068323094260063
8.160302999895066,1.032842524945736,-7.1205041635036475,2.6657187187671663,7.67296549655964
8.17033000010997,0.6625149688124657,-7.906660553812981,2.886498472094536,8.443108469428003
8.180356999859214,0.5416270011663438,-7.803416851758957,2.204589166045189,8.12692363454659
8.190384999848902,1.3579333895444872,-7.547305297851563,1.3573703026771546,7.787698921248042
8.200412000063807,2.5386002504825593,-7.412246310710907,0.1541624253988266,7.836431117275415
8.21043899981305,3.5517856058478356,-7.433021467924118,-0.9892056316137314,8.297199341593826
8.220466000027955,4.044526668190956,-7.750265076756477,-1.8332041409611703,8.932269708877811
8.230494000017643,4.496090760827065,-8.101457619667054,-0.49472619205713275,9.278642233536285
8.240520999766886,4.914489446282387,-7.918754349946976,2.6263774824142456,9.682806186873602
8.25054799998179,5.709155289530754,-8.575563898086548,4.5667385745048525,11.268977393624185
8.26057599997148,6.339698560237885,-9.503487786054611,5.500445358753205,12.679233300125096
8.270603000186384,6.058535780310631,-9.771494330763817,5.792725449800492,12.874145618029177
8.280629999935627,5.364506950378418,-9.505470576882363,5.594339947700501,12.264931518727382
8.290657999925315,4.761785024106503,-8.73217747628689,5.043538080453873,11.151806869837971
8.30068500014022,4.248927201032639,-7.5458598661422736,4.189488792121411,9.620041570515308
8.310711999889463,3.917162616848946,-6.445214490294457,2.797855559885502,8.044435873740477
8.320739999879152,3.5615519177913666,-5.630624259710312,1.3695216938853265,6.801777068324439
8.330767000094056,3.2838425034284593,-4.8354005920887,1.4590025120973589,6.024401115762582
8.3407939998433,2.1176805379986763,-3.356444456577301,3.6406249845027925,5.3855770841101895
8.350821000058204,0.3456520137190819,-1.77463813662529,5.716510502099991,5.995607404689906
8.360849000047892,-0.9884343838691712,-0.36166490614414215,7.182808585166931,7.2595139786833425
8.370875999797136,-2.5008202207088472,1.5215338057279588,7.658922797441483,8.199284439232983
8.38090300001204,-4.236095486283302,3.279391018152237,6.84019800066948,8.688338109627761
8.390931000001729,-6.116962913274765,4.0989391028881075,4.722047638893128,8.747357941432387
8.400957999750972,-9.585324831604957,3.3128581416606906,-0.05913274571299553,10.141842923047353
8.410984999965876,-13.836814867258072,1.554336685538292,-6.977421627044678,15.57426790460261
8.421012999955565,-12.925190677642822,2.6412674170732497,-7.4638772249221805,15.157384696926767
8.43104000017047,-10.979040842056275,5.18550145983696,-3.7236592474579813,12.700173281994633
8.441066999919713,-10.236968364715576,5.825280992388725,-1.6809774363040926,11.897693267261364
8.451094000134617,-10.648519960641861,4.794387052059174,-0.9603950844705106,11.717486218272924
8.461122000124305,-9.94065837264061,4.262894445061684,-1.3216498084366322,10.896591951038097
8.471148999873549,-9.428717685341836,4.50327757358551,-1.9460375690460205,10.628607073119912
8.481176000088453,-8.701422876119613,4.712814885377884,-2.902829160690308,10.312700972541144
8.491204000078142,-7.939023723006249,4.903041182756424,-4.418542940318584,10.324312675897641
8.501230999827385,-7.2076756238937385,5.121339962482453,-4.746091389656067,10.03514296806773
8.51125800004229,-6.603700931668282,5.7628374069929125,-3.519132707118988,9.444758122083803
8.521286000031978,-6.416718084812165,6.626597458720208,-3.0899961948394776,9.728008087167437
8.531312833540142,-6.137732807993889,6.910144148468971,-2.9298994302749635,9.695677740440328
8.541339833289385,-6.368136493563652,7.128492044806481,-1.277998004704714,9.643746167001476
8.55136683350429,-7.525230304598809,7.084974142313004,0.7241254721581937,10.360999345329796
8.561394833493978,-8.734388308525086,6.495627429485322,1.8730432677268982,11.044953866339092
8.571421833243221,-9.718560656905174,5.4028769642114645,2.0645452813804153,11.309458340310652
8.581448833458126,-10.474331406354905,4.022727078795433,1.490947459191084,11.318872553690808
8.591476833447814,-11.328079855442049,3.295786026120186,0.5506005768477917,11.810620632992414
8.601503833197057,-11.733420538902283,3.442655219435692,-0.2744630402326584,12.231122698391
8.611530833411962,-10.998883953094483,4.072477528452874,-0.80932378962636,11.75650995958614
8.62155883340165,-9.513918634057045,5.071974259614945,-1.0391100092232228,10.831404353864846
8.631585833150893,-7.882819701433182,6.396143487095833,-1.08444566488266,10.209090084473953
8.641612833365798,-6.1637201732397084,7.501472482681275,-1.1212975953519344,9.773476560557587
8.651640833355486,-4.340591077208519,8.38569661974907,-1.1097091448307037,9.507475642047897
8.66166783310473,-3.372343035936356,9.547229636907579,-0.8356402069330215,10.159753237520976
8.671694833319634,-3.478237573206425,10.59257730960846,-0.2943175533413887,11.152912332565956
8.681721833534539,-4.135678912997246,11.08227460384369,0.2452708160877228,11.831348538507063
8.691749833524227,-5.173732184171677,11.304333143234253,0.13356780096888543,12.432750817265417
8.70177683327347,-6.160013038516045,10.903500663042069,-0.5554854869842529,12.53557543433474
8.711803833488375,-6.898846158385277,10.021914789676666,-1.4847380085289479,12.25713267132969
8.721831833478063,-7.646524361371994,9.507181472182275,-2.335415499955416,12.422157619008596
8.731858833227307,-8.149376136660576,9.278654158115387,-2.53887448489666,12.607602391126717
8.741885833442211,-7.782612458467484,9.068947277069093,-2.2306927447021008,12.156926071759209
8.7519138334319,-6.877185732722283,8.894191542863846,-1.7251497884094715,11.37446564001839
8.761940833181143,-5.868618215918541,8.304523817896843,-0.7501363724470139,10.196494504656728
8.771967833396047,-5.517159039974213,7.124598968625069,0.8752311193943024,9.053451488159572
8.78199483314529,-5.7094020420312885,5.777042047977448,3.0563326048851014,8.678286437617409
8.792022833134979,-5.111784442663193,3.898704711198807,5.204544671773911,8.271488611723251
8.802049833349884,-3.8316944503784183,1.0862512850761414,6.038037196397782,7.233236993246766
8.812076833099127,-2.4841664734482767,-2.4326013404130937,4.737731040716172,5.876625542209539
8.822104833088815,-1.2724052891135216,-5.5427920639514925,2.2466512580215934,6.114654606691838
8.83213183330372,0.5447155004739762,-7.727253359556198,0.13462526991963386,7.747598558426353
8.842158833518624,2.9579955938458444,-9.074554172158242,-1.0028729134798051,9.597032116088675
8.852186833508313,5.55772468328476,-9.438575506210327,-0.7329180765151978,10.977803976593359
8.862213833257556,8.72985730111599,-9.964602720737458,1.2131898052990437,13.303215603141146
8.87224083347246,11.557142189741135,-10.841308507919312,3.643398318886757,16.259638897215552
8.882268833462149,12.60579003095627,-10.660219069719314,6.630743719339371,17.790811538277907
8.892295833211392,12.228982590436937,-9.48028077185154,9.338997423648834,18.073201475921948
8.902322833426297,10.968600053787233,-7.70836977660656,10.920166397094727,17.29101459987469
8.91234983317554,9.471666069030762,-5.978455238342286,11.002440229654313,15.700575663561086
8.922377833165228,8.20809738457203,-5.3018160277605055,9.367875652313232,13.536587830913648
8.932404833380133,7.2860628122091295,-5.685698014497757,6.361848982572556,11.219937419280912
8.942431833129376,6.547633734941483,-5.528132509589195,3.3348503968119623,9.19526963931116
8.952459833119065,5.22342942416668,-5.0237014013528825,0.6380876407027245,7.275228282083163
8.96248683333397,2.140065726041794,-5.62862685084343,-3.0805526491999626,6.763957877035259
8.972513833083212,-1.4635203632712366,-8.960044054985048,-8.044473579525947,12.130038602274663
8.982541833538562,-6.063780148029328,-13.261833593845369,-13.08927524328232,19.595274592331783
8.992568833287805,-10.76855277299881,-15.134257056713105,-17.64790256023407,25.621395946728722
9.00259583350271,-12.689138581752777,-13.009297027587891,-17.61731226682663,25.310585504997984
9.012623833492398,-11.111764451265335,-8.660281866788864,-14.367656679153443,20.122160661386705
9.022650833241642,-6.26646101474762,-5.420835517644883,-10.343787639141084,13.253223535516177
9.032677833456546,-1.3604900845885277,-3.7324063897132875,-6.806882320046425,7.881334763045969
9.042705833446234,2.664904201626778,-2.52835709810257,-3.697300876379013,5.211941844442119
9.052732833195478,5.44623757660389,-1.3258842158317568,-0.8355220931768418,5.667236527867054
9.062759833410382,7.9548994982242585,-0.5611467611789703,1.7917140528559685,8.173466275799502
9.072786833159626,8.850511672496797,0.039252358675003055,3.930353058278561,9.684047334424964
9.082814833149314,7.826124513745309,0.7956768268346787,5.290405186414719,9.479963794965185
9.092841833364218,5.788568079471588,1.575481971502304,6.304287237524987,8.702511213806426
9.102868833113462,2.7799706813693046,1.8206662487983705,8.21409896671772,8.86083993839295
9.11289683310315,0.7984595898538829,0.2596818637847901,9.876224395036697,9.911850517846117
9.122923833318055,-0.4726618699729443,-1.7018666142225267,9.849140092134476,10.00626402661964
9.13295083353296,-1.055856873393059,-2.919683175086975,7.919595179557801,8.506431178117676
9.142978833522648,-1.1389805987477304,-3.3602977716922764,4.828694420456887,5.99209209916831
9.15300583327189,-0.9176940380036831,-2.696262819170952,1.9576790830492974,3.4560820200973144
9.163032833486795,0.3730940200388432,-1.4272351741790772,0.35489558458328246,1.5172838449543433
9.173059833236039,2.079675244241953,-0.26037300467491153,-0.6965165278315545,2.2086146102520448
9.183087833225727,3.9530347001552584,0.5417772746086121,-1.2868841645121576,4.192383189641193
9.193114833440632,5.505683879256249,0.9425688242912293,-1.343117129802704,5.744993872163602
9.203141833189875,5.712063109874726,1.0177505689859392,-1.3114249286055566,5.948387725697697
9.213169833179563,5.116069867014885,0.9492112612724305,-1.4720897501707078,5.407607709076331
9.223196833394468,4.273358329832554,0.7606104898452759,-1.6888027650117876,4.65748585736161
9.233223833143711,3.2251902526617053,0.4972308468818665,-1.5209484994411469,3.6003298486259854
9.2432518331334,2.272535273730755,0.41053885817527774,-1.0213594704866409,2.5251007687565914
9.253278833348304,1.5609990030527117,0.24739335536956789,-0.3636243081092835,1.6217718696723433
9.263305833097547,0.7406302616000175,-0.29398280024528506,0.4353965413570404,0.9080359130912403
9.273333833087236,0.037608413994312286,-0.7983747321367264,1.1228104162216188,1.3782306905933135
9.28336083330214,-0.35445967465639117,-1.1756306540966035,1.2602983367443086,1.7595740943221438
9.293387833517045,-0.47373293370008474,-1.5491437733173372,0.6905193310976029,1.7609901389557658
9.303414833266288,-0.5682232077419758,-1.7796813601255417,-0.10451167076826096,1.871113584666001
9.313442833255976,-0.6453416964411736,-1.6148559522628785,-0.3307413214445114,1.7702020996019867
9.323469833470881,-0.5689361295104027,-1.2897799980640412,-0.09107506155967712,1.4126271375371686
9.333496833220124,-0.31845924496650696,-1.0552961254119873,0.015481088161468507,1.1024091196578762
9.343524833209813,0.10578417107462884,-1.076103442311287,-0.09333354860544205,1.0853110432956223
9.353551833424717,0.5945127278566361,-1.2196344602108002,-0.07465081751346589,1.3588695098031516
9.36357883317396,0.9423264572024346,-1.1534334540367126,-0.2542948240041733,1.5109777438301553
9.373606833163649,1.2159185546636582,-0.9334974539279938,-0.6582690131664276,1.6682905987148966
9.383633833378553,1.4818217097222806,-0.7391167098283768,-0.9620537933707237,1.9151074621260258
9.393660833127797,1.8304410392045976,-0.576338996887207,-1.1760241717100144,2.2507140844148963
9.403688833117485,2.2859356302022937,-0.4169322037696839,-1.2665817546844482,2.6464246653302146
9.41371583333239,2.574888363182545,-0.23422074794769288,-1.2017507511377334,2.8511601690333306
9.423742833081633,2.6965063557028772,-0.21177153289318085,-1.401056897342205,3.0461375770112724
9.433769833296537,2.5668560430407523,-0.19196818292140963,-1.91453891068697,3.2079683554367278
9.443797833286226,2.170905403196812,-0.25534849226474765,-2.8864815151691436,3.6207469753552437
9.45382483350113,1.88785046428442,-0.5328304499387742,-4.3766034936904905,4.79609693447335
9.463851833250374,1.5582967123389244,-0.9906656813621522,-5.128402814269066,5.450708445818572
9.473879833240062,1.042802087366581,-1.7424749422073365,-4.8054178243875505,5.216866452630175
9.483906833454967,1.128450713530183,-2.5699003958702087,-3.7206643036007883,4.660593515599679
9.49393383320421,1.4115479716658592,-2.8716249096393587,-2.117753920555115,3.8371316065521937
9.503961833193898,1.7160481587052345,-2.867007948160172,-0.5577009969949722,3.3875634694952077
9.513988833408803,1.6126790338754655,-3.3460247182846072,1.2617157018184662,3.922823166278128
9.524015583097935,1.9306634849309923,-2.8629979276657105,2.1999973475933077,4.094411673889379
9.534043583087623,2.3612696948647502,-2.4000598311424257,2.6732937866449356,4.299114029037204
9.544070583302528,1.6124261417984964,-2.5754476493597034,3.572297638356686,4.68979307372472
9.554097583517432,1.6262904748320581,-3.4481685590744022,3.6809026524424553,5.2994085950298855
9.564124583266675,1.3911952757835389,-4.670364099740982,3.415765336453915,5.951065278858228
9.574152583256364,0.6665036469697952,-5.3603641980886465,3.4268551656603816,6.3969576967483395
9.584179583471268,0.13777940422296525,-5.730629189014435,3.3700374788045884,6.649529808547357
9.594206583220512,0.15235271215438845,-5.842602199316025,2.9877547055482867,6.563984307482704
9.6042345832102,-0.12312365055084229,-5.720582503080369,3.0483716207742693,6.4832702509008655
9.614261583425105,-0.21128445982933045,-6.010639482736588,4.07197671443224,7.2631551323977455
9.624288583174348,-0.20950661391019823,-6.3445763075351715,5.2187995988130575,8.217871427321072
9.634316583164036,-0.2976790810748935,-6.47627431511879,5.734213532209397,8.655168783620011
9.64434358337894,-0.02296113878488541,-7.298967032432556,5.644535955190658,9.226929776684752
9.654370583128184,0.7175252813100815,-8.335039851665497,4.776536672115326,9.633433159483365
9.664398583117872,1.6095814713835717,-8.771350312829018,3.6343845435976982,9.629957935221153
9.674425583332777,2.7769257438182833,-9.137619901299477,2.308133707344532,9.82521731353994
9.68445258308202,3.501211283504963,-9.27718884587288,1.2505691546201707,9.994430276119697
9.694479583296925,4.237951392531395,-9.075818340182305,1.1193941804766656,10.078876617993362
9.704507583286613,5.180689786076546,-9.020582032799721,1.4576863038539887,10.504060939963672
9.714534583501518,6.167240197062493,-9.16946442246437,1.8829288628697396,11.209788157932834
9.724561583250761,6.759490637183189,-9.072242767810822,2.4462934729456904,11.575001264278102
9.73458958324045,6.484021875858307,-8.799733867049218,2.596252627372742,11.234695524251734
9.744616583455354,5.889406821727753,-8.739197058677673,2.2129410365223885,10.76827683398503
9.754643583204597,5.249059524536133,-8.893030285835266,1.9063434532284738,10.501083702103028
9.764671583194286,4.39546485722065,-8.729363796114923,1.919800966233015,9.960298155473705
9.77469858340919,3.2842430377006533,-7.743612699508668,2.1350018911063673,8.678019534761654
9.784725583158433,2.4332658764719963,-6.212841462492944,2.4674758887290955,7.11397351169752
9.794753583148122,1.7263769727945328,-4.2769347792863845,2.8521963661909107,5.422874945061644
9.804780583363026,0.832970952987671,-2.15956092774868,3.1437128108739856,3.9039049996680433
9.81480758311227,-0.21643410265445712,-0.4008418357372284,3.369187878370285,3.3998448284923675
9.824834583327174,-1.8634152424335482,0.9868632370233537,3.4573369932174685,4.049616586664952
9.834862583316863,-4.209835056066513,2.4588489067554473,3.592301255464554,6.055846551519549
9.844889583531767,-6.689607054591179,3.7063950508832932,3.2124860072135926,8.29507523561971
9.85491658328101,-8.840824590325356,4.624040118455887,2.240796294808388,10.225609736774528
9.864944583270699,-10.643434052467347,5.41064323604107,1.1104568575322629,11.991282795822093
9.874971583485603,-11.765770844221116,5.8710301923751835,-0.31187264889478683,13.152932130427546
9.884998583234847,-12.168843977451326,5.969373342990876,-1.6852728009223938,13.658489164951309
9.895026583224535,-11.568013333082199,6.089200333356858,-2.6895508003234863,13.346571720169997
9.90505358343944,-9.92073807835579,6.371807960271836,-3.0100621256232265,12.168872367727154
9.915080583188683,-8.40630454659462,6.980415986180306,-3.3995381435751915,11.443295987600845
9.925107583403587,-7.246145040392876,7.262242425084114,-4.023042536079884,11.019603179525564
9.935135583393276,-6.636634204387665,6.975254648923874,-5.1801898491382605,10.933135774026475
9.945162583142519,-6.795449259281159,6.478426090478897,-7.657858604192734,12.115730834211828
9.955189583357424,-6.976904733181,6.603322616815567,-9.302934136390686,13.372570911520885
9.965217583347112,-6.521752789020539,6.882942901253701,-8.17716502904892,12.520950057216766
9.975244583096355,-5.661955980062485,6.762589076757432,-5.556019635200501,10.423996869146585
9.98527158331126,-5.180933614969254,6.546564863920212,-2.891067778766155,8.835035797417738
9.995299583300948,-5.421666406989098,6.515455922484398,-1.204014208316803,8.561266420357436
10.005326583515853,-5.641011838316918,6.446414923667908,-0.13786243468523027,8.567163239895532
10.015353583265096,-5.980249748826028,6.35202975332737,0.43243536517024045,8.734910954929068
10.025381583254784,-6.681634960770607,6.235281322002411,0.2367642867565155,9.14215708905658
10.035408583469689,-7.516750672459603,5.88227263391018,-0.2624815106391907,9.548380415284988
10.045435583218932,-8.165962933301927,5.485131500959397,-0.9814732736349107,9.885995549146163
10.055462583433837,-8.745297458767892,5.326362054347992,-1.6643878622353079,10.374032356431444
10.065490583423525,-9.388129822611809,5.361764606237411,-2.307931101322174,11.05495577681628
10.075517583172768,-9.745071932673454,5.524938760399818,-2.8653455847501754,11.562939963486603
10.085544583387673,-9.401040474772454,5.651345037817955,-3.231457298398018,11.435015479488838
10.095572583377361,-8.716448466181756,6.102314468622208,-3.0394376599788666,11.065843710556193
10.105599583126605,-8.228442186713218,6.949688867926598,-2.5622820585966113,11.071166403268935
10.115626583341509,-7.875872624516488,7.662510648965836,-2.234860932379961,11.213297571642398
10.125654583331198,-7.856450513005257,8.276052555441856,-2.260008491277695,11.632905868457096
10.13568158308044,-8.211557182073594,8.720908137559892,-2.6774903333187106,12.274072860433815
10.145708583295345,-8.609506400227547,8.809540232419968,-3.4664644968509677,12.79640479471142
10.15573558351025,-8.74949459016323,8.533269817829133,-4.344121041297913,12.97080325148048
10.165763583499938,-8.740450701713563,8.417793155908585,-5.095105844736099,13.161110274357954
10.175790583249182,-8.370228980183601,8.659183174967767,-5.4796491515636445,13.231354475736126
10.185817583464086,-7.418811564445496,9.105046817064286,-5.203344823122025,12.845833562598944
10.195845583453774,-6.2484755641222005,9.456535229086876,-3.9347867095470432,11.998001994666508
10.205872583203018,-5.870717366337776,9.65388460457325,-2.224794365912676,11.515750966586292
10.215899583417922,-5.694591629505158,8.960828166604042,-0.4005005045235157,10.624745451650037
10.22592758340761,-5.729923430085183,7.313692660331727,2.4225201559066774,9.601600218203393
10.235954583156854,-5.7765473735332495,5.466427427530289,5.230638456344605,9.518923628232363
10.245981583371758,-4.690540502071381,2.948230451345444,6.448395375609398,8.501472573383582
10.256008583121002,-2.7084285360574722,-0.18768509745597842,4.730600945949555,5.454300701332509
10.26603658311069,-1.0316648957133294,-2.6377783834934236,0.5144009032845498,2.878682953500148
10.276063583325595,-0.20291446298360827,-4.485822465419769,-3.7180251628160477,5.829878950877618
10.2860905835405,-0.0033144941926002503,-5.982105070352555,-6.375126839876176,8.74230142943602
10.296118583530188,0.007180673182010651,-6.89903034567833,-6.508231687545777,9.484395129444616
10.30614558327943,1.1985225033760072,-7.847201972007752,-4.098359059095383,8.933732812092057
10.316172583494335,3.9988929507136346,-9.46428454399109,-0.6477979655563831,10.29482729165841
10.326200583484024,6.681041468381882,-10.965879929065705,3.146595488190651,13.22073753189383
10.336227583233267,8.987180982828141,-11.772283473014832,6.841596654653549,16.314518839735744
10.346254583448172,10.505128691196441,-11.121373765468597,9.160628110170364,17.831427049529584
10.35628258343786,10.674735367298126,-8.88331455230713,8.975422232151033,16.535460587551473
10.366309583187103,9.592957786917687,-5.866904397010804,7.439749858975411,13.48314815869699
10.376336583402008,8.207401565909386,-2.7720819103717806,5.979151057004929,10.525973871542028
10.386363583151251,7.300923510789872,-0.7069219404459,4.595640192031861,8.655814896063037
10.39639158314094,6.424407758116723,0.0017091411352157593,3.206563947200775,7.180185952411092
10.406418583355844,5.153523037433625,-0.2562594884634018,2.0592431724071503,5.555623373294133
10.416445583105087,3.877249522805214,-1.4287858557701112,1.1167294581234455,4.280371194929556
10.426473583094776,2.1135772544145586,-3.123871454000473,0.20257751718163491,3.7771443342775624
10.43650058330968,0.3769881194829941,-4.521301031112671,-0.7451387572288514,4.597772811231149
10.446527583524585,-1.0399302273988724,-4.700973104238511,-1.6236565965414047,5.081029792091771
10.456555583514273,-1.5383740791678429,-3.2800459063053133,-2.6637689647078515,4.496772292685776
10.466582583263516,-0.024930188655853273,-1.7240743392705917,-3.496075089275837,3.898152751174946
10.476609583478421,1.8693621531128883,-0.401040056347847,-4.043025980293751,4.472293266727551
10.48663758346811,2.3682363599538805,0.7397511327266694,-4.777842063009739,5.383637243912628
10.496664583217353,2.010585567355156,1.197891588807106,-5.333907301425934,5.824771727921752
10.506691583432257,1.1232381400465965,0.22886294424533846,-4.7186887058615685,4.855930937454682
10.5167185831815,-0.7234148892760277,-1.5368780690431596,-2.639233170747757,3.1386103661823554
10.526746583171189,-3.01700013935566,-3.4738471913337707,0.9771828791499139,4.703699663978698
10.536773583386093,-4.651495427191258,-5.769278699755669,4.853509418964387,8.85875499743681
10.546800583135337,-5.239337943792344,-7.240143458247185,7.302379467487335,11.541017514605993
10.556828583125025,-5.214352791309357,-6.959894013404846,8.010500671863557,11.8236086168306
10.56685558333993,-4.444993112683297,-5.832057330608368,7.000247402787209,10.137767021367862
10.576882583089173,-3.101028136610985,-4.729226850271226,4.653448104858398,7.323697247291802
10.586910583078861,-1.5931291607022287,-3.9027182400226597,1.970873032808304,4.653344033610276
10.596937583293766,-0.1070452693104744,-3.466900114417076,-0.6279127545654773,3.524929718501192
10.60696458350867,0.753074598312378,-3.183034751415253,-2.742228366136551,4.2683308202837855
10.616992583498359,0.5812328240275383,-2.860061455965042,-3.2837159112095833,4.393241777224978
10.627019583247602,-0.06260759979486466,-2.8271995192766193,-2.592686995267868,3.836535245345877
10.637046583462507,-0.7202860441803932,-3.042967039346695,-1.4053835445642473,3.4283470208430473
10.64707358321175,-0.9343116787075997,-3.3306523883342747,-0.31825342297554016,3.4738262602096075
10.657101583201438,-0.9528806814551354,-3.4450631028413774,0.8396683537960052,3.671714084731538
10.667128583416343,-0.7440966372191906,-3.1903923028707504,1.8959150902926922,3.7850729030412853
10.677155583165586,-0.14019635081291199,-2.7450537407398223,2.5801833093166353,3.7699232042585553
10.687183583155274,0.7144598785042763,-2.212675280570984,3.022821334898472,3.8136378482965068
10.697210583370179,1.8493703766167164,-1.8157797306776047,3.0667231070995333,4.0152232112132085
10.707237583119422,3.0814551669359207,-1.6048338246345522,2.7187178814411164,4.411607923353448
10.71726558310911,4.0122956460714345,-1.4929958850145342,2.0844527117908003,4.761564466837149
10.727292583324015,4.482206547260285,-1.4022430050373078,1.3609125459194185,4.889636380664712
10.73731958353892,4.781838342547417,-1.1953644222021103,0.77928518101573,4.990206351392088
10.747347583528608,5.330294891595841,-1.0553177601099015,0.6063312663137913,5.467483590344445
10.757374583277851,6.088158359527588,-1.084450342655182,0.8832254326343537,6.246742504795819
10.767401583492756,7.495414182543755,-1.1130970215797424,1.5146873009204864,7.727515536503149
10.777428583242,8.77578834950924,-0.8951145762205124,2.4333934919536113,9.150797514240315
10.787456583231688,8.944313290715218,-1.0745697176456452,2.8403709572553635,9.445800521679763
10.797483583446592,9.245481149554253,-1.6702641677856447,2.3594903871417046,9.686893153326603
10.807510583195835,9.89724045753479,-2.1165745371580127,1.6925128233432771,10.261571814434207
10.817538583185524,9.69153190255165,-2.08328692317009,0.34914367854595185,9.91906126257402
10.827565583400428,8.91503628194332,-1.876537563800812,-2.0911365178227426,9.347305337523382
10.837592583149672,8.102973802685739,-1.5912419718503952,-4.89496296197176,9.599525918453736
10.84762058313936,7.079521028995514,-1.7270786386728287,-7.110834622979165,10.18166919809856
10.857647583354264,6.9149207389354705,-2.0947182297706606,-7.763494402170181,10.605461735371126
10.867674583103508,7.550347604155541,-2.3478056037425996,-6.891261734962463,10.488537953227816
10.877702583093196,8.39742204129696,-2.6564502972364425,-4.9152758967876435,10.086295765189972
10.8877295833081,8.70840795993805,-3.6215542906522753,-2.9662740817666053,9.886900758327386
10.897756583523005,8.505854562520982,-5.03641851067543,-1.383083433508873,9.981382320975378
10.907783583272249,7.871298347711564,-6.188955586552621,0.1728692762553692,10.01450911017014
10.917811583261937,6.8074500846862795,-6.729718369245529,1.5580607771873476,9.698352404932788
10.927838583476841,6.128642726540566,-7.078312994241715,2.261853872537613,9.632173142896836
10.937865583226085,6.4877331036329275,-7.437712689042092,2.7876270255446434,10.255784480099958
10.947893583215773,7.042575396895409,-7.418648427128792,3.228433703184128,10.72646245889819
10.957920583430678,7.061243802309036,-7.901746553778649,3.206373327970505,11.071566851811047
10.967947583179921,6.470238819122315,-9.229920539259911,3.06970401763916,11.682401563610082
10.97797558316961,5.5227314364910125,-11.027083904743195,2.644951162934303,12.613203741165844
10.988002583384514,4.473143947720528,-12.65087206363678,2.1957106076180937,13.59686455841717
10.998029583133757,3.464450131058693,-13.765774705410005,2.9767777276039125,14.503798591757167
11.008057583123446,3.3711809018254284,-14.0205823302269,4.761906353831291,15.186090401224472
11.01808458333835,5.36241306245327,-13.41422138929367,7.149184756278992,16.11854993517609
11.028111583087593,9.51217616379261,-11.971983429193497,9.74075961112976,18.129872597503955
11.038139583077282,14.356755130290987,-10.393881905078889,11.613192429542542,21.18998436369048
11.048166583292186,17.301057422161104,-10.196147782802582,11.775708771944046,23.27993416260677
11.05819358350709,15.873394231796265,-12.09596194267273,11.471724894046783,23.019066266929737
11.068220583256334,11.687442712783813,-16.134762432575226,10.797812240123749,22.660971406654447
11.078248583246022,6.640382854342461,-17.759069824218752,9.551190540790559,21.229801841284562
11.088275583460927,3.155005538463593,-15.329007929563524,8.594920520782471,17.85511699236174
11.09830258321017,2.9967775440216067,-12.003105819225311,7.705089488625527,14.574759997461374
11.108330583199859,3.9643677735328677,-9.58104993224144,6.818611834645272,12.409923327704092
11.118357583414763,3.6656089675426484,-7.984071257114411,5.352921862006188,10.287655486181162
11.128384583164006,1.8639824223518373,-7.2143227386474615,2.8343576806783677,7.972105525532316
11.138412583153695,-1.5459681504964828,-7.01263823747635,0.806225642412901,7.226140903590866
11.1484395833686,-6.861191843748093,-7.02606227517128,-0.7171728403866291,9.846615738124882
11.158466583117843,-12.566488555669785,-8.060739948749543,-2.616458850502968,15.157111204234196
11.168494583107531,-18.110482807159425,-8.905943276882173,-4.167609972953796,20.607629316496446
11.178521583322436,-22.951458134651187,-8.792479811310768,-4.74567272901535,25.031950411221924
11.18854858353734,-26.35760860204697,-8.350112804174424,-4.471599698066711,28.007911720099525
11.198576583527029,-27.5352308177948,-8.353108917474747,-4.532565692067147,29.129152348280524
11.208603583276272,-27.29415713310242,-7.8374640190601355,-4.404067865610123,28.736608526780742
11.218630583491176,-26.329354856014252,-6.962900651693344,-4.032448074817657,27.531392084225846
11.22865758324042,-24.437787609100344,-6.376452403664589,-3.771007368564606,25.53595710086988
11.238685583230108,-21.62363498210907,-5.479791238903999,-3.5946600222587586,22.594939312533803
11.248712583445013,-18.759572861194613,-4.043707473278046,-3.4140149724483493,19.49175831719693
11.258739583194256,-16.36040648460388,-2.8281684029102325,-3.665540555119515,17.002871063967827
11.268767583183944,-14.348653228282929,-1.9594882115721703,-4.296465649008751,15.10572939615683
11.278794583398849,-12.867006204128266,-1.3028594885766507,-4.932618738412858,13.841532397917188
11.288821583148092,-11.824178681373597,-0.8606314989924432,-5.5536830878257755,13.091802164183122
11.29884958313778,-11.018762147426607,-0.5026061922311783,-5.972595158815384,12.54342956201116
11.308876583352685,-10.22258421421051,-0.0339281764626503,-6.149418468475342,11.929699352381416
11.318903583101928,-9.186151791214943,0.5067471903562546,-6.155900691747665,11.069656307800836
11.328930583316833,-8.207901502847673,1.1526303389668466,-5.803100164532662,10.118012418373231
11.338958583306521,-7.209006450176239,1.739126534163952,-5.310182223916054,9.120985163440942
11.348985583521426,-6.413027322292328,2.4051676663756374,-4.564165799617768,8.230635478882979
11.359012583270669,-6.340058748722076,2.969713414013386,-3.4900042176246644,7.822766271444924
11.369040583260357,-6.621758303046227,3.186205988824368,-2.2076292796432972,7.672888547575828
11.379067583475262,-6.885757166147233,3.1052208825945855,-0.9925239264965058,7.618474402760536
11.389094583224505,-7.255872468352318,2.867197982668877,0.03547915041446686,7.801907992211121
11.399122583214194,-7.829290196299553,2.852278227210045,0.957428499609232,8.387487430402073
11.409149583429098,-8.454432393908501,3.1514106702804567,1.702965306043625,9.181988191536472
11.419176583178341,-8.749049617052078,3.5185210883617404,2.1264042913913728,9.666822386975621
11.42920458316803,-8.857221352458001,3.842110387980938,2.102348700016737,9.880893298499434
11.439231583382934,-8.914815841913224,4.184942874312401,1.8443730537593366,10.01945109863403
11.449258583132178,-9.013456615805627,4.343616134226322,1.6617557381093502,10.142525988118582
11.459285583347082,-9.186372815966607,4.30900675714016,1.3005741043388843,10.229783856362102
11.46931358333677,-9.662796930670739,4.540638065636158,0.6080659890174867,10.693773085935746
11.479340583086014,-10.739627766609193,5.233151589632034,-0.2534346985816956,11.949464811104999
11.489367583300918,-12.027979874610901,5.52130120754242,-1.4020067775249483,13.308744865413875
11.499395583290607,-13.348552479743958,4.858155616521835,-2.8713758182525635,14.492423137228183
11.509422583505511,-14.157346365451813,3.9031059104204178,-4.59225874722004,15.386797336052405
11.519449583254755,-13.824160323143007,3.3397541642189026,-6.059401752948761,15.45890410478755
11.529477458447218,-13.365214705467224,3.478175885081291,-6.601795908808708,15.307200293729803
11.539504458196461,-13.24405338048935,3.036987968981266,-6.656515322327614,15.1306788382204
11.549531458411366,-13.173110282421113,2.0306347927451136,-6.469328992366791,14.815752757987472
11.559559458401054,-12.62049811720848,0.6735045182704926,-5.248410483598709,13.68489655302306
11.569586458150297,-12.214529442787171,-0.20067264050245287,-2.1092329193651675,12.396929560399004
11.579613458365202,-11.31990077018738,-0.7360910680890084,2.296772859692574,11.573985876802755
11.589640458114445,-8.524960339665414,-1.960457972288132,5.968236059546471,10.589531902612462
11.599668458104134,-4.3446654170751575,-3.725894638001919,7.699234086871147,9.593571491590549
11.609695458319038,1.684595108628273,-5.751062284111977,7.5360517466068275,9.6283256074608
11.619722458533943,8.760507820844651,-6.353876888751984,6.313825800418854,12.52927152848607
11.629750458523631,13.818356376886369,-5.620573480725288,4.69202160179615,15.63818678500133
11.639777458272874,15.698763628005983,-4.809464682340622,3.128020638227463,16.714264659022913
11.649804458487779,15.78277174472809,-4.1625451147556305,1.814281674027443,16.42298035593038
11.659832458477467,15.193159568309785,-3.754475535750389,2.0392424789071084,15.782480606813701
11.66985945822671,13.725941133499147,-3.2334740030765534,3.8132470697164536,14.608137025081495
11.679886458441615,11.578635385036469,-3.0022698336839677,5.93309078514576,13.352152927473865
11.689914458431304,9.032209805846215,-3.3413270652294162,7.783655601739884,12.382672371509948
11.699941458180547,6.865134036540986,-4.121112914085389,8.853784943819047,11.937468107673071
11.709968458395451,5.916117487549782,-5.111892616152764,9.041161308288574,11.953011756376041
11.71999645838514,6.305495857000351,-5.8224468469619755,8.611890894770623,12.15832348935408
11.730023458134383,7.219056059718133,-5.847130283117295,7.383047654628754,11.866469382744793
11.740050458349288,7.850434897542001,-5.113636255860329,5.635760453939438,10.933453239118107
11.75007745809853,8.067925592064858,-4.096423630714416,3.959989670813084,9.876924020884077
11.76010545808822,7.777702551484109,-3.141622431278229,2.2060500928759574,8.673471363436382
11.770132458303124,7.254132921695709,-2.6992215102910997,0.32220833346247674,7.746745085350386
11.780159458518028,6.326269844770432,-2.55874566257,-1.9045144441723825,7.084916709646891
11.790187458507717,4.785102258324623,-2.2220308256149295,-4.7060604742169385,7.069768723203986
11.80021445825696,3.0528122887015345,-1.9660180896520616,-6.84197789311409,7.745808640080657
11.810241458471864,1.3336721223592758,-1.8768369412422181,-7.268122969865799,7.624094027427822
11.820269458461553,0.26533436715602876,-1.8768047815561295,-6.086304792165756,6.374629756903995
11.830296458210796,0.4945624700188637,-2.030822196006775,-4.029803963899613,4.539620118028156
11.8403234584257,1.5378794047236444,-2.3716710144281388,-1.9902355027198793,3.457012267903948
11.850351458415389,2.4468562674522403,-2.367255781888962,-0.5087431374192238,3.4423574931038443
11.860378458164632,3.064415211081505,-2.0831033205986023,0.23898856759071352,3.7130951463214203
11.870405458379537,3.5406109920144084,-1.7690809428691865,0.47208401888608936,3.986030218159896
11.88043245812878,3.6801995247602464,-1.2002123486995697,0.2559533867239952,3.879418817321992
11.890460458118469,3.175373144745827,-0.49753431737422943,-0.13941399335861207,3.217137122797572
11.900487458333373,2.5880937150120737,-0.5850045704841614,-0.4563339588046074,2.6923410087005397
11.910514458082616,1.8280126905441285,-0.9553379738330842,-0.1543220543861389,2.068360785140698
11.920542458537966,0.9407681742310524,-0.7388530004024506,0.9338591042160989,1.5175774577849481
11.93056945828721,0.22556569933891296,-0.6009984594583512,2.51783532589674,2.5983790642096674
11.940596458502114,-0.34378382831811904,-0.558696193099022,3.4048842528462413,3.467501338439065
11.950624458491802,-0.8956528124213219,-0.8126816993951798,2.8732372793555263,3.117392815865272
11.960651458241045,-1.059127221107483,-1.5103971987962723,1.3992009910941126,2.31534308086323
11.97067845845595,-0.8708199799060822,-2.215976033806801,-0.3109330013394356,2.401157335772002
11.980706458445638,-0.5662803241610528,-2.4960196566581727,-1.723080897331238,3.0854165538390035
11.990733458194882,-0.11990943610668182,-2.3566559493541717,-2.7321465969085694,3.6101011846612985
12.000760458409786,0.3331739093363285,-1.7697410935163498,-2.8726531425118447,3.390446057545537
12.010788458399475,0.6131969207525254,-0.7497019243240357,-2.2679098337888717,2.466065378928914
12.020815458148718,0.5471935504674912,0.09459274649620057,-1.4637112748622896,1.5655092671466058
12.030842458363622,0.5576518803834916,0.0903956151008606,-0.43117543637752537,0.7106752027896122
12.040869458112866,0.5935476449131966,-0.4357731020450592,0.6364857959747314,0.9732991172941456
12.050897458102554,0.47917464494705203,-0.9865621054172516,1.484171851873398,1.8454482420536116
12.060924458317459,0.29239411175251007,-1.3970126706361772,2.3093107518553735,2.7147844973663
12.070951458532363,0.23252242416143418,-1.8599039894342424,2.964977754056454,3.5077631917934506
12.080979458522052,0.36940603494644164,-2.0168467658758162,3.2440668189525605,3.837720836838914
12.091006458271295,0.5668505738675594,-1.7583431160449983,3.108126071691513,3.615734747511954
12.1010334584862,0.8471805641055108,-1.4548954278230668,2.3824211204051973,2.9172531616319057
12.111061458475888,1.4193344163894654,-1.3955456042289736,1.3750405883789063,2.419254913960049
12.121088458225131,2.285232356339693,-1.5873401248455048,0.35390448153018955,2.8048500809229644
12.131115458440036,3.0563682729005817,-1.73510861992836,-0.4680161109566689,3.5455645562671663
12.141143458429724,3.6781012514233593,-1.7617900496721268,-0.6872577542066575,4.135777582941686
12.151170458178967,3.9849321386218075,-1.918621144294739,-0.34776315093040466,4.436409635493646
12.161197458393872,3.9065581065416337,-2.175477048754692,0.23568401366472244,4.477660503403724
12.17122545838356,4.044375810027122,-2.4651919662952424,1.2081882432103157,4.888135222602866
12.181252458132803,4.5036213898658755,-2.980555613636971,1.8748325157165528,5.716757328348682
12.191279458347708,5.42526536822319,-3.2906960248947144,1.9854928261041642,6.648636432112293
12.201306458096951,6.935812840461732,-3.374035220146179,1.6136777383089067,7.879947288390606
12.21133445808664,8.363083097934723,-3.1586945468187335,0.37743923217058184,8.947679616361182
12.221361458301544,8.88554701924324,-2.9945936089754106,-0.8548105958104134,9.41547863195539
12.231388458516449,8.412425411939621,-3.415373865365982,-1.7528940957784653,9.246962618216182
12.241416458506137,7.171595964431763,-3.9814170849323274,-1.9300869494676591,8.426666382013137
12.25144345825538,5.969579164981842,-4.7312429702281955,-1.2988028365373612,7.727057930319697
12.261470458470285,5.3279542511701585,-5.848520166277885,-0.6747210314869881,7.9402476729792335
12.271498458459973,5.390838131904602,-6.843112837672234,-0.10663333296775819,8.71210076509742
12.281525458209217,5.984792450666428,-7.566754306554794,0.23939787268638613,9.650431221182096
12.291552458424121,6.388705244064331,-7.942304595708848,0.2752623546123505,10.196642896091817
12.30158045841381,6.4833178710937505,-8.165691622495652,0.033723523914813994,10.426555882332599
12.311607458163053,6.794299111962319,-8.469982479214668,0.0796820542216301,10.85861192099526
12.321634458377957,7.248492697477341,-9.128586537837982,0.6601980096101762,11.675084581109997
12.3316614581272,6.947675671577454,-9.908785200119018,1.6323698249459266,12.211423038488222
12.341689458116889,6.053032965660096,-10.269322178363801,2.8890531206130983,12.26559472753469
12.351716458331794,5.249032627344132,-10.956246056556703,4.023649184703827,12.79771166796257
12.361743458081037,4.532373026311398,-11.846513875722886,4.54101053327322,13.472307631605966
12.371771458536386,3.6716163969039917,-12.386260997056961,4.548943158388138,13.69646349651891
12.38179845828563,3.1268652284145357,-12.501258187294008,4.380240754187107,13.610483146703315
12.391825458500534,3.03538466244936,-12.310063591003418,4.4503032615780835,13.43712859146601
12.401853458490223,3.152612565457821,-11.958573424816132,4.904485445022583,13.304150548796398
12.411880458239466,3.4636832687258723,-11.43875595331192,5.318059008121491,13.08143689199862
12.42190745845437,4.1176803061366085,-10.799028460979462,5.61131558418274,12.8476133733033
12.431935458444059,4.939326664209366,-10.112239068746566,5.750736594200134,12.638247436061958
12.441962458193302,5.161461217403412,-9.138164277076722,5.822437491416931,12.001979278229825
12.451989458408207,4.409266040325165,-7.623531355261803,5.721079516410828,10.501933544453621
12.462017458397895,3.0634895968437195,-6.028544241786004,5.165521523952484,8.50946101698323
12.472044458147138,1.1642730224132538,-4.827321494221688,4.184104968309403,6.493481259318875
12.482071458362043,-0.8371511274576188,-3.909129127264023,3.2615687048435213,5.159451808113164
12.492099458351731,-2.8082106864452365,-2.9472136205434802,2.74952919960022,4.912435872765818
12.502126458100975,-4.816874274015427,-2.0038969373703006,2.466815153360367,5.770880150212968
12.512153458315879,-6.744068605899811,-0.7571653103828431,2.2916980612277986,7.162935199495093
12.522180458530784,-8.431827058196069,0.908831559419632,2.044022870063782,8.72351487853768
12.532208583317697,-9.597639652490617,2.6673465836048127,1.3737179481983186,10.055671320072603
12.542235583532602,-10.203926918506623,4.251095348596573,0.34402444124221804,11.059398222202486
12.552262583281845,-10.709038642644883,5.430931904911995,-0.6690150260925294,12.026059666848074
12.562290583271533,-11.259203163385392,6.245781167149544,-1.1771041524410248,12.92923093026037
12.572317583486438,-12.054304039478303,7.066055476069451,-1.1771330961585045,14.02216203704499
12.582344583235681,-12.5268993973732,7.235723547935486,-1.6242935045063496,14.557377276241716
12.59237258322537,-12.39151881337166,6.492907304763794,-2.6877890342473987,14.245413074495923
12.602399583440274,-12.077145602703094,5.8025832706689835,-3.690556990206242,13.89775627286284
12.612426583189517,-11.809591047763824,5.543265103697777,-4.3609896737337115,13.755451997652024
12.622454583179206,-11.556338782310487,5.511261538267136,-4.931109572052956,13.720014992933073
12.63248158339411,-11.252929100990295,5.573527953028679,-5.644589749574662,13.767861875981675
12.642508583143353,-10.755918109416962,5.587743703722954,-6.22981359064579,13.628031092170808
12.652535583358258,-10.04093929052353,5.730835595726967,-6.277939099073411,13.155814600126634
12.662563583347946,-9.189731456637382,6.060969976186753,-5.762271981239319,12.42538931716522
12.67259058309719,-8.445234723687172,6.545322330594063,-5.038963218927384,11.813313856460763
12.682617583312094,-8.019078537225724,6.94450121819973,-4.411662521660328,11.488885235774363
12.692645583301783,-7.778831064105034,6.744534044265747,-3.8885779184103013,11.005452758777956
12.702672583516687,-7.82985152900219,6.085358712673187,-3.45825325191021,10.502270287060458
12.71269958326593,-8.231710195541382,5.412378104925156,-3.2144208508729935,10.362788760781541
12.722727583255619,-8.81154641211033,4.90062452852726,-2.954549244940281,10.506608976408831
12.732754583470523,-9.349946334958076,4.542618809938431,-2.4645414635539056,10.683203955021117
12.742781583219767,-9.537164239883424,4.294125593304634,-1.7146164679527283,10.598911547029711
12.752809583209455,-9.195312039256097,4.110216042995453,-0.908703066855669,10.113030242370394
12.76283658342436,-8.659877239465715,4.37667366027832,-0.20403800547122955,9.705172725864648
12.772863583173603,-8.191396567225457,4.954326526522637,0.32434081301093104,9.578597288535699
12.782891583163291,-7.8574761146307,5.47631974697113,0.5481144869327546,9.593249624284956
