Time (s),Linear Acceleration x (m/s^2),Linear Acceleration y (m/s^2),Linear Acceleration z (m/s^2),Absolute acceleration (m/s^2)
0.023931041825562716,0.5136166454851627,-6.91859279036522,-5.196766705513001,8.668166614050602
0.033958041574805975,0.9492375737428665,-7.731021305322647,-5.802039479613304,9.71253852078587
0.04398504178971052,1.4316064064204694,-8.653968628048897,-6.0436557859182365,10.652062954039542
0.05401304177939892,2.4875742307305337,-9.473054198026658,-6.0643543446064,11.519686411057013
0.06404004152864218,3.5696868565678597,-10.482807530164719,-6.447338199019432,12.814058210456459
0.07406704174354672,3.9269555336236954,-12.031813309192659,-7.182347824573517,14.55237546050401
0.08409404149278998,3.0680235278606416,-13.035158092975617,-8.170054814815522,15.68687064246609
0.09412204148247838,1.9406854663789272,-12.399997276067735,-9.093138377666474,15.498753436366828
0.10414904169738293,3.099070781171322,-12.007100636959077,-10.718290107250214,16.390742760349536
0.11417604144662619,5.519923603534699,-12.171905579566957,-13.190635557174684,18.778117808474676
0.12420404143631458,6.308380288481713,-12.196141119003297,-12.267009372711183,18.4125239717137
0.13423104165121913,4.065034022927285,-11.73424382686615,-9.46837701022625,15.616246123946809
0.14425804186612368,-1.0608924955129624,-11.534561412334442,-5.246945171356201,12.716211444182917
0.15428504161536694,-5.657063030004502,-11.811375617980957,-1.3699856704473496,13.16768076966137
0.16431304160505533,-9.03933639228344,-11.870043071508409,2.215769627094269,15.083671965827088
0.17434004181995988,-10.346561558246613,-12.349333491325378,4.911644191145897,16.84285078064205
0.18436704156920314,-9.142508758306503,-12.605280153751375,6.484022460579872,16.867753300886687
0.19439404178410769,-6.361508089900017,-8.822323415279389,5.006490706801415,11.973601163348448
0.20442204177379608,-4.547715827822685,-4.103259610533715,1.7735938239097595,6.3768404193830275
0.21444904152303934,-5.758168990015984,-1.404712284207344,1.0324288344383241,6.01628091242126
0.2244760417379439,-9.052770954966546,0.194940322637558,3.2003308153152465,9.603789930018893
0.23450404172763228,-11.226544125080109,0.7411255207657814,6.904930186271668,13.200856824736292
0.24453104147687554,-11.538339883089066,0.9551578795909882,10.277661477327348,15.481470836944633
0.2545580416917801,-13.069395879507065,0.7964556759595871,12.56451102733612,18.1469112428285
0.26458491664379835,-14.947050261497498,1.1832361274957657,13.00727506041527,19.849523010653044
0.27461291663348675,-14.820960903167725,2.279641102552414,10.899911642074585,18.538223201124364
0.2846399168483913,-14.184154679775238,3.537289481163025,6.6469019150733955,16.058766014919787
0.29466691659763455,-15.217168235778809,4.690556874275208,4.055298993587494,16.431950061821563
0.3046939168125391,-16.522865524291994,5.934695261120797,5.236127237677574,18.320554615659308
0.3147219168022275,-17.070377748012543,6.590989669561386,8.70171991467476,20.262252361412195
0.32474891655147076,-16.044413595199586,6.767309533953667,11.118762398958207,20.660265323239493
0.3347759167663753,-13.661102528572084,7.002277556061745,10.716512553691864,18.721678733001482
0.3448039167560637,-11.672132363319397,7.1018831205368045,8.436337015628816,16.057621243692434
0.35483091650530696,-10.989264113903046,7.188340051174164,6.563556872606278,14.68047810108271
0.3648579167202115,-9.65240350484848,6.639682357907295,9.277347890138627,14.944010810655092
0.37488491646945477,-6.085170432329178,6.352388187646866,14.711737253665925,17.141101128514194
0.38491291645914316,-1.8023480916023256,6.139637830853463,17.14501628637314,18.300141933803403
0.3949399166740477,0.1054498565196991,6.1067051428556445,14.900488883256912,16.103649783017588
0.40496691642329097,0.9100758469104767,5.7508664023876195,10.813255906105042,12.28117281517348
0.4149939166381955,1.8364584088325502,4.973764425516129,5.60349084019661,7.714273889619741
0.4250219166278839,5.145367341041565,1.8602618390321732,0.6523427139222622,5.510075335276639
0.43504891684278846,5.97836109817028,2.4565398412942887,-0.5578009843826294,6.48741330193785
0.4450759165920317,0.44306048691272737,4.35040972173214,-4.0038522666692735,5.929013435245153
0.45510291680693626,3.15069555580616,1.0625624603033066,-5.94185400724411,6.808931671769471
0.46513091679662466,5.966992941498757,2.2027022695541385,-3.6861783027648927,7.351517702622337
0.4751579165458679,6.455153002738953,3.496393470168114,-2.602205092906952,7.78878931109032
0.48518491676077247,5.057468487024307,3.19004117757082,-0.6863697083294392,6.018758475662037
0.49521291675046086,2.011225252747536,3.133329032957554,0.9345638398826123,3.838774207592867
0.5052399164997041,1.9716869652271272,2.8881511875987056,0.4859100526571274,3.5305913598925076
0.5152669167146087,1.905477188229561,1.3260014525055885,-2.9619994747638705,3.763318224042661
0.5252939164638519,-0.002440043091773987,-0.3801163798570633,-1.870118051916361,1.9083594902819998
0.5353219164535403,0.14926596701145173,2.372790171504021,-1.9314540284872057,3.063156573055547
0.5453489166684449,-0.09717195332050324,5.192297093868256,-0.4052471280097962,5.2089938312753885
0.5553759164176881,1.8480879360437394,0.6559695956110955,-0.3337896211445332,1.989256303471326
0.5654029166325927,2.6488196808099747,0.9160844457149506,-1.9527351160347464,3.415937769708687
0.5754309166222811,3.017422308325768,1.127940178513527,-4.691419923305512,5.690914454626341
0.5854579168371856,2.1709840482473375,-0.7208158019185067,-3.7307440263032916,4.376208192926556
0.5954849165864289,0.36289282143116,-1.7334684759378434,-2.782864760756493,3.2986270528171002
0.6055129165761173,-1.7252852976322175,-3.297620005309582,-3.393834477066994,5.036766771985025
0.6155399167910218,-3.329444353580475,-5.4205244457721715,-1.988498441129923,6.6649389360427564
0.6255669165402651,-2.875488749742508,-5.606355391144753,-0.9953704972565175,6.3789041965311135
0.6355939167551696,-1.4759196764230729,-4.205328022241592,0.6470699872076512,4.503534415794785
0.645621916744858,1.147076361179352,-3.8035041466355324,1.8496203450858595,4.382182491955999
0.6556489164941013,4.141750077009201,-4.179015259444713,2.8228462672233583,6.525850388068541
0.6656759167090058,6.497784467339516,-3.583433368206024,3.0926484918594364,8.03907161198179
0.6757029164582491,7.33192603290081,-3.181156625747681,3.147722246646881,8.58982259255118
0.6857309164479375,6.04398381471634,-2.042858689427376,3.3724728441238403,7.216410815763939
0.695757916662842,2.4410213309526445,-1.4812833273410797,2.4945613610744477,3.791519724093504
0.7057849164120853,-2.05291063785553,-2.5902422744035722,1.6015909588336945,3.6727225224001914
0.715812916867435,-2.4928487116098403,-2.8231316113471987,0.8690272235870362,3.8651746544364673
0.7258399166166782,-0.6022708135843278,-2.0063983762264255,0.31417425915598873,2.1182705309133154
0.7358669168315828,6.147685938477516,1.0919663536548616,-0.054080020487308506,6.24414586346959
0.745893916580826,5.904307866096497,0.9470694261789322,0.7163669478893281,6.02253879021797
0.7559219165705144,0.9570740121603013,-0.5931058877706528,-0.9214874191582203,1.4549585294872527
0.765948916785419,-5.629419733285904,-2.817590789794922,-2.6035335803031923,6.812310290643863
0.7759759165346622,-10.002368717193605,-4.805236560702324,-1.3746336221694948,11.18156053304736
0.7860039165243506,-11.06812200307846,-3.3148760157823562,-0.932577248364687,11.591437701993922
0.7960309167392552,-11.733181972503663,-0.7610174560546875,0.24806096121668816,11.760452415140527
0.8060579164884984,-10.01091851592064,1.3543180561065675,0.5051250265538693,10.11473273111801
0.816084916703403,-6.631853520870209,2.9139002788066866,-0.21287958025932313,7.246903730062905
0.8261129166930914,-3.1033822256326675,4.2215376734733585,-1.1865415585041046,5.372172971618187
0.8361399164423347,-0.8477799037098885,4.904718164205551,-1.1654391033947469,5.112068010027231
0.8461669166572392,0.37349820882081985,4.938212184906006,-0.9788743324577809,5.0481318776247495
0.8561939168721437,1.8453795057535172,5.370574021339417,-1.196601108312607,5.803476979480137
0.8662219168618321,3.3262409564852717,5.682977305054665,-0.5862209375202656,6.610882311609667
0.8762489166110754,4.801389677524567,5.358414151668549,1.2438600593805313,7.301584273537037
0.88627591682598,5.397379996776581,5.55030222773552,0.10746539175510407,7.7426813481658225
0.8963039168156683,4.794536156058312,5.440207927823067,-2.4586851847171785,7.656929677569666
0.9063309165649116,3.8190518930554394,5.497357444167138,-1.9245544601976872,6.9649124977315395
0.9163579167798162,2.635808456540108,5.842931397557259,-0.7676926374435425,6.455748254208323
0.9263849165290594,1.6532167567312719,6.125351913571358,-0.4057377824932337,6.357490452841584
0.9364129165187478,0.6987735530734063,6.215162807106972,-0.792753803730011,6.304362917111375
0.9464399167336524,-0.5112777592241764,5.924632202982902,-1.0962541899830103,6.046854135561287
0.9564669164828956,-1.6738622519373894,5.713600342869759,-2.3214691597223283,6.390325717523655
0.966494916472584,-2.665234569311142,5.792634817957879,-3.6178600198030475,7.33123485959619
0.9765219166874886,-3.3730175122618675,5.6071862804889685,-3.395466434955597,7.372040249011058
0.9865489164367318,-4.788617896735668,4.951925075054169,-3.5100894033908845,7.731309780993409
0.9965759166516364,-6.8135592555999756,3.6980598449707034,-2.9264320313930514,8.28638888665745
1.0066039166413248,-5.731343134045601,2.7636250823736193,-3.3064016461372376,7.170649172960234
1.0166309168562293,2.7014738577604294,-3.620374322533608,-2.5353702485561374,5.180074665165291
1.0266579166054726,15.950384520292284,-20.583925194740296,-0.052976906709373,26.04065186051395
1.036685916595161,22.83383320569992,-32.962518153190615,0.2677206889539957,40.099666036420295
1.0467129168100655,18.91220740914345,-33.62197181224823,2.0457501375675204,38.6302170749199
1.0567399165593088,9.0945545732975,-19.043766252994537,2.2968553054332737,21.22855389044381
1.0667669167742133,3.552191987335682,-5.799814029335976,3.0443808960914613,7.451453933982339
1.0767949167639017,0.22304891154170037,0.7744631284475327,3.6922722709178926,3.779208710411989
1.086821916513145,-1.9929708302021027,7.23629131257534,1.5283265161514283,7.659740637284095
1.0968489167280495,-1.7622461324930192,4.90254475414753,3.8117206540703776,6.4552049419497735
1.106876916717738,-2.805477405488491,5.187054480314255,3.5544732785224915,6.8855296050619845
1.1169039164669812,-3.0090452948212625,4.270702816843987,2.5506770896911624,5.8137087777046865
1.1269309166818857,-4.003766897320747,3.9494784235954286,0.93296652674675,5.700785535920215
1.136957916431129,-4.963784982562065,3.2046788048744204,-0.8823155327886344,5.973910636670096
1.1469859164208174,-4.875313686132431,2.201063295006752,-1.4582067060470583,5.544342157945953
1.157012916635722,-4.127048715054989,1.0386707371473314,-1.795602743625641,4.619042888906655
1.1670399168506265,-2.9744408878684045,-0.7033440291881562,-2.0984136700630187,3.707469669400595
1.1770679168403149,-1.081639074459672,-2.5360543727874756,-0.33929397068917755,2.777883235069192
1.1870949165895581,-0.5049482944607735,-3.922289455533028,2.099481371641159,4.4774043130962236
1.1971219168044627,-1.123075587451458,-3.6264565962553026,2.7731297314167023,4.701354562987172
1.207148916553706,-2.3203980959951878,-2.412561762928963,2.3464467108249667,4.087849526411937
1.2171769165433943,-3.4576202908158304,-1.2037241864204407,2.0132922434806826,4.178209622564954
1.2272039167582989,-5.18963953435421,0.19248215317726136,2.4276189279556277,5.7326033819890565
1.2372309165075421,-6.664307906627656,1.374335414171219,1.8981114506721497,7.064320546532256
1.2472579167224467,-6.305557837486267,2.379871149659157,2.1790081822872165,7.083214170794155
1.257285916712135,-4.6058538159728055,2.7502431446313857,3.138964871764183,6.215370237956281
1.2673137080855668,-1.5838994769752026,2.6601299500465396,4.991728241443634,5.873872635725334
1.2773407083004713,1.2268823763728143,2.455518332719803,5.406312203407288,6.063251791612139
1.2873687082901597,2.6213977012038234,2.834296284914017,2.3737529155611994,4.532070635227278
1.2973957085050642,2.4640865501761438,3.731172042489052,0.5175882205367088,4.501251481915808
1.3074227082543075,4.26483104288578,3.918147872686386,-4.235278630256653,7.174834608024615
1.317450708243996,5.084541680216789,4.238567689061165,-7.042981778383256,9.66548563100963
1.3274777084589005,4.797161555886269,5.591671278476715,-4.258021960258484,8.509424051829717
1.3375047082081437,5.811096231937409,6.288390997052193,-1.0545090901851655,8.626974566435639
1.3475317084230483,5.604693027734757,6.358562262654305,-2.217047828435898,8.761232736137213
1.3575597084127367,5.085561434626579,4.306548587679863,-4.393767410516739,7.982135547654371
1.36758670816198,4.5636997765302665,-0.1763578712940216,-6.931716281175614,8.301032968961444
1.3776137083768845,4.057733481824398,-6.556734341382981,-8.55792401790619,11.519289462863814
1.3876417083665729,2.832307939231396,-14.201198143959045,-7.507605627179146,16.311350012793884
1.3976687081158161,0.6899107821285725,-22.213270547389985,-5.718902598023415,22.94801107339195
1.4076957083307207,-1.7797341312468054,-29.294391374588013,-6.081125328540803,29.971801828500098
1.417722708079964,-4.9476583617925645,-34.95049195289612,-6.956730085015297,35.977941915710375
1.4277507085353136,-6.252385012507439,-35.41047603607178,-3.635143804550171,36.14150525262611
1.4377777082845569,-6.515688056945801,-26.56901117563248,3.074035634994507,27.52846237608497
1.4478047084994614,-5.0529158449172975,-15.563530393838883,7.800896701812745,18.127587434849566
1.4578327084891498,-4.5495030292868615,-9.083521462082864,7.6847394239902505,12.738271467520244
1.467859708238393,-3.367838340997696,-5.213294445276261,5.3057623136043555,8.16528553038451
1.4778867084532976,-2.103970717638731,-2.522598175406456,4.268949236869812,5.386475835109312
1.4879137082025409,-0.955554613173008,-0.712271558046341,4.0946051466465,4.264528895212457
1.4979417081922293,-0.34201636120677,1.435444080233574,4.227016514539719,4.4771803082969805
1.5079687084071338,0.20619972109794618,3.9028135496377945,2.987742426395416,4.919458988008783
1.517995708156377,-0.08746396735310555,6.4116655057668686,1.6797518599033356,6.628625107386491
1.5280237081460655,-0.15607607290148737,9.063343305587768,0.5898565534874797,9.083858341540068
1.53805070836097,0.35268679887056353,11.098595352172852,0.14048988103866578,11.105086410111568
1.5480777081102133,0.46156999424099926,11.997306550741197,1.2780691945552827,12.074016407066559
1.5581047083251178,0.4725630520284176,11.979164979457856,1.7353366613388062,12.113426549552297
1.5681327083148062,0.4503843437880278,12.022329125404358,1.8471997439861298,12.171745583557755
1.5781597085297108,0.31681953951716424,11.85560863494873,2.3533850169181827,12.091081496853198
1.588186708278954,0.07362762786448002,11.767921450138093,3.8787534266710284,12.390888766715545
1.5982147082686424,-0.47530846595764165,12.038709515333176,5.858765072822571,13.397073303931355
1.608241708483547,-1.5926510046422482,12.299529247283937,5.942249279022217,13.75228284400161
1.6182687082327902,-2.640944358408451,12.180299842357636,3.223843054175377,12.873517599782186
1.6282957084476948,-2.842421868145466,12.003634407520295,-0.9323361968994142,12.370766017105227
1.6383237084373832,-2.564736135005951,11.769936400651932,-3.980891420245171,12.686873957653171
1.6483507081866264,-2.1185737001895903,11.506569621562958,-5.540613391399384,12.945574368561818
1.658377708401531,-1.645203878581524,11.251225222349168,-6.527915754318237,13.111462500484148
1.6684057083912194,-0.9953883312642575,11.063414994478226,-6.978070083260537,13.118056691330406
1.6784327081404626,-0.578983546346426,10.893444621562958,-6.770022642016412,12.838830330034497
1.6884597083553672,-0.22494490776211024,10.674660522937776,-5.692745078802109,12.099848099200251
1.6984867081046104,0.2223411060869694,10.45883628487587,-4.215702152252198,11.278689491150818
1.7085147080942988,0.3993266759812832,10.436423907279968,-2.081940894126892,10.649548518751066
1.7185417083092034,0.16932659447193146,10.474388709068299,0.5410311698913575,10.489719016782429
1.728568708524108,-0.07872877534478903,10.117860581874847,3.7194454514980317,10.780147282898945
1.7385967085137963,-0.3101423846930266,9.576832335591316,4.837403848171235,10.73370308295848
1.7486237082630396,-0.3238823547586799,9.10289738059044,4.230661668777466,10.043213562249248
1.7586507084779441,-0.4926592378690839,8.719256883859634,4.691734503507615,9.913653533526134
1.7686787084676325,-1.0383161035180093,8.006463754177094,6.689439824223519,10.484758811707781
1.7787057082168758,-1.6427191042900087,7.0873305702209475,6.707545142769814,9.895450596586427
1.7887327084317803,-2.2233385553956033,6.4704580897092825,5.160481808781624,8.569751146991315
1.7987597081810236,-3.2859589031338694,5.014611904621124,5.058385915160179,7.844177874942888
1.808787708170712,-3.0010436725616456,3.5799683082103733,0.41702754992991686,4.690026459393751
1.8188147083856165,-2.202873300611973,3.6774723833799365,-3.3740141701698305,5.455311680333032
1.8288417081348598,-4.751342774033547,-10.223253135681153,5.725516383647919,12.644038148154888
1.8388697081245482,-1.310610411465168,-28.514845261573793,1.7771442532539368,28.60021576210592
1.8488967083394527,4.207943481802941,-46.503715338706975,-8.938480108380318,47.54154767461245
1.858923708088696,7.278575452566147,-67.39313650131226,-10.839076040983201,68.64618035641475
1.8689507083036005,9.926568921804428,-64.6977384853363,-0.1688360130786896,65.45504290179338
1.878978708293289,5.9816302764415745,-37.867780108451846,-2.5791074216365817,38.42395693051986
1.8890057085081935,3.5031084126234058,-18.982562277317047,-8.305030186772347,21.01387554845638
1.8990327082574368,2.5208773398399353,-11.003862272500992,-2.905092033147812,11.65673055345057
1.9090607082471251,-1.238952491283417,-8.345646116137505,0.2465688979625702,8.440711379552134
1.9190877084620297,-5.07451370537281,-8.950244121551513,0.43028256654739383,10.297703737652318
1.929114708211273,-7.717361040115357,-8.708515548706055,0.30106728672981264,11.63986881355131
1.9391427082009614,-9.23058244407177,-6.7735818421840674,2.0189020621776583,11.625877548221334
1.949169708415866,-8.536840127706528,-3.707508360743523,3.6328587126731873,9.991041989564902
1.9591967081651092,-6.945226272940636,-0.6248287868499757,4.311804649829865,8.198672961736902
1.9692237083800137,-4.960294779539108,2.076132854819298,3.08184400677681,6.19779109142033
1.979251708369702,-2.9074221485853196,4.448224284052849,3.2706704807281497,6.2399589922393295
1.9892787081189454,-0.9235528019070626,5.995743700861931,2.4266319179534914,6.533791760499148
1.99930570833385,0.9784173725545406,7.737843836545944,1.1237458976358177,7.879995725642363
2.0093337083235383,1.4250224415957928,9.471088364124299,1.090158394575119,9.639535729762347
2.019360708538443,1.1658579102158546,10.576515008211137,1.386225142478943,10.730494607955826
2.029387708287686,1.6175589738786222,11.77256180047989,2.0736214756965636,12.062736605122552
2.0394157082773745,1.8008884803950787,12.35597358942032,3.1497816359996795,12.877670869212062
2.049442708492279,1.6186170275509357,12.672366428375245,4.035716668367386,13.397604300927393
2.0594697082415223,1.256619707196951,12.900136528015137,3.547936091423035,13.438023144747458
2.069496708456427,0.6492556764185429,12.711898283958435,2.099024119377136,12.900379574601443
2.0795247084461153,-0.14860987287014724,12.45647085428238,1.011746063232422,12.498375139767855
2.0895517081953585,-0.8932380585372448,12.060046005249024,-0.06661324401386083,12.09326346369004
2.099578708410263,-1.5597795662283898,11.817199444770814,-1.0721682661771774,11.967817670891908
2.1096067083999515,-2.111358820796013,11.507914481163025,-2.1346032571792604,11.893126705853053
2.1196337081491947,-2.3968593576550483,11.196531536579133,-2.9336106580495835,11.820039116813945
2.1296607083640993,-2.4563895678520202,10.937282366752624,-3.5011747384071352,11.743773662157764
2.1396887083537877,-2.458663842380047,10.704537456035615,-4.0238854122161865,11.697170762545218
2.149715708103031,-2.3297909170389177,10.540581529140473,-4.412112464904785,11.661840381884094
2.1597427083179355,-2.021697031259537,10.454191256761552,-3.920188550949097,11.346596493845443
2.16976970853284,-1.729135104417801,10.439235248565675,-2.7489023780822754,10.932703465678212
2.1797977085225284,-1.4057101115584374,10.53450159430504,-0.9587363755702973,10.671031824336142
2.1898247082717717,-1.2970814162492752,10.710391688346864,1.1252229773998261,10.847167236982076
2.199851708486676,-1.2374814780056478,10.73558851003647,3.3257489132881166,11.306848672352134
2.2098797084763646,-1.2049528326094152,10.03914185643196,4.799789879322052,11.192598600326022
2.219906708225608,-1.403693845421076,9.378636283278466,4.471902583837509,10.484611946325574
2.2299337084405124,-1.5976082740724087,8.84159291446209,3.9950691640377047,9.83293929035951
2.239961708430201,-2.12736469656229,8.04367134153843,4.996621191501617,9.705284773474153
2.249988708179444,-2.2768233293294906,7.318103215098382,3.6773092460632326,8.500656588228608
2.260015083476901,-1.9458530893921853,7.227487744688988,-0.8292123627662659,7.5306385179273505
2.2700420832261443,-1.5622134697437287,7.563030799627304,-3.580964673757553,8.51253509806917
2.2800700832158327,-1.0014871233701705,7.580446146726609,-2.2375902664661407,7.96699130426804
2.2900970834307373,-0.37527521420270205,7.606194945573807,-0.9981115257740021,7.680576778754986
2.3001240831799805,-0.12872923001646996,7.2093970441818245,2.5707786476612093,7.65512114930842
2.310152083169669,-1.2885267935693265,0.9211498886346817,4.606852812767029,4.871540952673724
2.3201790833845735,0.03462589547038079,-30.477622239589692,-0.46949165582656865,30.481257827502134
2.3302060831338167,7.871981302499772,-68.7881745672226,-9.201563297510148,69.8459005027187
2.340234083123505,14.190666139125824,-90.33090279579163,-2.869356189966202,91.48377020171276
2.3502610833384097,15.511319435834885,-76.13467244625092,8.440266344547272,78.15578977340914
2.360288083087653,3.5961107164621353,-39.09927155256272,-10.78069159269333,40.717420834857194
2.3703150833025575,1.3625702315568924,-17.500543370246888,-10.291653864383697,20.34806514521961
2.380343083292246,1.7697602431476116,-8.17698785841465,1.7387619602680207,8.545084839213803
2.3903700835071504,-1.8658450528979302,-5.024017150998116,2.4246707618236543,5.88227459391258
2.4003970832563937,-6.169075638055801,-3.0340728396177292,-2.0181208741664887,7.16490782124279
2.410425083246082,-7.50814766407013,-0.4116346263885498,-2.944695224761963,8.075453818694012
2.4204520834609866,-8.224315806627274,2.152991580963135,-0.633994882106781,8.525062624132152
2.43047908321023,-8.533666259050369,4.254323596358299,1.3914994771778584,9.63633747221277
2.4405070831999183,-8.06466693878174,5.177743374109268,2.5295943689346316,9.911948696041431
2.450534083414823,-6.88342763543129,6.128257979750633,2.0204211688041687,9.43499992463956
2.460561083164066,-5.188318648338318,8.116197865605354,1.3952614295482637,9.733348480720142
2.4705890831537545,-3.2544239920377733,10.762971020936966,2.262043322324753,11.46951004662161
2.480616083368659,-2.276947875022888,11.994159579277039,3.663279436826706,12.74613556616325
2.4906430831179023,-2.0710177105665206,12.608215456008912,4.606240024566651,13.582108028820194
2.500670083332807,-1.9550978296995163,12.884765367507935,4.086895008087159,13.658048795730501
2.5106980833224952,-1.901494357287884,13.04396399974823,2.78026099562645,13.471842072312432
2.5207250835373998,-1.7987067380547523,13.039604315757751,2.5841582465171817,13.41433936070258
2.530752083286643,-1.470919137597084,12.94225753068924,2.8129071700572967,13.325842556753829
2.5407800832763314,-1.3838260298967362,12.73381949543953,2.1642158961296083,12.990341175985936
2.550807083491236,-1.4968009606003763,12.290118738412858,0.775822606086731,12.405213921414505
2.5608340832404792,-1.910615721344948,11.722203240394593,-0.6290808820724487,11.893537909300035
2.5708620832301676,-2.5372799491882327,11.245592014789581,-1.8315385615825654,11.672860095375759
2.580889083445072,-3.096967830061913,10.940818762779237,-3.1058316242694857,11.787235257630732
2.5909160831943154,-3.407162035703659,10.792922798395157,-3.6661621141433716,11.89691894218156
2.60094308340922,-3.3974006938934327,10.821961240768433,-4.3383720588684085,12.14407875026887
2.6109710833989084,-2.8555561763048174,10.83655939936638,-4.455713982582092,12.059793024202612
2.6209980831481516,-1.7987612633407117,10.596899571418763,-3.7966298675537113,11.3993079158531
2.631025083363056,-1.2397061973810197,10.217085492610932,-1.9762817072868348,10.480047557416057
2.6410530833527446,-1.1480358892679214,9.730852673649789,0.014614530801773072,9.798351582987568
2.651080083101988,-1.0375191280245781,9.26692347407341,1.5547769808769227,9.453552140630233
2.6611070833168924,-1.3244232890009882,8.780839759111405,2.3517746937274935,9.186298935572307
2.671135083306581,-1.9142785634100439,8.515425869822502,2.892367322444916,9.19471200694838
2.6811620835214853,-2.252975021749735,8.32396113216877,3.2405444562435153,9.212239345098194
2.6911890832707286,-2.7018556809425354,7.839110594987869,3.2446924710273746,8.903915333864887
2.701217083260417,-3.2609655645489695,7.346053490638734,2.5644005048274994,8.436500948240285
2.7112440834753215,-4.078352810740471,6.934630533456803,1.1792991971969604,8.130978347095477
2.721271083224565,-5.0969617509841925,6.244608215689659,2.67888781785965,8.4941503871271
2.731299083214253,-5.937735228538513,5.028929981589317,6.770582220554352,10.314437454812644
2.7413260834291577,-6.393119891881943,1.863031080365181,12.48777099967003,14.152289259995467
2.751353083178401,-6.868894380927086,-3.534043107032776,7.8217279922962195,10.993206969950482
2.7613800833933055,-3.707143494486809,-10.056980541944505,-2.802950531244278,11.078912500348075
2.771408083382994,1.4710036298632623,-20.834193041324617,-9.44033668756485,22.920458288106563
2.781435083132237,9.452233432531358,-42.859847488403325,-16.93413060665131,47.04334196244332
2.7914620833471417,16.17745412349701,-60.020190496444705,-16.27793150782585,64.25810721862909
2.80149008333683,10.578819980621338,-53.9740946674347,4.144288938045502,55.1569529447884
2.8115170830860734,2.6081332924962046,-34.58718339443207,13.75426387667656,37.312938630195745
2.821544083300978,1.2689548471570016,-20.950667238235475,-0.4720715204626322,20.994369617872035
2.8315720832906663,3.0540197387337686,-16.07993893861771,-0.5286058366298676,16.375924308715174
2.841599083505571,1.7294116777181627,-14.90150162100792,-0.34398007549345494,15.005463591781032
2.851626083254814,-0.25835863888263705,-14.416689090728761,-1.403469750881195,14.487146056648337
2.8616540832445025,-1.0875294864177705,-12.616799168586732,-2.035448513031006,12.826121482875449
2.871681083459407,-1.4468911743164063,-9.485659625530243,-1.6470916521549226,9.735714843416876
2.8817080832086504,-2.144395296871662,-5.445501412153244,-0.5150297713279725,5.875131699320657
2.8917360831983387,-3.2571435320377353,-1.2102537721395492,2.1119875426590444,4.066225468615857
2.9017630834132433,-4.118873722851276,2.8222188609838486,5.352286269664765,7.319631709077286
2.9117900831624866,-4.560075087547302,5.74841349542141,6.405127733945847,9.73982565586134
2.921817083377391,-4.5827573141455655,7.547004750967026,3.6014252507686617,9.535680843460923
2.9318450833670795,-3.8268202114105225,8.914776665568352,0.3401911528408528,9.707395425545066
2.9418720831163228,-3.0573564523458483,10.127695598602296,-1.955815283060074,10.758385568295108
2.9518990833312273,-2.8298541551828387,11.46543095111847,-2.120258867740631,11.99831984490761
2.9619270833209157,-2.583295782208443,12.586026442050935,-0.4703348974138499,12.857009512872988
2.9719540835358202,-2.894032024741173,13.132628839015961,1.2932672774791718,13.509770606290086
2.9819810832850635,-3.286870191693306,13.182127858400346,3.0875964975357055,13.932166474165145
2.992009083274752,-3.232007521390915,13.287932056188584,3.4545619046688083,14.104928532303898
3.0020360834896564,-3.0611132884025576,13.181350178718567,2.651162660121918,13.789382529644445
3.0120630832388997,-3.3454402890801433,12.847960653305055,1.1426371550559997,13.325452463041918
3.022091083228588,-3.781849275827408,12.592289979457856,-0.8382696998119354,13.174628911717166
3.0321180834434927,-3.8852701485157013,12.334694402217865,-2.5654740536212923,13.184144539667942
3.042145083192736,-3.463321033716202,12.107235374450685,-3.3723664247989658,13.0365868346758
3.0521730831824243,-2.8566881972551346,11.80222823381424,-3.3832200264930727,12.605531979533534
3.062200083397329,-1.9683983449637892,11.508650060892105,-2.800391789674759,12.006906864143065
3.072227083146572,-1.2571632058918476,11.326088293790818,-1.6578727483749391,11.515610162505414
3.0822540833614767,-0.6977836194634438,11.176661528348923,-1.0135955375432968,11.244200318946389
3.092282083351165,-0.05687652446329594,10.598325122594835,-0.08953022718429565,10.598855881878928
3.1023090831004083,-0.1478320835530758,9.562623016834259,0.6251363503932953,9.584174911988983
3.112336083315313,-0.7781553527712822,8.833712621927262,0.8048692345619202,8.904370776455117
3.1223640833050013,-1.1742212558537721,8.414431006908417,0.949198397397995,8.54882578634888
3.132391083519906,-1.5360895720124246,8.417780876755716,1.0007041811943054,8.615103883330676
3.142418083269149,-1.5795598196983338,8.549833810329437,0.6841090285778046,8.721391664822734
3.1524460832588375,-1.7075626793503762,8.406728469729424,0.0550059636309743,8.57857094880636
3.162473083473742,-2.1074119502305986,8.177392485737801,-0.9394171750545502,8.496672149880991
3.1725000832229853,-3.333058809936047,7.8908707326650624,-1.3778554379940033,8.676036396773126
3.1825280832126737,-6.320884559154511,6.467824503779411,3.0157599449157715,9.533160203584417
3.192555083427578,-9.387386056780816,2.948056204319,15.681326061487198,18.51264539198934
3.2025820831768215,-7.983554947972298,-0.6056329625844956,17.060025837421417,18.845381993107708
3.21261008316651,-5.480081260800362,-0.2327121663093567,3.4751476120948794,6.493234671808222
3.2226370833814144,-4.360789114236832,0.7485301423072815,-4.562837896943092,6.3558059085035845
3.2326640831306577,-1.7024734090268612,-9.098832396268845,-6.740955548286438,11.451098130214792
3.242692083120346,5.470773662924767,-32.593259468078614,-8.389353468418122,34.097377888079706
3.2527190833352506,16.10227647185326,-61.1847640657425,-7.126724431514741,63.668272023664365
3.262745833490044,19.909949390888215,-61.90167012691498,-5.433943805694581,65.25144132149553
3.2727738334797323,11.657718976736069,-39.16509482860565,1.2613005495071412,40.88273405424853
3.2828008332289755,7.136373506784439,-22.1457235121727,-1.687746173143387,23.328295776822053
3.29282783344388,4.344335634112358,-16.51643358707428,-2.541141450405121,17.266245405675807
3.3028548331931233,3.0209031558036807,-14.463719415664674,-1.2337531471252443,14.827244586903575
3.3128828331828117,-1.4184107024967672,-14.510553274154663,-1.0181849440187216,14.615223084963993
3.3229098333977163,-5.994231026172638,-14.04417701482773,-0.5652655398845673,15.28035466700715
3.3329368331469595,-9.037718467712402,-11.754321995973587,2.297530074119568,15.004102276648949
3.342964833136648,-10.437537217140198,-7.874325451254845,4.235431827306748,13.743582765612087
3.3529918333515525,-9.473369947671891,-3.6193808805942536,3.8004726576805115,10.829969923598188
3.3630188331007957,-6.726152152419091,-0.35879743158817295,3.6666731607913974,7.669051469541341
3.373046833090484,-3.9707614114880565,2.075848095417023,2.88459871172905,5.328883675772816
3.3830738333053887,-0.8728334686160089,4.624594434499741,1.3044424760341644,4.88367506298529
3.3931008335202932,-0.4403120031952858,6.584465346336365,-0.5732002115249634,6.624018194400931
3.4031288335099816,-0.8134190332889557,8.268404982089997,-1.6870374906063081,8.477869246826037
3.413155833259225,-0.9769246514886618,10.130448467731476,-2.241626014709473,10.421384510796612
3.4231828334741294,-1.6011492016911508,11.933666625022889,-1.8384815454483032,12.180151570330125
3.433210833463818,-1.8158456580340863,13.075590419769288,0.19821834482252598,13.20256228129933
3.443237833213061,-2.065595879852772,13.27001852631569,1.7122577011585236,13.53853405885597
3.4532648334279656,-2.3248488503694538,13.27203581571579,2.14930432677269,13.644462831485551
3.463292833417654,-2.5119094651937486,13.248613039255142,1.4480138397216797,13.56215988348747
3.4733198331668973,-2.72649847894907,12.93998062491417,0.17121407568454744,13.225211030020589
3.483346833381802,-2.7643831738829614,12.628980088233948,-0.6838131594657898,12.946063217755247
3.4933748333714902,-2.9722581222653393,12.415290083885193,-1.1180665701627732,12.814984161820327
3.5034018331207335,-3.1899476221203806,12.176770462989808,-1.0221856820583344,12.629107977557938
3.513428833335638,-3.2480139818787577,11.921745321750642,-0.8522135549783707,12.38563176775622
3.5234568333253264,-3.0146992599964144,11.728352172374725,-0.9584533703327179,12.14748077465332
3.5334838330745697,-2.676558871865273,11.644119522571565,-1.2342144924402239,12.011360133800101
3.5435108332894742,-2.2159913827478888,11.667482657432556,-1.030441950559616,11.920678671257583
3.5535388332791626,-1.9232454147934914,11.65843467593193,-0.5881948113441468,11.83063587279181
3.563565833494067,-1.544765085875988,11.50114106655121,-0.22361152332276107,11.606573444243347
3.5735928332433105,-1.2051155313849449,10.50976904153824,0.45064491033554077,10.588230710825684
3.583619833458215,-1.7048712059855462,9.328297019004822,0.3118811273574829,9.48793870876992
3.5936478334479034,-2.3295052805542946,8.791067708730697,-0.021880262698978185,9.094500814091653
3.6036748331971467,-2.487663985490799,8.5590174472332,0.023485926389694215,8.91323753500874
3.613701833412051,-2.5956518259644508,8.362509486079217,0.20813865780830385,8.758555532008216
3.6237298334017396,-2.5043858528137206,8.125769757628442,-0.03381559928879142,8.503012768925949
3.633756833150983,-2.317511471807957,7.7631295359134675,0.0785245978832245,8.102049476879678
3.6437838333658874,-2.8870025020837784,6.727200558185578,3.3293601536750796,8.042055075039569
3.653811833355576,-3.9312310177087784,3.94258104801178,13.905144259929658,14.97836972184196
3.663838833104819,-4.299462639391423,0.8004428923130036,15.418843381404878,16.02706520332622
3.6738658333197236,-4.158845289051533,0.2557484418153763,5.367298411130905,6.794799013796174
3.683893833309412,-3.472236868143082,2.3078901708126067,-3.214892136454582,5.264818834305985
3.6939208335243165,-1.9092068347334863,3.4014101296663286,-8.976440817117691,9.787295405330642
3.70394783327356,-0.24523032411932946,-5.56074827849865,-11.618645542860031,12.883127864742889
3.713975833263248,5.3263550376892095,-38.186766772270204,-8.848154075145722,39.55867850478318
3.7240028334781528,11.28561503648758,-58.54852583885193,-9.152057846188546,60.32458161872727
3.734029833227396,7.706669991016389,-58.18327600479126,-1.7770670700073243,58.718347527595284
3.7440578332170844,-0.47602051064372064,-40.990310211181644,10.300616476535797,42.26742039126751
3.754084833431989,1.21624307513237,-23.118934085369112,1.5563580679893494,23.2031595024739
3.764111833181232,1.2050228530168534,-17.07188632965088,-3.406962060928345,17.450179753040327
3.7741398331709206,0.24265769541263582,-14.372736740112305,-2.6252033615112307,14.612533553323562
3.784166833385825,-1.3662782433629037,-12.422699675559999,-1.9453756642341615,12.648109342602941
3.7941938331350684,-2.2279455766081813,-10.849321532249451,-1.553383004665375,11.184119006951006
3.804221833124757,-2.4507779949903488,-8.467678091526032,-0.2643947196006775,8.81917170771675
3.8142488333396614,-2.7854881140589716,-5.536319196224213,1.4107834482192994,6.356106057470568
3.8242758330889046,-3.1311965534090995,-2.5071352136135103,3.5081563138961793,5.328909790768795
3.834303833078593,-3.358169092833996,0.22525930523872376,6.558786714076996,7.371955274648312
3.8443308332934976,-3.1482490807771684,2.4666783285140994,7.295285625457764,8.319685487323788
3.854357833508402,-1.9846961429715158,4.1285359543561935,4.932749716043473,6.731704662822396
3.8643858334980905,-1.1163100665807724,4.845712156891823,1.925637803077698,5.3324624162614285
3.8744128332473338,-0.9703217563033104,6.161966008543969,-0.3433040277287364,6.247335996779875
3.8844398334622383,-0.7264601922780276,8.790101748704911,-1.3812314741313458,8.927565936395027
3.8944678334519267,-1.14042603045702,10.890659008026123,-1.3156726384162905,11.028962764082658
3.90449483320117,-1.8044092351198198,12.439022762775421,-0.6316618430614471,12.585077539078197
3.9145218334160745,-1.603895638883114,12.998628197908403,0.34275910377502444,13.101690732539383
3.924549833405763,-1.5006266476213932,12.840083284378052,0.7060840344429017,12.946743750805114
3.934576833155006,-1.8500261418521404,12.601422160863876,0.7329601764678956,12.757572959702618
3.9446038333699107,-2.397043983489275,12.306447672843934,0.5311973226070404,12.54896986922723
3.954631833359599,-2.6417100512981415,12.015726449489595,-0.12984443108551205,12.303380579352057
3.9646588331088424,-2.778384916484356,11.683571856021882,-0.4005845582485199,12.016061836029373
3.974685833323747,-3.2196277964115145,11.407485044002534,-0.8438233852386475,11.883129052654555
3.9847138333134353,-3.434397489130497,11.222693148851395,-1.057052628993988,11.783941950259472
3.99474083352834,-3.155866833329201,11.118482902050019,-0.7247360676527024,11.580388589362732
4.004767833277583,-2.8196741527318956,11.10155521273613,-0.33138977766036987,11.458835440556378
4.0147958332672715,-2.9345646312832834,11.049196904897691,0.08877827525138855,11.43259827863011
4.024822833482176,-3.132908618152142,10.434417142868043,0.506040773615241,10.906340118739722
4.034849833231419,-3.304641341865063,9.748172126412392,0.7978384693711996,10.323955657970243
4.044877833221108,-3.276829060614109,9.425791738629341,0.6162941908836365,9.99814868474235
4.054904833436012,-2.661773017644882,9.403239612579346,-0.368882709145546,9.779674087726557
4.0649318331852555,-2.2278638617694377,9.348774552941324,-1.6489908277988434,9.751006808451432
4.074959833174944,-2.245786308646202,9.076335818767548,-2.3161698281764984,9.63265647223551
4.0849868333898485,-2.229314117431641,8.647156621813775,-2.4296338784694673,9.254527533038324
4.095013833139092,-2.318800490498543,8.153241730928421,-2.3099524837732317,8.785673959064216
4.10504183312878,-2.8885792037844658,7.409601615071297,-0.7747841405868531,7.990392754746677
4.115068833343685,-4.717993764281273,5.790262017846108,5.120338334441185,9.055631620944846
4.125095833092928,-7.920854669809342,2.768455467224121,12.141762013435365,14.758952170298052
4.135123833082616,-10.525355379581452,-1.229226232767105,9.7243698656559,14.38254053642414
4.145150833297521,-9.526671996116638,-2.3553631299734117,-2.1169774103164674,10.039263327128209
4.155177833512425,-6.547719689011574,-1.2514362967014314,-6.237647105455399,9.129456026662691
4.165205833502114,-0.17172877684235574,-11.119302681684495,-2.754719772934914,11.456738799811678
4.175232833251357,13.120211691856385,-33.084884004592894,1.8583650022745133,35.639907756869555
4.185259833466262,23.225192027091982,-53.57410769462586,0.07206928093917668,58.39177813658291
4.19528783345595,17.270726745128634,-52.105535044670106,-2.8060647583007814,54.964886828083465
4.205314833205193,4.008365732431412,-29.518262550830844,-2.1076160180568695,29.86363784176809
4.215341833420098,1.03004784822464,-19.090635194778443,-5.746226052045823,19.963277900959945
4.225369833409786,1.8448805920779705,-18.61115181684494,-3.764422234296799,19.077458717207197
4.2353968331590295,1.0736433725059034,-19.03891423344612,-1.8192360198497772,19.155745482120032
4.245423833373934,-2.511260131895542,-16.861943221092226,-1.0727956724166872,17.08164064708487
4.255451833363622,-5.354607614278794,-12.960993179082871,1.074002537727356,14.064588452641262
4.265479166526347,-6.910364588499069,-8.960133517384529,3.7972870945930484,11.93551509881758
4.275506166741252,-8.105586923360825,-5.255884979367257,4.855295158624649,10.811972871121178
4.28553416673094,-7.761965939998627,-2.3305995869636535,4.443736546039582,9.242651360895408
4.295561166480184,-5.485770016908646,-0.3989110851287842,3.657545657157898,6.605334432596665
4.305588166695088,-2.659763037264347,1.036334774494171,2.7945071518421174,3.9946964091054893
4.3156161666847765,-0.7541706588864326,2.810170673131943,2.649182792901993,3.934971672714308
4.32564316643402,-0.7948968082666398,4.258533591628074,1.392229063510895,4.550304501030851
4.335670166648924,0.10337935745716095,6.11166182756424,-1.2776961421966553,6.244646108294555
4.345698166638613,0.41107764255255463,8.417524183988572,-2.232124289274216,8.718146423352097
4.355725166853517,0.11069970600306989,10.452913055419922,-1.530611608028412,10.564961791871694
4.3657521666027606,-0.13192846097052097,12.084307272434236,-0.9983255338668824,12.126192363845776
4.375780166592449,-0.4900875958800316,12.62191899061203,-0.20259198904037476,12.633054593851456
4.3858071668073535,-0.7367959499359131,12.522091816663742,0.7546474993228913,12.566429269487546
4.395834166556597,-0.9915535079687834,12.378442100286485,0.5754525589942933,12.4314179737053
4.405862166546285,-1.6921207675337793,12.222491011619569,-0.8018777990341187,12.365094711550901
4.41588916676119,-2.647368401885033,11.964444029331208,-1.9928211414813997,12.414822450934759
4.425916166510433,-3.18063271522522,11.649308341741563,-2.2983007371425628,12.292477194954667
4.435944166500121,-3.3724029698967937,11.459391946792604,-2.0256228518486026,12.115853808936254
4.445971166715026,-3.160628805756569,11.4031347155571,-1.1253106856346131,11.886436805372968
4.455998166464269,-2.9911425822973254,11.424032664299013,0.31794231455773114,11.813405249037615
4.466026166453958,-3.385576746761799,11.414521583318711,1.5626397317647935,12.008133735745654
4.476053166668862,-4.15806146979332,11.056981887817383,2.387661395072937,12.051856727974453
4.486080166418105,-4.200243868231774,9.535336984992028,2.786120490431786,10.785507283256516
4.496108166407794,-3.65563566416502,8.509017906188966,2.4520474255084994,9.580166721613072
4.506135166622698,-3.009972663223744,8.499150145053864,1.2463509732484819,9.102135978441588
4.516162166837603,-2.3137613600492477,8.702421580553056,-0.2923614404350519,9.009500996658236
4.526190166827291,-1.9110256111621857,9.005503817796708,-2.1552322340011596,9.45495340450425
4.5362171665765345,-1.912297380566597,9.193539163470268,-3.594831345677376,10.0548921439192
4.546244166791439,-1.4272977393865587,9.644691027402878,-4.490892001390457,10.734307374911356
4.5562721667811275,-0.6489862659573555,9.217097010612488,-3.8079126548767093,9.993811048024329
4.566299166530371,-1.079457697570324,7.772770425081253,-0.920606170669198,7.9011837545608214
4.576326166745275,-2.6472988200187686,5.677651076316834,6.125157201290131,8.76136196760474
4.586354166734964,-3.810766388475895,3.615248653292656,8.545986342430115,10.031243485115594
4.596381166484207,-5.6219300347566605,0.11903469264507294,8.15026023566723,9.901868938884748
4.606409166473895,-7.098879405856133,-1.6967853838205338,3.2059090590476993,7.9718895095528906
4.6164361666888,-8.029727486371995,-1.8047051042318345,-0.12890665646642446,8.231044948529908
4.626463166438043,-5.902852494120598,-4.448319593667984,4.047747314572335,8.427067882566499
4.6364911664277315,2.743990132212639,-17.660692759752273,-1.753170669078827,17.958372921703265
4.646518166642636,13.481528688669206,-34.45446095466614,-13.75154024362564,39.47108251026415
4.656545166857541,17.18661688685417,-54.90266525745392,-6.747403272986412,57.92417373874095
4.666573166847229,10.809677410125733,-62.89164583683014,9.804508295059204,64.56265658013261
4.676600166596472,2.303661464452744,-42.094086771011355,1.6869287323951723,42.19081328650134
4.686627166811377,-0.6564212199300528,-23.859147148132326,-1.7359283995628358,23.93121891719296
4.696655166801065,-1.410415073633194,-15.7141698718071,-0.1700276756286621,15.77825449314408
4.7066821665503085,-2.554262602329254,-10.219353042840957,0.5831498336791993,10.54985771394101
4.716709166765213,-3.561312181949616,-6.1418878394365315,0.24403942901641132,7.103892308617561
4.726737166754901,-4.066195572316647,-2.9245755404233935,0.035017841644585136,5.008823691567086
4.736764166504145,-4.079910508990288,-0.6486386489868164,1.0486209440231324,4.262159985567506
4.746791166719049,-4.51756407558918,1.0478105199337007,2.788921891450882,5.4115041697620105
4.756819166708738,-5.241859263181687,2.5779017257690433,4.0379304242134095,7.101235663848578
4.766846166457981,-5.653651179671288,4.022533535957336,5.023666902780533,8.566316411351645
4.776873166672885,-3.5648880466818813,5.5784378600120545,4.838817704916001,8.200094665599892
4.786901166662574,-1.5790372247993947,6.35599065721035,2.759692829847336,7.106889636610254
4.796928166411817,-0.9115447405725718,6.603875178694725,0.6205627314001322,6.695310246243157
4.806955166626722,-0.6353939015418292,7.582030157446861,-1.7589173126220703,7.809269929461516
4.81698316661641,-0.5828885362297297,9.308607689738274,-3.1879019737243652,9.856604646692402
4.827010166831315,-0.542007508724928,11.042812914848328,-2.675717457532883,11.37527815591344
4.837037166580558,-0.14603026404976846,11.834125964641572,-1.37867755651474,11.915058287304335
4.847065166570246,-0.01965921610593796,11.930969889163972,0.13914151310920717,11.931797406157447
4.857092166785151,-0.18020548537373543,11.93869523048401,1.7529157304763794,12.068041737642938
4.867120166774839,-0.39541810467839245,11.917937614917756,3.50346333861351,12.428509477631977
4.877147166524082,-0.23320187062025072,12.06589322090149,4.899096066355706,13.02464220614291
4.887174166738987,-0.008683553785085679,12.081554403305054,3.3561117500066757,12.539039767169532
4.897202166728675,-0.24646920293569566,11.75421089887619,-0.1950081503391266,11.758411844375678
4.907229166477919,-1.0769914150983095,11.468588447570802,-3.141297910809517,11.939689445392043
4.917256166692823,-2.2880815583467484,11.375540535449982,-4.12913178563118,12.316166976556541
4.927284166682512,-3.2675504064559937,10.652068051099779,-3.351220554113388,11.635038402442142
4.937311166431755,-2.718926334679127,9.453407553434372,-2.4229259526729585,10.130648792494876
4.947338166646659,-2.5024381452798843,8.833844184279442,-1.92434746876359,9.38094413817801
4.957366166636348,-2.5874683552980424,8.631751547455789,-1.7262220215797426,9.175073282239277
4.967393166851252,-2.8204649886488915,8.524383219480516,-1.6375506041944028,9.12697671773368
4.977420166600496,-3.0635036301612857,8.375264602303506,-1.5041305916011334,9.043921742651241
4.987448166590184,-3.794420497119427,8.088620057702064,-1.2872177481651306,9.026645604985912
4.9974751668050885,-5.342459439039231,7.665117922425271,-0.968727659136057,9.393313520799767
5.007502166554332,-6.621530846357346,7.3684149974584585,-0.8665328744798899,9.944299349204394
5.01753016654402,-6.129485895037651,7.200877650976182,0.5566128301620483,9.472753249425152
5.027557166758925,-4.235859843492508,6.5915580189228065,4.4994897472858435,9.035294888185351
5.037584166508168,-2.435114766061306,5.439191681742669,6.9078005844354635,9.123173734449837
5.047612166497856,-1.634590012729168,3.477612798213959,7.225153536200524,8.183429532029123
5.057639166712761,-2.0247285202145577,1.4943869376182557,10.313534145355225,10.616105899401271
5.067666166462004,-2.204965434372425,0.5996822512149811,8.645006015896797,8.941902503611368
5.077694166451693,-2.2330960965156557,1.528451646566391,0.8434971106052399,2.8344964257808405
5.087721166666597,-2.3642814494669437,1.2906038707494736,-2.5228805959224703,3.690584184755735
5.09774816641584,0.5194869576394558,-10.988147295713425,-7.2993324834108355,13.201874957551611
5.10777616687119,8.6143847322464,-26.2740659236908,-12.907804566621781,30.51467815998904
5.117803166620433,14.061274273395538,-33.88809029102325,-11.11627733230591,38.33658460912941
5.127831166610122,13.106247371435167,-52.70041205406189,3.1698843634128573,54.39811869639034
5.137858166825026,3.1696077901124955,-58.627575516700745,-1.1307183368504048,58.72407980093754
5.1478851665742695,-8.639292701482773,-40.1278599357605,3.099373374581337,41.164166901820934
5.157913166563958,-13.035404845476151,-19.39209892272949,2.46535218000412,23.49581327568468
5.1679401667788625,-11.203642920255662,-10.351498947143556,1.5280171984434128,15.330035280326259
5.177967166528106,-9.298955106139184,-7.017190879583359,3.902832845449448,12.285912181275712
5.187995166517794,-8.375745828151704,-5.22658341228962,4.783283774256707,10.970419135497476
5.198022166732699,-7.3943906682729725,-3.4739506870508197,4.068751682639122,9.126888132659563
5.208049166481942,-4.8801809084415435,-2.2429135715961457,2.8611981546878815,6.085497668158032
5.21807716647163,-3.5699096354842186,-1.5414815819263459,1.9120020961761475,4.333148080636432
5.228104166686535,-2.506887584030628,-0.5658169323205948,1.686838100552559,3.074094490633522
5.238131166435778,-0.663439121246338,1.1685894370079042,0.32714696489274503,1.3830321314145593
5.2481591664254665,-0.10314283758401871,2.8706495940685275,-1.4789251452684402,3.2308647638330457
5.258186166640371,1.005539536178112,4.561297740340233,-3.1841603404283525,5.6529128693450605
5.268212791532278,1.6057661631703377,6.667778813838959,-4.413802310228348,8.155943238819136
5.2782407915219665,1.6295520517230035,9.078080627918244,-4.927753270268441,10.457042606248692
5.288267791736871,1.2007271960377695,11.18429097533226,-5.0275471150875095,12.320971569426986
5.298295791726559,0.6064228848740458,12.329090430736542,-3.541804701089859,12.842063701182944
5.308322791475803,0.35211230993270876,12.479770839214325,-1.53001402258873,12.578140013031677
5.318349791690707,0.21543079353868963,12.384992151260377,-0.5857985492795706,12.400709695574841
5.328377791680396,0.0876617494225502,12.477046036720276,-0.1355232560634613,12.47808995550533
5.338404791429639,-0.16452369153499605,12.570779242515565,0.16846997737884523,12.572984567811039
5.348431791644543,-0.5773586782068014,12.38284505367279,-0.13215299405157566,12.397002019859729
5.358459791634232,-1.322480405420065,12.063222212791443,-0.7181006473302841,12.15672460482679
5.368486791849136,-2.127475647479296,11.776181226968767,-0.9174433386325836,12.00192897831971
5.37851379159838,-3.0537054508924486,11.635698362588883,-1.3401309567689896,12.104154012042908
5.388541791588068,-3.7778901261091233,11.608573129177094,-1.720453743338585,12.32847861592715
5.3985687918029726,-4.047384202480316,11.623549017906189,-1.82377112030983,12.442441551135827
5.408595791552216,-4.159712723493576,11.55999913930893,-1.6088508617877961,12.390528283261085
5.418623791541904,-4.153162380158902,11.522861133813858,-1.2310318529605866,12.310179766686137
5.428650791756809,-3.7773235309123994,11.425400912761688,-0.8312618849426509,12.062294781503168
5.438677791506052,-3.5351146093010906,10.569733407497406,-0.04353610195219517,11.145321664206643
5.44870579149574,-4.117275678813458,9.18869240641594,0.12148182548582555,10.069696370248616
5.458732791710645,-3.7084678888320926,8.267495155334473,0.10680407166481018,9.061766788860874
5.468760791700333,-2.504812699556351,7.737865471243858,-0.06319378316402435,8.133427454963702
5.478787791449577,-1.0736072659492493,7.827905575633049,-0.5926703432947398,7.9233828885361275
5.488814791664481,-0.24222675561904908,8.236090344786644,-1.6688462179899217,8.406955790767832
5.49884279165417,-0.642197794765234,8.303086572289468,-1.4859090596437454,8.459408393502843
5.508869791869074,-1.8646856962144376,7.144349693655968,5.40308044731617,9.149429687749896
5.518896791618317,-2.8880836522579196,3.544595577120781,18.124097464084628,18.69192590065086
5.528924791608006,-1.3013602624833585,2.0120690059661865,11.55649080991745,11.802306556654383
5.53895179182291,-0.40638536162674427,5.51313440144062,-3.3307529604434967,6.453968955146565
5.548978791572154,0.10311447858810426,6.924822998642922,-7.519229891896249,10.222652509276372
5.559006791561842,1.191361856907606,5.3729421436786655,-10.777150518894196,12.101025727611443
5.5690337917767465,1.3013602624833585,-7.869943547844887,-16.997605640888214,18.776265536634035
5.57906079152599,3.2121769818663597,-53.96229264736176,-18.122270793914797,57.01459293418065
5.589088791515678,0.5124270294606685,-81.81350232124329,-23.701309747695923,85.17901048547598
5.599115791730583,-7.1412535929679875,-79.08698776245117,-18.29410175085068,81.48879245078834
5.609143791720271,-12.005002655982972,-48.75222235679627,9.250125592947006,51.05354147345664
5.619170791469514,-6.49450827240944,-17.01480697989464,37.42229010343552,41.61862672949643
5.629197791684419,-7.920086930394173,-7.19269388794899,10.85396656036377,15.240446595957556
5.639225791674107,-5.339514781236649,-5.810343695282937,-1.4963247048854829,8.031780598273926
5.649252791423351,-3.0197652876377106,-2.1778135961294174,3.7704109525680543,5.298853951861001
5.659279791638255,-4.795086379051209,1.576435067653656,6.48580644607544,8.218496587639637
5.6693077916279435,-7.48207434475422,2.848045427799225,1.8576498878002168,8.218495139919565
5.679334791842848,-5.134685647487641,4.821514624357223,1.0727325224876405,7.124798596185639
5.689361791592091,-1.896987762004137,5.700684428215027,1.2383607530593872,6.1343217126267975
5.69938979158178,0.3127758975327015,6.109197226166725,-0.0844080662727356,6.117780989209445
5.709416791796684,1.6824637985229494,6.995083726644516,-1.9399506175518038,7.451529317841192
5.7194437915459275,1.8628137101233007,8.821788979768753,-3.0259539806842803,9.510543266050147
5.729471791535616,1.71122976064682,10.83860241651535,-2.2375867581367492,11.198678678183631
5.7394987917505205,1.2819963307678701,11.859128658771516,-0.9263825619220735,11.964139408600666
5.749526791740209,0.9294384630024434,11.96219869852066,-0.6099224799871446,12.013744586555493
5.759553791489452,0.883536065965891,12.01026281118393,-1.2809460246562958,12.110651158862309
5.769580791704357,1.2936226420104504,12.085559746026993,-2.212891627550125,12.354396111101165
5.779608791694045,1.5479034326970578,12.169250943660737,-3.3272592490911483,12.710520354313022
5.789635791443288,1.3903021135926248,12.107546446323395,-3.8093428838253023,12.768583089892507
5.799662791658193,0.8592040474712849,11.850856018066407,-2.9166940784454347,12.234709816884521
5.809690791647881,0.44160672292113307,11.554998600482941,-1.274716985821724,11.633482391306323
5.819717791862786,0.007468904368579388,11.296149380207062,-0.0507170126773417,11.296265702428382
5.829744791612029,-0.43018287152051926,11.080886474847794,0.5895899569988251,11.104896158398255
5.8397727916017175,-0.7857231116294862,11.049743034839631,0.9750647252798081,11.12047360334175
5.849799791816622,-1.155813343897462,11.0627121591568,1.1198961639404297,11.179162411392708
5.85982779180631,-1.5069724845886232,11.139543403387071,1.269293693304062,11.312448885414382
5.869854791555554,-1.9238462162017824,11.173882931470871,1.5237031227350235,11.440214824733076
5.879881791770458,-2.4592231285572055,11.213493139743806,1.9471777760982514,11.643955860567447
5.889909791760147,-2.8891577857732775,11.08552565574646,1.6432196259498597,11.573084399347225
5.89993679150939,-2.998084981441498,10.723765439987183,0.04375120639801026,11.135060526816629
5.909963791724294,-2.5105336153507234,9.732073572278024,-1.451151455640793,10.15489416967241
5.919991791713983,-2.0486936259269717,8.787369344830513,-0.515180008225143,9.037721837734091
5.930018791463226,-2.3163662946224215,8.52166777253151,1.7804105079174042,9.008564592262614
5.940045791678131,-2.581259196996689,8.057915158867836,0.4492678910493851,8.473177526024108
5.950073791667819,-4.325872465968132,7.008542262911797,-0.15480328023433687,8.237523978624482
5.960100791417062,-5.096046661734581,6.011886109113694,-0.3593014615774155,7.889332272621177
5.970127791631967,-4.214887050390244,5.276039162278176,0.22375657081604006,6.756621129856529
5.980155791621655,-4.070180449783802,3.654986330866814,-1.4350914931297303,5.655508957315765
5.99018279183656,-1.636579674035311,-18.336613347530367,-2.448275971412659,18.57158682823013
6.000210791826248,9.30256225347519,-48.60992451667786,-8.539032833576202,50.22327655310626
6.010237791575491,13.221210647821428,-70.06194605827332,-10.57396094441414,72.07832785602385
6.020264791790396,4.097490162849427,-70.45918717861176,-12.137948459386827,71.61435803180831
6.030292791780084,-5.05009865641594,-48.75939338207245,-10.501372439861298,50.13243224249052
6.040319791529328,-3.5772601702809337,-25.648933081626893,-0.9663036227971316,25.915213702439033
6.050346791744232,-4.851893248558045,-12.87460407614708,5.976701073646546,15.000575120197022
6.060374791733921,-8.967260103821754,-6.284002076983453,10.19266050338745,14.959637830189614
6.070401791483164,-11.56611766576767,-4.3531848102808,8.539913424253465,15.021831351223026
6.080429791472852,-10.892442408800125,-3.6838353234529495,4.726726873219014,12.432131404282934
6.090456791687757,-8.79451054930687,-1.3138313502073289,5.0817098736763,10.24174515689961
6.100483791437,-5.617978486418725,1.9420269638299943,6.450085805654526,8.771360094216424
6.110511791426688,-2.910403643846512,3.1468691378831863,4.033846728801728,5.886013436320132
6.120538791641593,-0.636334499269724,2.3520688086748125,0.8125923100858927,2.5685512527712056
6.1305657918564975,1.5590121191740036,2.448388237953186,-0.33904137097299103,2.9223402955012223
6.140593791846186,2.98237994492054,3.919982144236565,-0.6517457862943411,4.96846281227405
6.150620791595429,3.795033577680588,5.99855094909668,-1.8559506869316102,7.336855341149485
6.160647791810334,3.415402224361897,8.249393929839135,-2.81825035572052,9.362692328137339
6.170675791800022,2.592238513827324,10.170482014417649,-3.350165716409683,11.01735064548503
6.180702791549265,2.06771651878953,11.201590547561645,-4.162498337030411,12.127550239148812
6.190730791538954,1.8874246408045292,11.45582865357399,-5.74333811223507,12.953158479159239
6.200757791753858,1.3564153061807156,11.664271366596223,-7.7923504114151,14.093112286883933
6.210784791503102,1.227219468355179,11.877799987792969,-8.5836541056633,14.706029987022161
6.22081279149279,1.407075290232897,11.887230377197266,-6.109018886089325,13.438981310484122
6.2308397917076945,0.8837320938706399,11.624652972221375,-2.7800727152824405,11.98508837850477
6.240866791456938,0.6907120699435473,11.462648845911026,-0.5036020461469889,11.49447766317002
6.250894791446626,0.5243616351485253,11.718319519758225,1.907936527132988,11.884199143532161
6.260921791661531,0.10158528551459313,12.140716531276704,3.9188559705019,12.757928890716821
6.270949041470885,-0.2723066236451268,11.95266305923462,2.674408265948296,12.251235230695944
6.280977041460574,-0.7541710974276066,11.718098495006561,0.5914463748782873,11.75722821064671
6.291004041675478,-1.2949708637595176,11.623653098344803,-1.4336922544240953,11.78311225309521
6.301032041665167,-1.6377754296362401,11.68276494026184,-2.550880572795868,12.069643603023197
6.31105904141441,-1.8584845778346062,11.702905089855195,-2.658942380547524,12.14421372717392
6.321086041629314,-1.9662937858700753,11.47619801402092,-2.278415526151657,11.864257642987102
6.331114041619003,-1.9582888014614583,11.498429127931596,-0.3348589672520757,11.668800194019273
6.341141041833907,-1.7898903062939644,11.484801607131958,2.8996769267320635,11.97967034367675
6.351168041583151,-1.7152494290471079,11.470113401412965,6.016962661743165,13.065581568301164
6.361196041572839,-2.111249477863312,10.55183624982834,7.244776207208634,12.97248645763432
6.371223041787744,-1.1557428849488498,7.748218551278114,6.126980947852135,9.94537721103746
6.381250041536987,-0.7949818852543832,6.497525435686112,8.948699287176133,11.087337458451296
6.391278041526675,-1.3006005629897117,6.687562867999077,4.831411036849022,8.352101025782419
6.40130504174158,-0.8926197154819966,7.728830938339234,-3.104255799651146,8.376634270371643
6.411333041731268,-0.13721076250076295,7.7203290867805485,-4.169544816613198,8.775386713944965
6.421360041480511,1.008236564397812,7.387750570178032,-5.205152197480202,9.09334970491554
6.431387041695416,2.1245045310258868,6.906688444018364,-6.303421264886857,9.589003306272982
6.441415041685104,3.208597024083138,5.93426549077034,-7.541772077679634,10.118741416281528
6.451442041434348,-0.48889944165945054,-15.378683534860611,-8.581424562335014,17.617712037846868
6.461469041649252,-7.688574028015137,-56.82025729179382,-11.101841726303102,58.40296823797402
6.471497041638941,-7.214948390722276,-70.50651220321656,-19.605857924222946,73.53647671929848
6.481524041853845,-11.209290161132813,-57.74682579517365,-21.011181242465973,62.464500418544574
6.4915520418435335,-10.931807034015655,-35.06709946632385,-13.236759563684464,39.04379174410187
6.501579041592777,-5.841754937767983,-20.45204241514206,-3.093682279586792,21.493790027604156
6.511606041807681,-4.319396674633026,-11.02643135547638,2.403361315280199,12.083688248281188
6.52163404179737,-6.357596302628518,-7.365579682588578,6.637358674407006,11.778171546572217
6.531661041546613,-5.878914577960968,-5.879703952074051,11.102510647773743,13.870771350682936
6.5416880417615175,7.665680424571038,-3.9400877952575684,52.91250693798065,53.60989030643357
6.551716041751206,2.046343776136637,-5.270567337870598,22.820307426452636,23.510270818324717
6.561743041500449,-3.0765002363920213,-4.538398289680481,-1.565997495353222,5.7021277516158335
6.571771041490138,1.8064411425590516,-2.2952338725328447,-0.7771008805185556,3.022451638927393
6.581798041705042,4.393755131363869,-0.7090023797750473,-1.9997173476219179,4.879204648228341
6.591825041454285,3.597202391624451,1.2961049312353135,-5.646690069437027,6.81944732213395
6.601853041443974,1.1270397073030471,3.839688178896904,-8.394521237611771,9.299538194002615
6.611880041658878,0.5039066129922867,7.0729779946804054,-8.995501570701599,11.454256331004014
6.621907041408122,0.17060633070766926,10.096401300430298,-7.979381790161133,12.870002311288184
6.631935041863471,0.11167355976998806,12.111545941829682,-5.32358345746994,13.2303649576892
6.6419620416127145,-0.001440059579908848,12.979653983116151,-3.3579413437843324,13.406982869515822
6.651990041602403,-0.28600518811494113,13.361963653564453,-1.7527543473243714,13.479466586214405
6.6620170418173075,-0.550005257204175,13.524450759887696,0.22326306581497193,13.537470980066262
6.672044041566551,-0.8209050042182208,13.540448741912842,1.6655315776169302,13.667173540800553
6.682072041556239,-1.4677265578508378,13.591443479061127,2.5047764468193057,13.89803806807546
6.692099041771144,-2.4350852376222614,13.305982410907745,2.969564602375031,13.849083795022361
6.702126041520387,-3.3721500778198243,12.964252417087556,3.0417683601379397,13.736651398286156
6.712154041510075,-4.158258520960808,12.611310971975326,2.4987199008464813,13.512212235673871
6.72218104172498,-4.458704248666764,12.278900270462037,1.5434183259308338,13.154222727240514
6.732208041474223,-4.328749880790711,11.870632470846177,0.3592972954362631,12.6403752054621
6.7422360414639115,-4.136213933229446,11.586606309413911,-0.1290994318574667,12.303429527334952
6.752263041678816,-3.8170027363300325,11.412941665649415,-0.33112080574035646,12.038869894664597
6.7622910416685045,-3.0515419811010362,10.967276244163514,-0.1531211093813181,11.384924363049302
6.772318041417748,-2.1295106247067452,9.623319454193116,-0.11104798078536988,9.85674512566025
6.782345041632652,-1.6312351727485657,8.672537046074869,-1.11653993524611,8.894969838698298
6.792373041622341,-1.2286821493506432,8.562994723320008,-2.17806911945343,8.920679545015382
6.802400041837245,-0.9637430539727212,8.276140263676643,-2.2787780535221103,8.638062731616643
6.8124270415864885,-0.4523986364901066,7.9576406729221345,-1.569725972414017,8.123592138587085
6.822455041576177,0.3114098417758942,7.9364597189426425,-1.8591116917133332,8.157246180067096
6.832482041791081,1.1873105404525996,7.110967939496041,-3.174266266822815,7.877279840700066
6.84251004178077,1.3987989950180055,-6.9727321600914,-6.043680928945542,9.332829773211142
6.852537041530013,-0.5067584462463856,-28.84589590072632,-11.114647128582002,30.917275029201356
6.862564041744918,6.720689098834992,-36.77283284425736,-10.110222948789596,38.724998456153926
6.872592041734606,8.7643582123518,-32.13890976190567,-5.190229518413544,33.71441795452126
6.882619041483849,-0.31688897520303727,-22.999260292053222,-4.0778014183044435,23.360112521375985
6.892647041473538,-4.890689232051373,-18.94746962785721,-3.1815296781063083,19.825427550389573
6.902674041688442,-4.612171440124512,-17.14172547340393,3.1305513131618503,18.025294148029452
6.9127010414376855,-3.106829451620579,-17.185436918735505,7.082478550672532,18.845506991058393
6.922729041427374,-0.5865673850476743,-18.943689987659454,7.0507761168479925,20.22179258858286
6.932756041642278,1.4349584689736368,-20.803172392845156,5.34608705163002,21.52700012026107
6.942783041857183,3.710170890390873,-20.39918592453003,2.3902742233872414,20.87116588220307
6.952811041846871,6.715973319411278,-16.929076273441314,1.745287599116564,18.296009125015978
6.962838041596115,6.79310452580452,-11.58385577917099,3.235625778436661,13.813082856090558
6.972866041585803,3.7482690086960795,-7.974160226583481,2.911286573410034,9.279673560707561
6.982893041800708,1.7878200995922089,-5.776286587715149,0.9657518649101258,6.123272337280223
6.992920041549951,1.3752075263857841,-3.2581925225257877,-0.8639237737655641,3.6405189934058027
7.002948041539639,0.7903481130301953,-0.5802367508411408,-2.7894037020206452,2.9567038809531727
7.012975041754544,0.5921311569213867,2.2679922795295715,-4.040837659835816,4.671485553884352
7.023002041503787,0.4353401157259941,5.107328864336014,-3.8168694198131563,6.390838858299037
7.033030041493475,-0.2843664693832398,7.302856600284577,-2.732138410806656,7.802381630568618
7.04305704170838,-0.9818429638445377,9.118565579652786,-2.1057975339889525,9.409922268022916
7.053085041698068,-0.8770924343168736,11.000974917411805,-2.1121043407917024,11.236179289164564
7.063112041447312,-1.0910249519348145,12.418286197185518,-2.220523413419724,12.662341479777659
7.073139041662216,-1.5573307523131372,13.287533276081087,-2.421843048334122,13.595923778317776
7.083167041651905,-2.5782926121354106,13.805496010780335,-3.2138940167427066,14.407235253452285
7.093194041866809,-4.082447615861893,14.219088284969331,-3.8585811173915867,15.288476000945924
7.103221041616052,-5.943349725008011,14.445361497402192,-3.476432830095291,16.0024204408754
7.113249041605741,-7.782783781886101,14.410771708488465,-1.4665787494182587,16.44362848820193
7.123276041820645,-8.36691653251648,14.21702538728714,0.5633897531032562,16.50595380881597
7.133304041810334,-8.076558421254159,13.957299084663392,1.663867313861847,16.21127533875157
7.143331041559577,-7.082428264617921,13.628517165184022,1.3029374027252199,15.414114185401464
7.1533580417744815,-5.411240821480751,13.267538137435913,0.11314939700067043,14.329057828148288
7.16338604176417,-3.8574751165509227,12.68736453652382,-0.826364768743515,13.286542510693758
7.173413041513413,-3.4802566167712214,10.474617919921876,-1.3177051305770875,11.116031373564827
7.183440041728318,-3.206483547985554,8.239106923341751,-0.7197174024581909,8.870310748624378
7.193468041718006,-2.0714968898892403,7.366717550754547,0.21299769401550295,7.655389921817947
7.203495041467249,-1.0031763108819725,7.455735561847687,0.5767682556062937,7.544999476447307
7.213523041456938,0.022895286802668127,7.929203324317933,0.5134464184194804,7.9458427354887995
7.223550041671842,0.795086184963584,8.25893775522709,0.39128631591796875,8.306342147254716
7.233577041421086,1.2160210271179677,8.546196257472038,0.642589192762971,8.656159568785563
7.243605041410774,1.471663049608469,8.781318061351776,1.8847281973063947,9.101073530300017
7.2536320416256785,1.8240675741434098,8.540783489942552,3.044503687620163,9.248849000878405
7.263659041840583,2.299327654391527,8.416095124483109,1.6602560734748841,8.881104381556847
7.2736870418302715,2.7584362632036212,8.228069134354591,0.22791744947433473,8.681131185603082
7.283714041579515,3.1275025749206544,7.719197065830231,0.13943745531141757,8.329869056665963
7.293742041569203,4.0545639985799795,4.762075338363648,-2.1167024450004104,6.602823637467749
7.303769041784108,2.8971743184328083,-10.8830646443367,-4.959851560592652,12.305886501480154
7.313796041533351,5.100629709362984,-26.74323247432709,-7.831526756286621,28.329308462127567
7.323824041523039,9.238486710190774,-38.97669286251068,-8.31180535554886,40.909880609229276
7.333851041737944,2.714554956257343,-39.87393640995026,-7.01209327697754,40.57670594762877
7.343879041727632,-6.8034505891799935,-32.09774536371231,-7.6565850806236275,33.69236549205112
7.3539060414768755,-9.180045543909074,-23.88400717020035,-5.925025720596314,26.26451911770239
7.36393304169178,-8.182360864877701,-16.319073686599733,-0.9915214213728906,18.282404383471974
7.3739610416814685,-9.793863438963891,-15.782382320165635,5.633099970817566,19.409666870973734
7.383988041430712,-10.066750069856644,-19.574878206253054,8.348190239667893,23.54161409156742
7.3940160414204,-6.833067905902863,-20.264870703220367,12.128166067600251,24.585528544007527
7.404043041635305,-3.442217555344105,-18.54845212340355,10.158697535991669,21.426457325005362
7.414070041850209,-0.13504341892898084,-15.27488493204117,3.873773353099823,15.759012228032589
7.424098041839898,3.214154217839241,-12.090905270576478,0.2778270895779133,12.513910879090165
7.434125041589141,5.255572153329849,-8.72837854027748,-3.0504853892326356,10.635369843646924
7.444152041804045,5.759744814634323,-5.293389020562172,-5.172534674406052,9.378152409224754
7.454180041793734,5.569034952521324,-1.827674721479416,-4.4885238790512085,7.382505794291797
7.464207041542977,5.365333161950112,1.1886155658960342,-3.6141873836517338,6.577382256366076
7.4742350415326655,4.821975384950638,3.7928145593404774,-3.2386569750308993,6.937275250163514
7.48426204174757,3.510586416721344,6.106655441522599,-3.3572466945648194,7.802984239309495
7.494289041496813,2.3998230189085006,8.299764769077301,-3.5471151423454286,9.33955414231087
7.504317041486502,1.8639989407360555,10.155250017642976,-3.8621175134181978,11.023590461340369
7.514344041701406,1.4807295960187912,11.327448356151582,-3.594243700504303,11.975902228075428
7.5243710414506495,0.8001937278360128,11.799564242362976,-2.4849906384944918,12.084916416141416
7.534399041440338,-0.21081244334578514,12.318394703865051,-0.643228805065155,12.336978287333794
7.544426041655242,-1.2015188359469176,12.602838356494905,1.0011824834346772,12.699509774720081
7.554454041644931,-2.2021558472514156,12.945747148990632,1.2227393317222597,13.188515879147406
7.564481041859835,-3.1538045203685763,13.119452723264695,0.5492102916911245,13.504375389301579
7.574508041609079,-3.825116917490959,13.253612408638,0.4533709188178182,13.802003713262376
7.584536041598767,-4.069862361252308,13.601591906547547,1.8301071631908417,14.314900427895417
7.594563041813672,-4.27175970107317,14.019201217889787,2.9608709621429443,14.951678520683103
7.60459104180336,-4.349024223983288,14.186014094352723,2.9073034501075745,15.119835347548431
7.614618041552603,-3.8810683393478396,14.047619855403902,1.6173866271972657,14.663364366967858
7.624645041767508,-2.589454654455185,13.724591596126556,-0.41839400768280033,13.973000516482214
7.634673041757196,-0.8524512442946435,12.55390885591507,-1.6600537598133087,12.69185089622442
7.6447000415064394,-1.1912025933712722,9.9466330575943,-0.916030651330948,10.059502222031663
7.654727041721344,-2.9151287788152698,8.782068843841554,-0.12105486910790206,9.25404577773334
7.664755041711032,-3.704508739113808,8.702411640286446,-0.08666275262832641,9.458481050774312
7.674782041460276,-3.8459391447901727,8.70513351917267,-1.0189439857006073,9.5712509285907
7.684810041449964,-3.779355730712414,8.445989599227905,-2.4435911822319034,9.570235520373375
7.694837041664869,-2.893439701795578,8.355920843482018,-2.9858771646022797,9.333213213709278
7.704864041414112,-1.7944830018281936,8.367405944466592,-1.447815034389496,8.679275307141111
7.7148920418694615,-1.4427995851635933,7.8234681236743935,2.97577551484108,8.49373675362177
7.724919041618705,-1.784084021151066,6.570105169415474,7.474646626710892,10.110369920329672
7.734947041608393,-1.4895504131913186,5.5549788308143615,5.153672726154328,7.722492655389263
7.744974041823298,-0.9732648061215878,5.132225723862648,3.9225847399234772,6.53250765827281
7.755001041572541,-0.7454257093369961,6.691408581733704,0.22034055434167385,6.736405440272105
7.765029041562229,-0.4410224033519626,5.228028843998909,-5.217001579999924,7.398911530736438
7.775056041777134,-2.5346212202310565,-16.043066396713257,-9.598985681533813,18.866499682073695
7.785084041766822,-4.2691860491037374,-44.76711100101471,-14.877540900707245,47.367303070274666
7.795111041516066,4.271861150264741,-56.67120474815369,-12.174660787582399,58.12139546317685
7.80513804173097,3.547312778234482,-42.13853496551514,-6.20713165640831,42.74070706465388
7.8151660417206585,-3.523193598389626,-19.062023599147796,-3.430698248147965,19.686120168688564
7.825193041469902,-2.542595068216324,-5.543752176761627,0.7174219317734242,6.14106441152157
7.835220041684806,-1.6272669598460199,0.6149440687894822,4.192804455757141,4.539357131859401
7.845248041674495,-1.0753621615469455,0.6083887553215027,2.7274255549907687,2.9942262463122704
7.855275041423738,-0.09974925979971887,-7.607003030776978,-1.4394042532145979,7.742630665946361
7.865303041413426,-0.4203769446909428,-18.41264118432999,-2.503485381603241,18.58681014091481
7.875330041628331,0.10195219829678535,-25.62552550792694,1.2704653291404249,25.657202379852325
7.8853570418432355,3.5325409573316575,-26.98762503862381,4.876470265388489,27.651233482248102
7.895385041832924,6.323008267879486,-18.298816945552826,8.802847509384156,21.267751630955125
7.905412041582167,6.193631020188332,-10.374894826412202,11.24153404712677,16.503684303999037
7.9154400415718555,7.32352943122387,-6.02014179289341,5.427764468193055,10.924139218204935
7.92546704178676,8.156704452037811,-2.370917893052101,-0.8407418294996024,8.535802598312499
7.935494041536003,7.00116366147995,0.8444659942388535,-4.91334631562233,8.594788388755868
7.945522041525692,4.420451763868332,3.31898660838604,-6.078620381355286,8.216184737696713
7.955549041740596,2.3622914958000183,5.593217282295227,-5.331117010116578,8.079932503037968
7.965577041730285,1.1976483446359636,7.720493978261948,-4.777485090494156,9.157770067853976
7.975604041479528,-0.3851162608712912,9.499154999256135,-5.099336889982224,10.788211017208269
7.9856310416944325,-1.6210480074584486,11.41563372373581,-4.990892089605332,12.563976034960605
7.995659041684121,-2.6403470653295518,13.045591864585877,-4.244534772634506,13.97050375465563
8.005686041433364,-4.779619908928871,14.032150461673737,-3.188811800479889,15.162932887530681
8.015713041648269,-7.525909751057625,14.382575265169145,-2.1608701193332673,16.37580985820081
8.025741041637957,-9.459310902357101,14.172125787734986,-2.542978645563126,17.22772336911134
8.035768041852862,-10.92143056511879,14.045896096229553,-1.9494850873947145,17.89875232637074
8.04579604184255,-11.970871288776399,14.043688187599184,-0.7076627826690675,18.466935965041383
8.055823041591793,-9.755106924176216,13.780121433734895,1.1210936737060548,16.92071833155479
8.065850041806698,-5.845223506093025,13.173327798843385,2.7786647057533265,14.67733561239783
8.075878041796386,-3.639608446061611,12.637879550457,3.14617858171463,13.522617677082426
8.08590504154563,-2.316556036770344,12.130448820590974,2.3315164303779605,12.56782357154955
8.095933041535318,-1.7696229797601701,11.618702845573425,1.073758124113083,11.801643013298197
8.105960041750222,-1.5369260162115097,10.585258934497833,0.4477318274974823,10.705620583554614
8.115987041499466,-1.510015667974949,8.590609953403474,0.8407383942604065,8.762737456789873
8.126015041489154,-2.229841536283493,7.704883081912995,1.4171335244178773,8.14528599920919
8.136042041704059,-2.303499788939953,7.928547851443291,1.6347107577323914,8.416665703930413
8.146070041693747,-2.160630675852299,8.075100710391999,1.143645215034485,8.437031514595557
8.15609704144299,-1.796457898914814,8.25080544769764,0.298324979133904,8.44938159343663
8.166124041657895,-1.3075583110749722,8.591057850122452,0.0538715672492981,8.69016029005045
8.176152041647583,-0.7477550938725472,8.96092698454857,0.21284453351050617,8.99459020179732
8.186179041862488,-0.3256280775368214,9.16633265376091,0.8104743754863739,9.207852989573839
8.196206041611731,-0.023011698927730324,9.057673260569572,1.4173253130912782,9.16792154616595
8.20623404160142,0.18544239789247513,8.918774406909943,0.757184021472931,8.95277909068809
8.216261041816324,0.3213857764005661,8.76708418428898,-0.15943252086639406,8.774421498901928
8.226289041806012,0.48167056549340487,8.16642135500908,-0.7510760200023652,8.215020357189243
8.236316041555256,0.2967777693271637,4.851519026756287,-2.602267073392868,5.513357219753655
8.24634304177016,-1.8276104021072388,-10.27472500562668,-5.459535899162293,11.777803953088307
8.256371041759849,1.0027569193392993,-33.59631422996521,-11.842417316436768,35.63650795426632
8.266397958155721,7.918729791641236,-56.79652695178986,-18.388757647275927,60.22207371976381
8.27642595814541,6.2944902276992805,-58.15964389801026,-17.555299036502838,61.076618356217146
8.286452958360314,-2.547381891310215,-38.82907873392105,-6.420334002971649,39.438651073977276
8.296480958350003,-2.599407200217247,-21.808114635944367,2.398262397050858,22.093040630301218
8.306507958099246,-2.437841322720051,-12.488463310003281,6.120734367370606,14.119779578873432
8.31653495831415,-4.375801548063755,-13.064063218832016,11.112482489347459,17.70041395136652
8.326562958303839,-3.438600175380707,-16.00859706044197,42.09759042263031,45.16974950562882
8.336589958518744,-1.085600489974022,-14.951945550441742,16.28314839363098,22.133235772842017
8.346616958267987,2.3605197894573213,-12.388189408779144,-1.1904745419323446,12.667143329859199
8.356644958257675,5.081710458397866,-9.708095895051956,-1.1899854954332114,11.022112890451464
8.36667195847258,5.76341218829155,-6.533182341456413,-3.4769766211509707,9.38023229898364
8.376699958462268,7.453424157500267,-2.405632812380791,-7.322905533313752,10.722198764686693
8.386726958211511,8.191199516057969,1.5844463378190996,-11.465135082006455,14.179405564337026
8.396753958426416,7.147802474498749,4.90202435195446,-10.217532219886781,13.398465868375732
8.406781958416104,5.501131821870804,6.9940154403448105,-5.8313989341259,10.638793015671745
8.416808958165348,3.933311457037926,8.169725031852723,-2.9621936023235325,9.538864557786384
8.426836958155036,3.087447393536568,9.187852161526681,-1.549157806634903,9.815744936569212
8.43686395836994,2.367971627265215,9.995429241657257,-1.5775799524784089,10.392528751895366
8.446890958119184,1.6579015459120274,10.481472026109696,-2.188914535045624,10.835185287377026
8.456918958108872,1.0900667394697667,10.907622950077057,-2.5066265058517456,11.244894857551337
8.466945958323777,0.16444384049624206,11.42621250629425,-2.0704932153224944,11.613454101617174
8.476973958313465,-0.7458335526287556,12.022629672288895,-0.9647250938415528,12.084311582871232
8.48700095852837,-1.6811787267029286,12.492794927358627,1.0709584772586822,12.650819699456955
8.497027958277613,-2.6456604301929474,12.844550557136536,3.1451471328735354,13.486064978864215
8.507055958267301,-3.6486654907464984,12.95783919095993,3.9890336680412295,14.040325707294256
8.517082958482206,-4.608255559802056,12.770894351005555,4.227750924825669,14.219902943106064
8.527110958471894,-5.495400381088257,12.432120709419252,3.915409036874771,14.14522812145766
8.537137958221138,-6.176051951050758,12.100293560028076,2.965523006916046,13.90521659829444
8.547164958436042,-7.077540577054024,11.761597101688386,2.5228618848323823,13.956775383025652
8.55719295842573,-8.131963713169098,11.13826520204544,2.2733670401573183,13.977052022607232
8.567219958174974,-8.170837756991387,9.692126564383507,1.6354720652103425,12.781810351714185
8.577247958164662,-7.371355562210083,8.489571236371994,0.3607521557807922,11.248993053596429
8.587274958379567,-5.431845824718476,8.523275756835938,-1.284654913544655,10.188302946883411
8.59730195812881,-3.2009202146530153,8.939100497961045,-3.396334161758423,10.084071284533296
8.607329958118498,-1.682161643654108,8.84800672531128,-5.9916295999288565,10.817417255023416
8.617356958333403,-0.6147060871124268,8.476355359554292,-6.854461698532105,10.918338194598181
8.627384958323091,0.44995497543364765,8.44607029080391,-6.853554210662842,10.886219185539684
8.637411958537996,0.8466151383519173,8.283886654973031,-6.508079659938812,10.56856831198229
8.647438958287239,0.6618010237812997,7.839905816316605,-5.5990247368812565,9.65666514941888
8.657466958276927,0.8432664379477501,4.645684171915055,-5.2251818346977235,7.042443107062081
8.667493958491832,0.7206935951113701,-8.15043214380741,-7.505203006267548,11.103018308285863
8.67752195848152,-1.042249525487423,-19.228383901119233,-10.523956725597381,21.944719106984405
8.687548958230764,-0.6212198853492737,-27.342408356666567,-9.398692817687989,28.919347080629656
8.697575958445668,-0.7868981096148492,-31.362104823589327,-4.254942816495896,31.65920665418466
8.707603958435357,-4.834903871119023,-32.04997828960419,5.002590029239655,32.79639173457516
8.7176309581846,-8.122111154794693,-28.612631757259372,31.29594708681107,43.175081815184164
8.727658958174288,-4.912344102859497,-17.02357897281647,21.049054827690124,27.51356165180587
8.737685958389193,1.036710458099842,-12.63149672985077,-7.991904187202454,14.983324422423363
8.747712958138436,5.633645516037941,-13.135744235515595,-8.888503956198694,16.831257855567877
8.757740958128124,3.6020105570554737,-16.21838931083679,-9.481482374668122,19.128751655875153
8.767767958343029,-0.3361862486600876,-17.560769691467286,-6.031138651371003,18.570629681909157
8.777795958332717,0.39967853218317034,-15.824014495611191,1.997296600341797,15.954572115733411
8.78782295808196,-1.189732676446438,-11.67607338666916,5.643088184595109,13.022695490235696
8.797849958296865,-4.59696634054184,-8.147479299902916,3.610074452161789,10.027270617100765
8.807877958286554,-3.944131144881249,-5.069015568494797,1.7328950102627279,6.652369084638822
8.817904958501458,-3.2671995735168458,-2.866344289183617,1.3494099032878877,4.550981182603991
8.827932958491147,-1.9104499527812004,-2.8644018441438677,1.7363330268859865,3.8560950879188045
8.83795995824039,0.41316425800323486,-3.1074062794446946,0.0169779022783041,3.134799313957666
8.847986958455294,1.4458471539616586,-1.5568720382452013,-2.338831297159195,3.15981904112564
8.858014958444983,1.6433066032826902,0.25257983565330505,-4.581107522249222,4.873479177772236
8.868041958194226,0.7551237550377846,2.2526281356811526,-5.532967572212219,6.021484497882287
8.878069958183914,-0.7630169114470482,4.755590191483498,-4.411689126491547,6.531526148251417
8.888096958398819,-1.1073281586170196,7.174576290249825,-3.4807609391212466,8.050864382834511
8.898123958148062,-0.5309216263890266,8.971681183576584,-2.2412506234645844,9.262620870482072
8.90815195813775,0.1308375898003578,10.351874338388443,-1.2821610760688782,10.431795522232788
8.918178958352655,0.4660981876775623,11.169809761047365,-0.42095508813858035,11.187452829164243
8.928206958342344,0.48699408989399673,11.316471962928773,-0.061456566257402305,11.327112511177809
8.938233958091587,0.5280678927898407,11.5600938642025,-0.8322330343723298,11.602035927890777
8.948260958306491,0.7221299636363984,11.919068466424942,-2.212527346014977,12.144173172701837
8.95828895829618,1.0117133188247682,12.310545401573181,-3.215754016041756,12.763783366046711
8.968315958511084,1.24918599575758,12.60809149503708,-3.6318611776828766,13.180093035073131
8.978343958500773,1.6115084213018418,12.95131603717804,-3.325785166025162,13.468273588598684
8.988370958250016,2.0925816571712494,13.401558659076692,-1.8930857688188554,13.695416978416812
8.99839795846492,1.927452194094658,13.731346299648285,-0.5292648178339004,13.876060839041521
9.008425958454609,1.1790346106886864,13.432606204748154,-0.2967093569040299,13.487515282939064
9.018452958203852,0.5541143149137497,12.713727293014527,-0.36726127624511723,12.731095208196505
9.02848095819354,0.05098391979932785,11.798013560771942,-0.4893055307865143,11.808265886348217
9.038507958408445,-0.13102934192866086,10.182261815071106,-0.5025401552394033,10.195497583086834
9.048534958157688,-0.1558657193183899,8.56543008863926,0.22051136612892153,8.569685641166627
9.058562958147377,-0.9865112346410752,7.756734436154366,2.771279087662697,8.29578937237516
9.068589958362281,-2.3333208811283113,7.330056678056717,5.029519965648651,9.190766470903919
9.07861795835197,-4.105007343292237,6.868407892584801,5.12581542134285,9.502636265851732
9.088644958101213,-5.829933037161827,6.385816134810448,4.17949853181839,9.60390414898381
9.098671958316118,-8.224601150751115,5.490378207564354,3.537825086116791,10.502596026268524
9.108699958305806,-14.614751826524735,2.8718283927440647,7.231056300401688,16.55676733205664
9.11872695852071,-17.119699012041092,-1.9484179705381395,15.035581784248352,22.868081389605415
9.128754958510399,-2.22189604729414,0.42405762076377873,-4.401812009811402,4.948999482767102
9.138781958259642,3.9285588401556018,3.172612674236298,-14.129749846458436,15.004961728201167
9.148808958474547,3.6313966163992886,3.980458141565323,-10.543294637203218,11.840276610334236
9.158836958464235,7.441190028190613,-2.4320248049497604,-10.74370210647583,13.29335129454674
9.168863958213478,18.712983416318895,-26.650121412277223,-9.727922633886338,33.98583820357269
9.178891958203167,26.373887250423433,-39.342106418609625,-14.773455784320833,49.614899596416954
9.188918958418071,26.435233898162842,-42.911943840980534,-16.62155015230179,53.071013226878655
9.198945958167315,16.8606498169899,-37.49647255897522,-13.616571303606033,43.309098128260885
9.208973958157003,12.49502739429474,-28.094940333366395,-7.2276052737236025,31.586225794044324
9.219000958371907,14.865613750219346,-22.34566788196564,2.165584144592285,26.925918739183825
9.229028958361596,10.460769374370576,-21.984062032699587,10.375115851163864,26.464499018239973
9.23905595811084,3.4376839166879654,-21.73254288196564,8.95720698595047,23.75610758976921
9.249082958325744,0.8429446949064732,-19.523384116888046,1.121404745578766,19.573722991235826
9.259110958315432,-2.109267125576735,-16.092685868740084,0.3039008839800954,16.233172888387205
9.269138166680932,-5.155636805891991,-11.97685182094574,2.2711053371429446,13.235690003455
9.27916616667062,-8.908299704790116,-6.860786046981812,6.812808473110199,13.14695965248643
9.289193166419864,-10.87438269853592,-2.9012685388326647,8.032044153213501,13.82690462423925
9.299221166409552,-8.109362470507623,-0.21408761501312257,5.585420604944229,9.849087090645257
9.309248166624457,-4.047282753288746,2.641177954673767,3.685778353214264,6.077933920531391
9.319275166839361,-1.3704218727350235,5.049784076213837,2.2382673740386965,5.691064589629913
9.32930316682905,-0.02911204420030117,6.873496139645577,0.3508925807476044,6.882508430511646
9.339330166578293,1.4208402206003667,8.995657106637955,-2.2819940221309665,9.388723578299826
9.349358166567981,2.058755222260952,11.125586099624634,-4.204848550558091,12.070538118016035
9.359385166782886,1.4483801677823067,12.65886052966118,-5.41708277463913,13.845191974368966
9.369412166532129,0.41832910358905795,13.058530583381653,-4.994430239796639,13.987299727117408
9.379440166521817,-0.6689115303754807,12.888767201900484,-3.528178349733353,13.379678811084444
9.389467166736722,-1.774569139480591,12.859241101741791,-2.1462982732057574,13.157346754611597
9.39949516672641,-3.208158775269985,12.978272870779039,-1.87033191382885,13.499110744920484
9.409522166475654,-4.7321130359172825,13.452759218215943,-2.7616171485185625,14.525706648662023
9.419549166690558,-6.075965745449066,13.950998125076294,-4.056932705640793,15.748219308983815
9.429577166680247,-6.473548927903176,14.234674623012543,-4.175691994428635,16.18546264328978
9.43960416642949,-5.816631790995598,14.245039397478104,-2.4613409900665286,15.58244372032531
9.449632166419178,-3.687723429501057,13.722147459983827,-0.4781268239021301,14.217075658016537
9.459659166634083,-2.12639171987772,10.714290611743927,0.03891665540635586,10.92332731201151
9.469686166848987,-2.5485419788956643,8.248505737781525,-0.3369048714637757,8.639815855492765
9.479714166838676,-2.881503488123417,7.579946794509888,0.05541632853448391,8.109360438970288
9.489741166587919,-2.808876976668835,7.267814821600914,0.5321690567582846,7.8098736261295025
9.499769166577607,-2.915988319516182,7.013625247478485,0.7426256239414215,7.631868697046408
9.509796166792512,-3.7918351507186894,6.720525376796723,1.4668067908287048,7.854616305843065
9.519823166541755,-5.557976113557816,6.885354877710343,2.326988931298256,9.149540303057496
9.529851166531444,-6.336969664692879,8.028958577513695,-0.5279836928844452,10.242076310525148
9.539878166746348,-6.787366653084756,8.554606892466545,-5.695105015039444,12.31600041817028
9.549906166736037,-8.170565276741982,7.546784310936928,-7.1147429019212725,13.203471397240374
9.55993316648528,-6.002886659502983,6.26700714468956,-4.024060243964195,9.565724627307754
9.569960166700184,-5.291906166672707,5.831238720417023,0.7195653748512268,7.907299805878374
9.579988166689873,-6.417923780679703,3.5573945474624638,8.070198989510537,10.907470529468627
9.590015166439116,-5.279795998334885,0.834585953950882,7.563700305819512,9.261875717953645
9.600043166428804,-1.74491937071085,1.0811466658115387,0.24511469542980197,2.0672936262643002
9.610070166643709,2.79593621134758,-10.105518279075623,-0.5598662209510803,10.500105198140552
9.620098166633397,12.830219031572343,-27.997712831497193,-5.408434742689133,31.26879611624072
9.630125166848302,23.851683762073517,-52.66068373203278,-1.2514491605758669,57.824013648419886
9.640152166597545,27.916207323074342,-69.40718888282777,6.348312678337098,75.07978139141946
9.650180166587234,9.463594572544098,-50.965412192344665,-5.314757670164108,52.108343969671964
9.660207166802138,-3.103887425065041,-29.539104366302492,-4.525132126808167,30.044460798554187
9.670235166791826,-5.916094098687172,-18.110082857608795,-2.0983271312713625,19.16711369100227
9.68026216654107,-5.858782614469528,-10.754195519685746,-1.460276620388031,12.333307050718037
9.690289166755974,-7.567509766817094,-7.441507532000542,-2.0558880400657653,10.810638928989274
9.700317166745663,-9.08961192190647,-6.508011247515679,-2.4085768854618075,11.435755239678564
9.710344166494906,-7.735648791790009,-5.178881242275239,-0.7147776746749879,9.336593612004666
9.720372166484594,-5.071631028056145,-2.717204037308693,1.2571244680881501,5.889397337026464
9.730399166699499,-2.199992816001177,0.32964321434497834,3.009574760198593,3.7424822346198114
9.740427166689187,0.10143852040171623,3.821486381292343,4.705331618785858,6.062523697155342
9.75045416643843,1.217673157900572,6.355932185053826,2.935619761347771,7.106227215878352
9.760481166653335,1.3073324623703957,8.308190022110939,-0.5571624684333801,8.428853399300642
9.770509166643023,0.4895652933418751,9.76552549302578,-2.0922425186634066,9.99913201674447
9.780536166857928,-0.49859862025827173,10.875945074558258,-2.0246487057209017,11.074022946992155
9.790564166847616,-1.467428788393736,11.898805525302887,-1.3583777779340744,12.065658306349071
9.80059116659686,-2.1026787753403187,12.871922543048859,0.21430103838443756,13.044292733665888
9.810618166811764,-2.425338075309992,13.139038556814194,1.649843351840973,13.462487959608811
9.820646166801453,-2.7760205948352814,13.16556269645691,2.2718812626600267,13.64550387229849
9.830673166550696,-3.2539489057660105,13.221104228496552,2.0094243103265765,13.763123430422205
9.840701166540384,-3.8280077809095383,13.399984588623047,0.4927893749624491,13.94475069386739
9.850728166755289,-4.620611603558063,13.354453489780427,-0.9936938812583685,14.166118280294512
9.860755166504532,-5.068717945218086,13.071687988042832,-2.2140675026178362,14.1937670606174
9.87078316649422,-4.2578772416710855,12.574596304893495,-3.58867539703846,13.752402769752305
9.880810166709125,-2.776785410642624,12.017957746982574,-4.511454319953919,13.133737689859924
9.890838166698813,-2.135106410086155,11.686734030246734,-4.690444023013115,12.772575966074248
9.900865166448057,-1.878470653295517,11.43937458872795,-4.095074093341828,12.294615683561917
9.910892166662961,-1.8786782294511797,10.970845384597778,-2.9667468291521075,11.519134823885354
9.92092016665265,-2.517299720942974,9.761442382335664,-2.177015012651682,10.313192989274919
9.930947166867554,-2.730163806080818,8.738353890180589,-1.8450193172693254,9.338989206502216
9.940975166857243,-2.8005306610465053,8.28164190888405,-1.464336342215538,8.864132535876221
9.951002166606486,-2.9964541929960253,8.013361714482308,-1.706721557378769,8.723852484554957
9.961030166596174,-2.8026692801713944,7.863637325763703,-2.373231636285782,8.678938615097369
9.971057166811079,-2.1504394175112247,7.9745935052633286,-2.520539955496788,8.635487996044567
9.981084166560322,-1.3328102427721025,8.307130506634712,-2.112648716568947,8.674565406815477
9.99111216655001,-0.826463732868433,8.50547215461731,-1.008240145817399,8.60480372038521
10.001139166764915,-0.944444903433323,8.077762947678567,1.7708070409297945,8.323339954051885
10.011167166754603,-1.6181369711458684,6.886838901042939,5.059568222165108,8.69747939928865
10.021194166503847,-2.821382709145546,5.526284204721451,4.175583820939064,7.47900513093201
10.031221166718751,-3.4841005763411523,4.567203428149224,0.5200794633105398,5.767910074569136
10.04124916670844,-2.6556322717666627,3.019593379497528,-1.1748512202501298,4.189343902101746
10.051276166457683,-5.884600995182991,-8.651239147782325,-0.09653109848499299,10.463354429512785
10.061304166447371,-5.897681801319123,-29.36378846883774,-3.534486910700798,30.158039087350726
10.071331166662276,4.54770413339138,-64.32814767837525,-9.591117668151856,65.19801940810821
10.081359166651964,15.550776447057725,-89.46350343704223,-9.054579498767854,91.25530398412762
10.091386166866869,5.57450209915638,-62.11166001319886,26.35972061634064,67.70353206606165
10.101413166616112,-7.165316054821015,-22.593702092170716,32.45494709014893,40.18881335669917
10.1114411666058,-3.3107502204179764,-9.28971007347107,7.123937648534775,12.165947061012503
10.121468166820705,-0.0378527545183897,-5.649858090877533,-2.6731581312417987,6.250448277740013
10.131496166810393,1.5347561144828796,-4.279145611524582,-4.321690537333489,6.272445503633371
10.141523166559637,1.6139247831702233,-2.367306067943573,-4.903370380997658,5.679078474391654
10.151550166774541,1.2125784058123827,0.6941317409276963,-4.9260043680667875,5.12032072220275
10.16157816676423,1.5713155379891397,4.046494840979577,-4.7531343609094625,6.43703652862547
10.171605166513473,1.5685784563422205,7.4290669959783555,-4.120432882905007,8.638833367241244
10.181633166503161,0.7818788596987725,10.008857957124711,-3.7835502308607105,10.72864504523235
10.191660166718066,0.08843493405729533,11.652728962898255,-3.9250060719251634,12.296324072054174
10.201688166707754,-0.9518449933826924,12.374602818489075,-4.393023059964181,13.165692363569889
10.211715166456997,-2.1806649908423426,12.504292892217636,-4.664630320072174,13.522995842622542
10.221742166671902,-3.1519138231873516,12.334273402690888,-4.4598789542913435,13.489232054051786
10.23177016666159,-3.8494302248954777,11.18952891111374,-3.0330700421333314,12.215694175505368
10.241797166410834,-2.4765329334139827,10.293220918178559,-1.9723728436231613,10.769116346059914
10.251825166866183,-1.506643140166998,10.934866297245026,-1.1721930760145187,11.100239236065761
10.261852166615427,-0.8915423659980297,11.632476546764375,-0.4330594092607498,11.674626283241013
10.271879291627556,-0.8754232004284859,12.080863262414933,0.3892164381220937,12.118791704651075
10.281907291617244,-1.1063866107165814,12.409658045768738,2.000974498987198,12.618542035072148
10.291934291832149,-1.5059796273708344,12.818607630729677,3.667753141522408,13.417790031737885
10.301962291821837,-2.4855665892362597,13.200173535346986,5.454827136397362,14.497508810853661
10.31198929157108,-3.6969094052910805,13.109548709392548,5.760193880796432,14.788753837265334
10.322016291785985,-4.235860135853291,11.106544057130813,4.871560943126679,12.846397861116404
10.332044291775674,-3.260660047531128,8.332905617952347,3.7001683509349825,9.682998802464471
10.342071291524917,-2.258937719911337,7.643477377295494,2.210845102071762,8.271238244967977
10.352099291514605,-1.826190113425255,7.713864405155182,1.242842059135437,8.023922405871598
10.36212629172951,-2.040653119683266,7.797854395508766,0.7080112767219544,8.091481835633932
10.372154291719198,-1.9692115464806557,7.873967016935349,0.4519102478027344,8.129045058962806
10.382181291468441,-1.5722019758820533,7.935392017364502,-0.207166850566864,8.092291617718276
10.392208291683346,-1.0155701422691346,7.987164434194566,-1.988683651685715,8.293433612154448
10.402236291673034,-0.6853346049785615,7.545119608640671,-3.446752363443375,8.323377636775684
10.412263291422278,-1.0492433801293373,5.733005497455597,-2.965451670885086,6.539278807097651
10.422291291411966,-2.049536209702492,1.1230057132244111,0.9138823843002319,2.5093667566042637
10.43231829162687,-2.4967739474773407,-4.444489667415619,1.9165371966362001,5.446143899554613
10.442346291616559,-0.40649382747709756,-7.71979874432087,-1.7565392500162125,7.9275443878569725
10.452373291831464,1.868830933570862,-12.260558724403381,-3.495064982771874,12.885236067942774
10.462400291580707,5.034014720320702,-20.973763740062715,-3.9175725066661835,21.922304713997608
10.472428291570395,9.429104771018029,-32.39638137817383,-5.624675302505493,34.20629350633503
10.4824552917853,11.459580227136613,-41.93108043193817,-6.773216975927353,43.99333987519973
10.492483291774988,6.6684337019920354,-42.52073704719544,-4.622428625822067,43.28796522678585
10.502510291524231,0.9940091192722321,-28.22881116628647,1.3192651677131653,28.2770984115025
10.512537291739136,-1.034116925597191,-17.294990351200106,3.722163237333298,17.721190372806984
10.522565291728824,-2.861448415517807,-13.098291649818421,2.7769619965553285,13.691773044740586
10.532592291478068,-4.939697377681733,-10.984132597446441,1.7925668692588808,12.176414705574294
10.542620291467756,-5.5150359159708024,-9.4820682656765,1.1057704603672027,11.024879503215349
10.55264729168266,-4.7363727325201035,-8.324591462016105,0.7367363083362579,9.60597887041463
10.562675291672349,-3.1803023475408554,-6.589385778307915,0.4299808502197266,7.3293390894879575
10.572702291421592,-0.8320878041535616,-3.835227338075638,-0.0038649912737309935,3.924455858676638
10.582729291636497,0.7944651375710965,-1.0135452514886856,-0.7928016778081656,1.5122775313964585
10.592757291626185,1.914345221668482,1.7819436478614807,-1.4191180694103243,2.975556567569455
10.60278429184109,2.455151127576828,4.5696838170289995,-1.473352164030075,5.392637930188768
10.612812291830778,2.006068447083235,7.402886672616005,0.27916595578193665,7.674957676290225
10.622839291580021,1.2533424890041351,9.905244126319886,1.7565526986122133,10.137564104839955
10.63286729156971,0.6173844042420388,11.634541783332825,1.0270938348770142,11.696095406432056
10.642894291784614,-0.11467880934476853,12.641310696601868,-0.632507935166359,12.657644079582186
10.652921291533858,-1.4000349502265454,13.045631625652314,-1.32844120323658,13.187621408143787
10.662949291523546,-2.4179232211411,13.18553093791008,-1.4415082275867463,13.482674986371123
10.67297629173845,-2.9415526387095454,13.251678149700165,-0.8159432762861252,13.59873042381738
10.683004291728139,-3.6748560467362408,13.375056738853456,-0.0812856622505933,13.870952277715855
10.693031291477382,-4.5085204795002936,13.40622707605362,0.2191665065288544,14.14573134505144
10.703058291692287,-4.971783973574639,13.354395017623903,0.14848593930713833,14.25063332770876
10.713086291681975,-4.66192159742117,13.158494582176209,-0.16447811979800464,13.960893442095848
10.723113291431218,-3.7464411690831185,12.871466460227968,-0.47265558421611786,13.413943252133768
10.733141291420907,-2.9978177636861805,12.63170839905739,-0.46016183853149417,12.990716583034597
10.743168291635811,-2.285824386924505,12.46747414469719,-0.0117441326379776,12.675292604165127
10.7531962916255,-1.8268103568255902,12.335970264673234,0.4716352450847626,12.479416583122532
10.763223291840404,-1.7628864026069642,11.68757369041443,0.5573256057500839,11.832910000003753
10.773250291589648,-2.1980325369536877,10.309527633190156,0.1492115879058838,10.542294396903545
10.783278291579336,-2.040720801204443,9.331352189183235,-0.5423397767543793,9.567277956686178
10.79330529179424,-1.8175454436242582,8.553419907689095,-1.0196012127399445,8.8036384631533
10.803333291783929,-1.6116446614265443,8.041733574271202,-1.0845579314231872,8.273037126767793
10.813360291533172,-1.509473923444748,8.15066720187664,-0.8216390490531922,8.32988463835102
10.823387291748077,-1.48389235496521,8.27219456255436,-0.5551252985000611,8.422547328386637
10.833415291737765,-1.7234422552585602,8.115421355366708,-0.07285396814346314,8.296723731873142
10.843442291487008,-2.3255417454242706,7.491127588748932,1.12727184176445,7.924385071780735
10.853470291476697,-3.970830993354321,4.758277571797371,2.875509799718857,6.832075880457735
10.863497291691601,-8.465302952528,-6.615846183300019,4.457003878355026,11.631666190655425
10.87352529168129,-6.562089806199074,-16.5704478263855,1.1881366789340972,17.862038869048916
10.883552291430533,0.7247593103349209,-21.266982893943787,-2.632920516729355,21.441597606443164
10.893579291645437,6.8702304697036745,-31.262229702472688,-6.380810333490372,32.63804242274631
10.903607291635126,10.396080458164215,-44.987087931633,-9.334454137086869,47.106778742538545
10.91363429185003,9.679621708989144,-50.90233242988587,-6.8306845808029175,52.262804890994545
10.923662291839719,6.229568007588387,-36.29607192993164,1.2539482605457306,36.8481307713711
10.933689291588962,7.859613856673241,-19.048814738988877,10.81242092370987,23.27099738231709
10.94371729157865,5.329628893733025,-13.791509470939637,8.070618234872818,16.84474862753948
10.953744291793555,1.2547619006037714,-13.527290167808534,0.7094930342584849,13.60387397313565
10.963771291542798,0.8758441268652678,-12.447350367307664,-0.31469341881573204,12.482093816700967
10.973799291532487,-0.40863200806081296,-10.512033083438874,0.2111979941278696,10.522092199655392
10.983826291747391,-1.9232547703385354,-7.997722166776658,1.6198950827121736,8.383706152267965
10.99385429173708,-2.599425911307335,-4.571918038129807,2.9278727853298188,6.019293036796569
11.003881291486323,-3.565932651758194,-1.7906273478269579,3.149858819246292,5.083682971709062
11.013909291476011,-4.237070509493352,0.5102900183200837,1.7752836692333223,4.6222066712190495
11.023936291690916,-4.092761519551277,3.0720996218919754,-0.40395138502120975,5.133387737567566
11.033963291440159,-4.837576341032982,5.4233849036693575,-2.1384752833843232,7.575508247392805
11.043991291429847,-5.162836482524872,7.951421574354172,-2.071445142030716,9.704167690989136
11.054018291644752,-4.772814626991749,10.237985780239105,-1.8807019507884981,11.451338442632117
11.06404629163444,-4.422937122881413,11.80782401919365,-1.5000926506519319,12.69792734353717
11.074073291849345,-3.7886536806821827,13.032957201004029,-1.5444952368736269,13.660063530308882
11.084100291598588,-3.6176550748944285,13.733529649972917,-0.913180718421936,14.231344416888106
11.094128291588277,-3.3652676126360896,13.92578142285347,0.07458357910159975,14.326827180224512
11.104155291803181,-2.8244729626178744,13.651092095375061,0.1952379459142685,13.941595345171072
11.11418329179287,-2.3101445648074153,13.417519218921662,-0.09603876292705536,13.61527867303589
11.124210291542113,-2.0455130329728126,13.183382670879364,-0.30452417889609934,13.344603298353846
11.134238291531801,-2.165433286428452,12.811941804885866,-0.47317247807979584,13.002263123155391
11.144265291746706,-2.420922404229641,12.517908718585968,-0.5149128270149231,12.760252317002832
11.154292291495949,-2.2879292383790015,12.327847312688828,-0.6998655205965042,12.55787606690393
11.164320291485637,-1.7060245692729952,12.146367280483247,-0.8522492229938508,12.29516517503733
11.174347291700542,-1.106232098042965,11.839679650068284,-0.6966618311405183,11.911637224913695
11.18437529169023,-1.0138928684592248,10.265991604328155,-0.18499188819900156,10.317595861805602
11.194402291439474,-1.8811106711626053,8.417061084508896,0.03304785987362266,8.624765899348116
11.204430291429162,-2.094210399091244,7.919051388502122,0.12199572265148163,8.192189880962509
11.214457291644067,-2.129909112453461,8.0200076597929,0.5167371582984924,8.314087621694608
11.224484291858971,-2.3068055123090745,8.041296787261963,0.8923441654443741,8.413090026978892
11.23451229184866,-2.564180941879749,8.021791060566903,0.8190966796875,8.461387303082486
11.244539291597903,-2.6580120885372165,7.927390102744103,0.43377101540565494,8.372377165279953
11.254567291587591,-2.210761486887932,7.841342477202416,-0.25887613574042917,8.151143174447482
11.264594291802496,-1.2000164669752122,7.88154559314251,-1.8370068776607513,8.181283195585438
11.274623208213598,-0.37246325165033345,8.004069319367408,-2.339054660797119,8.34715707587112
11.284650208428502,-0.9472694009542466,7.830215225815773,0.7222188413143158,7.920302384084257
11.294677208177745,-1.9190111535787584,7.237798724770546,2.402273586988449,7.863793777471035
11.304705208167434,-2.463872834444046,6.235948489308358,1.7642219066619873,6.933267760700187
11.314732208382338,-2.275157749950886,3.019820251464844,-0.04501654386520386,3.781227793659136
11.324760208372027,-3.1485522589087487,-8.035287603735924,-2.5556390368938446,9.000584374846296
11.33478720812127,-1.514451658129692,-22.940294630527497,-6.926812221407891,24.011068470829578
11.344815208110958,6.275291479825974,-50.48735787391663,-11.73123368024826,52.210865075253245
11.354842208325863,13.498624777793886,-77.1500297498703,-13.265519678592682,79.43748468853147
11.364869208075106,7.0318211978673935,-66.14483080387116,-7.704031727313995,66.96220767184263
11.374897208530456,-0.3288547173142433,-31.518459370136263,0.4362807865440846,31.52319411824788
11.384924208279699,-0.8342613603919745,-9.939735682010651,25.744406418800356,27.609215840042392
11.394952208269387,-2.919571493268013,-3.576418463587761,34.48969861507416,34.79732715726372
11.404979208484292,-3.3716708984971047,-8.284300637841225,0.018999942541122437,8.944169201425327
11.41500720847398,-0.8199896226078273,-9.417492200732232,-2.2077916860580444,9.70751700802342
11.425034208223224,-0.4593101915717125,-7.518508930206299,-1.073008511066437,7.608566859172266
11.435061208438128,-0.18060696981847288,-4.379591420888901,-0.41454178892076016,4.402872333628617
11.445089208427817,0.5629802287369967,-1.4165739458799362,-0.05432874642312527,1.5253131136860136
11.45511620817706,1.1646688789129258,1.4914808714389802,-0.2614582113549113,1.9103217487275752
11.465144208166748,1.0447813698649406,4.627708076834679,-0.7630557223409414,4.8051539195550275
11.475171208381653,0.21096783310174944,7.617751382589341,-1.7092908239364626,7.810013999625022
11.485199208371341,-1.142191597223282,10.236803473234177,-2.21425402879715,10.535637991997978
11.495226208120584,-3.1117975383996965,12.315414962768555,-1.807888913154602,12.830479022526063
11.505253208335489,-4.248123501241207,13.788567152023315,-1.7958682072162628,14.539473168080898
11.515281208325177,-4.332549986243248,14.474672420024872,-2.0235903596878053,15.24408242545764
11.52530820807442,-4.170884998440743,14.332695007324219,-2.300192896127701,15.103420645754092
11.53533620852977,-4.20542362421751,13.890275959968568,-1.7013772022724152,14.612324883043758
11.545363208279014,-3.8848473948240283,13.386015590429306,-1.7956214547157288,14.053530128651765
11.555391208268702,-3.6654282885789873,12.971935658454896,-2.969069927930832,13.802965460463628
11.565418208483607,-3.088872944712639,12.669329384565353,-4.032602441310883,13.649722545636426
11.57544520823285,-2.555296682417393,12.314750719070435,-3.1975890558958056,12.977180054942744
11.585473208222538,-2.1042541614174843,12.035437413454057,-1.827252552509308,12.353885672114027
11.595500208437443,-1.9209802034497263,11.810036605596544,-0.9007618170976639,11.999104192343575
11.605528208427131,-1.9589640086889268,11.623965339660645,-0.1761596141383052,11.78919600374105
11.615555208176374,-1.9433338165283205,11.450415301322938,0.9252827006578446,11.650952964087086
11.625583208166063,-1.9500271242856981,11.282399067878723,2.3262662154436113,11.683605993760445
11.635610208380967,-2.443596737086773,10.02059098005295,3.5550474750995638,10.909709948171464
11.64563720813021,-2.633252930939198,8.329978501796722,4.380114161968232,9.772817552301388
11.655665208119899,-2.711215026676655,7.71343288064003,4.678297017216683,9.4198830516262
11.665692208334804,-3.013923334479332,7.292959603071213,3.8572596466541293,8.783475714081185
11.675720208324492,-3.0078989481925964,7.025513221621514,2.3750197148323062,8.002875155564965
11.685747208539397,-2.552446457147598,6.785161083340645,1.035433133840561,7.322944463679934
11.695775208529085,-1.7907556942105294,6.707636359333993,-1.4426683151721955,7.090873243332489
11.705802208278328,-0.9259551304578781,7.082907151579858,-4.008714811205865,8.191139179571033
11.715829208493233,-0.45537150710821156,7.148867837190628,-3.87154848754406,8.142638531490226
11.725857208482921,-0.8692350921034814,6.925163306593896,-2.2287393361330032,7.326713826591375
11.735884208232164,-1.2510886797308922,6.940289468765259,-2.1355434894561767,7.3684046299157195
11.745912208221853,-1.6804520639777185,2.793201468586922,-2.730054463148117,4.251951429073252
11.755939208436757,-2.20118564799428,-16.013226885795593,-5.945853502750397,17.22271254562045
11.765967208426446,4.092849812507629,-42.95751002311707,-12.658581032752991,44.97042095351922
11.775994208175689,12.272746660709382,-70.83928426265717,-16.291971842050554,73.71738500479836
11.786022208165377,8.43384434759617,-76.21016701698304,-12.285007102489471,77.65333661050339
11.796049208380282,-0.9127909284085036,-45.95948457241059,-3.8543243443965913,46.129851783768395
11.806076208129525,1.4526325553655626,-17.674851207733155,30.65505950689316,35.415295846958195
11.816104208119214,2.331142500936985,-8.146297577619553,41.63449094295502,42.48796565689876
11.826131208334118,-6.514897513389588,-12.378660786151887,-8.46924046754837,16.352466681383063
11.836159208323807,-5.125773321390152,-10.760904614925385,-4.872143325805665,12.876661091330709
11.846186208538711,-3.617566781938076,-8.040794511437417,-2.73786283493042,9.232391819016193
11.8562142085284,-3.978611298501492,-6.154108520150185,-2.380774544477463,7.705224654348548
11.866241208277643,-3.43818034529686,-3.582512431740761,-2.2898971188068393,5.468007701629781
11.876268208492547,-1.884586256146431,-0.3634488916397095,-2.4407868576049805,3.105028331263235
11.886296208482236,-1.5465815234184266,2.5934325152635576,-2.3879560947418215,3.849693615110186
11.896323208231479,-2.1811751604080203,5.39535042822361,-1.647884534597397,6.0483762087918205
11.906351208221167,-2.814522171020508,8.549932043552399,-0.4883489628508687,9.014508179043803
11.916378208436072,-2.8748049178719524,11.822466616630555,0.9939646804332734,12.207505314482297
11.92640620842576,-2.9092932575941086,14.297615221738816,0.06329261938109994,14.59074344381561
11.936433208175004,-3.4400049689412118,15.183582998514176,-1.1749886298179628,15.612668738537637
11.946460208389908,-4.3527304816246035,14.543407609462738,-0.5047643995285035,15.189198617427913
11.956488208379596,-5.385454600453377,14.013998365402223,0.11714545726776124,15.013626960105245
11.96651520812884,-5.702844974398613,13.987867158651353,0.3424351680278778,15.109603909249337
11.976543208118528,-5.2604738742113115,13.81205424785614,0.9346440929174423,14.809422254342204
11.986570208333433,-4.044039010405541,13.309551551342011,0.7599748975038528,13.931115384647
11.996598208323121,-3.241620051562786,12.72858039021492,-0.04220578730106354,13.134939689139781
12.006625208538026,-2.8458845892548563,12.29776104927063,-1.0439425867795944,12.665851808891821
12.016652208287269,-2.45487046122551,11.914476063251495,-1.800886287689209,12.297329802212245
12.026680208276957,-2.2053615832328797,11.626415323019028,-2.1100063598155976,12.02036937097165
12.036707208491862,-1.659144810140133,11.355088144540787,-2.343820141553879,11.712569364885711
12.04673520848155,-1.0881811586022379,10.541154556274414,-1.730194619894028,10.73748811575184
12.056762208230793,-1.6016090852022171,9.309753159284591,-1.0460867607593536,9.504259732333061
12.066790208220482,-1.907127857208252,8.416531326770784,-0.9020043504238129,8.676908901586854
12.076817208435386,-2.1129679745435714,7.878350674510003,-0.9616705083847047,8.213272988200007
12.08684420818463,-2.167707853317261,7.609353026747704,-0.9565904474258423,7.969709913611294
12.096872208174318,-2.0077762725949286,7.594823280572892,-0.7205740195512772,7.888709218977428
12.106899208389223,-1.690369234085083,7.652883208394051,-0.5618940353393554,7.857461069315645
12.116927208378911,-1.4186973622441292,7.742285966277123,-0.40935304284095764,7.881831265824794
12.126954208128154,-1.306345160007477,7.784977072477341,-0.17666428366675974,7.895797360950718
12.136982208117843,-1.5975519946217538,7.823007947802544,0.39236688137054443,7.994096415261587
12.147009208332747,-2.3933583372831344,7.787886062264443,0.9812002086639405,8.206222474375016
12.157037208322436,-3.6175223430991172,7.498550044298172,2.9135804361104967,8.820638957997957
12.16706420853734,-4.726141566932202,6.8272891026735305,4.55072538971901,9.468758745200045
12.177091208286583,-4.48759124815464,5.793327713012696,3.5047725301980974,8.123087571195217
12.187119208276272,-2.720369135141373,2.614332218170166,7.357898780107498,8.268846088584535
12.197146208491176,-2.561469003260136,-0.9728503847122193,3.619483791589737,4.539628205401629
12.207174208480865,-3.766658794283867,-7.849396432042123,-2.5297487354278565,9.066442052112308
12.217201208230108,0.7880057184398175,-21.013716595172884,-9.68695119380951,23.152413731310727
12.227229208219796,9.808194379806519,-50.13471463680268,-17.977852753400803,54.1561951980442
12.237256208434701,12.854065146446228,-72.86447909832,-18.871315491199493,76.35827298614724
12.247283208183944,3.2956886699795724,-59.01740236759186,-10.039223717451096,59.95582839788557
12.257311208173633,-2.0557990162074566,-28.92431407928467,0.9722984075546265,29.01357645560916
12.267338208388537,-0.5909237068891525,-10.917308278083802,28.34462111949921,30.380163878327604
12.277365166693926,-2.5564316269755363,-7.431344486474991,19.226560739278796,20.77067310900732
12.28739216644317,-4.509387329220772,-10.091227684020996,-4.525182412862778,11.94339675826652
12.297420166432858,-1.274847817271948,-9.072916951775552,-1.6416876554489137,9.307964188213907
12.307447166647762,-1.2094588431715967,-7.768062831759453,-0.39459116220474244,7.871549595650069
12.31747516663745,-1.538443076312542,-5.457190580964089,-0.5513011829182506,5.696636650718056
12.327502166852355,-0.9021023643761874,-2.810337903499603,-0.2527166970446706,2.962372957043866
12.337529166601598,-0.04113190960139036,0.13910642981529237,0.998550066947937,1.0090315500543794
12.347557166591287,0.016585663743317127,2.9608066427707675,1.4205985844135285,3.284014524656526
12.357584166806191,-0.4997892960906029,5.363180217146874,0.6660844016075135,5.4274450538118915
12.36761216679588,-0.7631250849366188,7.93535050213337,-0.1466095403954387,7.973308086628963
12.377639166545123,-1.1590628609061242,10.396081627607346,-1.0623560535907746,10.514301703299552
12.387667166534811,-2.0967454594373702,12.159374996423722,-1.8239722645282745,12.47291532269397
12.397694166749716,-2.605172847211361,13.40184049487114,-1.4833076333999635,13.733042479695381
12.407721166498959,-2.66930218487978,13.933707908391954,-0.21295559406280518,14.188683530040096
12.417749166488647,-2.9223430734872817,13.859680988788606,0.24205601692199707,14.16648994160076
12.427776166703552,-2.997830919921398,13.577249947786331,-0.05102806627750397,13.904362992695807
12.43780416669324,-3.4313873425126076,13.462622301578522,0.0019553089141845703,13.893042220930163
12.447831166442484,-4.038705765008927,13.318414760828018,-0.0388109121657908,13.91735687135532
12.457859166432172,-4.212458117008209,13.122090986967088,-0.4967970200255513,13.790608490450937
12.467886166647077,-3.8251634028553965,12.879176598787309,-0.8022391569614411,13.459147543074826
12.477913166861981,-3.0994341856241228,12.502279111146928,-0.8219770181179047,12.906940825089045
12.48794116685167,-2.509255706369877,12.179750204086304,-0.46467007834464313,12.44421944179702
12.497968166600913,-1.6749790701270104,11.965592422485352,-0.4108773754164577,12.089242206359815
12.507996166590601,-0.8650929245352745,10.854228515625001,-0.48154101312160497,10.899290994592542
12.518023166805506,-1.4640270245075226,9.123368482589722,-0.14984308719635012,9.241302968109009
12.528051166795194,-2.10388812571764,7.90640970826149,0.2702594769001007,8.186006346520966
12.538078166544437,-2.17385298460722,7.365791936516763,0.6889826828241349,7.71072141812766
12.548106166534126,-2.3216656261682513,7.158019899129868,1.2570735973119735,7.629391468861016
12.55813316674903,-2.5974890211224557,7.018654437661171,1.2155396550893784,7.581951990302191
12.568160166498274,-2.9078373008966447,7.031176834702492,0.43168765246868135,7.620978918658466
12.578188166487962,-2.9536572521924973,7.214205794334412,-0.4721825444698334,7.809725524097472
12.588215166702867,-3.1789744448661805,7.159231442213059,-1.1766188335418701,7.9211681741855315
12.598243166692555,-3.589782274961472,6.866190043687821,-1.5041108572483064,7.892620095288861
12.608270166441798,-3.418336649537087,6.902663220763207,-1.5954449504613877,7.866208081331072
12.618298166431487,-3.850153233110905,6.873465149402619,-1.2443886476755144,7.9760081610383535
12.628325166646391,-4.359500095546246,5.489492354393006,2.0263794815540317,7.296984390504765
12.638352166861296,-5.007861294150353,0.36511651754379276,2.5163387310504914,5.616399685048897
12.648380166850984,-5.010801274180412,-12.583045531511308,-2.165422761440277,13.716057013339453
12.658407166600227,3.1985468298196795,-30.842897801399232,-9.605263252258302,32.46191813117781
12.668435166589916,16.29801435470581,-61.64092173099518,-16.232447186708452,65.79301517199337
12.67846216680482,17.151164048910143,-75.29736519813538,-15.762992953062058,78.81832008392644
12.688490166794509,9.6851157528162,-48.78104679107666,-4.913957934379578,49.97538369797186
12.698517166543752,8.94571545302868,-19.219285633563995,30.598425714969636,37.224594308945676
12.70854516653344,4.341853491067886,-10.851371566057205,15.96911081314087,19.789301573448867
12.718572166748345,-0.9999948408454657,-10.729441916942598,-6.550283693075181,12.610595941133354
12.728599166497588,-0.0766525387018919,-7.064688397049904,-3.2561155915260316,7.779330723428585
12.738627166487277,-1.499406479895115,-4.851037216186524,-2.4551756858825686,5.6399175094434755
12.748654166702181,-2.3767363111674786,-3.1019005411863327,-1.2424514651298524,4.100530222231922
12.75868216669187,-2.2338626664876937,-1.1994984036684038,-0.06892692329362035,2.5364719107227036
12.768709166441113,-2.294549163579941,0.9294266223907471,0.3517965602874756,2.5005100540338123
12.778737166430801,-2.457003233134747,3.51592317044735,1.1198786222934722,4.433137574764974
12.788764166645706,-2.3456427186727526,6.428652251958847,2.7951924455165864,7.392070775347801
12.798792166635394,-1.9136437019705774,9.2449133849144,3.322335308790207,10.008414840357847
