Time (s),Linear Acceleration x (m/s^2),Linear Acceleration y (m/s^2),Linear Acceleration z (m/s^2),Absolute acceleration (m/s^2)
0.003974666818976402,1.0979474705457688,-0.4109829542040825,-0.6328236848115921,1.3322392625886268
0.014001666568219662,0.5226760290563107,-0.6372213757038117,0.0071762877702713015,0.8241922179383238
0.024029666557908058,0.914832703024149,-1.034938751757145,0.632664640545845,1.5193030118472455
0.034056666772812605,1.2027953562140465,-1.1382151982188224,1.3905661153793336,2.162388639358697
0.044084666762501,0.6612763823568821,-0.7163166618347169,1.6483903187513351,1.9150944250449287
0.05411166651174426,0.30031760059297086,-0.13339837789535522,0.9702431112527847,1.024381512613594
0.06413966650143266,0.3059190687350929,0.22043038219213487,0.2875064241886139,0.4741687188742424
0.0741666667163372,0.41668333165347576,0.04451280623674393,0.4779303574562073,0.6356286772755997
0.0841946667060256,0.7330611871182919,-0.40572162955999375,1.3175928640365602,1.5614223323983047
0.09422166645526886,1.2219784627854824,-0.568339128792286,2.3356878340244296,2.6966049741921183
0.1042486666701734,1.4780724750459195,-0.5378736734390259,2.530862045288086,2.9798102326065927
0.1142766666598618,0.9975652496516705,-0.043488958775997164,2.005101463794708,2.2399686598164052
0.12430366640910506,0.4571318113803864,0.31358120530843736,1.8411379355192186,1.922782245317076
0.13433166639879346,0.27813830763101577,0.3236135655641556,2.206974830031395,2.247848873563589
0.144358666613698,0.3199204641580582,0.4366113004088402,2.8777136152982714,2.9281759138932983
0.1543866666033864,0.03830335557460785,0.18787308543920517,2.753498874306679,2.76016656998973
0.16441366681829095,-0.3381520825624466,-0.21317223340272903,2.0433814305067064,2.08211356620499
0.17444166680797935,-0.7081969258189201,-1.1867362707853317,1.8661716198921205,2.3221719094476243
0.1844686665572226,-0.5525376132130623,-1.8247405886650085,2.3294874465465547,3.0102305216635314
0.194496666546911,0.512104994058609,-2.6304892444610597,3.2873473244905473,4.241270755563743
0.20452366676181555,1.6189744386076927,-2.6975275719165803,2.700771022439003,4.146311294362915
0.21455166675150394,2.606188800930977,-1.560644661784172,1.9406166154146196,3.60469481017142
0.2245786665007472,3.4325111773610115,-0.8338500818610192,1.2479121798276902,3.7462946694420878
0.2346066664904356,4.022235035598278,-0.9049399450421334,0.26988233149051666,4.131601076892335
0.24463366670534015,4.325037191212178,-1.0303112652897835,-0.2901160365343094,4.45551964684322
0.25466166669502854,3.725120759010315,-1.2343103867769243,-0.10767355263233186,3.925766217447424
0.2646886664442718,2.8232506021857264,-1.0394282439351081,-0.1641640877723694,3.0129893602112543
0.27471566665917635,1.8739370146393777,-0.36444993495941164,-0.3575157219171524,1.9422361291422332
0.28474366664886475,2.004198361337185,0.0574076709151268,-0.558779223561287,2.081427618955392
0.294770666398108,1.766701126098633,-0.46154265850782394,-0.15651885330677034,1.8326900027067081
0.3047986663877964,1.6609735268354417,-1.3078581270575524,0.5713519066572189,2.1899244139009673
0.31482566660270095,1.9040042746067047,-1.758186410665512,1.903504337668419,3.2155529067163497
0.32485366659238935,2.315383962392807,-1.8364411595463754,2.907062544822693,4.145422977850734
0.3348806668072939,1.9027892231941224,-2.274960406422615,3.088564211726189,4.281971574946529
0.3449086667969823,-0.6837997108697892,-5.678562072515488,1.7316517460346224,5.975974148667459
0.35493566654622555,-0.512199718952179,-2.556456770002842,0.9259334957599641,2.76679825928063
0.36496366653591394,0.932020447254181,1.0144372442364693,1.7948116153478624,2.262541440765576
0.3749906667508185,0.16915468633174896,0.20179501354694368,-0.2764429074525833,0.381779015244737
0.3850186667405069,-0.6784939473867416,1.2746172907948494,-1.273315408229828,1.9251845115388648
0.39504566648975015,-1.47856846511364,0.9715283292531968,-1.9361522662639619,2.622730942877879
0.40507366647943854,-2.664140555262566,-0.3886924910545349,-2.0718485999107363,3.3972464396550612
0.4151006666943431,-2.849074537754059,-0.7709536296129227,-2.565567609071732,3.9107201865398
0.4251286666840315,-2.62501274228096,-0.23104044735431672,-2.871513812541962,3.8973918408430994
0.43515566643327475,-2.2533824265003206,0.5471599289774896,-2.8060173958539965,3.640171695644914
0.44518366642296314,-1.5722548931837084,1.1757926219701769,-2.5941745269298555,3.253339087029103
0.4552106666378677,-0.7965942549705506,1.1799757200479508,-2.193543190956116,2.6150596240898034
0.46523766638711095,-0.5505592077970505,0.27756995826959613,-1.7572555339336395,1.8622855674048224
0.47526566637679935,-0.5528442996740341,-0.7834614086151124,-1.6252441155910493,1.8870259759035066
0.4852926665917039,-0.3843971264362335,-1.1904112458229066,-1.9193695878982544,2.2910302704117185
0.4953206665813923,0.05502405345439911,-1.1253618487715722,-2.4886375468969346,2.731809615795785
0.5053476667962968,0.8522960007190705,-0.9580431881546975,-2.9581771498918537,3.224138221812711
0.5153756667859852,1.6691356551647187,-0.8320082089304924,-3.3530448853969577,3.8368165839086674
0.5254026665352285,2.1146689295768737,-1.0944559518992902,-3.5894513225555422,4.3074144575790845
0.5354306665249169,2.4248561185598376,-1.5582521273195744,-3.8474567896127705,4.80739021049368
0.5454576667398214,2.534338214993477,-1.834396826773882,-4.001564835906029,5.0794097139346865
0.5554856667295098,2.4124424797296524,-2.0273164978623393,-4.182970608472824,5.237092133222069
0.5655126664787531,2.1320532864332202,-2.4897412088513375,-4.350509709119797,5.447145787693665
0.5755406664684415,1.8194324862957,-3.3450488179922107,-4.353371921181679,5.783730046524673
0.585567666683346,1.831902843117714,-4.564448512494565,-3.9369571959972385,6.299975413678299
0.5955956666730344,1.6378957360982895,-6.021891279816628,-3.3067261666059498,7.062599731626944
0.6056226664222777,1.2501177495718003,-7.176087795495987,-3.1008609062433243,7.916714520325278
0.6156506664119661,1.4904570239782333,-7.674391606450081,-3.647612407207489,8.626866461392082
0.6256776666268706,2.7253889697790146,-7.477525795698166,-4.66780945122242,9.226569358913743
0.635705666616559,4.435820585489274,-7.524822753667832,-5.749686434268952,10.457454558026248
0.6457326663658023,5.647789345979691,-8.193489870429039,-6.34829396724701,11.80388228711087
0.655759375076741,5.354952015280724,-9.00440746486187,-5.743907046318054,11.947691535855848
0.6657873750664294,4.47445255458355,-10.128141156435014,-4.984143233299256,12.142555444301449
0.6758143748156726,3.5908014446496965,-10.680529958009721,-4.7998673549294475,12.247705982091459
0.685842374805361,2.355435050725937,-10.713977200984955,-4.96943807065487,12.04295214968023
0.6958693750202656,1.5193872928619385,-10.470948207378388,-5.457966506481171,11.905406019669437
0.705897375009954,0.9082749044895173,-9.878219465017319,-6.017315833568573,11.602252925276519
0.7159243747591972,-0.6341802388429642,-9.23966433942318,-6.2070497953891755,11.14903802321026
0.7259523747488856,-3.684936354160309,-8.516755526661873,-5.610774132013321,10.844107478054967
0.7359793749637902,-8.023687897324562,-7.3128869140148165,-4.755032367110252,11.851928758776268
0.7460073749534786,-12.02375467658043,-5.810236691236496,-3.5196051621437077,13.810037922763616
0.7560343747027218,-15.126793670654298,-4.065895317792893,-2.5936728358268737,15.876981144698236
0.7660623746924102,-17.205731434822084,-2.7220455318689347,-1.8702389430999757,17.519832184957714
0.7760893749073148,-18.835020654201507,-1.859108768105507,-0.8994888782501221,18.94791198781385
0.7861173748970032,-20.47573299407959,-1.205669555068016,0.5967503111064434,20.51987796393202
0.7961443751119077,-22.181564605236055,-0.6736694097518922,2.764790140092373,22.363356262615152
0.8061723751015961,-23.946177105903626,-0.08046294987201691,5.4609404003620154,24.56110222139697
0.8161993748508394,-25.654831752777103,0.8926990914344788,8.73733998298645,27.11657083610392
0.8262273748405278,-27.071102228164673,2.0223595207929614,12.785748617649078,30.00683058226576
0.8362543750554323,-27.341865735054018,3.092744970917702,17.093499977588653,32.3933702293028
0.8462813748046756,-25.45236606359482,3.362043165564537,20.958579690456393,33.14194223523364
0.856309374794364,-21.490491542816162,3.014147867560387,25.07947742700577,33.16483834019192
0.8663363750092685,-15.80508588910103,2.457884700894356,27.185731043815615,31.542129122039796
0.8763643749989569,-10.535223140716553,1.7196509206295014,24.375517101287844,26.610410742201775
0.8863913747482002,-5.700968602895737,-0.3287491750717163,20.69732375621796,21.470638781857833
0.8964193747378886,-2.6107186388969423,-2.770590870380402,16.999995982646944,17.421018598019213
0.9064463749527931,1.2568402934074403,-4.713113678097725,13.34431207895279,14.207876439717854
0.9164743749424815,4.745014917254448,-5.545270113945008,9.507499560713768,11.98573047830425
0.9265013746917248,6.112511427998543,-5.577271340489387,7.841399195194245,11.399837406790065
0.9365293751470745,7.793856654167175,-5.301302057504654,5.4143217194080355,10.870275283168436
0.9465563748963177,5.33785768032074,-4.629830031394959,3.7775609278678894,8.012366522989314
0.9565843748860061,4.66815268278122,-3.8753673040866854,2.7296831649541855,6.6529160067128394
0.9666113751009107,6.2357508534193045,-3.44412608653307,4.391494305431843,8.368501385582576
0.9766393750905991,9.746574082374574,-2.1880760443210603,-0.40370287835597995,9.997317596882693
0.9866663748398423,11.749219715595245,-1.6120522123575212,-6.801156141757965,13.671086318404653
0.9966943748295307,8.13291563987732,-2.8610203993320464,-5.6939390802383425,10.332022879389141
1.0067213750444353,6.157298176288605,-3.259118136763573,-2.3891255378723146,7.3649231290504265
1.0167493750341237,4.859411598443986,-2.849170139729977,-0.5672690883278847,5.661576263444061
1.026776374783367,2.310634853839874,-2.414704475104809,0.44925122648477556,3.3721888728789913
1.0368033749982715,0.8171787929534913,-2.1780471923947333,1.261756924688816,2.6464506964898638
1.0468313749879599,0.7436635047197342,-2.126894580423832,-0.8008296856284142,2.3912432226505134
1.0568583747372031,0.8103124076128007,-2.2139476346969604,-3.8931913715600968,4.551385435524167
1.0668863747268915,0.3731868445873261,-2.9217039728164673,-0.5780823442339897,3.0016331758660377
1.076913374941796,-0.9139765244722367,-2.647386235892773,0.2905997474491596,2.815751264316216
1.0869413749314845,-0.5074716603755951,-2.653445997834206,-0.404097857773304,2.7315926175335337
1.096968375146389,-0.25413870334625244,-1.7644288980960847,-0.6711834660172463,1.9048052556705115
1.1069963751360774,0.4235682088136673,-1.1172181391716003,-1.159886441230774,1.6652095827740907
1.1170233748853207,0.9428465670347215,-0.6781013068556786,-1.7831116291880609,2.127972770848875
1.127051374875009,0.35004882752895355,0.19246958166360856,-1.8432293383777143,1.886020444050516
1.1370783750899136,-0.751699333190918,0.43811783552169803,-1.4492261137068272,1.6903418157200283
1.147106375079602,-1.8708493924140932,0.21526612132787706,-1.384017233848572,2.337075235348144
1.1571333748288453,-2.4066584140062335,0.2915822258591652,-1.5616927751898766,2.883731825295869
1.1671613748185337,-2.198544899225235,0.5543674993515015,-0.8817531037330628,2.432778562506137
1.1771883750334382,-1.1513161772489549,0.7558891555666923,-0.25923484414815906,1.401463542129796
1.1872163750231266,-0.6195592761039734,1.6433845174312591,4.664864208698273,4.984528508729127
1.1972433747723699,-1.5019362777471543,3.4262637197971344,12.52386235356331,13.070662718891166
1.2072713747620583,1.1244599157571793,3.4163447955250743,6.1948244369030006,7.163216572749039
1.2172983749769628,4.600857077836991,1.0222453236579896,-2.429129556119442,5.302220454944928
1.227325374726206,6.687221975326539,-1.604676242172718,-2.570854076743126,7.341880840315408
1.2373533747158945,8.130809472799301,-0.7134377852082253,-2.4981044813990594,8.535782457180579
1.247380374930799,8.710595988035202,-0.08268489181995392,-3.168092484176159,9.269203269235371
1.2574083749204874,6.303589664697648,0.6754259133338929,-1.3589358946681023,6.483683335196385
1.267435375135392,3.3212103044986727,1.2007117009162904,0.1413462057709694,3.53442006916429
1.2774633751250803,0.47283801734447484,0.193740473985672,-1.221539190709591,1.3241107039616775
1.2874903748743236,-2.2507453322410584,-1.5925432696938515,-3.9644703921675686,4.828982719665227
1.297518374864012,-5.21890250980854,-3.0074031043052676,-5.573181213140488,8.206202877895045
1.3075453750789165,-6.595332981348038,-1.9995267283916474,-5.105538446903229,8.576890293411525
1.317573375068605,-7.518311294317246,-0.19672489285469055,-1.843076287508011,7.743425314633135
1.3276003748178482,-9.065470522642135,1.4294468834996223,1.8939230901002886,9.370860091840838
1.3376283748075366,-11.939155991077424,1.1847122570872308,3.301896951198578,12.443854402383014
1.3476553750224411,-14.655012245178224,-0.3442095056176186,3.5506775584816936,15.082943188064679
1.3576833750121295,-13.158178832530975,0.026641083955764772,3.5674961972236634,13.633246460525308
1.3677103747613728,-12.515015516281128,1.3221797123551369,6.436440743207932,14.135117332563885
1.3777383747510612,-10.71799540758133,-0.055281623303890234,11.903319575786591,16.01772451186853
1.3877653749659657,-6.702008998990059,-2.2522407576441767,8.314158275127411,10.91396998698489
1.397792374715209,-4.511894615292549,-3.842000460326672,3.9654226112365722,7.130409318009908
1.4078203747048974,-2.07079025387764,-6.621158378720284,0.14816055089235305,6.939010167199149
1.417847374919802,0.21707846581935883,-8.135249848365785,-1.4814762854576111,8.271891267420727
1.4278753749094903,10.817524373531342,-7.217559757232666,-8.87546408057213,15.744391543235173
1.437902375124395,25.648834848403933,-7.831783449053765,-7.159972284436226,27.757247057074434
1.4479303751140833,21.911252503395083,-7.000676003694535,-5.690917239189148,23.695969906284528
1.4579573748633265,16.96010393857956,-4.665926063060761,-6.957706570029259,18.91628061612536
1.467985374853015,13.975383353233338,-3.594646573662758,-6.016008396148682,15.634103136474069
1.4780123750679195,11.157810105085373,-0.9981497519463302,-4.311312606632709,12.003351434518857
1.488040375057608,8.096882173418999,2.8444961678981784,-0.23104921817779542,8.58510588872603
1.4980673748068511,5.059293403029442,5.316863837242127,4.044830431044102,8.380104057683933
1.5080953747965395,0.6449151420593262,7.141467601060867,6.974899138212204,10.003284112015054
1.518122375011444,-2.453390530943871,6.617260040044785,9.747511975765228,12.034169902929952
1.5281503750011325,-4.327589793205261,4.7505054527521136,10.247531944513321,12.095753239410223
1.5381773747503757,-5.240422602295876,2.313180292993784,7.806811745166779,9.682930431590544
1.5482043749652803,-2.494737946987152,1.2908370284736157,4.58499241232872,5.377000379331231
1.5582323749549687,0.97525885283947,0.9542498070001603,3.347120486497879,3.6145453483578542
1.568259374704212,4.962841826677322,1.8791297806799412,1.700894368439913,5.572608848811009
1.5782873746939003,7.895882965922356,2.0422561338543894,1.0650352478027345,8.224966748070836
1.588314374908805,9.777341546416283,0.05636277347803116,1.4962102456390858,9.8913209217307
1.5983423748984933,9.436871627569198,-3.3140483424067497,2.948622214794159,10.427455849659928
1.6083693751133978,9.138116914629936,-5.946310755014419,2.6329731416702273,11.215896749943925
1.6183973751030862,4.726427203416825,-8.906525074839593,-0.6876138496398926,10.106340377414645
1.6284243748523295,-0.6986183094978333,-9.101368918418885,-2.9255508559942247,9.585501110663726
1.638452374842018,-0.9655764484405518,-7.409817377328873,-4.677333980798721,8.815621623633948
1.6484788749366999,-1.6131281000375748,-6.463855998516083,-4.749997329711914,8.182059109353434
1.6585068749263883,-3.2170082437992096,-5.230191729068756,-4.174720771908761,7.425115560507983
1.6685338751412928,-5.010586681365967,-3.373423016667366,-3.37292191028595,6.918277527950884
1.6785618751309812,-8.277501495480537,-1.4807173168659211,-2.9194817385077476,8.9012880192492
1.6885888748802245,-10.037559599876404,0.22565691590309145,-1.8355599841475487,10.206507934654713
1.698615875095129,-8.64447918176651,1.809771716594696,-0.5886997184157372,8.851489216433778
1.7086438750848174,-6.223317918777466,2.2497308403253555,0.047373848855495455,6.617644524575425
1.7186708748340607,-2.7530848914384842,3.213112244009972,-1.1380505990982057,4.381635069033184
1.728698874823749,0.4998129773139954,3.996206447482109,-1.6698189023137093,4.3597906084711475
1.7387258750386536,2.0350707828998567,4.4533195477724075,-1.200491553246975,5.041304201831289
1.748753875028342,2.5396778923273087,4.567093500494957,-0.759981037080288,5.280708097950595
1.7587808747775853,2.0993205732107163,4.281493268609047,0.06512745738029481,4.768917389088972
1.7688088747672737,1.524600670337677,3.841459300518036,0.8128729033470155,4.212122875525645
1.7788358749821782,1.0055866062641143,3.15108673453331,1.4068925647437573,3.5944260626671465
1.7888638749718666,-0.6303497278690339,1.8038134038448335,2.872910127639771,3.450318271813488
1.7988908747211099,-3.9918830162286763,-2.490260149240494,6.875827424526215,8.331478164048505
1.8089188747107983,-6.812682173252106,-8.544999917149545,11.49511843442917,15.860876703366245
1.8189458749257028,-8.079431743025781,-12.481714453697204,10.834590057134628,18.39724856330443
1.8289738749153912,-4.053764391839504,-10.264950799942017,4.957648329734803,12.098780832426813
1.8390008751302958,0.5784773236513138,-5.05797251701355,0.7885824000835419,5.151658393038565
1.8490288751199841,2.1044906812906268,-1.4050648713111877,-0.5531651656329633,2.5901891862760826
1.8590558748692274,2.1716260725259784,0.14601725399494173,-1.2497860662639142,2.5098298844276794
1.869082875084132,1.5983635881543161,0.6574311071634293,-0.9155091527849436,1.9557962136778664
1.8791108750738204,1.3788924416899682,1.3154428428411484,0.5950243592262269,1.9964438951807053
1.8891378748230636,1.6641240066289902,1.6480617052316666,-0.8749941609799863,2.500206166586888
1.899165874812752,1.9717167860269547,1.6637731736898422,-2.824614465236664,3.825474498021734
1.9091928750276566,2.2132553243637085,1.2442067992687227,-2.956400181055069,3.8970311418711128
1.919220875017345,1.9922212171554567,0.284836585521698,-2.5962187135219574,3.284878820744783
1.9292478747665882,1.8418141660094263,-1.0360535234212875,-3.07456422328949,3.7307682169545684
1.9392758747562766,2.0722868487238886,-1.8109996318817139,-4.272507852315903,5.0821664473107075
1.9493028749711812,2.7134311214089397,-2.119779980778694,-6.632089748382569,7.472669539605098
1.9593308749608696,1.540949192941189,-2.4044458276033405,-4.809688045978547,5.593655625146595
1.9693578747101128,0.42995775371789935,-1.8868923979997636,-1.4957657110691072,2.4459234767305196
1.9793858746998012,0.5385452261567116,-1.0932585883140564,-0.8175080642849207,1.4675028915506454
1.9894128749147058,0.2798024252057076,-0.4260842657089234,-0.47105527438223366,0.6940679146589542
1.9994408749043941,0.0350140044093132,0.4434364628791809,0.452577999830246,0.6345775941883867
2.0094678751192987,-0.09797331422567368,0.7406364011764527,1.0995958737283946,1.329380357372743
2.019494874868542,0.6521393769979478,0.42188304126262666,1.9708648467063905,2.1183907362711154
2.0295228748582304,1.4905438551306724,0.5430899745225907,2.3350270986557007,2.8229451386718827
2.039549875073135,2.0532526999711993,1.0816471874713898,1.6298704326152802,2.8358922608620567
2.0495778750628233,1.9329497462511063,1.8515214210748674,0.33785782143473625,2.697883281711041
2.0596048748120666,1.5961562642455103,2.6748017835617066,0.03149661183357239,3.1150074538902897
2.069632874801755,1.1796778044104577,3.0023452627658846,0.5603690814971924,3.274099923119243
2.0796598750166595,0.010505107641220094,3.166701139211655,1.170032676011324,3.3759565941085747
2.089687875006348,-1.111701291203499,2.8966445606946944,1.4866142338514328,3.440414415757987
2.099714874755591,-2.0591010850667955,2.267450242638588,1.9150109271705151,3.612270024866292
2.1097428747452796,-2.6743237736821177,1.2427841717004777,2.0189628732204437,3.5738958053296903
2.119769874960184,-1.9489772567152979,0.09606039762496948,1.4127690164744855,2.4090778819074408
2.1297978749498725,-0.7994412642717362,-1.1584749233722687,0.9587048736959697,1.7030224654863426
2.1398248746991158,-1.41773900359869,-2.1968152928352356,1.032269790172577,2.8109717595277806
2.149852874688804,-1.4584417641162872,-2.6747871655225754,0.760292986035347,3.1399974816514526
2.1598798749037087,-1.9330327767133715,-2.2046423757076266,0.19351477146148682,2.938453962101119
2.1699068751186132,-1.650998176932335,-1.68133937895298,1.634527155160904,2.8678173073629156
2.1799348751083016,-1.7618330267071725,-0.7763833540678025,2.7163158452510836,3.3294441724756156
2.189961874857545,-1.5458357110619545,0.19104841589927674,2.776835696697235,3.183853644447882
2.1999898748472333,0.8856692764163018,0.5585529363155365,0.11501940965652467,1.0533854538829643
2.210016875062138,2.7353663662075998,0.88910948574543,-1.856595050096512,3.4234032796422253
2.2200448750518262,2.2695175257325175,-0.06340603709220886,0.3524374151229859,2.2975948852496515
2.2300718748010695,1.4470081186294557,1.9498932230472565,0.8095318043231965,2.5595425018694153
2.240099874790758,1.412109304368496,4.1080771315097815,0.9245325028896332,4.441296067007589
2.2501268750056624,1.5462268897891045,5.094305945634842,1.1037648653984071,5.4370090620234715
2.260154874995351,1.9502113115787507,5.9791551500558855,0.9569447886943817,6.361553567868377
2.270181874744594,2.317801493704319,6.72497627735138,0.9621055412292481,7.1779632743293424
2.2802098747342825,2.5565175810456275,7.270503371357918,1.0726880836486816,7.781173506607093
2.290236874949187,2.6140439504384996,7.709346846342087,1.2200472736358643,8.231389306911387
2.3002638746984303,2.601425074338913,8.01751674592495,1.3282067298889162,8.53300183440203
2.3102918746881187,2.3746902242302896,8.064376916885376,1.3537742650508882,8.515047473699877
2.3203188749030232,1.8401173040270806,7.293385865092278,1.3320998060703277,7.6389789214947
2.3303468748927116,1.4397306740283966,5.624900420308113,1.7200730895996095,6.055656907857759
2.340373875107616,0.7897223147749901,3.414529527425766,2.0703914737701417,4.070527494413481
2.3504018750973046,0.32004939526319504,0.2762365007400513,2.390765097141266,2.4278583091808166
2.360428874846548,-0.3177102166414261,-4.51972169816494,2.4137773990631106,5.1337262629448
2.3704568748362362,-1.8860401663184168,-10.976154656410218,1.6363479781150818,11.256587105152406
2.380483875051141,-5.363036960363388,-19.474128341674806,0.38655124068260194,20.202803319537587
2.390511875040829,-8.040380528569221,-28.546700892448428,-0.08960039377212525,29.657543376309427
2.4005388747900724,-9.508083112835884,-34.8911240029335,-0.8198661732673646,36.172729496275856
2.410566874779761,-11.987479720115662,-37.26505145788193,-0.9923765766620637,39.158249979648986
2.4205938749946654,-10.482064933776856,-30.652063393592837,-1.2587394690513611,32.41923966739035
2.430621874984354,-9.120674085617066,-25.29981688499451,-1.085799880027771,26.91554182196168
2.440648874733597,-7.6355736958980565,-18.905581344366073,-1.012217275723815,20.414396279273276
2.4506758749485016,-6.005235486030579,-13.063947443962098,-0.6946608408540488,14.394864700479156
2.46070387493819,-4.129386139512063,-8.190477969646455,-0.3023444648087025,9.177536239964336
2.4707308746874332,-2.058153251409531,-3.7755687814950947,0.4625510108470917,4.324912469371333
2.480758875142783,-0.45060836523771286,-0.2746788024902344,1.8182536876201632,1.8932888886548707
2.490785874892026,0.05890104979276657,2.4473310613632204,2.504031511545181,3.5018669975301977
2.5008138748817146,0.2648592808842659,4.490608996152878,2.0045002238452434,4.924808701096452
2.510840875096619,0.931708498299122,5.434908596277237,1.3115621919929983,5.668025013984721
2.5208688750863075,1.4796373361349107,6.266337053775787,0.312552387714386,6.446238881167359
2.530895874835551,1.9389861193299294,7.065578927993775,-0.1444250571727753,7.328228391351019
2.540923874825239,1.9643528026342394,7.748817306160928,-0.007360621243715287,7.993929306431299
2.5509508750401437,2.0349360045790674,8.404262114167214,0.16473945379257204,8.648683443969635
2.560978875029832,2.325114606320858,9.031596432924271,0.4142252352833748,9.335281174409403
2.5710058747790754,2.573445562720299,9.588577052950859,0.5102702839672566,9.941016433311061
2.58103287499398,2.667182569205761,9.871182925701142,0.5775367990136147,10.241467861802999
2.5910608749836683,2.6642440509796144,9.938718266487122,0.5932058751583099,10.30670705677169
2.6010878747329116,2.7299500903487206,10.021648156642915,0.6966138839721681,10.410155146523135
2.6111158747226,2.865245889723301,10.132651698589326,0.7470814215391874,10.556438561556186
2.6211428749375045,2.948603503704071,10.217043392658233,0.4991406206041575,10.645721190631205
2.631170874927193,2.960883241295815,10.286646308898927,0.31146363615989686,10.708824933185726
2.6411978751420975,2.9365041527152065,10.330536679029466,0.283553706407547,10.743530491421534
2.6512265000492334,2.881945245265961,10.383950994014741,0.4338702718913555,10.785188457122198
2.6612534997984767,2.8262946626544,10.447257628440857,0.6718240284919739,10.843637812119308
2.671281499788165,2.75243468105793,10.457781447172165,0.9700203323364258,10.857349074035286
2.6813085000030696,2.6680032259225848,10.504843347072601,1.204367380142212,10.905066517285414
2.691336499992758,2.5865573590993884,10.533919211626053,1.3979172348976137,10.936539924701936
2.7013634997420013,2.5088867470622063,10.583263864517212,1.6515206256508828,11.001250252245445
2.711390499956906,2.422377483844757,10.665662827491762,1.836073662042618,11.090331046295427
2.7214184999465942,2.3550178518891336,10.600461695194245,2.098241469562054,11.059770092483246
2.7314454996958375,2.3315868893265725,10.499652189016343,2.4315669679641725,11.02685410407201
2.741473500151187,2.335491659939289,10.368504989147187,2.6920148169994356,10.96391174620448
2.7515004999004304,2.333094301521778,10.28013601899147,2.9121238946914674,10.93640668440929
2.761528499890119,2.2844652016460896,10.136880404949189,3.1242445063591004,10.850623453852306
2.7715555001050234,2.1909046348929406,9.977076001167298,3.2315511462092403,10.713777646695402
2.781583500094712,2.191016316711903,9.892665596008301,3.17197766661644,10.617289080177555
2.791610499843955,2.22943661659956,9.837540385723115,3.059650315046311,10.540827696083984
2.8016384998336434,2.3509397113323214,9.690530859231949,2.9448823356628417,10.397386105697192
2.811665500048548,2.4172148309648036,9.497429485917092,2.870786418914795,10.21202766555346
2.8216935000382364,2.4603039863705636,9.289697794318199,2.8345316353440286,10.01928891722748
2.8317204997874796,2.5269666302204135,9.103550514578819,2.8413515353202823,9.865772694979484
2.841747500002384,2.6540070381760597,8.873457900881768,2.833841371536255,9.685693852091322
2.8517754999920726,3.528068129718304,3.8703118014335636,2.9876684591174127,6.029323427205986
2.861802499741316,8.986700341701509,-52.157434930801394,-12.473796154260636,54.376046124101066
2.8718304997310042,-0.9503619933128358,-75.63703229427338,-25.473820667266846,79.81716219956307
2.881857499945909,-4.757296409010888,-63.864243621826176,-22.95997869729996,68.03259589558245
2.891885499935597,-12.420752552747727,-64.5589536523819,-27.585601072311402,71.29585525952888
2.9019125001505017,-12.089595494270325,-47.05282502174378,-15.737034823894502,51.06643640191067
2.91194050014019,-6.936104031801224,-24.201602196693422,-2.3614378023147586,25.286428702392243
2.9219674998894334,-5.5787483471632004,-12.468165285587311,3.1931185671687126,14.027600824577888
2.931995499879122,-3.884915222525597,-6.524129682183266,4.283884195089341,8.71828527825811
2.9420225000940263,-2.5152552419900895,-2.263292872309685,8.951555067300797,9.569709592308692
2.9520505000837147,-2.662220914363861,1.222377389073372,19.0662499666214,19.28998482290447
2.962077499832958,-2.0113117915391925,4.3248363393545155,19.461673772335054,20.037622875625246
2.9721054998226464,-0.10180908769369126,5.98617239356041,5.302111312150956,7.997312635016898
2.982132500037551,1.3935864946246148,7.147517715096474,-0.41344258546829227,7.293834901963216
2.992159499786794,1.4071951581537725,8.399386705756188,-1.3476802968978883,8.622420624662888
3.0021874997764826,1.371171631962061,9.185662963986397,-0.9751297024637461,9.338489903023715
3.012214499991387,1.4784303246438504,9.665245159864426,-0.11469664335250855,9.778337054177749
3.0222424999810755,1.7364990878105164,9.8320019030571,0.4210707899183035,9.993047138576282
3.032269499730319,1.9280430552363397,10.096623494625092,0.5859471416473389,10.295751068662508
3.042297499720007,1.9501062078773976,10.192364634275437,0.7652835845947266,10.405425028555094
3.0523244999349117,1.9193722191452982,10.16571770310402,0.9204593324661255,10.386195237792963
3.0623524999246,1.9406720177829266,10.231896489858627,1.0323096243292094,10.46535125164319
3.0723795001395047,1.9890647439658642,10.138412375450136,1.1978583327680827,10.400896530383829
3.082407500129193,2.002279305160046,10.33024080991745,1.3854416155815126,10.613314566003462
3.0924344998784363,1.9822588773071768,10.282176697254181,1.5573803074657917,10.586686984713502
3.102461500093341,1.934711804687977,10.065664826631547,1.873142524212599,10.419663194427162
3.1124895000830293,1.8691732880473138,10.08943375825882,2.2125618445873263,10.496947759190096
3.1225164998322725,1.7081335137784481,10.222359681129456,2.778410351872444,10.730047606356003
3.132544499821961,1.7193522740900518,10.267727057933808,3.3108431911468506,10.92447132885652
3.1425715000368655,1.6985778477787972,10.377699151039124,3.501466806828976,11.083414463682574
3.152599500026554,1.6369148656725885,10.503963925838471,3.747040801048279,11.271781722402913
3.162626499775797,1.4742830407619476,10.910125558376313,4.022400219440461,11.721094390421444
3.1726544997654855,1.3881222715973855,11.12806414961815,4.243335801064968,11.990270800925268
3.18268149998039,1.479533840417862,11.187643768787385,4.3626312795281414,12.09896463187434
3.1927094999700785,1.7525818544626237,11.294405740499498,4.234936275780202,12.188922407150631
3.2027364997193217,1.9819176922738553,12.66664083480835,3.827661041021347,13.37993934298415
3.21276449970901,2.2928185339272025,13.672139732837678,3.2544888961315155,14.239948022334989
3.2227914999239147,2.6784904995560646,13.756994526386261,2.7217867925763133,14.277161240928692
3.232818500138819,2.8190525937080384,13.04213616013527,2.1572729122638705,13.516589790460735
3.2428465001285076,2.676706221699715,12.004460034370423,2.091740827560425,12.475864563378599
3.252873499877751,2.3124837434291843,10.883673924207688,2.5674621069431307,11.419010501032542
3.2629014998674393,2.0299758115410804,10.009563131332397,2.59451717376709,10.537726284191626
3.272928500082344,1.996442468315363,9.32046408891678,2.446365247517824,9.840809737330733
3.282956500072032,2.00223077327013,8.90498901128769,1.7183271110057832,9.287648002643182
3.2929834998212755,2.174185691177845,8.139397863149643,0.07189034700393677,8.42508452280212
3.303011499810964,-4.474352859556675,-33.30675075531006,-20.60022723197937,39.41736725603772
3.3130385000258684,-12.60218580722809,-111.91336870193481,-47.64231323719025,122.28330708614997
3.323066500015557,-11.989044435024262,-83.79128325462342,-23.308905444145203,87.79533819586108
3.3330934997648,-10.346641080379486,-67.87215911865235,-16.87321665287018,70.69928150475474
3.3431214997544885,-5.862043021917343,-33.39994367837906,-7.431096564531327,34.71514053350631
3.353148499969393,-4.905139163732529,-13.863577573299409,4.306118817329407,15.323244846162035
3.3631754997186363,-2.9607475858926775,-8.113942594528199,6.7128865742683415,10.93914698930682
3.3732034997083247,0.9679019591957331,-4.129513608813286,3.7284185886383057,5.647195943129008
3.383230499923229,1.2809641510248184,-0.4188442432880402,1.3243616008758545,1.8895061011335001
3.3932584999129176,1.0145195437967778,2.8015290731191635,0.6364160679280758,3.046775420636476
3.403285500127822,0.6460913825780153,4.7040002077817915,0.7108462992310525,4.801078471612727
3.4133135001175106,0.8522568243741989,6.430895828604698,1.5923359858989716,6.679692863077355
3.423340499866754,0.4198996657133103,7.956461874246598,2.117169198989868,8.244028548152732
3.433368499856442,0.014708086252212526,8.948346115350724,2.3012804782390597,9.2395349648907
3.4433955000713468,-0.1366190242767334,9.560507494211198,2.0726753962039948,9.783555161734009
3.453423500061035,-0.2599450067616999,9.679618200659752,1.9900836212933064,9.88549506786705
3.4634504998102784,-0.4458645557239652,9.744915812015535,1.88369119361043,9.93531438346099
3.473478499799967,-0.6246226724982262,9.75823109149933,1.9348202705383302,9.967785962659363
3.4835055000148714,-0.8326941604167224,9.839811444282532,2.200237375795841,10.117129698371697
3.4935324997641146,-0.9915351623296739,9.874945024251938,2.449981019496918,10.222528464427448
3.503560499753803,-1.1107614243775608,9.856426892280579,2.8410980585217476,10.317692581332956
3.5135874999687076,-1.1954287415742875,9.92616546392441,3.2329746508598327,10.507613229772488
3.523615499958396,-1.316575448513031,10.081860444545747,3.4416875052452087,10.734174109761982
3.533642499707639,-1.4098949638009073,10.140240215063095,3.6097025692462923,10.85551602028007
3.5436704996973276,-1.50356852799654,10.267073339223861,3.7173328524827958,11.022344433355862
3.553697499912232,-1.6128151278197767,10.40526760339737,3.7894217124581338,11.190642673666437
3.5637254999019206,-1.679659620076418,10.610706017017366,3.92429241925478,11.437150414797575
3.573752500116825,-1.7912551926076412,10.865864474773408,4.216330435574055,11.792075656606633
3.5837805001065135,-1.8629060961306096,11.31136383533478,4.789606660902501,12.424077547427082
3.5938074998557568,-1.722811633050442,12.137259657382966,4.791818954944611,13.162168545140139
3.6038345000706613,-1.579614344984293,12.853818393945694,4.919649614095688,13.853475416258863
3.6138625000603497,-1.6473369428515434,12.994646244049074,5.084287326335907,14.050783879485232
3.623889499809593,-1.6841577368974687,13.250823286771775,4.794882018864155,14.191955419702795
3.6339174997992814,-1.9879498261213304,13.23992758512497,4.388953982591629,14.08937699232425
3.643944500014186,-2.822837204039097,12.708294060230255,4.163928273618222,13.66775206351169
3.6539717498235404,-3.451789155006409,12.030480144023896,4.2000374615192415,13.20180349590684
3.663998750038445,-3.672976751625538,11.535917966365815,3.638312703073025,12.641419258534457
3.6740267500281334,-3.7960995250940326,11.085237972736358,2.9470890748500826,12.082144119804065
3.6840537497773767,-3.691006933450699,10.3777096760273,2.1831257915496827,11.228821332821232
3.694081749767065,-3.622612344324589,9.660271518230438,1.785545240342617,10.470546203923522
3.7041087499819696,-3.6675949743390084,9.16950652241707,1.430142702162266,9.978798069356547
3.714136749971658,-3.800559196472168,8.836878889203073,0.937488763332367,9.66506926460988
3.7241637497209013,-4.349321554899216,8.287174544334412,-1.1439596490561963,9.428812416993138
3.734190749935806,-4.41167275428772,7.883110892772675,-2.0855255296826365,9.271230262140717
3.744218749925494,-4.4082518407702445,7.583143467307091,-1.5536449599266053,8.90789323010339
3.7542457501403987,9.235978839397431,-10.281635245084763,-11.279456748962403,17.839323781648222
3.764273750130087,63.788575973510746,-77.99781988620758,-32.83627910614014,105.97576872694044
3.7743007498793304,41.320757417678834,-91.40859609603882,-15.532437239885331,101.50957117646789
3.784328749869019,41.46947316169739,-70.32483687400818,-24.939649450778962,85.36560197405241
3.7943557500839233,24.427894120216372,-42.113532271385196,-19.634306967258453,52.49550096537833
3.8043837500736117,3.7759438803792,-16.408787516355517,-7.024207538366318,18.244055236890727
3.814410749822855,1.9991159614920617,-7.040242357850075,-2.749643805027008,7.818057184446921
3.8244387498125434,-1.5350016975402834,-1.4716143715381622,1.902015051841736,2.8529879648189427
3.834465750027448,-3.532251227796078,1.4834140527248383,3.164690866470337,4.969163336861569
3.844492749776691,-3.446093089878559,3.6187382715940477,3.254871304035187,5.963640789672023
3.8545207497663796,-3.8150339788198475,5.447586529254914,3.315682931542397,7.431314591362095
3.864547749981284,-3.96519720107317,6.4950760370492935,3.0799954095482827,8.209456333600231
3.8745757499709725,-3.884415285587311,7.13552098274231,2.7541707193851472,8.578449636011081
3.884602749720216,-4.2680873572826385,7.990991436839104,2.3693419222533705,9.364096057686458
3.894630749709904,-4.487576045393944,8.638046659827232,2.2067498584091663,9.981178978363971
3.9046577499248087,-4.699486157298089,9.012118188142777,2.4479264540970327,10.454462602370256
3.914685749914497,-4.518175694346428,9.14313908815384,2.4213451579213143,10.482071186750186
3.9247127501294017,-4.204294526875019,9.361502187252045,2.291685051172972,10.515019545602648
3.93474075011909,-3.574281013906002,9.830493321418762,2.1039943988621235,10.669623992403434
3.9447677498683333,-3.2336076119542123,10.093304615020752,2.461808767318726,10.880786674066117
3.954794750083238,-3.0802260822057725,10.245219955444336,2.637156239748001,11.018480734011263
3.9648227500729263,-3.0184669134020807,10.39808371424675,2.8516996452212333,11.196583331639232
3.9748497498221695,-3.0341611325740816,10.307909123897552,3.309973125457764,11.24344459568358
3.984877749811858,-3.114872881472111,10.114588479995728,3.7602882528305055,11.231522645294705
3.9949047500267625,-3.2081906425952913,10.04267240524292,4.147065196037293,11.328985213974262
4.004932750016451,-3.4361542850732807,9.908222697973251,4.786300352811813,11.527736307306231
4.014959749765694,-3.4060820549726487,9.868344687223434,5.124094001054764,11.629357727867136
4.0249877497553825,-3.614654283821583,9.79276006937027,5.559064280390739,11.82654095842562
4.035014749970287,-3.976173301935196,9.837796493768693,6.1381099534034735,12.258408860039731
4.0450427499599755,-4.207439159452916,9.870401737689972,6.652411161661148,12.624656391668049
4.055069749709219,-4.333395493626595,9.915011315345765,6.7053413271904,12.72978272405878
4.065096749924123,-4.091517524421215,10.321448936462403,6.2799002552032475,12.75578186611658
4.075124749913812,-3.7239399138092995,11.23797309279442,5.89186499118805,13.22398732570554
4.085151750128716,-3.7746800047159197,11.964945720434189,5.700920071005822,13.780733829768849
4.095179750118405,-3.8680147227644923,12.401323424577713,5.446812357902527,14.086238867728406
4.105206749867648,-4.398600134253502,12.661656668186188,5.175798590183258,14.368511536349953
4.115234749857336,-4.92010452747345,12.02195607304573,4.248841246962548,13.667022657674792
4.125261750072241,-5.310589774847031,10.965126807689668,3.5116810154914857,12.679442938078461
4.135289750061929,-4.537953608930112,9.815982871055603,2.8928935718536377,11.194435041561094
4.1453167498111725,-4.077699092030525,9.18345096230507,2.3661532893776895,10.32289120600626
4.155344749800861,-3.8108801168203357,8.802167478203774,2.231941856145859,9.847970553791303
4.165371750015765,-3.292818271815777,8.699061770439148,2.5256711795926097,9.638223008653847
4.175398749765009,-2.959175561964512,8.563908643126489,2.7593142226338387,9.471592592250468
4.185426749754697,-2.6058935165405273,7.990020214319229,3.670004904270172,9.170607397667014
4.195453749969602,8.512128040194511,-14.980288174152376,-8.163769642710687,19.066003575279215
4.20548174995929,48.7147814655304,-106.82461644172669,-46.221187233924866,126.17855111099487
4.215508749708533,29.12922390460968,-91.98566482543946,-24.108659534454347,99.45401793397393
4.225536749698222,28.077216253280643,-63.49890958786011,-13.594239617586137,70.74775573939479
4.235563749913126,20.96021924972534,-27.300046448707583,-10.35231521844864,35.94153248652973
4.245591749902815,6.4220589315891266,-10.905623202323914,-1.8968955221772195,12.797408760132864
4.255618750117719,2.979226833879948,-6.542334988117219,-1.646558093726635,7.3748961470972425
4.265646750107408,2.0400985112786296,-2.505728373527527,-0.4803379485011101,3.266711061969277
4.275673749856651,0.8796516144275666,0.5320247036218644,1.0617371258139612,1.4778778611105343
4.285700750071555,-0.4371986532211304,2.5805663019418716,1.8204601344466211,3.1881876046126467
4.295728750061244,-1.1139358046650887,4.2722996914386755,1.8573101645708086,4.789885038056749
4.305755749810487,-1.4648111361265184,5.691271580457688,1.880495544075966,6.170292323572293
4.315783749800175,-1.9378570219874383,6.85622989654541,1.844379339516163,7.35968160860123
4.32581075001508,-2.580659272670746,7.607988871335984,2.016919856071472,8.283070846842314
4.335838750004768,-3.212818421423435,8.259971542954446,2.0546411213278772,9.097850418472843
4.345865749754012,-3.7579221770167353,8.723905420303344,1.7843980166316034,9.665018424849022
4.3558937497437,-4.083272365629673,8.888499863147736,1.851312967836857,9.955194761227586
4.365920749958605,-4.093296539783478,8.902318003177644,2.232603760957718,10.04942097564565
4.375948749948293,-4.059704870581627,8.91203373670578,2.366648840904236,10.075047180860224
4.385975749697536,-4.026912223398686,8.894448820352554,2.4339479541778566,10.062372708088052
4.396002749912441,-4.114109996259213,8.924025791287423,2.439682903289795,10.12502790383748
4.406030749902129,-4.106105742752552,8.901881216168404,2.44760851174593,10.104176412959566
4.416057750117034,-4.146881885826588,8.937859718799592,2.5132318130135536,10.168495457730232
4.426085750106722,-4.190567895770073,8.998743267059327,2.5801774621009828,10.25648845421464
4.436112749855965,-4.176946806907654,9.392795315980912,2.7357335713505746,10.637468056312253
4.446140749845654,-4.24124191313982,9.633497702479364,2.7728984740376474,10.884915107467279
4.456167750060558,-4.358127169311047,9.847429196834565,3.2372270384430886,11.244766476409547
4.466195750050247,-4.265224560499192,10.098543720245361,3.4750084483623507,11.499930849243498
4.47622274979949,-4.246205322146416,10.4694606757164,3.6834219253063205,11.883074667695393
4.486250749789178,-4.248580168783665,10.776754077672958,4.134147819578648,12.299595119163454
4.496277750004083,-4.273729335665703,11.027108463048936,4.392500903606415,12.615702425095412
4.506304749753326,-4.2774089884758,11.595303457975389,4.550333041548729,13.170148849813343
4.516332749743015,-4.220990666449071,12.306707289218902,4.51114354044199,13.770338505324963
4.526359749957919,-4.327803801298142,12.78143337249756,4.313552674949169,14.16692138319706
4.5363877499476075,-4.283537747561931,12.668848743438721,4.184506672024727,14.012798443106796
4.546414749696851,-4.588888996839524,12.58181644678116,3.8893924355506897,13.945873254964232
4.5564427501522005,-5.103183188438416,11.75691582083702,3.361292675435543,13.25012591347512
4.566469749901444,-5.135545188188553,10.49665841460228,2.7144587695598603,11.99674742021386
4.576497749891132,-4.726635949015618,9.322643930912019,2.2328646929562095,10.688239424439738
4.586524750106037,-4.419833128452301,8.734715752601623,1.5328756499290468,9.908576684885514
4.596552750095725,-4.36385042399168,8.511714057326317,0.8775420852005482,9.605339495715752
4.606579749844968,-4.442145811021328,8.348653339147567,0.4623171222209931,9.468178763898202
4.616606750059873,-4.558726719617844,8.055473946332931,-0.2033332698047161,9.258185255373528
4.626634750049561,-4.777259387969971,7.433619638085366,-1.4709416493773462,8.957933775126303
4.6366617497988045,10.1719566822052,-14.65192140698433,-19.104420590400697,26.1366866636923
4.646689749788493,67.23746958732605,-91.36527056694031,-40.961242532730104,120.60809828573679
4.65671749971807,33.78270943164826,-87.68043946266175,-8.980887624621392,94.39166945994093
4.666745499707758,33.69655889511109,-56.807978138923644,-10.30641106724739,66.84928249944943
4.676772499922663,22.71227660894394,-29.16177886247635,-12.59439029932022,39.04965457205436
4.686800499912351,3.628564809858799,-13.281249858140946,0.7533998496830464,13.788607315723258
4.696827500127256,0.5184041994810105,-6.338487601876259,1.404393318593502,6.512870994153705
4.706855500116944,-0.4090878716111183,-1.8452479434013367,2.024825291633606,2.7698755064019203
4.716882499866188,-2.045340832471848,1.0211571568250657,2.077094429433346,3.088770358685592
4.726909500081092,-2.7931660929322244,2.7425441157817843,1.3513443084061147,4.141190226200332
4.7369375000707805,-2.781528087258339,4.165966320633888,1.5189467051625252,5.2344410377792
4.746964499820024,-3.0376203453540804,5.300769376158715,1.6601043382287026,6.33097462919706
4.756992499809712,-3.3190290006995204,6.275609568357468,1.5360211595892908,7.263510856648477
4.767019500024617,-3.7013851565122606,6.959665971994401,1.6658952744305136,8.056823790052503
4.777047500014305,-4.037540122568608,7.478635597229005,1.7466308507323265,8.676545393543567
4.787074499763548,-4.482807056307793,8.222013757824898,1.458554176837206,9.477576147133512
4.797102499753237,-4.739863227903843,8.61028700351715,1.523163424730301,9.946022949933683
4.807129499968141,-5.058927952051163,8.87320179283619,1.950713295042515,10.398641470879337
4.81715749995783,-4.654697070121766,8.90322490632534,2.0437366488575934,10.252340124922489
4.827184499707073,-4.44377309113741,8.963302708268166,2.1551804861426356,10.233900412521825
4.8372114999219775,-4.376421645283699,9.001453451514244,2.1838767202198506,10.244439866884065
4.847239499911666,-4.511213999390602,9.171426748037339,2.303604892641306,10.477247531881332
4.8572665001265705,-4.338530810773372,9.383227517008782,2.3395250692963603,10.599112499725946
4.867294500116259,-4.543529513776303,9.492466369271279,2.4338557143509387,10.801584691728399
4.877321499865502,-4.560156071484089,9.949970648288728,2.656328967511654,11.262904726656528
4.8873494998551905,-3.848256396353245,11.58290619134903,2.7538827440142635,12.512260519084666
4.897376500070095,-3.3922297087311746,13.283175930976869,2.5193269506096843,13.939045645027134
4.9074045000597835,-2.982245751321316,14.385998225212099,2.5652626767754554,14.91413112648326
4.917431499809027,-3.186264753341675,14.993140354156495,2.9397318157553674,15.607324046946285
4.927458500023931,-3.5810515049099925,14.453457552194596,3.172249269783497,15.224635645017948
4.93748650001362,-4.126736473739148,12.670132791996004,3.301416310071945,13.728130555283576
4.947513499762863,-8.450226491689682,11.578165268898012,5.514205611348152,15.357952411665877
4.957541499752551,-8.496143506765366,10.90750834465027,5.288945721387863,14.803078720994275
4.967568499967456,-6.495737941861153,9.629018150568008,3.6700972902774813,12.181223915247795
4.977596499957144,-5.232086226940155,9.081896520853043,2.5487746980786326,10.786650229018521
4.9876234997063875,-4.448292111754418,8.9039137083292,1.786905887424946,10.112369390374502
4.997651499696076,-4.257641598880292,8.786218028068543,1.3078421933948994,9.85066446612088
5.0076784999109805,-4.127066256701946,8.797028360366822,0.932993497028947,9.761703781912473
5.017705500125885,-3.8203160610795024,8.866206768751145,0.9448680956661701,9.700371796534318
5.027733500115573,-3.624807389080525,8.866738280653953,0.6096845714002848,9.598436936405351
5.037760499864817,-3.303898453116417,8.430047165751457,0.3947408509254456,9.06296091488254
5.047788499854505,7.24713848233223,-13.947566978931428,-11.680504406690599,19.582896210943815
5.05781550006941,40.0991197013855,-89.15666962623597,-24.292173228263856,100.73212407082364
5.067843500059098,25.10677456855774,-88.68411169052125,-9.36272425532341,92.6438470760711
5.077870499808341,21.156005079746247,-52.738807210922246,-0.25342168852686886,56.82448908276509
5.08789849979803,15.946243522167206,-26.003536305427552,9.758429896831514,32.02645058240647
5.097925500012934,8.2094404900074,-13.334121551513672,11.854933866262437,19.640090826749514
5.107953500002623,7.539572355151177,-10.323542239665986,-0.3162712168693543,12.787521384355442
5.117980499751866,5.932484428882599,-9.785415381789209,-4.862903555631638,12.433686367464244
5.128008499741554,2.5638929665088654,-7.730717250108719,-5.14239227771759,9.632327583859036
5.138035499956459,1.2991446062922478,-2.9752773320674897,-3.635133279561997,4.873832770105273
5.148062499705702,0.19127558022737504,0.4825122356414795,-1.1236323885619641,1.2377213538436358
5.1580904996953905,0.1924488240480423,3.262250490188599,0.686887479275465,3.3393306544573615
5.168117499910295,-0.2761213105916977,5.468816599845886,2.0263289031386376,5.838681940695848
5.178145499899983,-1.2965653994679451,7.101176776885986,2.894921386241913,7.777426520655989
5.188172500114888,-2.4031188020110132,8.156453606486322,3.0789239072799686,9.043367063111102
5.198200500104576,-3.316086389422417,8.717478160858155,2.795629817247391,9.736857835166033
5.20822749985382,-4.160778378546238,9.246209127902985,2.8598588499426842,10.534858926150356
5.218255499843508,-4.523926430940628,9.414590227603913,2.4950487264990806,10.738979823701271
5.2282825000584126,-4.520839393436909,9.321302579641342,2.1927155175805093,10.589271549238774
5.238309499807656,-4.455872734487057,9.560389380455018,2.2401245959103107,10.783042480536954
5.248337499797344,-4.328964765965939,9.908980497121812,2.221956127434969,11.039244515344372
5.258364500012249,-6.1103134596347815,10.28143760919571,2.856059913933277,12.296380285220302
5.268392500001937,-8.127067254781723,10.792735687494279,3.4605763506889344,13.94661085937388
5.27841949975118,-6.913078281283379,11.064382123947144,2.94350239276886,13.374431182076831
5.288447499740869,-4.107147716581822,11.914677207469941,1.3061405074596406,12.670209088616254
5.298474499955773,-4.255484853386879,12.339411935806275,0.6325377559661866,13.067912697582818
5.308502499945462,-5.086948978900909,12.089261033535005,0.6073164490610361,13.129970126401238
5.318529499694705,-5.570239478945733,11.225752412080766,-0.0735275673866272,12.531978749316028
5.32855649990961,-5.804616347551346,10.104291533231736,-1.7855320841073992,11.788910176694698
5.338584499899298,-6.800542184114456,9.2875156134367,-3.1793983680009843,11.942105938660818
5.3486115001142025,-7.1800475299358375,8.895046405792236,-4.679968736171722,12.352207918622478
5.358639500103891,-7.084185352921486,8.62907469213009,-4.6794009715318685,12.105511373307644
5.368666499853134,-6.569321642518044,8.601612074375153,-3.5202103489637375,11.381370656552917
5.3786944998428226,-6.1831206500530245,8.55878121972084,-2.672039558887482,10.891442160908623
5.388721500057727,-5.917998536825181,8.440444684624673,-2.0800615990161897,10.516200331477888
5.3987495000474155,-5.663973269462586,8.370607295036317,-1.4429543901979924,10.209298558524653
5.408776499796659,-5.529451641440392,8.276246098279954,-1.1329639600217343,10.017718915453266
5.418804499786347,-5.470866633653641,8.215368981957436,-1.0339269641786815,9.924297164040828
5.428831500001252,-5.38868811070919,8.147337797284127,-0.9451227419078351,9.813782641511098
5.438858499750495,-5.300112733840943,8.083155834674836,-1.0695387732982635,9.724840174864012
5.448886499740183,-5.175716144442559,7.952852972745895,-1.321574233174324,9.580316616257882
5.458913499955088,-4.8155077797174455,7.679199771881104,-1.5058960121870042,9.188413742997144
5.468941499944776,-4.656443048715592,7.242132096290589,-1.2862459409236908,8.705479181905885
5.47896849969402,-4.753542496562004,6.006496145725251,-2.39454473733902,8.025459906718817
5.488996500149369,2.7114661645889284,-2.1442096477746966,-7.859199873805046,8.585843373352319
5.4990234998986125,25.829626078605653,-40.06454160690308,-0.9616354250907898,47.678735514091
5.509051499888301,35.30145586967468,-63.25734473705292,4.54933901488781,72.58361340670032
5.519078500103205,33.51388252258301,-53.59693054676056,10.478042049407959,64.07496118579341
5.529105499852449,22.438472549915314,-25.58468855381012,1.0390414506196977,34.046159047752674
5.539133499842137,13.478131456375122,-15.245413795709611,1.2756876236200334,20.38896878880339
5.549160500057042,12.123193595409393,-12.710928815603257,1.8335451798141003,17.660731078682105
5.55918850004673,12.107209646701813,-8.426013171672821,0.7362878268957138,14.76903325077265
5.569215499795973,10.84996121764183,-8.111084475517274,2.0834828048944476,13.7059202679572
5.579243499785662,9.287465327382089,-9.499758431911468,1.670329071879387,13.390012011957383
5.589270500000566,5.819586389064789,-8.359637333750726,2.01496147736907,10.38321683520615
5.599298499990255,2.7108738416433336,-5.22070228278637,2.952018277645111,6.581715674681465
5.609325499739498,0.057873401641845706,-2.2593723142147066,3.1098357975482944,3.844371375474845
5.619353499729186,-1.8991686272621155,0.534534913301468,2.8839982026815414,3.4942831427039853
5.629380499944091,-2.979560417532921,2.847689917087555,1.9774121202528478,4.5713539393634735
5.639407499693334,-3.701046018004418,4.541137125492096,1.1784743012487888,5.975656424077006
5.649435500148684,-4.3831254780292515,5.720884219408036,0.7620011039078236,7.2471339776754355
5.6594619997777045,-5.1820434165000915,6.6361120480299,0.5894227266311646,8.44031849133484
5.669489999767393,-5.811613710522652,7.4497532755136495,0.5888852213323117,9.466808521897168
5.679516999982297,-7.042524526119233,8.161854094862939,0.320847247838974,10.784987571771591
5.689544999971986,-11.407157599925995,8.76775310575962,-0.5626110501587391,14.398377347009195
5.699571999721229,-9.194570027589798,9.061155862212182,-2.049040804356337,13.070701273056168
5.7095999997109175,-8.007044967412948,9.089959246516228,-2.7290540045499805,12.417240594159766
5.719626999925822,-7.78804510653019,8.988570281267167,-2.801276473402977,12.218641174986242
5.729654000140727,-8.164185379743577,8.942504162192344,-2.578411018252373,12.380246644743853
5.739682000130415,-7.996379646062851,8.95084989309311,-2.2166790153086184,12.20546873780613
5.749708999879658,-7.784972394704819,8.994494680166245,-1.7069320571422577,12.017501686521822
5.759736999869347,-7.474555994868279,8.916936627030372,-1.2580128063261509,11.703133868830935
5.769764000084251,-7.047162537574769,8.841870072484017,-1.254940533041954,11.376117173761767
5.77979200007394,-6.565891665816308,8.75745849788189,-1.2763395881652833,11.019666757832457
5.789818999823183,-6.168212589025498,8.782567026615144,-1.184674615636468,10.797397096769833
5.799846999812871,-5.763872364163399,8.870669363737107,-0.9659587832540274,10.622809231180623
5.809874000027776,-5.39709348320961,8.96010018825531,-0.7524565476179124,10.487049361289836
5.819900999777019,-4.962787447571754,9.010058798789979,-0.6046272049471736,10.30417356532734
5.829928999766707,-4.4025318020582205,9.082937325239183,-0.1973318155668676,10.095591937464194
5.839955999981612,-4.009258602261544,9.076662093400955,0.029593343138694765,9.922742819581092
5.8499839999713,-3.8252163201570513,8.862312523126603,-0.4572937792539597,9.66343524602441
5.860010999720544,-3.5543250516057014,8.644184482097627,-1.7418680012226107,9.507326441576124
5.870038999710232,-2.8617229422926904,8.055214329957963,-5.859113566875458,10.363645492274834
5.880065999925137,-2.586042219400406,7.722211305499077,-6.684395431280136,10.53571564199689
5.890093999914825,-2.6066694420576098,7.930912465453148,-3.862876482009888,9.198690821530102
5.9001210001297295,-2.436333910524845,7.581081739068032,-3.5941899061203006,8.736516716590263
5.910149000119418,-1.2281228631734848,4.900796436667442,-5.252328118085861,7.287869520013178
5.920175999868661,5.135210727453232,-14.137931270599365,-5.87299017906189,16.147554101810577
5.930203000083566,13.995477894544603,-45.36688096046448,-4.528642795085907,47.69209468185608
5.940231000073254,16.448735693693163,-40.53520972251892,-1.0323080894351007,43.75762554299629
5.950257999822497,22.734816455841067,-36.45306733131409,-3.9897517061233523,43.14644963167438
5.960285999812186,22.10581275701523,-29.165747952461246,-1.609081095904112,36.63191167886151
5.97031300002709,17.17259643316269,-23.356164979934693,2.5385300838947296,29.100732736703353
5.980341000016779,12.7705049264431,-19.962352137565613,3.2115294027328494,23.91433085087466
5.990367999766022,10.63146363258362,-16.7768030834198,1.392703857421875,19.910518946156827
6.00039599975571,8.908610191941262,-12.991837241649629,-1.2763876815140247,15.804440388036355
6.010422999970615,6.81499182343483,-9.044235774278642,-3.3632564628124237,11.813289479601975
6.020449999719858,4.291109014749527,-5.763247881531716,-3.8181452822685245,8.136760787743109
6.030477999709547,1.5611054223775864,-2.5108867871761325,-3.0920251786708834,4.278109664714907
6.040504999924451,-0.7945246329903602,0.15214981377124787,-1.8660839116573336,2.033884982885076
6.0505329999141395,-2.45827412545681,2.3565764272212983,-0.617041391953826,3.460824210012676
6.060560000129044,-3.821886915564537,3.9490065532922745,0.6277383613586426,5.531322428102522
6.0705880001187325,-4.689175761938095,5.264375136494637,1.7527952778339386,7.2645926375873
6.080614999867976,-5.125107323527336,6.39253224670887,2.3902201366424563,8.534889917538326
6.090642999857664,-5.287968066930771,7.385713984966278,2.5160709285736087,9.425602912398723
6.100670000072569,-5.306799024939537,8.175650600194931,1.8616938221454622,9.92316897543227
6.110696999821812,-5.307136994004249,8.627943255901338,1.0963131737709046,10.18867069225252
6.1207249998115,-5.372519974708557,8.876195567250253,0.7491430035978556,10.402501327399824
6.130752000026405,-5.419460837244988,8.945035421848297,0.6648845529556274,10.47980371635423
6.140780000016093,-5.399184447526932,8.86968001484871,0.992578890323639,10.431089546051238
6.1508069997653365,-5.467389879226685,8.827053812742234,1.2347881042957307,10.456286758071808
6.160834999755025,-6.3753250604867935,8.825414838194847,1.9330754613876344,11.057553862971671
6.1708619999699295,-6.910869787931443,8.757320503592492,2.417311456203461,11.414647533089996
6.180889999959618,-5.554427438378334,8.77241158246994,1.5470925700664522,10.497636141571002
6.190916999708861,-5.665942611694336,8.853862127065659,1.348763201236725,10.597780070236954
6.2009449996985495,-5.624139697551728,9.018639587759973,0.9245664167404175,10.668722060793074
6.210971999913454,-5.735487640500069,9.164211283922196,0.49670576691627505,10.822444435042568
6.220999000128359,-5.841944972276688,9.368765013813974,0.3232750117778778,11.045659132727826
6.231027000118047,-5.999450835585595,9.80991638481617,0.048618995156139135,11.499140559728081
6.24105399986729,-6.358855792880059,10.27759715795517,-0.5886638311296701,12.100023778568897
6.251081999856979,-6.942647066116334,10.395327336788178,-1.2814465463161469,12.566036923974675
6.261109000071883,-7.489003295302392,9.791828607916832,-1.9742632484436036,12.484502121351241
6.271137000061572,-7.723239246010781,8.738598888516426,-2.746828955411911,11.981510935428426
6.281163999810815,-7.6313642853498465,7.550708377361298,-3.248893110752106,11.216337383511595
6.291191000025719,-7.4306100761890415,6.661031711697579,-4.150240234136581,10.807765891693295
6.301219000015408,-7.131848931312561,6.02763558447361,-5.808901187181473,10.997226601317033
6.311245999764651,-6.824964834451675,5.9485286039114005,-6.382609521746636,11.07713148112565
6.3212739997543395,-6.529020293354988,6.084848250746727,-6.063480770587922,10.789776794769494
6.331300999969244,-6.396691371202469,6.003290702104569,-5.352291532158852,10.276389657735379
6.341328999958932,-5.784863868355751,3.743372842669487,-4.698919562101365,8.340104032069515
6.351355999708176,-1.9325012648105622,-3.798540737628937,-5.2013403975963595,6.724389548917349
6.361383999697864,9.00784328877926,-16.79719700217247,-1.8525125241279603,19.1499052346754
6.371410999912769,15.189113295078279,-20.921833448410034,2.6241958862543107,25.98689441974871
6.381438999902457,16.727333300113678,-19.158254735469818,3.3827715450525284,25.65707596684121
6.3914660001173615,21.42899520635605,-15.349740986824036,9.604498436450958,28.05463908398048
6.401492999866605,27.06323655366898,-16.873788510560992,10.345552328824997,33.52870359031857
6.411520999856293,37.19884928226471,-14.5957436978817,6.4668871951103215,40.47975731168828
6.421548000071198,39.66061594963074,-7.050929313898087,4.257023255825043,40.50681805195672
6.431576000060886,32.30906607627869,-2.4308484913408757,2.486803275346756,32.49567610682185
6.441602999810129,20.707607839107514,1.739149045944214,-6.3671407127380375,21.734077911843464
6.451630999799818,22.842943167686464,8.948514515161515,-19.2039799618721,31.155558267606043
6.461658000014722,11.952112251520157,6.290146915912628,-14.487246272563935,19.806545384256715
6.471684999763966,1.8575972628593447,4.31445431560278,-6.581907774209976,8.086203904219316
6.481712999753654,-2.319272945523262,3.139066613316536,-3.4175656941533092,5.187727968246628
6.4917399999685585,-4.310682569146157,1.4843823516368866,-1.7907938472926617,4.898195359649594
6.501767999958247,-5.909905405640602,0.12575599394738673,0.5398969562351704,5.9358474708322575
6.51179499970749,-7.313363462090493,-1.0715528467297555,2.0916844019293785,7.681709072156375
6.521822999697179,-8.18578324019909,-1.5865259000658989,3.3364890789985657,8.980883645910403
6.531849999912083,-8.947333377599717,-1.920636679530144,4.203700157403946,10.070487318795676
6.5418779999017715,-9.721081391572953,-1.8469823737442495,4.417360925674439,10.836228350223303
6.551905000116676,-10.759665005207061,-2.054044412970543,4.533679879009724,11.855114622814519
6.561931999865919,-11.863729248046875,-2.574931632578373,4.662094967365265,13.004363654871705
6.571959999855608,-12.79239339351654,-3.0963035863637924,4.873517421483994,14.03508449176288
6.581987000070512,-13.471967321634294,-3.3454189467430115,5.0190405857563025,14.760640224796429
6.592015000060201,-13.82706054210663,-3.3669352385401727,4.953152990341187,15.068429934181314
6.602041999809444,-13.928996222019196,-3.1354226285219196,4.804942153394222,15.064371208581427
6.612069999799132,-13.968757288455963,-3.052922216355801,4.606320716142655,15.022140486058417
6.622097000014037,-13.714550757408142,-2.9797375881671906,4.0635573086142545,14.610962889975903
6.632125000003725,-13.378263351917267,-3.0065306997299195,3.695008767843247,14.201064993728801
6.6421519997529685,-12.536625655889512,-3.100739868879318,3.4665048426389697,13.37154540037928
6.652179999742657,-10.720252432823182,-2.9979209670424463,3.123950976133347,11.561592107031304
6.662206499837339,-9.443922784924508,-2.773692525923252,2.677010861635208,10.200364451787577
6.6722335000522435,-8.729109442234039,-2.478320427238941,2.4619891539216043,9.402170727475484
6.682261500041932,-8.631465033888817,-2.348176024854183,2.550121896564961,9.301571961893611
6.692288499791175,-8.386866062879562,-2.288149386048317,2.6604340052604676,9.09137278225354
6.7023164997808635,-8.081317470073701,-2.0988314536213877,2.646281112134457,8.758743588396024
6.712343499995768,-7.710216327309609,-1.8341060739755632,2.3865068623423578,8.27688322428877
6.7223714999854565,-7.232352043390274,-1.6451834133267405,1.8068197497725487,7.634012192234502
6.7323984997347,-5.913961034417152,-1.386256132721901,0.6256954903900623,6.106401233853532
6.742425499949604,-3.4784086042642595,-1.4021207982301713,-0.9049731279909611,3.8580105641943216
6.752453499939293,-1.0118016117811204,-1.587110329270363,-1.6079796266555786,2.475532302075448
6.762480499688536,0.5929246240854263,-1.5285916873812677,-1.8548724603652955,2.475621942219684
6.772508500143886,2.042359337210655,-1.1064852824807168,-2.3352313126623634,3.293758738322642
6.782535499893129,4.5361061811447145,-0.2848123195767403,-2.854765048027039,5.367220959066134
6.792563499882817,10.131304500102997,1.345153861194849,-3.6199848979711535,10.84237337697028
6.802590500097722,21.57783958911896,3.1004501393437387,-5.050964044332504,22.376956678186733
6.81261850008741,28.539819889068603,4.884415169656277,-5.173312354087829,29.413296169640727
6.8226454998366535,30.532644538879396,6.15848340690136,-3.429994243383408,31.335828709646158
6.832672500051558,27.92853091478348,6.010282802581788,-0.49014051318168644,28.57212935970452
6.842700500041246,26.07706621170044,4.213970499336719,-0.09178608298301698,26.415513515048655
6.85272749979049,24.83834527015686,2.5524023106694225,-2.9582780143618583,25.143777801382413
6.862755499780178,23.22783964633942,2.226721169650555,-6.12669618844986,24.125240475257307
6.872782499995083,20.154814410209656,1.8897589954733849,-8.14771260380745,21.821387527955462
6.882810499984771,15.122172031402588,1.3568335282802582,-9.662038546800614,17.99655725550476
6.892837499734014,8.70095217525959,1.5646918120980264,-9.01746020436287,12.628120119806798
6.902865499723703,3.998830093145371,0.769815103635192,-7.3664216816425325,8.417091290903471
6.912892499938607,0.06510289907455445,-0.03992603100836277,-5.257720420360566,5.258275049300529
6.9229194996878505,-2.9932703840732575,-0.788139619678259,-3.130019216537476,4.402028163036958
6.9329475001432,-4.914930911064149,-1.2011242219805718,-1.0480993723869325,5.166987279988231
6.942974499892443,-6.358488587737083,-1.684311226308346,0.8999556322395802,6.639066317446361
6.953002499882132,-7.614338362812997,-2.1807526990771295,2.2233981969952583,8.226623279349775
6.963029500097036,-8.686314840316772,-2.5163387310504914,2.9453957211971282,9.51101372456893
6.973057500086725,-9.798740016818048,-2.7944206130504607,3.362338449954987,10.729837479285433
6.983084499835968,-10.844971203804016,-3.1424813872575763,3.6816888105869294,11.876170349847616
6.993112499825656,-11.74750180363655,-3.6134149664640427,4.01853404045105,12.930938952008637
7.003139500040561,-12.424274915456772,-3.9384213387966156,4.225651774406433,13.701456226813306
7.013166499789804,-12.794263333082199,-4.0986885496974,4.3674771595001225,14.126828334853773
7.023194499779493,-12.928489676713944,-4.152870896458626,4.520592348575592,14.311811107807156
7.033221499994397,-12.901839237213135,-4.006859197318554,4.542781362533569,14.253043143055839
7.043249499984086,-12.60629055261612,-3.8454090946912767,4.2963539671897895,13.862337105044743
7.053276499733329,-12.224729325771332,-3.6807731366157532,4.11077854514122,13.412330081637535
7.063304499723017,-12.061914775371552,-3.6182757568359376,4.038232432901859,13.224561568648456
7.073331499937922,-11.745676302909851,-3.6440353730320934,3.9612114465236665,12.920181954474067
7.083358499687165,-11.069216601848602,-3.756127081811428,3.948683202266693,12.338077073240427
7.093386500142515,-10.043600943088531,-3.572042115032673,3.795922354459763,11.315583559704876
7.103413499891758,-9.189420969486237,-3.357032686471939,3.3092632734775544,10.327940241193389
7.113441499881446,-8.350622096657753,-3.2249511015415195,2.8817780148983,9.404139702050037
7.123468500096351,-7.966336067318917,-3.24241176456213,2.503515787124634,8.957864460060748
7.133496500086039,-7.823879767656327,-3.2388949567079544,2.0836330783367156,8.72038198500898
7.143523499835283,-7.631981166601181,-3.1628147873282435,1.6939217099547388,8.433261804649096
7.153551499824971,-7.327121375799179,-3.062425988316536,1.2589569854736329,8.04053065915942
7.1635785000398755,-6.58188146173954,-3.1309158870577813,0.36523243859410287,7.297752572019884
7.173605499789119,-5.276595817208291,-2.902978849411011,-0.9993040654063226,6.1047815876938065
7.183633499778807,-2.881002089381218,-2.2531915149092674,-1.932128212451935,4.136443456791205
7.193660499993712,-0.4009014773368836,-1.6396598410606384,-2.1087071084976197,2.7010834971074638
7.2036884999834,1.4800156509876252,-0.9832060959935188,-2.44560467094183,3.022932807870469
7.213715499732643,4.934444239139557,-0.1904894038103521,-3.3801268494129184,5.984169422757321
7.223743499722332,13.49014631509781,1.4048916475474835,-4.862331697940827,14.408332231208991
7.233770499937236,26.34494821071625,4.251495882868767,-5.896883071660996,27.329558054023
7.243798499926925,30.101468517780305,7.875062200427056,-3.5934131035208705,31.32136059177617
7.253825500141829,32.10811364650726,9.405117153525353,-1.7596283340454102,33.503484631938484
7.2638524998910725,29.260982723236086,9.704257782697677,-0.5524189147353172,30.833146055826454
7.273880499880761,25.03190915822983,7.61961255133152,0.23133690118789674,26.166935019220926
7.2839075000956655,23.068832802772523,4.740566940307618,-2.4960968399047854,23.682789557651223
7.293935500085354,21.15269087791443,2.8135047554969788,-5.05593300819397,21.92976513711795
7.303962499834597,19.332364937067034,1.6819273164868356,-7.626919816732407,20.85039854412258
7.3139904998242855,15.724166271686554,1.004422717988491,-10.139131582975388,18.736602125063804
7.32401750003919,10.642084515094759,0.12991164665669203,-9.198689975738526,14.067222082988138
7.334044499788433,5.301767495870591,-0.4918230860307813,-6.858305658102036,8.682567882151982
7.344072499778122,1.8504870486259462,-1.3810620510578155,-4.900570149421692,5.417307679595773
7.354099499993026,-1.318965205550194,-2.0522993114590644,-2.663916606903076,3.6122089316374564
7.364127499982715,-3.9530510723590853,-2.3570482975244524,-0.3414773941040039,4.615072726212047
7.374154499731958,-5.963193420767785,-2.5416665303707124,1.5682305470108986,6.669264695127417
7.384182499721646,-7.743367116451264,-2.6601518771052364,2.612692658901215,8.594318195138086
7.394209499936551,-9.245199898481369,-2.675999000966549,3.0291126465797427,10.090104818173257
7.404237499926239,-10.547131580114366,-2.86277719527483,3.489625318050385,11.472356457956213
7.414264500141144,-11.501895357370378,-3.1222336488962177,3.6280569791793824,12.458119328950508
7.424291499890387,-12.367876181602478,-3.367795656323433,3.453767852783203,13.27535013501036
7.4343194998800755,-13.157677141427994,-3.464919077754021,3.244077343940735,13.98764346796522
7.44434650009498,-13.753211377859117,-3.396782058477402,3.419266941547394,14.57327478552526
7.454374500084668,-14.112678315639496,-3.4273562720417976,3.3403540885448457,14.902094674678581
7.464401499833912,-14.04379694581032,-3.3175309440493583,3.2599794316291812,14.793975466875752
7.4744294998236,-13.864889688491822,-3.228463816344738,3.4806381475925448,14.655135161504672
7.484456500038505,-13.862384741306306,-3.1718057584762573,3.3038253629207612,14.5993604145587
7.494484500028193,-13.556203479766847,-2.974890538752079,3.169264558553696,14.236041034799806
7.504511499777436,-12.364069644212723,-2.7416076841950416,3.247591520547867,13.074153186547656
7.514538499992341,-11.483749108314514,-2.5975527557730675,3.345692011713982,12.239993012211462
7.524566499982029,-10.738039662837982,-2.3848284190893176,3.14413907289505,11.440214722586418
7.5345934997312725,-9.513592359423638,-1.7990026071667673,2.9552713760733607,10.123165456916883
7.544621499720961,-8.778117295503616,-1.2457685905694962,2.7858871865272525,9.293462758892725
7.554648499935865,-8.345701664686203,-0.46782081395387654,2.502084681093693,8.72525187838599
7.564676499925554,-8.358174945116044,0.28113323321565986,2.2978355911374093,8.67284109804173
7.574703500140458,-8.033228799104691,0.8365529572963715,2.220194799900055,8.376267112421234
7.584730499889702,-7.656524269580841,1.018227117061615,2.2114274847507476,8.034274197020602
7.59475849987939,-7.311185374259949,0.9537817373871804,2.1135298919677736,7.6700808198875725
7.6047855000942945,-7.0231450992822655,0.737371900677681,1.7033864517509938,7.264283158680584
7.614813500083983,-6.363887321949005,0.48265461534261705,1.033753959685564,6.465343345356099
7.624840499833226,-3.592750321626663,-0.0415801352262497,-0.9739777278900147,3.722662541195444
7.634868499822915,5.241252906918526,-1.4830798843503,-3.527609415650368,6.489552077534437
7.644895500037819,12.40980305671692,-2.5000378632545472,-5.5481562995910645,13.821557059495829
7.65492391679436,18.33446858882904,-0.4097178725525737,-6.700025038719177,19.524624008910177
7.664950916543603,26.555125207901003,2.003536456525326,-6.470175669193268,27.405328064632723
7.6749779167585075,30.762217919826508,4.0675746381282805,-3.274020058214665,31.202218224434485
7.685005916748196,32.14849217891693,6.233969206809998,-1.7349729645252228,32.793262305494586
7.695032916497439,30.847334668636325,7.0005935579538345,0.09014301538467408,31.631858814899577
7.7050609164871275,26.596509461402896,5.362831723093986,1.0903203624486923,27.15369363665811
7.715087916702032,23.358281672000885,3.514385645091534,-1.7729132080078125,23.68762230309506
7.7251159166917205,21.987965633869173,2.321935767531395,-6.518429816365242,23.05107254978893
7.735142916440964,19.991672415733337,1.2878460314869882,-9.472368904352189,22.15967702921115
7.745169916655868,14.823456494808198,0.5521239227056504,-9.554338681697846,17.644406788670537
7.755197916645557,7.9735638105869295,0.4493477420881391,-7.716434841156007,11.105088918717742
7.7652249163948,3.19132727265358,-0.13966363292187453,-5.734105943441391,6.56384389379831
7.775252916384488,0.344240203499794,-0.980405864417553,-3.773921620845795,3.9143558061291848
7.785279916599393,-2.2402121579647067,-1.401814404129982,-1.967896800041199,3.2948826916798684
7.795307916589081,-4.593179683685303,-1.5544401812553406,-0.4361553637683392,4.868656425038067
7.805334916803986,-6.4562721598148345,-1.7155110919475556,0.794185348302126,6.72734411752907
7.815361916553229,-8.00235082268715,-1.7745407804846764,1.49612487629056,8.332166784001645
7.8253899165429175,-9.403042561411858,-1.8209172405302525,1.7530259504914285,9.73683978463647
7.835416916757822,-10.487461913824083,-1.9135483923554422,2.2123818965256214,10.887752683629028
7.84544491674751,-11.258614933490755,-2.0339416855573655,2.4347396671772006,11.6970631462686
7.855471916496754,-12.086805202960969,-2.2566251461207867,2.2095750868320465,12.492615383848886
7.865499916486442,-12.681104507446289,-2.3938068187236787,2.0484807872772217,13.066636757405728
7.875526916701347,-13.080414372682572,-2.4147734722495082,2.069984361380339,13.46154546624272
7.885554916691035,-13.251418533325197,-2.3650908502936363,1.9440215952694417,13.60047675040736
7.895581916440278,-13.182631888389588,-2.354220291674137,1.9668008856475354,13.534860265636295
7.905608916655183,-13.471172100305559,-2.5780938068032264,2.0195660135149955,13.863538232200064
7.915636916644871,-13.721857438087465,-2.656096248328686,1.9734212493896486,14.11519076240646
7.9256639163941145,-13.689086133241654,-2.5157256504893306,1.818443137407303,14.036619612849194
7.935691916383803,-13.358441290855408,-2.360485290884972,1.6438056631386282,13.664623726538599
7.945718916598707,-12.675930891036987,-2.291090389341116,1.33651226118207,12.950466561123077
7.955746916588396,-11.626154537200929,-2.3708734542131427,0.8425464995205403,11.895309784222713
7.9657739168033,-11.146713259220125,-2.7079122269153597,0.3500412261486054,11.476259581063642
7.975800916552544,-10.33401109457016,-2.4783926403522494,0.1514674437046051,10.628130492657387
7.985828916542232,-9.92339739203453,-2.066005331128836,0.053226144276559355,10.136322156034952
7.995855916757137,-9.832149252891542,-1.4062676435709,-0.1798194229602814,9.93383524331685
8.005883916746825,-9.646897181868553,-0.5876682695746422,-0.23185960572212935,9.667561125194602
8.015910916496068,-9.434949647784233,0.060216929130256176,-0.1483486119657755,9.436307977458656
8.025938916485757,-9.21203624546528,0.6595746964216233,0.08799357891082764,9.236037756411308
8.035965916700661,-8.94389346063137,1.0801571707427502,0.24239749431610108,9.012143268606103
8.04599391669035,-8.45873535990715,1.3531214234232902,0.20849292598664762,8.568816182860797
8.056020916439593,-7.743019791841507,1.324182091355324,-0.1864478997141123,7.85764446429229
8.066047916654497,-6.566213262677193,0.9407216888666153,-0.7140444338321686,6.671579525146098
8.076075916644186,-3.0374472677707676,0.11304210059344769,-2.263002265691757,3.78946482705945
8.086102916393429,4.563006881475449,-0.9841788534075022,-3.7138847494125367,5.965113556991671
8.096130916383117,13.366702237129212,-2.9814955535531045,-5.186398422718049,14.64434269713408
8.106157916598022,18.031172343492507,-3.210555548965931,-5.1398124861717225,19.022316247153807
8.11618591658771,22.132143938541414,-1.478641262948513,-5.358479640483856,22.81954161148487
8.126212916802615,22.918732438087464,0.7483620348572732,-2.763221039772034,23.096833826706575
8.136240916792303,22.399200310707094,2.4868962460756303,-1.8746383881568909,22.614665520061916
8.146267916541547,24.335947823524478,2.712868911623955,-3.4549697479605674,24.729230278362575
8.156294916756451,26.867305712699892,2.2940582898259163,-3.7033775952458385,27.218189236423576
8.16632291674614,29.358556380271914,1.9149547939002516,-3.7342544022202495,29.65698131194049
8.176349916495383,29.54842482805252,2.5160297057032586,-5.123531498908997,30.094690400789382
8.186377916485071,24.596859941482546,2.489542403519154,-7.4112815201282505,25.809502787353793
8.196404916699976,18.726387573480608,1.906524132192135,-6.9667071890831,20.071059635137903
8.206432916689664,12.919361003637315,1.7998846596479416,-4.186157633364201,13.699393755262088
8.216459916438907,8.069797870516778,1.3472014099359513,-2.0016431280970575,8.422776532841691
8.226486916653812,3.5309452521800995,0.896881312429905,0.186611694842577,3.6478479117325042
8.2365149166435,-0.1447104012966156,0.66429749250412,1.9257383751869204,2.042229308490662
8.246541916392744,-2.403332517743111,0.44732190113514664,3.070143435895443,3.9245235113384758
8.256569916382432,-4.256027474999428,0.23722716696560384,3.5527465957403184,5.549058926542496
8.266596916597337,-5.730323379635811,-0.03704207461327315,3.8653252959251407,6.91221511483918
8.276624916587025,-7.029697489142419,-0.023493820130825044,4.008683820962906,8.09238807305293
8.28665191680193,-8.328150077462197,0.023097415454685688,3.99235488653183,9.235665365492022
8.296678916551173,-9.458302842378616,0.1452320094779134,3.9014072942733766,10.232378211859348
8.306706916540861,-10.548872880935669,0.22666848421096802,3.9902358555793764,11.280606359723123
8.316733916755766,-11.27864047765732,0.251644610054791,4.088498606979847,11.999453191429012
8.326761916745454,-12.301785103082658,0.2670017372444272,4.355640056133271,13.052846699042727
8.336788916494697,-12.79703842163086,0.3414221379160881,3.8575765657424927,13.370177949508426
8.346816916484386,-13.170647435188295,0.370253917761147,3.299282368719578,13.582647237346386
8.35684391669929,-13.55986383676529,0.32485646434128285,3.1737195521593096,13.930108929574015
8.366871916688979,-13.752900305986405,0.14081144135445356,2.876753794848919,14.051256423700869
8.376898916438222,-13.643895342350007,-0.17823369462043048,2.5895210203528407,13.888602034681082
8.386925916653126,-12.130356434583664,-0.6443543940782547,2.2731121015548705,12.358308073577405
8.396953916642815,-10.763911253213884,-1.0162153825163842,2.1387829931080344,11.021291751075985
8.406980916392058,-10.068245787620546,-1.2792564716935158,2.1711384147405624,10.378820374988226
8.417008916381747,-9.029118967652321,-1.808062867820263,2.5993177378177643,9.568204291722841
8.427035916596651,-8.412974465489388,-2.002845607995987,2.9137693011760715,9.125764703679431
8.43706391658634,-7.956806275248528,-2.056497904658318,3.1342423680424694,8.795648069092515
8.447090916801244,-7.238580497503281,-2.0204337403178214,2.6959675347805026,7.984199463092087
8.457117916550487,-6.59059322834015,-1.7656407335400581,2.473145641386509,7.257400062342436
8.467145916540176,-5.991311511397362,-1.5304581186175348,2.3707971480488776,6.622597284800093
8.47717291675508,-5.322410506010056,-1.3223595142364504,1.9984637045860292,5.836997983375152
8.487200916744769,-4.409919174313545,-1.2493429934978486,1.503401882350445,4.823739447693593
8.497227916494012,-3.2720884305238727,-1.297306826412678,0.9303061898052692,3.640746806057119
8.5072559164837,-1.917829431295395,-1.4306593036651611,0.44555461674928665,2.4337984072665315
8.517282916698605,-0.10461779773235322,-1.5985697025060654,-0.31516141533851627,1.6326961429154156
8.527309916447848,2.511201367378235,-1.7881865738332272,-1.6403123903274537,3.4920435661975207
8.537337916437536,6.1391712230443956,-1.9570196633040906,-2.7157276153564456,6.992462066341503
8.547364916652441,10.136040744781495,-1.473930453658104,-3.3066472291946414,10.76316444455031
8.55739291664213,16.3677973651886,0.22695580177009106,-4.256601963937283,16.91375061313211
8.567419916391373,24.353819253444673,2.9565586405992508,-4.323172806501389,24.91063175312155
8.577447916381061,24.947454314231873,5.45051715373993,-3.0954048693180085,25.722852588873135
8.587474916595966,22.741985142230988,7.018281970024109,-1.8568964740633966,23.872625212481545
8.597502916585654,20.31296522140503,6.828203022480011,-1.425311440229416,21.4772536722893
8.607529916800559,18.094380744695663,4.96814642071724,-0.4837995001673699,18.770273182563457
8.617556916549802,16.78209247469902,3.0652323594689372,-0.09408491581678391,17.059986202171128
8.62758491653949,15.94660604953766,1.4538927765190601,-0.726012222468853,16.029196562895457
8.637611916754395,14.379066935777665,0.7451365645229817,-1.9332625722885133,14.527570292955915
8.647639916744083,12.139086327552796,0.2550116926431656,-3.1124003863334657,12.534332211809797
8.657666999846697,9.230428077578544,0.06157295325770974,-4.143212758004665,10.117845901278388
8.667694999836385,5.6676312875747685,0.016617777748033406,-4.1207261207699775,7.0073321831371524
8.67772200005129,2.536185935139656,0.02150547444820404,-3.422227094471455,4.259617338349302
8.687748999800533,-0.25051869213581085,-0.09787945727817715,-2.5691920056939126,2.583231999915613
8.697776999790221,-2.6944460892677307,-0.3058102374337614,-1.4290574589371683,3.065251188766333
8.707804000005126,-4.732804176807404,-0.5838425094634295,-0.583829864859581,4.8042860825479705
8.717831999994814,-6.436504477858544,-0.8985407522320747,0.21552047520875933,6.50249294133789
8.727858999744058,-7.881515187621117,-1.2682217524945736,1.1357324704527856,8.063284461721757
8.737886999733746,-9.025905337929727,-1.5348881153762342,1.8428646183013917,9.339111237017079
8.74791399994865,-9.752942284941673,-1.871758342087269,2.107980153411627,10.152189065997238
8.757940999697894,-10.485194363594056,-2.239082768261433,2.2712351453304294,10.959530171081878
8.767968999687582,-11.129737622737885,-2.5467942461371424,2.3466943404078484,11.656079735933803
8.777995999902487,-11.602532955408098,-2.6916119438409805,2.3572523653507234,12.141671406833161
8.788023999892175,-11.907501504421235,-2.8019690760970115,2.2421652741730216,12.43651590671219
8.79805100010708,-12.179271901845933,-2.9255818462371828,2.094152219295502,12.699573485582368
8.808079000096768,-12.594715404510499,-3.2683505979180336,2.0275046320259573,13.168893149555583
8.818105999846011,-12.798088581562043,-3.63378286510706,2.027128948420286,13.457514667492582
8.8281339998357,-11.69234267950058,-3.9000770527124407,2.205209701806307,12.521358879167453
8.838161000050604,-10.548870542049409,-4.462924768924713,2.153219622373581,11.654729595669483
8.848187999799848,-9.735436305999757,-4.735800290107727,2.1234828762710096,11.032484034965961
8.858215999789536,-9.087402259111405,-4.829128868579865,1.905142288953066,10.465702680155397
8.86824300000444,-8.845825129151345,-4.820797170996666,1.6964140856266023,10.215993751433446
8.878270999994129,-8.683572496175767,-4.643939362764359,1.7661083646118643,10.004486136575155
8.888297999743372,-8.53828906774521,-4.420095960795879,1.7583606576919557,9.774019680230866
8.89832599973306,-7.90451053261757,-4.482059489786625,1.2088032241165638,9.166861472984253
8.908352999947965,-7.285650583505631,-4.448292696475983,1.0617258699238301,8.602050578863334
8.918379999697208,-6.102361246347428,-4.42995465874672,0.4575399470329285,7.5546445225838115
8.928407999686897,-4.412541650533677,-4.603293612599373,-0.004872046262025833,6.37658683296381
8.938434999901801,-2.8589452224969865,-4.719188935160637,-0.5850281055271626,5.548564668023401
8.94846299989149,-1.217080396413803,-4.864399273395539,-1.1724601475894452,5.149594914168618
8.958490000106394,2.056967436075211,-5.121373291611672,-1.8734677755832674,5.828332603005435
8.968518000096083,6.431891609430314,-5.193197565078735,-2.9664761030673983,8.78285324342094
8.978544999845326,9.277847827076913,-4.1396830862760545,-4.259348108768464,11.0162372282402
8.988572999835014,12.307232369184495,-1.3585045163333416,-5.466627402305603,13.535047774782297
8.998600000049919,17.601924734115602,2.533997614681721,-4.397632420063019,18.319062998927446
9.008626999799162,20.61824601173401,6.428650497794152,-3.2872990849614143,21.845959605775217
9.01865499978885,21.707659471035004,9.07489389538765,-3.4117553159594536,23.7742771343092
9.028682000003755,21.861347687244418,9.288562265038491,-2.14594305485487,23.849548910802564
9.038709999993443,22.078220915794375,7.885165604352951,0.3197998653352261,23.446235249364864
9.048736999742687,22.00747896194458,4.989444903731346,1.9129354579746725,22.646920602461183
9.058763999957591,20.441767687797547,2.479674934744835,1.365330409705639,20.636830694453852
9.06879199994728,17.597243453264237,1.08195036560297,-1.0149316263198853,17.659662509606
9.078818999696523,13.526006119251251,0.25617996633052825,-3.1443367087841034,13.889036073514196
9.088847000151873,9.435139097571373,-0.30241452176123856,-3.8739245036244396,10.203949989747787
9.098873999901116,6.270952845811844,-0.6321030154824258,-4.338244589567185,7.651455412892805
9.108901999890804,3.434297794103623,-0.4942162783071399,-4.241731325089932,5.480048877754464
9.118929000105709,0.5968200391530991,-0.586052647344768,-2.5045329102873803,2.64051831338226
9.128957000095397,-1.7759642851352693,-0.49803220778703694,-0.851258704662323,2.0314346172920836
9.13898399984464,-3.554958012700081,-0.37651602990925315,0.7227693566679955,3.6471751172348994
9.149011000059545,-5.077322707772256,-0.1933243715018034,1.743492650091648,5.371810385000568
9.159039000049233,-6.286565496325493,-0.04880893830209971,2.3910276371240617,6.726091079783223
9.169065999798477,-7.463029378652573,0.0503556364774704,3.025002053976059,8.052948567035296
9.179093999788165,-8.521522176861763,0.1855442125350237,3.388640687763691,9.172439837705106
9.18912100000307,-9.683310132622719,0.28214664705097675,3.7312044945359233,10.381136201545619
9.199148999992758,-10.872940775156021,0.19383921884000302,3.8730480059981347,11.543782551641254
9.209175999742001,-11.410834329128265,0.11197863824665547,3.4169330254197123,11.911973413437405
9.219202999956906,-11.707907967567444,-0.12683392815291883,3.143473952114582,12.123226645987561
9.229230999946594,-11.749533126354217,-0.3095282077789307,3.146452231407166,12.167477061545384
9.239257999695837,-11.925381120443344,-0.45462503693997863,3.176296712458134,12.349504427207256
9.249286000151187,-11.80227618098259,-0.7014820564538241,3.439969300925732,12.31337439205952
9.25931299990043,-11.089529829025269,-0.9009011270105839,3.8344584292173387,11.768277958770605
9.269340999890119,-10.124437530040742,-1.1391475367546082,4.3106784760952,11.062723052416255
9.279368000105023,-9.185191093683244,-1.194607207775116,4.590409272909165,10.337634115268187
9.289394999854267,-8.87880868792534,-1.142690876349807,4.740157927572727,10.129564814640466
9.299422999843955,-8.732010830640792,-0.902823618426919,4.708349659144878,9.961508929132538
9.30945000005886,-8.313791069984436,-0.5267546812444925,4.332905496954918,9.389923455231575
9.319478000048548,-8.033958531618119,-0.18662280455231667,3.861404737830162,8.915703242497237
9.329504999797791,-8.018735305666924,0.164609280154109,3.4402964526414874,8.727133080199916
9.33953299978748,-7.884645202159882,0.5619854711741209,2.8775405377149585,8.412116094060194
9.349560000002384,-7.521437800526619,0.8084054113179445,2.3593942004442217,7.924158434138522
9.359587999992073,-7.056121056675911,0.8067670945823193,1.854298556149006,7.34017306653612
9.369614999741316,-5.744364298582077,0.6591088195145131,0.7218683007359505,5.826940833266937
9.37964199995622,-3.640602180361748,0.2350125340372324,-0.25454771608114246,3.6570493114765954
9.389669999945909,-0.7735801988840103,-0.344588259011507,-1.4565566217899324,1.6848515023093598
9.399696999695152,3.218260717391968,-0.7930138586461545,-2.583128844201565,4.202216992357634
9.409725000150502,8.477478024959565,-0.8907161544263363,-3.9238953933119776,9.383920502065399
9.419751999899745,14.147782659530641,0.037447177022695545,-5.308717496395111,15.111043575111363
9.429779999889433,18.17819590330124,2.7196566519141196,-6.112106215953827,19.37011050557534
9.439807000104338,21.133659360408785,5.651512852907181,-5.598471590280533,22.581276306611795
9.449833999853581,20.71424325942993,5.818532720804215,-2.721873916089535,21.68741096694108
9.45986199984327,19.009917891025545,4.7504838180541995,-0.787317354977131,19.610301969795774
9.469889000058174,18.049829639196396,3.140198341906071,-0.3861664938926697,18.325018968381116
9.479917000047863,18.487659791707994,1.3685285443067552,0.36317319542169574,18.541799527564514
9.489943999797106,19.01433604717255,0.13994930595159533,0.5054154869914055,19.02156686336676
9.499971999786794,16.966900742053987,-0.194724560379982,-0.6942519012093544,16.98221493644042
9.509999000001699,13.915904306173326,-0.3859270504117012,-2.6843339145183567,14.17769307438436
9.520025999750942,11.650921003818512,-0.5452837036550046,-3.9854674512147907,12.325795932084208
9.53005399974063,9.146081407070161,-0.3254009862989187,-4.503364697098732,10.199852180385458
9.540080999955535,6.145343543887138,-0.17712487980723382,-4.389730492830276,7.55422757766312
9.550108999945223,2.648415638208389,-0.22702662616968156,-3.619191430807114,4.490455778039061
9.560135999694467,-0.27946591794490816,-0.4752937748283148,-2.5891061604022982,2.647163780637018
9.570164000149816,-2.5293815302848817,-0.5550897401198746,-1.8368535344302654,3.1748899905794525
9.58019099989906,-4.4151629573106765,-0.5402192839980126,-1.1695460414886476,4.599275894917965
9.590218000113964,-5.7898111975193025,-0.5132084732875228,-0.47629532977938654,5.831993988435145
9.600246000103652,-6.942459955215455,-0.46315703820437193,0.21559868171811106,6.961231749005847
9.610272999852896,-8.066680135130882,-0.6155328834056855,0.695777585953474,8.119994801856967
9.620300999842584,-9.042780987024308,-0.9694122219085693,1.103172980993986,9.161257482533125
9.630328000057489,-9.912554315328599,-1.3173602910339832,1.3746442933380605,10.093751439575856
9.640356000047177,-10.62250218987465,-1.5446227061748505,1.3478159523010254,10.818503589665244
9.65038299979642,-11.158192512989045,-1.6849079346656801,1.0638320370018484,11.334721589354352
9.660410500131547,-11.511310544013977,-1.7431448869407178,0.767098560333252,11.667787482588988
9.670438500121236,-11.929220402240754,-1.9157121545076372,0.23707660116255286,12.084389011405753
9.680465499870479,-12.30869534254074,-2.105716842412949,-0.14446021355688574,12.488350299747625
9.690493499860168,-12.484866102933884,-2.267860132455826,-0.13303351163864136,12.689868758335878
9.700520500075072,-12.73806574344635,-2.444867775589228,-0.09617273725569249,12.970926972266373
9.71054850006476,-12.917451303005219,-2.611136130094528,-0.2704852525144816,13.181492416537061
9.720575499814004,-12.215242803096771,-2.854267449975014,-0.4986610758304596,12.554189033272628
9.730602500028908,-11.338214249610902,-3.2324293980002405,-0.6137717020511627,11.80594841109238
9.740630500018597,-10.454911633729935,-3.484690560400486,-0.4497934826463461,11.029531256942741
9.75065749976784,-9.722968872785568,-3.5071023532748224,-0.34017108958214526,10.341741003703891
9.760685499757528,-9.312418320178987,-3.3954179030656815,-0.4593841223046184,9.922753220668634
9.770712499972433,-9.327084891200066,-3.2516000792384148,-0.6996275389194488,9.902368117585322
9.780740499962121,-9.032078243494034,-2.988840241134167,-1.1049460029602052,9.57770896681868
9.790767499711365,-7.918866616487503,-2.9530935806036,-1.6383676064014436,8.60891738833798
9.800795499701053,-6.193937999010086,-3.3035619458556176,-2.3746256124973297,7.410616456490968
9.810822499915957,-3.5680604535341263,-3.771031926870346,-3.058507769107819,6.025463215989499
9.820849500130862,-1.1005103051662446,-3.844986048638821,-3.3602954328060153,5.22366021499688
9.83087750012055,2.762486629486084,-3.61679378002882,-3.6675151598453524,5.844929176049956
9.840904499869794,7.946235094070435,-3.634694446027279,-4.35604117512703,9.763644330147438
9.850932499859482,11.231803110837937,-2.9717453214526177,-4.96041640162468,12.63290949281722
9.860959500074387,14.010419869422913,-1.0988931114971638,-5.397658324241639,15.05437299834408
9.870987500064075,19.01504940748215,1.5596940506994725,-4.065881284475327,19.507335546409745
9.881014499813318,22.19132711648941,3.894012320637703,-0.6866582684218884,22.540848047975228
9.891041500028223,21.513786849975588,5.96401203095913,1.017807286977768,22.348342126543365
9.901069500017911,20.56129413127899,6.824177799224854,-0.07484202146530151,21.664298288118594
9.911096499767154,19.42663725614548,5.551614342927933,0.058767148554325105,20.20440819406032
9.921124499756843,18.67062735557556,3.1814612656831742,0.6094050014019012,18.949548704165558
9.931151499971747,18.88931088209152,0.9810069581866265,0.2530499517917633,18.91646041230794
9.941179499961436,17.591026693582535,-0.6929938727617264,-1.0276124829053879,17.634637735350324
9.951206499710679,15.852828404903413,-1.2324436631798745,-3.5566542899608615,16.293583876990407
9.961233499925584,12.792399240732193,-0.9943770553171635,-4.255610276162624,13.5183017751864
9.971261499915272,9.03991819024086,-0.36082203000783925,-3.5730329257249833,9.727120730817594
9.981288500130177,4.5711292487382895,0.2261599226295948,-2.1891212341189386,5.073324619708947
9.991316500119865,0.9151833897829056,0.6347212524712086,-0.7599029767513276,1.3482893752265046
10.001343499869108,-1.6927280008792878,0.8528880313038827,0.4588506004214287,1.950202541381102
10.011371499858797,-3.688621269464493,1.0125047394633293,1.6603367650508882,4.169869409269456
10.021398500073701,-5.5559102922678,1.2279474467039109,2.6607594028115273,6.281372040187071
10.031425499822944,-7.0690410643816,1.2621915189921857,3.572468084692955,8.020411287251976
10.041453499812633,-8.362635785937309,1.301538310199976,4.446245878636837,9.560166404119364
10.051480500027537,-9.344383878707886,1.3337028202414514,4.818882207870484,10.598013918593736
10.061508500017226,-10.263149857521057,1.3476966691017152,5.083222548365593,11.53202856335583
10.071535499766469,-11.135720493793489,1.3601408596336841,5.358656226396561,12.432596294685837
10.081563499756157,-11.842188105583192,1.3023386478424073,5.606782822608948,13.16698593838327
10.091590499971062,-12.38099265575409,1.3123555129766464,5.691114875078202,13.689413597945432
10.101617499720305,-12.600320545434952,1.4241099835932256,5.43282815694809,13.795353887305975
10.111645499709994,-12.642369042634964,1.5067011737823488,5.479514665603638,13.86090633428483
10.121672499924898,-12.27487738609314,1.4108965918421745,5.418859158754349,13.491748538232859
10.131700499914587,-11.373477637767792,1.3252043308317663,5.095661914944649,12.533073463707003
10.141727500129491,-10.398947932720185,1.3024569077789785,4.929919663667679,11.58182282692426
10.15175550011918,-9.594361703395844,1.061626905798912,4.88734988719225,10.819658825607352
10.161782499868423,-8.619039700627328,0.8450580248236657,4.899889241158962,9.950421247461549
10.171809500083327,-8.152266415357591,0.8042694564163685,4.910349032878876,9.550802306099007
10.181837500073016,-7.788400032520294,0.7518231479823589,5.13859860420227,9.361068781261771
10.191864499822259,-7.6738197487592705,0.48388691604137424,5.074662809371948,9.21270094558521
10.201892499811947,-7.362589416503907,0.38483274400234224,4.342520950734616,8.556477509141292
10.211919500026852,-6.838115222454071,0.32632579654455185,3.3786054039001465,7.634217890282658
10.22194750001654,-6.511383336782456,0.035684095323085786,2.7928634995222095,7.085158631968002
10.231974499765784,-5.960739344358444,-0.1292518249154091,1.9538371700048447,6.2741213928740045
10.242001499980688,-4.107642098665238,-0.5297271864116192,0.7745590227842332,4.213463679981945
10.252029499970376,-1.256325153708458,-0.9979568669199944,-0.5917692142724991,1.7101057286127204
10.26205649971962,1.9741451346874237,-1.3692645625770092,-1.7905466562509538,2.9963630927093443
10.272084499709308,5.4096117871999745,-1.335632839947939,-2.8370362901687622,6.252726579908547
10.282111499924213,9.754843799471855,-0.8428982095420361,-3.992527379393578,10.573917430117895
10.292139499913901,15.62894553422928,0.09427246525883676,-5.382200624942779,16.530000283628123
10.302166500128806,19.62028300523758,1.351631552875042,-4.952128558158875,20.28068022322907
10.312193499878049,22.184504585266115,2.0335556231439114,-3.4561415299773217,22.54401265172967
10.322221499867737,22.371126658916474,1.6826430156826975,-1.1489419153332712,22.463718815733046
10.332248500082642,22.137935020923617,1.28196957975626,0.23225169807672502,22.176238496312134
10.34227650007233,20.919101629257202,0.4483270009607077,0.7966658833622933,20.939066039455895
10.352303499821573,21.610104525089266,-0.22282956786453725,-0.31278598397970203,21.613516735445263
10.362331499811262,22.373692417144778,0.032103333547711374,-2.775200522840023,22.545174227381747
10.372358500026166,20.55272912979126,0.31804036505520344,-4.5447752630710605,21.051622420806368
10.38238549977541,16.294585547447205,0.4424895063042641,-5.80685583114624,17.304013689603398
10.392413499765098,10.911157007217408,0.3815601304918528,-6.335224270820618,12.622757303019222
10.402440499980003,5.819225615859032,0.27529334485530854,-6.676417490243912,8.860797012573213
10.412468499969691,1.6125357770919801,0.2098510880023241,-6.715826554298401,6.90989402371389
10.422495499718934,-1.8910924530029298,0.07861018650233746,-6.06767439365387,6.356027279254662
10.432523499708623,-4.522504972815514,-0.27026634737849237,-4.651489287614822,6.4932617166152955
10.442550499923527,-6.305649638772011,-0.6191538447886705,-2.933352503478527,6.982057415986059
10.452577500138432,-7.57060762166977,-0.7640074297785759,-1.420136362016201,7.740451821487031
10.46260550012812,-8.710077340006828,-0.8541718605905771,-0.4591477851569653,8.763896024311318
10.472632499877363,-9.665618796944619,-0.9927116952091456,0.336929429769516,9.722303465655605
10.482660499867052,-10.347990617752076,-1.108384604305029,0.9348108847439289,10.449081186706376
10.492687500081956,-10.868514432907105,-1.173912961408496,1.308963543176651,11.009816673162113
10.502715500071645,-11.377149689197541,-1.41588338971138,1.5743686616420747,11.572506103106143
10.512742499820888,-11.802410666942597,-1.6691227912902833,1.7887416207790376,12.053317594317022
10.522769500035793,-12.092044308185578,-1.8374270001053812,1.8717978107929232,12.373249394412476
10.532797500025481,-12.371632432937623,-2.076725323945284,1.7466815753281117,12.665740154148926
10.542824499774724,-12.328384087085725,-2.4362904949486257,1.957677036523819,12.718375090939023
10.552852499764413,-11.355217952728273,-2.643136479556561,2.012299532443285,11.831166240561267
10.562879499979317,-10.60990845680237,-2.988555481731892,1.7829938077926637,11.166050700571942
10.572907499969006,-9.814984166622162,-3.1881092575192453,1.4195380456745625,10.416959397638124
10.582934499718249,-9.362116729617119,-3.3646709042787553,1.1097804808616638,10.010087545510194
10.592961499933153,-9.115686995387078,-3.666557678282261,0.8218624126911164,9.859759248147702
10.602989499922842,-8.816110163927078,-3.9976422312855724,0.5585623284056783,9.69623296474307
10.613016500137746,-8.50270934522152,-4.383706398904324,0.5486383974552155,9.581959720864742
10.623044500127435,-8.036334840059281,-4.748937521874905,0.4254761552810669,9.344309241829208
10.633071499876678,-7.256400471925736,-4.902010026276112,-0.08690718451514841,8.757431299496213
10.643099499866366,-5.66292837202549,-5.133491646051407,-0.8930183494091034,7.695386669892048
10.653126500081271,-4.062743083834649,-5.4030553042888645,-1.6459771728515626,6.957595047140838
10.663153499830514,-3.1216471731662754,-5.341547858119011,-2.4539115178585056,6.655711557135828
10.673181499820203,-2.6493552857637406,-5.397255451083184,-3.1635518288612365,6.793931851905985
10.683208500035107,-1.841203424334526,-5.51379747569561,-3.570850160121918,6.822240359208345
10.693236500024796,-0.20310654401779177,-5.912149567008019,-3.9284915971755985,7.1012541849996635
10.703263499774039,2.090863745212555,-6.489042879939079,-4.6031550335884095,8.226081993390451
10.713291499763727,5.196204203367233,-6.852084805369378,-5.803804754018784,10.374765246782033
10.723318499978632,8.668425868749619,-6.91667256474495,-7.178547134399414,13.210355989552179
10.733345499727875,12.85380786895752,-6.352493437528611,-7.6501636683940895,16.251140075672698
10.743373499717563,14.872978903055191,-4.5902440890669824,-7.089945445060731,17.103893377295023
10.753400499932468,15.972301054000855,-1.9143132081627847,-6.114360902309418,17.209427801710124
10.763428499922156,17.755481972694398,1.1103900530934334,-4.1918572068214415,18.277356838314052
10.77345550013706,19.75769958972931,3.3313096153736117,-2.9760140812397005,20.256381133934248
10.78348350012675,20.529050245285035,3.8866688024997713,-2.395541395246983,21.030613802980273
10.793510499875993,20.682495217323304,4.5103325316309935,-1.964536989927292,21.259541705908966
10.803537500090897,20.298139021396636,5.224500049352646,-0.5718436574935913,20.967519015521276
10.813565500080585,19.059537363052367,5.834093915820122,-0.09271842151880265,19.932666982064582
10.823592499829829,13.79910383462906,5.922599710822106,-2.709258255958557,15.258851014115843
10.833620499819517,9.510068827271462,5.884308049678803,-4.614215334355832,12.09782928771768
10.843647500034422,5.198134953975678,5.3580270659923555,-5.688029884099961,9.385240806823475
10.85367550002411,1.2507112419605255,5.092823676466942,-5.280246233940125,7.441917219466203
10.863702499773353,-1.4157547509670259,4.588691945672036,-3.81255125105381,6.131557903915863
10.873729499988258,-3.9815521556138993,4.010917457342148,-1.8187030461430551,5.9369939521222115
10.883757499977946,-5.265904768109322,3.3956506222486498,0.049011653959751135,6.265987417590144
10.89378449972719,-6.217826798558235,2.8911546099185945,1.8443650138378145,7.100832865206127
10.903812499716878,-7.3625818151235585,2.662210097014904,3.564937748014927,8.602543503653903
10.913839499931782,-8.277063539028168,2.2298318883776664,4.810071623325348,9.829482188856907
10.92386749992147,-8.97642269074917,1.9055906242132188,5.75638091146946,10.832514073289536
10.933894500136375,-9.59568200469017,1.614119787812233,6.3806477808952335,11.635942674677676
10.943921499885619,-10.065663657188416,1.3625566367805004,6.919667508602143,12.290481840744995
10.953949499875307,-10.377392756938935,1.1751353949308396,7.417512897849083,12.809790053624821
10.963976500090212,-10.384110038280488,1.0258096401393415,7.487070790529251,12.842828961226445
10.9740045000799,-9.754186572432518,0.9442934605479241,7.441806909441948,12.305134534285854
10.984031499829143,-9.030228184461594,0.757893727272749,7.396078174710274,11.697067851889617
10.994059499818832,-8.611446506381036,0.8807457746565343,7.795533050894738,11.649165618164664
11.004086500033736,-8.227905412316323,1.0669155661761762,7.980443644523621,11.511916307148464
11.01411349978298,-8.12410680949688,1.5338525734841824,8.615274678468705,11.940551618529257
11.024141499772668,-7.169513186216355,2.1413563527166843,8.477765123248101,11.307512009350782
11.034168499987572,-6.15266367316246,2.4853718769550324,7.644643312096596,10.12289064501811
11.04419649997726,-5.722404495477677,2.4946657338738443,6.881524951457978,9.291106284569462
11.054223499726504,-5.3820526903867725,2.4424571147561074,6.238299070000648,8.593512856003253
11.064251499716192,-5.200463899970055,2.2308136358857156,5.699634268283845,8.031636511019464
11.074278499931097,-5.443587033748627,2.1866586792469027,4.932435720562935,7.66440070135997
11.084305500146002,-5.27497087597847,1.9774254226684571,4.149591193199158,6.996758972217966
11.09433350013569,-4.713590226173401,1.4074978977441788,3.1738306492567063,5.854244967764241
11.104360499884933,-3.7969771921634674,0.7639606520533562,2.0496552005410194,4.381981072163617
11.114388499874622,-2.565372312068939,-0.05939747840166092,0.9934086102247238,2.7516402066474877
11.124415500089526,-1.1362297761440279,-1.080278061926365,0.20198417097330093,1.5807644987788225
11.134443500079215,1.4909283095598223,-2.18256153523922,-1.0310848519206048,2.8371778321446164
11.144470499828458,5.768355424404144,-2.936978654265404,-3.0128991946578028,7.139840997881744
11.154497500043362,10.57606945037842,-2.8821279707551004,-5.371951625347138,12.207283519444706
11.16452550003305,17.463822855949402,-2.378571313619614,-7.605683898925782,19.196070895064274
11.174552499782294,19.0884167611599,-1.9709543091058732,-6.421566596031189,20.235830422386346
11.184580499771982,17.587657527923586,-0.7903982529044151,-4.802419664561749,18.2486619058026
11.194607499986887,18.672169851064684,-0.36820735573768615,-4.039562382102013,19.107683476620654
11.204635499976575,19.585695555210116,0.08745241910219193,-2.7349146687984467,19.77591657932934
11.214662499725819,20.89490818977356,1.0542431880533696,-3.295318833589554,21.179417913947333
11.224689499940723,21.803198297023773,1.4065538647770883,-4.918270840644837,22.39525034054759
11.234717499930412,20.91034717798233,1.8142229095101357,-6.412614508867264,21.946654613140474
11.244744500145316,18.298049790859224,1.8692387768626213,-6.719875166416169,19.582374779528323
11.254772500135005,15.149100798368455,1.6239257146418096,-7.554123151302338,17.005798020406
11.264799499884248,10.886970584392548,1.4223458786308767,-6.7882653701305395,12.908514362202972
11.274827499873936,5.924207110404969,1.219970236569643,-4.694061695337296,7.656289732286875
11.28485450008884,1.663784283399582,1.1059767208993436,-3.302978686094284,3.8601853387696097
11.294881499838084,-1.5154334056377412,0.9653922611474991,-2.3081240594387054,2.925056802622146
11.304909499827772,-3.7818048369884494,0.7232958253473044,-1.5398560559749603,4.146849569149674
11.314936500042677,-5.455975529551506,0.39565813288092616,-0.8392988097667694,5.534314485937312
11.324964500032365,-6.696490981578827,0.020300217121839523,-0.3593885850906372,6.706158641150328
11.334991499781609,-7.645264871120453,-0.4057262707874179,-0.2671510239690542,7.660682634465627
11.345018499996513,-8.50081484735012,-0.8075813193619251,-0.31947549104690554,8.545063208993264
11.355046499986202,-9.253596500158311,-1.177451769411564,-0.3490869605541229,9.334736341378981
11.365073499735445,-9.9390702688694,-1.488115214109421,-0.27280184626579285,10.053557855173143
11.375101499725133,-10.40339181661606,-1.6682919019460678,-0.3604866921901703,10.542471712809052
11.385128499940038,-10.843754982948305,-1.8777271798253061,-0.6158135497570039,11.02234584016194
11.395156499929726,-11.461715630292893,-2.0997728553414348,-0.8004358756542206,11.67992589123593
11.40518350014463,-11.694816051721574,-2.4117818905413153,-0.9124708664417267,11.975726176447612
11.415211500134319,-11.603539845943452,-2.6268753728270533,-0.6867379367351533,11.9169719381441
11.425238499883562,-11.269517651796342,-2.91689639210701,-0.5872452235221863,11.655692584269106
11.435265500098467,-10.641177027225496,-3.230736921429634,-0.5497341656684875,11.13438445685901
11.445293500088155,-10.060417535305024,-3.4963692042231562,-0.4911491578817368,10.661980401979775
11.455320499837399,-9.583183581233024,-3.7779830968379975,-0.43145785689353944,10.31003005397574
11.465348499827087,-9.23429133296013,-4.004301917552948,-0.37861306071281436,10.072235011090791
11.475375500041991,-8.553957266807556,-4.2454983937740325,-0.783425155878067,9.581659381796571
11.485402499791235,-7.646503311395645,-4.405510666072368,-1.4009612953662873,8.935336013333599
11.495430499780923,-7.240280283093453,-4.322580775916577,-1.4738129246234895,8.56028549049987
11.505457499995828,-7.127685713768006,-4.258392966091633,-1.9028459411859513,8.518135768100851
11.515485499985516,-7.076979244351388,-4.041844842731953,-2.4776798647642138,8.518159570585492
11.52551249973476,-6.665774388313293,-3.913475947380066,-2.9808871507644654,8.284535617173026
11.535540499724448,-5.900841636657715,-3.8988523533940316,-3.474299765825272,7.879831251828494
11.545567499939352,-4.726469888091088,-4.125422312021255,-3.933216732144356,7.40464858839195
11.555594499688596,-3.0065061414241794,-4.543584769964219,-4.212169849276543,6.88662592126409
11.565622500143945,-0.7948102694749832,-4.999195720553399,-4.321464834809303,6.655729827401027
11.575649499893188,2.2427299690246585,-5.692314139008523,-4.641692277789116,7.679686528290383
11.585677499882877,6.75453570663929,-6.325041929483414,-4.686392487287522,10.372665162189191
11.595704500097781,12.393849513530732,-6.505347840785981,-4.272838804721832,14.635033575116987
11.60573250008747,15.988693138360977,-5.576880161762237,-3.8561030673980716,17.366906214917076
11.615759499836713,17.455370121002197,-3.4561497160792354,-2.6023173594474796,17.983519470904813
11.625786500051618,16.515168249607086,-0.6041271583735943,-1.4673821568489076,16.59123148927026
11.635814500041306,15.577667791843416,1.7811886261403562,-1.0379461209475995,15.713487802041838
11.64584149979055,15.333068236112595,3.667890551090241,-0.7715705108642579,15.78454065474499
11.655869499780238,16.528212218284608,4.990830693840981,-0.13309212997555733,17.26580156443075
11.665895875077695,15.859031131267548,5.0537256842851646,0.6921708771586419,16.659175016719864
11.675923875067383,12.640758719444275,4.325821595191956,0.28534412384033203,13.363492610303854
11.685950874816626,10.830259609222413,3.7592913025617603,-0.3833493053913117,11.47056018643444
11.69597787503153,9.739762660861016,4.03188995808363,-1.7902045941352844,10.692237642928685
11.70600587502122,7.012316055893899,3.931375736296177,-3.4832182314991953,8.761341272655349
11.716032874770463,4.315478455424309,3.30728457570076,-2.925143012702465,6.173973372850063
11.726060874760151,1.6066043615341188,3.205334862470627,-3.5459857526421548,5.0427536240640585
11.736087874975055,-0.8128366506099701,3.1230709701776505,-2.9359010124206546,4.362773253341713
11.746115874964744,-2.3605139422416688,2.9235347360372543,-1.2504390540719033,3.9601362668829916
11.756142874713987,-3.2395229476690295,2.5106780415773393,0.07651900291442872,4.099252165302823
11.766169874928892,-4.27455262362957,2.2050931960344315,1.460992319583893,5.026801636553695
11.77619787491858,-4.664633243680001,2.0653242766857147,2.8359574788808826,5.836696196302527
11.786224875133485,-5.217823698520661,1.958427088111639,3.844276781380177,6.770493688066772
11.796252875123173,-5.712673559188843,1.981440998017788,4.7937415194511415,7.716262396898566
11.806279874872416,-6.186793286204338,2.2151641479134563,5.825612529516221,8.781863396368712
11.816307874862105,-6.437979730367661,2.695353284776211,6.79267767906189,9.739249580435056
11.82633487507701,-6.719741265177727,3.3191333734989166,7.440571977496147,10.560950732500723
11.836361874826252,-7.274339144825936,3.93944489389658,7.8159135210514075,11.380849714961927
11.84638987481594,-7.902303793430328,4.545029909312725,8.031075854301452,12.149151472335605
11.856416875030845,-8.373037982583046,5.147782241106033,7.974093568325043,12.656760853236813
11.866444875020534,-8.6005496352911,5.578862367868424,7.6722427546978,12.804548732217674
11.876471874769777,-8.030634389519692,5.873537478446961,6.829415735006333,12.06774421714388
11.886498874984682,-6.643011177778244,6.294094371199608,6.25659793138504,11.085587000094531
11.89652687497437,-6.038062924146653,6.434795336723328,6.3478940176963805,10.870168046602418
11.906553874723613,-5.559844883680344,6.619064490795136,6.014605649113656,10.530877027970723
11.916581874713302,-5.46953697681427,6.585288634300232,6.2817023670673375,10.61798689800481
11.926608874928206,-5.002809884548188,6.233952834606171,6.23145958185196,10.13515481900903
11.936636874917895,-4.132041360139847,5.369494040608406,5.3942669391632085,8.660447324762432
11.9466638751328,-2.760942379832268,4.044343650341034,4.795290154516697,6.853781879576594
11.956690874882042,-0.6792874145507812,2.582364320755005,3.8876862180233003,4.71636947306759
11.96671887487173,0.8567890012264252,1.2085493087768555,2.6817254716157914,3.063711854838919
11.976745875086635,2.2499080109596252,-0.0344892168045044,1.189425989985466,2.545193460134021
11.986773875076324,3.7289594560861588,-1.3665165174007416,-0.5706224665045738,4.012245757271505
11.996800874825567,5.726566543579102,-2.4501184290647506,-3.0810867923498155,6.949081990916116
12.006828874815255,8.044690511226655,-2.949290551543236,-5.688370192050934,10.284596035851674
12.01685587503016,11.164790511131287,-3.15298357129097,-7.525679370760918,13.82858281060552
12.026882874779403,14.700618188381195,-4.656747396290302,-7.623269400000573,17.2019681367687
12.036910874769092,15.84122752904892,-5.2139095723629,-5.622777881026268,17.599573112869333
12.046937874983996,15.709058235883713,-4.584055396020413,-5.1114236694574355,17.143941392248735
12.056965874973685,16.048232996463778,-4.258514880537987,-5.407274655103683,17.46194005522522
12.066992874722928,18.284940333366396,-3.6751387596130374,-6.393702859282494,19.716113312465428
12.077020874712616,19.061378066539767,-2.609475520849228,-6.538933078050614,20.320018260048368
12.08704787492752,17.786375151872637,-1.1341684864461423,-6.301194645166397,18.903611643150985
12.097074875142425,15.75566873073578,0.4797491338849068,-6.375424463152886,17.003449457963427
12.107102875132114,13.33096171617508,2.110504688769579,-6.923403879404068,15.169122967290868
12.117129874881357,10.110338723659515,3.301486476659775,-5.799379581212998,12.11410605821522
12.127157874871045,7.028477175235748,4.087358984649182,-4.134108643233776,9.121230681561698
12.13718487508595,3.742537860274315,4.510527828633785,-2.936589814424515,6.555532828584436
12.147212875075638,0.2409216570854187,4.325245936810971,-2.2425428581237794,4.877990788149826
12.157239874824882,-2.682049407362938,3.7120145174860957,-1.1707749800384046,4.726854647167326
12.167266875039786,-4.830697676539422,2.9886768114566804,-0.2487533811852336,5.685921857545469
12.177294875029474,-6.26319008231163,2.2422920125722885,0.003532905969768763,6.652475926919002
12.187321874778718,-7.299743542671204,1.3294020469486714,0.016123107871972027,7.4198265172312965
12.197349874768406,-8.055797297358513,0.5443538501858711,-0.3178376859426499,8.080421523964345
12.20737687498331,-8.50036110341549,-0.23872595451772213,-0.7833321851491929,8.539715351351589
12.217403874732554,-8.5991632604599,-0.9158422248065472,-1.5113631588220597,8.778872043641286
12.227431874722242,-8.344493629932405,-1.8078624545037747,-2.4021268218755725,8.869563341155017
12.237458874937147,-8.371569162011147,-2.9420072597265245,-3.5253529751300814,9.548124975610557
12.247486874926835,-8.514621292948723,-3.649548420310021,-3.761460619568825,9.998328131597315
12.25751387514174,-8.799833854436875,-4.088748283088208,-3.174737552404404,10.20950032640172
12.267541875131428,-8.937672607898712,-4.382953569889069,-2.845693092942238,10.353272082825095
12.277568874880672,-8.81382799565792,-4.626029341220856,-2.547534795999527,10.274903646249337
12.287595875095576,-8.534424642920495,-4.795588654875756,-2.422910165190697,10.084868278814856
12.297623875085264,-8.243049116134644,-4.952316838502884,-2.5047296690940857,9.937151076398482
12.307650874834508,-7.842272769212723,-4.981484504342079,-2.458098708987236,9.61034231007722
12.317678874824196,-7.860100929737092,-4.890795359015465,-2.5291967582702637,9.596765189972396
12.3277058750391,-8.185245296359062,-4.6468363657593725,-2.6881673491001132,9.788645078277169
12.337733875028789,-8.372874260544778,-4.434892047643662,-2.9826658737659457,9.933256594474656
12.347760874778032,-8.519184460043908,-4.396062442660332,-2.8459901314973832,10.00007643433803
12.357787874992937,-8.272425527572633,-4.472614774703979,-2.7748417961597442,9.804950485639932
12.367815874982625,-7.872631512880326,-4.652240070104599,-2.62328196644783,9.51332081257505
12.377842874731869,-7.437909155488015,-4.7323703134059905,-2.546708584427834,9.176249015937676
12.387870874721557,-6.82035021185875,-4.8228121215105055,-2.7022065138816833,8.779442682508664
12.397897874936461,-5.987366394996643,-5.005617717504502,-2.823567228913307,8.299234722426114
12.40792587492615,-4.993639696240425,-5.421334869861603,-3.0435008901357654,7.9743467980332206
12.417952875141054,-3.564713507294655,-5.780198374986649,-3.364620033502579,7.578822046540885
12.427979874890298,-1.6659395670890809,-6.260495685338975,-3.7260370177030566,7.4734538685024585
12.438007874879986,0.8845638602972031,-6.848506894111634,-4.178392823338509,8.071150258034182
12.44803487509489,3.866813412308693,-7.4146986329555515,-4.558234384059906,9.52404863927045
12.458062875084579,7.873867614269257,-7.877330335378647,-4.22741003215313,11.913065096760945
12.468089874833822,14.847278051376344,-8.178868322968484,-4.493760645389557,17.53651725164923
12.47811787482351,20.47290761947632,-7.065387724041939,-4.385176681280137,22.097271881675738
12.488144875038415,22.738441729545595,-4.586712078452111,-2.673076854944229,23.349946463557416
12.498171874787658,21.431472086906435,-1.2433848269283772,-1.531928254812956,21.52210040441173
12.508199874777347,18.909891911745074,2.3440907214581967,-0.5603993408381939,19.062864969503405
12.518226874992251,17.874415508508683,4.362691213488579,-0.3801824533939362,18.403052548230548
12.52825487498194,18.505141797065736,5.155980622172356,-0.6359151077270508,19.220530615203153
12.538281874731183,17.12962992310524,5.59278400361538,0.6446213194727898,18.03105628794823
12.548308874946088,14.214735617637634,4.588535532653332,2.823054428100586,15.201414517003887
12.558336874935776,12.333051334619523,4.4848594290018085,1.0181046178936959,13.162623459373261
12.56836387515068,12.343151814937592,5.775888977050782,-2.1712919041514396,13.799594151091817
12.578391875140369,6.878960362672806,5.702597637176514,-4.302278073728084,9.917122168574721
12.588418874889612,2.352751178741455,5.271547915935517,-5.881895488500596,8.241441019428402
12.5984468748793,-1.2221148490905762,4.9031207048892975,-4.269124068617821,6.615102241411979
12.608473875094205,-4.0638254034519194,4.083393987715245,-2.9517560300230983,6.473148154447562
12.618500874843448,-5.016721580028534,3.0161821138858795,-1.8728777915239334,6.145935337898752
12.628528874833137,-5.327343217134476,2.330109736472368,1.1075217014551164,5.919172362446128
12.638555875048041,-5.495490428209305,1.8131198322772981,2.6991528055071834,6.385393052914961
12.64858387503773,-6.285803604125977,1.4069431431591513,3.903096554875374,7.531598679855804
12.6586111667566,-7.492665406465531,1.457737028449774,5.141424563527107,9.203221103494078
12.668639166746289,-8.45029431939125,1.3923055158555508,5.859022935032844,10.376614982115251
12.678666166495532,-8.815511409044266,1.4234242513775826,6.753782585263252,11.196113486893774
12.688693166710436,-8.562278439402581,1.692975338101387,7.781519613862038,11.6931956739891
12.698721166700125,-7.796365694403649,2.319367085695267,8.53621622979641,11.791088551992148
12.708748166449368,-7.089061346054078,2.952107740044594,8.972560604810715,11.810020096678517
12.718776166439056,-6.531731647253037,3.453948824107647,8.959201471209527,11.612948453902844
12.728803166653961,-6.044153383970261,4.042412315011025,8.823775278925897,11.433805037103603
12.738830166403204,-5.88352978527546,4.670567875206471,9.09299862921238,11.79460686424064
12.748858166392893,-5.519540610909463,5.6489985501766204,8.676328965425492,11.73265517654285
12.758885166607797,-5.742254623174667,6.164452244639397,8.23091322004795,11.778025813767377
12.768913166597486,-5.850019977092743,7.81727241396904,8.485105717778206,12.935590468488787
12.77894016681239,-5.180072904825211,8.075938031673433,8.842641320228577,13.04784410962008
12.788968166802078,-5.446815866231919,6.97052542090416,7.553316820263863,11.632223463783175
12.798995166551322,-5.478270378112793,6.078093547224999,6.790897786617279,10.633482978441716
