Time (s),Linear Acceleration x (m/s^2),Linear Acceleration y (m/s^2),Linear Acceleration z (m/s^2),Absolute acceleration (m/s^2)
0.003655708394944668,-0.44016669988632207,0.27313659936189655,-1.1931103205680849,1.3007161729777466
0.013683708384633064,-0.2452257925271988,-0.0682630267739296,-1.225286963582039,1.251448629896179
0.02371070859953761,0.43224518448114396,-0.31450857371091845,-1.2439957147836687,1.3539855541492845
0.03373870858922601,1.1440071576833726,-0.4369314354658127,-1.6443118858337402,2.050225117889037
0.043766708578914404,1.294640788435936,-0.3593260198831558,-1.797846320271492,2.2444289587689865
0.05379370832815766,1.4043108728528024,-0.5836062088608742,-1.9712349754571916,2.4896691673994114
0.06382170831784606,1.841546655893326,-0.7189522942900658,-2.183930368423462,2.945800119054088
0.07384970830753446,1.4618612158298494,-0.5984648609161377,-2.001980220079422,2.5501221942660215
0.083876708522439,0.6864768585562706,-0.7152241095900536,-2.0219595712423324,2.2519139663874035
0.0939047085121274,0.850951433479786,-0.7627435541152955,-2.0607687109708785,2.3564090798505917
0.1039327085018158,0.6105139258503914,-0.557756253182888,-2.8633037370443346,2.980323402282699
0.11395970825105906,0.6887195581197739,-0.3667215782403946,-2.602617906332016,2.717064465934489
0.12398770824074745,0.7414582273364068,-0.1260285472869873,-1.4691339826583862,1.6504539244152823
0.13401570869609714,0.47229861170053483,0.19098088055849077,0.14120265662670137,0.5286566613517579
0.1440427084453404,-0.11797371536493302,0.08428702890872956,1.4371543908119202,1.4444496681398244
0.1540707084350288,-0.5500130778551102,-0.17863653123378753,1.5039494740962982,1.6113005358211183
0.1640987084247172,-0.6585061177611351,-1.2049661350250245,1.6138432145118715,2.1189770208079177
0.17412570863962173,-0.7649000072479248,-1.710626912713051,0.27398766160011295,1.8937755131733955
0.18415370862931013,-0.9873625892400743,-0.842040276825428,-0.29925464987754824,1.3317169578782275
0.19418170861899853,-0.04872367858886719,0.06010382205247879,-0.7540575152635575,0.7580166242279898
0.2042087083682418,0.8864989963173867,0.3510443159937859,-2.1948962366580966,2.3930486982005097
0.21423670835793018,0.900249601006508,-0.08450103700160981,-3.024734251499176,3.156993357857917
0.22426470834761858,0.574400352537632,-1.1070129936933517,-2.4130038124322892,2.716247582974357
0.23429170856252313,0.10897923588752748,-2.120592159032822,-1.1386259651184083,2.4094100247255428
0.24431970855221152,1.4424361807107926,-1.5615120962262155,-1.2227463483810426,2.4523561720442446
0.2543477085418999,1.6844106289744378,-1.6833198308944703,-1.2446804237365723,2.6870121282416464
0.2643747082911432,-0.3798146635293961,-3.3115395945310593,-0.9310965871810913,3.4608517043408775
0.2744027082808316,-1.9939060923457146,-4.381781495511532,-2.1177416414022447,5.259325074496699
0.28443070827051997,-2.96985871732235,-5.363773124814034,-3.239517100453377,6.934305587401143
0.2944577084854245,-0.4562518054246903,-4.5816252931952475,-3.0830970650911333,5.54120416064715
0.3044857084751129,2.292052402496338,-3.0467338156700134,-2.370845972299576,4.489654973793144
0.3145137084648013,0.07738205194473267,-4.371627805531025,-2.684719246029854,5.130773341520583
0.32454070867970586,-3.380934349894524,-7.161241714954377,-3.982286565899849,8.864124675975955
0.33456870866939425,-5.105643696784973,-8.032985554933548,-4.6496041452884675,10.593171064047578
0.34459670865908265,-6.5615828526020055,-7.889956228137017,-5.66810958981514,11.72319261701492
0.3546237084083259,-8.406557146310806,-8.573214486837388,-6.827504280209542,13.81249522670641
0.3646517083980143,-9.807371676564218,-9.588970570564271,-7.084069578051567,15.437517209451054
0.3746797083877027,-10.845109198093414,-10.103837789297105,-7.286020712256432,16.516356420543495
0.38470670860260725,-10.857512311935425,-10.221251049041749,-7.425653976202011,16.658327754779325
0.39473470859229565,-9.996303985118866,-10.856652771234513,-6.902585452795029,16.292289240349096
0.40476270858198404,-8.831048630475998,-11.26507610678673,-5.898730791807175,15.481743589135668
0.4147897083312273,-7.344954214096069,-11.371063907146455,-4.458112510442734,14.252165237020739
0.4248177083209157,-5.791799835562706,-11.330823369026184,-2.3837168633937837,12.946606105081052
0.4348457083106041,-4.307184764742852,-11.260428739786148,-0.1266308287717402,12.056746301064404
0.44487270852550864,-2.650776743888855,-11.273304308652879,2.0040451642870902,11.752880685259084
0.45490070851519704,-0.16810628056526186,-10.99038560986519,3.515572922229767,11.540194476117483
0.46492870850488544,3.2691911351680756,-10.315054421424867,4.882830866575241,11.871394006888918
0.4749557082541287,6.915753967165947,-8.618965440988541,5.6867470049858095,12.427924593673772
0.4849837082438171,10.175269714593888,-6.84982602596283,5.199633010625839,13.322627886264753
0.4950117086991668,13.120801091194153,-5.365082901120186,3.660736190378666,14.640373125918682
0.50503870844841,16.050191813707354,-3.5123259633779527,1.827777924835682,16.531359988589386
0.5150667084380984,19.240130957365036,-1.1472245880961418,-0.039970104396343235,19.274344635326365
0.5250947084277868,20.87740396499634,0.8080758476257325,-1.1377743181586266,20.923993722332796
0.5351217086426914,21.972295095920565,2.5695858156681064,-1.23594263702631,22.156535768217854
0.5451497086323798,22.726022243499756,4.3889931589365005,-1.8802612169086934,23.222203388245656
0.5551777086220682,21.716549577713014,5.439916736483574,-3.2702097201347353,22.625107541729058
0.5652047083713114,19.942632987499238,6.124963073730469,-4.347044649124146,21.310105121986926
0.5752329584211111,18.419110543727875,6.826216138601303,-9.962762017250062,22.02538278907608
0.5852609584107995,16.856439821720123,7.900940222740174,-14.31792494058609,23.485471987397712
0.595287958625704,17.371205298900605,8.675189343094827,-12.59915578007698,23.14641246599018
0.6053159586153924,14.872484228610993,7.875730537176133,-7.251991671323776,18.32510032238407
0.6153439586050808,13.400224324464798,6.496336112022401,-4.875866832733155,15.66979489964344
0.6253709583543241,10.54156970858574,6.7491679626703265,-7.216765705347061,14.448448614130912
0.6353989583440125,6.6570977050066,5.713734828829765,-7.404944307804108,11.480283783507572
0.6454269583337009,3.1449483275413517,4.836089978814125,-7.795045977830887,9.697484625540225
0.6554539585486054,1.3667626851797106,3.596337003707886,-6.1482279753685,7.252750327906105
0.6654819585382938,1.2124014544487,2.8635686159133913,-3.6302485156059268,4.78002581476842
0.6755099585279822,2.346794620156288,2.9977756637334827,-2.981070753335953,4.8353786569060135
0.6855369582772255,7.017127729654312,5.280184838175774,-3.580420882701874,9.483662119501753
0.6955649582669139,3.3904220420122146,2.9456781417131426,-3.699117021560669,5.818543466945035
0.7055929582566023,1.0227072536945343,3.646527748703957,-3.627121424674988,5.243958865033524
0.7156199584715068,1.6218965846300126,3.9604805445671083,-3.2360163724422457,5.365422316821236
0.7256479584611952,1.6855049353837968,4.04702576816082,-1.815503157377243,4.745039111515052
0.7356759584508836,0.9900675112009049,3.019642496109009,0.03449974179267883,3.1779969655785956
0.7457029586657882,-0.9339833575487138,1.4315960276126862,2.2416761545836925,2.8190253777650747
0.7557309586554766,-1.9232632488012316,0.8494586393237115,5.3724919080734255,5.7692452544874175
0.765758958645165,-2.6414510196447374,-0.03830160140991211,7.603725081682206,8.049556858588916
0.7757859583944082,-3.374183739423752,-0.29294638127088546,8.248178293704987,8.916466713583215
0.7858139583840966,-5.393030253052712,-0.9123580151796341,5.339972033500672,7.6441136684885596
0.795841958373785,-4.0627296352386475,1.5512148571014406,1.2753737743198872,4.531955194633057
0.8058689585886896,1.7748708558082582,2.4977358144521715,4.1274933958053595,5.140530370108852
0.815896958578378,-2.0776262336969378,2.5815761160850528,1.8978997814655305,3.8187811655780193
0.8259249585680664,-6.3691123938560485,2.4454029420018197,-0.2850622880458832,6.828385515067807
0.8359519583173096,-7.651461750268936,0.7481176212430001,0.08719704195857049,7.688442639128498
0.845979958306998,-7.5810250210762025,-0.8927061080932618,0.10392256379127503,7.63411189758674
0.8560079582966864,-7.061567738056183,-1.6099887299537659,0.8076466619968414,7.287667374432556
0.866034958511591,-6.336572638750076,-2.2844846436381343,0.30404695473611354,6.742660264603197
0.8760629585012794,-6.641469851732254,-2.1432752627134324,-1.4096853411197663,7.1196884344889515
0.8860909584909678,-7.171538076996804,-2.6611885884404183,-1.2633973610401155,7.753003030113147
0.896117958240211,-5.674397100806236,-3.192271597981453,-1.7225558173656466,6.734729315782299
0.9061459586955607,-1.1584591358900072,-2.7613113391399384,-0.7321976264566183,3.0826905854104996
0.9161739586852491,5.866783944368363,-2.482213795781136,0.6636648237705232,6.404763085093387
0.9262009584344923,8.198371710777284,-2.2156023967266085,1.1186343348026275,8.565835362850098
0.9362289584241807,6.4690629440546035,-1.896101177930832,0.12233662446029485,6.74232462143254
0.9462569584138691,3.636289274096489,-3.350686703324318,-2.2132605868577957,5.4174000677522125
0.9562839586287737,2.7954555702209474,-4.436560842990875,-2.9419008404016496,6.0126886260137535
0.9663119586184621,0.3134218686819077,-4.549405088424683,-3.1295157712697983,5.530749396689282
0.9763399586081505,-1.9015110218524933,-3.478547183275223,-3.234542289376259,5.116473247683595
0.9863669583573937,-4.726266404986382,-1.5851567745208741,-1.272094509601593,5.14475855333084
0.9963949583470821,-5.141922746300698,-3.281714701652527,1.8187126940488816,6.365275860122748
1.0064229583367705,-2.0150247734785083,-4.061650823950767,3.0706109207868577,5.475945916486719
1.016449958551675,0.600867481827736,-2.2640822464227677,3.722308248281479,4.398032383294727
1.0264779585413635,2.7533006536960603,0.5449698543548585,3.9223952901363375,4.8231567923801135
1.0365059585310519,4.021345966458321,2.787323847413063,2.6274054229259494,5.553706588282176
1.0465329582802951,4.030764661431313,4.313962272405624,0.4550320396944881,5.921519095699271
1.0565609582699835,3.6773349738121035,5.5503653776645665,-1.1474423968791962,6.756180310601181
1.066588958259672,3.105619370341301,5.814927912354469,-1.6098717856407165,6.7860110127762265
1.0766159584745765,2.2843723770976068,4.669115719199181,-1.04497520506382,5.301978115356346
1.0866439584642649,0.07633247673511505,3.4377318638563157,-0.4706470656394959,3.4706390874264934
1.0966719584539533,-2.0760471931099893,2.0974377697706226,-0.5020290720462799,2.9935347559799395
1.1066989586688578,-2.474815898537636,1.4935683274269105,-1.279791784286499,3.161222404620511
1.1167269586585462,-2.374069249927998,1.9495418053865434,-1.7344478845596314,3.5277794033438217
1.1267549586482346,-2.2420204094052316,3.255584664344788,0.25615599274635314,3.961199681349886
1.1367819583974779,-2.105546249896288,4.237716919183732,1.7572859394550324,5.047734498821698
1.1468099583871663,-1.6267076736688615,5.161389881372452,1.628126792907715,5.651275981306439
1.1568379583768547,-0.8574102678894997,5.8388617354631425,-0.10204326868057252,5.902361524171577
1.1668649585917592,-0.2099872550368309,6.428910698890687,-0.9873783767223359,6.507680345592266
1.1768929585814476,0.5750351408869029,6.7292599475383765,-1.1234278821945192,6.84658272872614
1.186920958571136,1.4006101700663567,6.819647376537324,-1.330592393875122,7.088002208481883
1.1969479583203793,1.9975566552579405,6.571782735586167,-0.4011517381668091,6.880369440062644
1.2069759583100677,2.438272116333246,6.32597982287407,1.2297349405288698,6.890242351082841
1.217003958299756,2.785181427598,5.67370654463768,1.9488477408885956,6.614090191134973
1.2270309585146606,0.37137888550758363,-5.737868626713753,3.1105900883674624,6.537341153089437
1.237058958504349,-5.932887886762619,-25.18652123451233,5.70330047249794,26.49693655600644
1.2470869584940374,-9.413450020551682,-36.04266062021256,6.256499698162079,37.77340617877011
1.2571139582432806,-11.381829800605775,-32.519481639862065,-2.03692785859108,34.513936472624906
1.2671419586986303,-10.95574085712433,-15.850606462955476,-9.172100932002069,21.340042607239155
1.2771699586883187,-6.19053258061409,-4.395877670645714,-6.098497406244278,9.738485751948007
1.287196958437562,-2.6531635773181916,1.603194850087166,-6.663536658883095,7.3493014293627095
1.2972249584272504,-0.7790393055975438,4.935189174413681,-6.37520987033844,8.099771312683869
1.3072529584169388,0.8288368253409862,6.217027484178543,-5.825064060688019,8.55977643009395
1.3172799586318433,2.2630300399661065,5.926686329841614,-5.393229643106461,8.326694530088316
1.3273079586215317,4.915919090509415,4.655467733144761,-4.369593851566315,8.058100939206028
1.3373359586112201,9.866425631046296,4.193521324396134,0.5337034026905895,10.73390959311545
1.3473639586009085,9.928337119817733,3.682448363900185,8.402512042522432,13.517932998142738
1.3573909583501518,6.190050770044327,3.6480094331502917,5.170938384532929,8.852305074765324
1.3674189583398402,1.4391091150045396,4.793599432110787,-2.43163245677948,5.564392775971644
1.3774469583295286,-2.5768559512495997,6.070009186863899,-7.579197181463242,10.046363921220602
1.3874739585444331,-3.2586480206251145,6.942225481867791,-1.8519266331195832,7.889417837703622
1.3975019585341215,-1.3384147989749908,7.161339363455773,4.386879390478135,8.50416641648658
1.40752995852381,0.18514009684324265,5.128299318552018,4.887903910875321,7.086983518964219
1.4175569582730532,1.185738735795021,2.548293764591217,4.8644518983364105,5.618066369441355
1.4275849582627416,-1.144814658164978,-1.227283787727356,2.5250393879413604,3.031938325201072
1.43761295825243,-5.512510503530502,-7.269928005337715,-0.19931403994560243,9.12575209727106
1.4476399584673345,-9.05690376698971,-14.588018356561662,-1.4750431787967682,17.234080706414463
1.457667958457023,-11.497122859954835,-19.186908431053162,0.6308233523368836,22.376756407048106
1.4676959584467113,-10.589602246284485,-16.47106153249741,3.588955478668213,19.907690603625824
1.4777229586616158,-6.657368431091309,-10.400965222120286,5.869402327537537,13.6729848848578
1.4877509586513042,-5.222074039578438,-8.086055468916893,6.744083808660507,11.753170497337162
1.4977789586409926,-3.184739507138729,-8.039139749407768,6.775623689889908,10.98541806331628
1.507805958390236,-1.0448322406411172,-8.781615684628488,7.5422673368453985,11.623004991138961
1.5178339583799243,0.9568453860282898,-10.08523545742035,8.457101647853852,13.19659409114733
1.5278619583696127,3.325951811671257,-12.149368071556092,8.183511596918107,15.021283635182415
1.5378889585845172,4.541291784346104,-13.988483455181122,6.205883860588074,15.962894315804792
1.5479169585742056,4.170886460244656,-13.282719848155976,2.008474137783051,14.06630402028167
1.557944958563894,2.160385969877243,-10.930689046382904,-4.6550619363784795,12.075464057297236
1.5679719583131373,0.4365876191854477,-8.469838052988052,-10.233788648843765,13.29132030696251
1.5779999583028257,-1.3074242636561395,-5.447615180611611,-12.106842441558838,13.340221260007542
1.588027958292514,-3.6139575880765915,-1.754814321398735,-12.207688200473786,12.851759177287342
1.5980549585074186,-4.444544923603535,2.079604931473732,-11.639594947099686,12.63166286683936
1.608082958497107,-2.9861271330714225,4.537320063114167,-9.385427824258805,10.843914609326978
1.6181109584867954,-1.9906383758783341,6.292347223162651,-6.167116820812225,9.032696419226507
1.6281379587017,-1.4042788593471052,8.301294400691987,-2.656960759162903,8.828529227311922
1.6381659586913884,0.2693958431482315,9.982577061653137,-0.42940782308578496,9.995439459607375
1.6481939586810768,2.7942618611454964,11.371255695819855,-0.7309797245264054,11.732335096051274
1.65822095843032,4.9103402620553975,12.429537409543991,-2.952622295022011,13.686592714093486
1.6682489584200084,6.752005031704903,13.25989465713501,-3.80929025888443,15.35985255602793
1.6782769584096968,8.326686519384385,13.388623448610307,-1.7424427825212478,15.86269375267441
1.6883039586246014,8.096650038957597,12.552159368991852,0.5436413669586182,14.946838883649967
1.6983319586142898,5.588901452422142,11.25758582353592,1.4730773448944092,12.65460449335357
1.7083599586039782,3.2225692382454874,10.762725437879563,2.7165438866615297,11.558582180986734
1.7183869583532214,1.7537624073028566,10.617982292175293,4.219152009487153,11.55934575213391
1.7284149583429098,0.9945149034261704,10.524515719413758,5.1006361413002015,11.737588341190957
1.7384429583325982,0.7410281646251679,10.616490082740784,5.43515300989151,11.949890068893266
1.7484699585475028,0.3500254386663437,10.55610939502716,4.709499514102936,11.564313600072857
1.7584979585371912,0.021487352647818626,10.499981971979143,3.6849281680583954,11.127838007535921
1.7685259585268795,-0.07233298122882843,10.451515570878984,3.2769258320331573,10.953431092454341
1.7785529582761228,-0.12656122863292696,10.402586070299149,3.2962309992313386,10.913063433100195
1.7885809582658112,-0.3628439971804619,10.345310254096985,3.4607774949073793,10.914855971980185
1.7986089582554996,-0.7472019472718239,10.119558613300324,3.626436131000519,10.775658508427854
1.8086359584704041,-0.9431646555662155,9.695573498010637,3.1238106429576877,10.229951024119874
1.8186639584600925,-0.6922343194484711,9.383797620534898,1.2376052927970886,9.490337875804954
1.828691958449781,0.08813040375709534,9.244711655974388,-2.5607114964723587,9.593211346485639
1.8387199584394693,0.6832111886143685,8.858106036186218,-4.284833782911301,9.86370217635065
1.8487469586543739,1.9395228937268258,7.616376702189446,-7.99402906537056,11.210505957490678
1.8587749586440623,3.2983473989367487,6.208656610250474,-6.422717328071594,9.522489713535576
1.8688029586337507,2.6085273948311807,5.577200004458428,4.1290206885337835,7.413392401974674
1.878829958382994,2.723210881948471,1.7311418688297273,6.115615130066872,6.914729068928203
1.8888579583726823,5.606745400428772,-13.47468861579895,-2.1965369653701785,14.758983769833499
1.8988859583623707,1.6909943014383317,-32.80619401216507,2.8486552923917774,32.9730293462124
1.9089129585772753,-3.6739605456590656,-63.20193652153016,12.560378215312959,64.54258955971859
1.9189409585669637,-6.912588869333268,-80.34693643569946,8.152214375138284,81.05475111735876
1.928968958556652,-6.143951321840286,-60.17105333805085,-15.011873663663865,62.31901915586852
1.9389959583058953,-3.7135248532891274,-28.20870376110077,-26.702318336963653,39.01967502794049
1.9490239582955837,-2.068459553718567,-12.558808822631837,-3.8746293854713443,13.304696796377696
1.9590519582852721,-0.6106589367985725,-4.604001710414887,1.514083868265152,4.884893657669114
1.9690789585001767,2.426175835132599,-2.088973340392113,-0.1711095567047596,3.2061530344395672
1.979106958489865,5.201324025392533,-2.848769313097,0.8447619364410639,5.990232127858518
1.9891349584795535,7.022332921028138,-2.869739767313004,2.3597304153442384,7.94461412649815
1.999161958694458,7.548767101764679,-0.27092722892761234,3.305584205389023,8.245251558259245
2.0091899586841464,5.926858237981796,2.304830907583237,3.8115063536167146,7.414005312200972
2.019217958673835,2.972385591566563,5.410926826000214,3.3094667565822604,7.00469666967845
2.029244958423078,0.7322045700252057,8.531147863268853,3.0783906412124638,9.099071179918695
2.0392729584127665,-0.5555998000502587,10.650635483264924,1.880375091433525,10.82961392754522
2.049300958402455,-1.104082369208336,11.70835001707077,1.334895944595337,11.835810288405897
2.0593279586173594,-1.226310957223177,11.884291566610337,1.4876415896415711,12.039655398027076
2.069355958607048,-1.0816093267500402,11.861315517425538,1.7916149425506593,12.044524425729865
2.079383958596736,-1.02859401114285,12.101397514343262,1.6526020681858065,12.256953986846986
2.0894109583459795,-0.8388493050634861,12.344025388956071,1.475180003643036,12.460127888707477
2.099438958335668,-0.6344296956807375,12.430869405269624,0.6732437324523927,12.46524257015949
2.1094669583253562,-0.5617271704226733,12.316055817604065,-0.3150012016296387,12.332882634378635
2.119493958540261,-0.32332624800503257,12.088353545665742,-0.9018090534210206,12.126256259723798
2.129521958529949,0.07656197994947433,11.95242332339287,-1.2408961057662964,12.016909260856787
2.1395499585196376,0.5064361184835434,11.964778490066529,-1.1447164249420168,12.030078035989433
2.149576958268881,0.9374656668305398,11.937219393253327,-0.7705261981487275,11.998739906389458
2.1596049582585692,1.314564591050148,11.770283725261688,-0.37336109161376957,11.849348401576098
2.1696329582482576,1.4922047567367553,11.516995207071306,-0.21919106483459475,11.615330316380785
2.179659958463162,1.5905113622546196,11.299027379751205,-0.37757225632667546,11.416667943431483
2.1896879584528506,1.8692487171292307,11.111985476016999,-0.4337242011353374,11.276454614299324
2.199715958442539,2.3691485255956652,10.783788278102875,-0.2901435001753271,11.044778748982484
2.2097439584322274,2.937248503267765,10.457848105430603,0.28038336435332895,10.866123071142406
2.219770958647132,3.3032529205083847,10.046194767951965,1.0202525925636292,10.624425844491805
2.2297989586368203,3.402119396924973,9.327335152029992,1.8229805767536165,10.094397238688819
2.2398269586265087,3.3227484145760537,8.693989895582199,2.7334633898735046,9.700409240585255
2.249853958375752,3.338262539505959,8.576638616323471,3.417426238059998,9.817409476550353
2.2598819583654404,3.3756926134228706,8.648952301740646,3.2507314753532413,9.837018433598406
2.2699099583551288,3.9276270863413814,8.58386694431305,2.4533349823951722,9.753352181833518
2.2799369585700333,3.9982108730077743,8.244444846510888,1.6903411674499513,9.317393105078994
2.2899649585597217,4.2748113629221915,7.933699833154678,1.2493593657016755,9.098269289036995
2.29999295854941,4.849388593733311,6.936671796441079,-1.2690060102939607,8.55829197905365
2.3100199582986534,5.19887638092041,5.225992258787155,-2.652500503063202,7.834224252071542
2.3200479582883418,2.598307631313801,0.4667247533798218,1.727783228158951,3.1550387360329437
2.33007595827803,-3.885464568436146,-31.63137612104416,8.496773836612702,32.98235825186067
2.3401029584929347,-13.023676500320436,-73.84972090244294,15.046442402601242,76.48393854874703
2.350130958482623,-17.53265744805336,-95.83960676193237,9.373481962680817,97.87995946861297
2.3601589584723115,-16.539519563913345,-73.22348878383637,-19.202657321691515,77.48533451754594
2.370185958687216,-5.395614722371102,-31.02697282791138,-23.371016907691956,39.217217295415566
2.3802139586769044,0.6013430797308684,-14.796425986289979,-2.2879383015632633,14.984341731923287
2.390241958666593,1.0875539716333151,-8.577898691296578,1.2903916168212892,8.74232406881177
2.400268958415836,3.0371780034899714,-4.5627145206928255,1.9092387020587922,5.804137011103686
2.4102969584055245,4.1445684349536895,-1.196688816547394,2.014562258720398,4.76108944779708
2.420324958395213,5.0729811501503,2.4512340778112414,0.13187748055905105,5.63569675584856
2.4303519586101174,6.783400486707688,4.411574521064758,-0.9962170279026032,8.152849825960057
2.440379958599806,7.779609913229943,5.212295156121254,-1.224760714173317,9.44406639131328
2.4504079585894942,7.622457221746445,7.097205348014832,-0.9203312784433365,10.455581643855401
2.4604349583387375,6.3098005771636965,9.201767950057985,0.37055322211235764,11.163486302258246
2.470462958328426,4.438473467230797,10.223115141391755,2.154644588828087,11.351415031511767
2.4804909583181143,4.278869330585003,10.950377790927888,1.2811676341295244,11.82627950874698
2.490517958533019,3.944090506732464,11.877663162946702,0.0702040054416284,12.515576724230419
2.5005459585227072,3.9831759274005893,12.911984156370163,0.5101789212226868,13.522030463456204
2.5105739585123956,4.040012617707252,13.463155567646027,1.693973457813263,14.157959099589453
2.520600958261639,3.4632593455910685,13.38886552333832,1.5311893129348755,13.914037013351207
2.5306289582513273,1.9378956136107446,12.80624193906784,1.160142549276352,13.003891830749486
2.5406569582410157,0.5652401410415769,12.074979794025422,1.101552278995514,12.138288630055191
2.5506849586963654,0.016995845921337606,11.578544168472291,0.963139328956604,11.618546005719702
2.5607119584456086,0.034896402284502984,11.375893707275392,0.9712856698036194,11.41733643414637
2.570739958435297,0.21002109579741957,11.267434873580934,1.1935183831304312,11.332417377679752
2.5807675002142787,0.43692997366189956,11.233404078483582,1.3484755182266237,11.32248476332083
2.590794499963522,0.7321748954057694,11.097390825748445,1.2451131176948549,11.190999503740674
2.6008224999532104,0.8946038219332696,10.944896610975267,0.9086046874523164,11.018921921005512
2.6108504999428988,1.1017607322335243,11.007892173528672,0.7127405047416687,11.085827251144813
2.6208775001578033,1.4986516043543816,10.981647530794143,0.6309613466262818,11.101380605256606
2.6309055001474917,1.9517178466916085,10.879883759021759,0.7197595024108887,11.07696379448045
2.64093350013718,1.747018521130085,10.151576796770096,1.0325457787513734,10.352426573471064
2.6509605003520846,1.3717524066567421,9.312991932034492,1.1654763793945313,9.485349681600288
2.660988500341773,1.1419506919384004,9.07412264764309,1.5240744209289552,9.271815143099962
2.6710165003314614,0.7138491368293762,8.999408680200577,1.9781469690799713,9.24186142585474
2.6810435000807047,0.36601143389940266,8.946685506105423,1.7762180542945862,9.128641546873444
2.691071500070393,0.2640199861675501,8.923295474052429,1.5133471190929413,9.054563941637795
2.7010995000600815,0.4778412970528007,8.961257352232934,1.4986823022365572,9.09826985097469
2.711126500274986,1.4801545223593713,8.784724649190903,0.0030452299118041994,8.908549480447888
2.7211545002646744,2.365113946795464,8.35095714211464,-0.4007623136043549,8.688662705086868
2.731182500254363,2.7027038195729256,7.952668200731278,0.509512923359871,8.41481686469333
2.741209500003606,4.047347657382488,7.306971285939217,-1.1371922278404236,8.430068718362882
2.7512374999932945,5.057762017250061,6.154354687929154,-0.5390945720672607,7.98421324900615
2.761265499982983,7.0601152896881105,-8.170225553512573,1.0305822837352754,10.84711543879324
2.7712925001978874,2.045792237520218,-44.15238152503967,13.214614988565446,46.13289617515663
2.781320500187576,-7.929002180099488,-84.83063753128052,17.74607731103897,87.02889979463657
2.791348500177264,-13.412655504941942,-88.54745524406434,8.981530233621598,90.00677220760272
2.8013754999265075,-5.137513945698738,-46.47359516143799,-13.636601525545121,48.704681478662614
2.811403499916196,-0.9481665100157262,-17.74275843143463,-26.143689386844635,31.610077368503433
2.8214315003715456,-1.7953878584504128,-10.41358936071396,-9.548077483177186,14.241911548686199
2.831458500120789,-3.018444986343384,-8.730402846336364,1.8861457085609437,9.428069241834326
2.841486500110477,-3.3776897299289703,-6.411242752075196,3.340887939333916,7.979621153970355
2.8515145001001656,-2.446846034824848,-3.883213098049164,2.4881130516529084,5.220833845354995
2.861542500089854,-1.5319702085852624,-1.8733256882429123,1.1590654921531678,2.683228404240649
2.8715695003047585,-0.6062334716320038,0.13878892600536347,0.16528320830315352,0.6435059650505949
2.881597500294447,1.100498318374157,2.1156565243005754,-0.5918645604327322,2.457112682694094
2.8916255002841353,3.4856951120495796,3.881415663957596,-1.9374059092998506,5.564979750904014
2.9016525000333786,5.608346368074417,5.408645827174187,-1.9714437210559845,8.03701368752059
2.911680500023067,5.96353957593441,7.206507934927941,-0.7926432913541794,9.387536645853594
2.9217085000127554,5.29224647462368,9.144726607203484,0.3636903451010585,10.571951954855917
2.93173550022766,5.422392046451569,10.920912501811982,1.1991826540231705,12.251804128999309
2.9417635002173483,7.567685183286668,12.501800808906555,1.6314117586612702,14.704638275905035
2.9517915002070367,8.81929104924202,13.340214350223542,-0.12884807467460632,15.99242993880223
2.96181849995628,8.738135204315187,13.88632207274437,-1.2914476239681245,16.45760567404423
2.9718464999459684,7.892618465423585,13.944266810417176,-0.9246687430143357,16.049642220471927
2.981874499935657,6.441527236104012,13.316933076381684,0.15815431952476502,14.793883617329247
2.9919015001505613,4.722779125571251,12.533857583999634,0.9525710713863373,13.427941772697663
3.0019295001402497,3.24382825255394,11.874347791671754,1.3318577313423157,12.381292429556106
3.011957500129938,2.213512601852417,11.430583884716034,1.5787108039855957,11.749477170781269
3.0219845003448427,1.6631583389639855,11.182971843481065,1.8017949450016022,11.448642711535243
3.032012500334531,1.647043997347355,11.025633795261383,1.9828878915309907,11.322950097337182
3.0420405003242195,1.790243770480156,10.9653466629982,2.1196858406066896,11.310918099797968
3.0520675000734627,1.760691065490246,10.889173815250397,2.030462007522583,11.215922403923125
3.062095500063151,1.465942864716053,10.788038034439088,1.9109800028800965,11.053623735523292
3.0721235000528395,1.1652010486274957,10.62157949924469,1.6288775753974916,10.808741217095102
3.082150500267744,0.9815189550071955,10.402715878486633,1.2946776258945465,10.528820791643682
3.0921785002574325,0.6314356289058924,10.03569784641266,1.2763278937339784,10.136219961616208
3.102206500247121,0.3296374402195215,9.608240069746971,1.2956751608848573,9.700809873532197
3.112233499996364,0.13425448335707188,9.509877038598061,1.2804455029964448,9.596630983928678
3.1222614999860525,0.08940546222031116,9.507151066660882,1.0645639622211456,9.566985479796964
3.132289499975741,0.1283592474460602,9.463096389770508,0.630508772134781,9.484946530699656
3.1423165001906455,0.14881010346114637,9.186983850002289,0.16270348984748126,9.189629433916448
3.152344500180334,0.42292735397815706,8.478598936200143,0.3081377398967743,8.494731092531762
3.1623725001700222,1.282352864742279,5.88445598423481,1.972516100406647,6.337355194911599
3.1724005001597106,4.274961051642895,-3.9601823365688325,2.0696991634368898,6.184010895775239
3.182427499908954,5.099695909023285,-14.150558917522432,3.4048652493953706,15.422007761939515
3.1924555003643036,4.495357519984245,-27.406505534648897,5.158668587207795,28.247772415641272
3.202483500353992,1.320907212048769,-52.38334327697754,8.874045546054841,53.146101767579964
3.2125105001032352,-9.878941011428834,-74.54419704437257,4.611118941307068,75.33719669849957
3.2225385000929236,-7.6838260889053345,-62.54256238460541,-24.558675284385682,67.62944495351636
3.232566500082612,3.4330941447615624,-29.204051892757416,-35.29611385345459,45.93994379097229
3.2425935002975166,2.7148590114712716,-16.44759314775467,-4.785427948236466,17.34341663150591
3.252621500287205,-0.411285255253315,-12.278348293304443,5.688830952644349,13.538455967378455
3.2626495002768934,-3.007686109542847,-9.179677169322968,4.817276562452316,10.794387529900838
3.2726765000261366,-3.412592344880104,-6.8458814942836765,5.129662889242172,9.210066302876346
3.282704500015825,-2.1640770247578622,-4.653734033703804,4.727827026844025,6.97802394817435
3.2927325000055134,-0.888096747994423,-2.044117594957352,4.2358458101749425,4.786389276206973
3.302759500220418,-0.4214518091082573,0.7640995234251022,4.037197183370591,4.130427436296941
3.3127875002101064,-0.6258719301223755,3.5067178988456726,3.7613512766361237,5.180400517455375
3.3228155001997948,-0.529950403869152,6.160276747941971,3.9961310184001926,7.361991589102486
3.332842499949038,0.5098628426715732,8.837451916337013,2.144708999991417,9.108254123955373
3.3428704999387264,2.6382590246200563,10.74099601507187,-0.4802576223760843,11.070684416991991
3.352898499928415,4.257822862565518,11.840749690532684,-1.283555052280426,12.648316976383462
3.3629255001433194,5.1855482375621795,12.23778849720955,-0.7772510808706284,13.313808511062232
3.3729535001330078,5.387666602134705,12.221537915468216,-0.24420081216841938,13.358614242190265
3.382981500122696,4.67740180850029,12.151867171525955,-0.2878087252378464,13.024162057303151
3.3930085003376007,3.6449677115678787,12.3541013109684,-0.04035868842154741,12.880653618655172
3.403036500327289,2.8979350411891938,12.426955279111862,0.17676947873085738,12.761602268547987
3.4130645003169775,2.212976996898651,12.394942942857742,-0.32573084235191346,12.595156939362083
3.4230915000662208,1.8093286438286305,12.442590733766556,-0.9627300238609314,12.610257071457163
3.433119500055909,1.6937578417360784,12.410014725923538,-1.492267906665802,12.613649140092104
3.4431475000455976,1.7274423354864121,12.193989343643189,-1.3456279242038727,12.389033362038848
3.453175500035286,1.9321179798245431,11.85261719942093,-0.7258066928386688,12.030977089137007
3.4632025002501905,2.124279997944832,11.619453628063203,-0.2642590641975403,11.814994751475355
3.473230500239879,2.350359375178814,11.4131673681736,-0.16894711017608643,11.653888694014135
3.4832585002295673,2.54468427836895,11.278691933155061,-0.2465911539271474,11.564822393655264
3.4932854999788105,2.5074012619256973,11.184340091943742,-0.5993746876716614,11.477620589511933
3.503313499968499,2.2813721707463266,10.208895882368088,-1.1926361113786699,10.528465938238693
3.5133414999581873,2.321096107363701,9.070305000543595,-1.4155658859014513,9.468988685167652
3.523368500173092,2.2168060460686685,8.57758352637291,-1.2198753654956818,8.943000844522702
3.5333965001627803,2.059957409799099,8.089901767373085,-0.8005083811283112,8.386342993473917
3.5434245001524687,2.129635170400143,7.676788964867592,-0.3576671648025513,7.974732633191911
3.5534515003673732,2.65924175798893,7.488495172262192,0.15978510797023773,7.948248734982775
3.5634795003570616,3.3562275248765947,7.588317083716393,1.2557328307628632,8.391882047789819
3.57350750034675,4.460907771885395,7.637937725186348,2.3201435959339145,9.144444059036365
3.5835343752987683,5.698052596449852,7.34987464606762,2.102555837631226,9.53463170527177
3.5935623752884567,6.175736786127091,6.691120898723603,1.8120883834362032,9.28409866611959
3.603590375278145,6.358234818577767,3.8567345666885378,-1.1077947664260865,7.518561083783645
3.6136173750273883,6.418859919905663,-4.844668428897858,-0.3159660287573934,8.048130800916427
3.6236453750170767,4.158022001087666,-14.106246378421783,1.3329359579086304,14.766585662168238
3.633673375006765,0.39452143415808677,-30.13481635808945,5.714437664151192,30.674380220556294
3.6437003752216697,-8.503924981355668,-57.34041156291962,11.615926587581635,59.11995677249449
3.653728375211358,-9.124194694161416,-72.63328486919403,3.030194381475449,73.26682112454435
3.6637563752010465,-3.741568684279919,-52.89888994216919,-13.128351016044617,54.63190911668191
3.673784375190735,-1.4094016049802305,-24.520885899066926,-9.966401324272157,26.506403254980366
3.683811374939978,-1.6188759130239487,-13.230499534606935,-1.778823573589325,13.447345108346129
3.6938393749296665,-1.3931163784861564,-9.012435107231141,0.9615454510599375,9.170023416573855
3.703867374919355,-0.591260214149952,-7.745704833269119,2.6432788592576983,8.205635571530333
3.7138943751342595,0.3596657431125641,-6.977192416191102,3.0627282893657686,7.62829456915533
3.723922375123948,-0.9491598057746887,-5.539284904003144,2.4594125783443452,6.134597934268695
3.7339503751136363,-1.3348857119679451,-3.377520160675049,0.7317480486631394,3.7047290732933345
3.743977375328541,-0.2048077914118767,-0.6093821972608566,-1.2421649515628814,1.3986660289907293
3.754005375318229,0.8869892853498459,2.1269697171449664,-2.0332277405261996,3.073233673969886
3.7640333753079176,1.290291629433632,4.9366667658090595,-1.7638587945699693,5.39877107245825
3.774060375057161,1.6273649007081987,7.419809099435807,-0.4061896626278758,7.607027910698972
3.7840883750468493,1.8610234388709068,9.636956330537796,1.689375792145729,9.959333618460997
3.7941163750365376,2.2601874160766604,11.70469667673111,2.6340320724248887,12.208460034280922
3.804143375251442,3.193827542066574,13.758070414066315,3.1965815806388855,14.48113150580954
3.8141713752411306,3.8915541511774063,14.459043982028962,2.0609195691347124,15.114745649736765
3.824199375230819,4.206281118392945,14.151987977027893,0.8332802706956863,14.787356780656296
3.8342263749800622,4.296344904005528,13.627670488357545,1.8861737751960754,14.412828798805002
3.8442543749697506,4.456337295770646,13.261911946535111,2.1500691425800325,14.154859514993499
3.854282374959439,3.9400559279322627,12.754222769737245,0.8569351816177369,13.376418694135301
3.8643093751743436,2.966129363179207,12.177590242624284,-0.06396853923797607,12.533783127626881
3.874337375164032,2.2434129238128664,11.752136306762695,-0.6516417789459229,11.982080217037787
3.8843653751537204,1.666676023900509,11.495578025579453,-1.4220065939426423,11.702488020247932
3.894392375368625,1.223768807128072,11.47695581316948,-1.8933541560173035,11.696277817786836
3.9044203753583133,0.9485421205312015,11.558326835632325,-1.8416051280498507,11.742493808445447
3.9144483753480017,0.994079432040453,11.488272514343262,-1.5383077132701874,11.633356777032468
3.924475375097245,1.1238839650154113,11.344367859363556,-1.44746887922287,11.491430000295802
3.9345033750869334,1.1878689495474102,11.231684997081757,-1.7137440633773804,11.423602725486015
3.9445313750766218,1.1879475215077402,10.871524579524994,-1.454893673658371,11.032587257698152
3.9545583752915263,1.3992606326937675,9.907439171075822,-0.28362738132476806,10.009781503020497
3.9645863752812147,1.4670456495881081,9.147346744537353,1.0804672193527223,9.327035156729567
3.974614375270903,0.9635325542092323,8.795583513379098,2.005607832670212,9.072659318100468
3.9846423752605915,0.5262213786318899,8.79424099266529,2.5961660885810853,9.184533844235224
3.9946693750098348,0.29321221031248573,9.095316465497017,2.678338179588318,9.486002868018645
4.004697374999523,0.17797144699841738,9.113127669095993,2.945957053899765,9.579114401269642
4.014725374989212,0.4704480044916272,9.046390473246575,3.4621703016757968,9.69768658584007
4.024752375204116,1.7390335634350778,9.025274423360825,1.713830602169037,9.3497075614511
4.0347803751938045,5.241530649662018,7.770311086177826,-3.282018756866455,9.930912598938106
4.044808375183493,7.746517011523247,6.62506197988987,-1.6417601609230041,10.324502335376522
4.054835374932736,9.936796871423722,1.7374340575933458,1.43911028444767,10.189683389547714
4.0648633749224246,10.988950703144074,-19.81349839925766,4.078048755526543,23.02090871416609
4.074891374912113,4.318842943310738,-56.952858109474185,13.688141223192215,58.7336842140261
4.0849183751270175,-9.480231070518494,-91.54841471672059,7.860464626550675,92.37301512043622
4.094946375116706,-10.370903517007829,-80.82646425247192,-19.680411093235016,83.83192437320005
4.104974375106394,-1.329734899699688,-34.306096043586734,-25.938445100784303,43.02882005007432
4.115001375321299,-0.4895712867379189,-13.923817927837373,-5.895492603778839,15.128424199948078
4.125029375310987,-3.433682667016983,-8.681116665601731,3.05515556037426,9.82272562569304
4.135057375300676,-3.0056971791386604,-5.2718250739574435,3.5595474922657013,7.035391495345767
4.145084375049919,-2.2263630276918414,-3.4460144448280334,3.027053257226944,5.098505595478433
4.155112375039607,-1.3662571933865548,-2.644683945178986,3.2234530448913574,4.387671526104405
4.165140375029296,-1.870666374564171,-1.4043632054328918,3.7127012729644777,4.388140772579073
4.1751673752442,-2.3839992839097977,0.45196228802204136,4.12737762093544,4.787793700784865
4.185195375233889,-1.4993670111894608,2.883595914244652,3.512918871045113,4.785794168728587
4.195223375223577,-0.3158926096558571,5.701186704039574,2.0792979526519777,6.076742379849216
4.205251375213265,0.9198082450032234,8.673180824518203,0.7493201011419297,8.753947306006674
4.215278374962509,2.2715617123246195,11.233773622512818,0.8547249341011047,11.492963809554873
4.225306374952197,4.210828498005867,13.308580913543702,1.5909016638994218,14.049212457506506
4.2353343749418855,6.026616999506951,14.525595821142197,1.2330234146118164,15.774453814915773
4.24536137515679,7.651465258598328,14.760779020786286,-0.7047532081604004,16.64097938789764
4.255389375146478,7.192999112606049,14.680547035932541,-1.4530213952064515,16.41246382122766
4.265417375136167,3.96820851713419,13.899177761077881,-0.9324227356910706,14.484586063382409
4.275444375351071,1.7074583065509796,12.516030592918396,-0.6334914368391037,12.647835667497725
4.28547237534076,0.8157161850482226,12.076163270473481,-0.6595407825708389,12.12163793691086
4.295500375330448,0.2147656179405749,11.770960832834245,-0.8867793703079224,11.806270403915496
4.305527375079691,0.1573620400764048,11.304955286979675,-0.8686787295341493,11.339372980346479
4.31555537506938,0.40358417987823486,10.770454287528992,-0.9429453849792481,10.819182582295822
4.325583375059068,0.5829790949821473,10.247326122522354,-0.7108775818347931,10.288484058541886
4.335610375273973,0.7485789665579796,10.063963286876678,-0.33356845021247866,10.097276633813287
4.345638375263661,0.9408070582151413,10.125722748041154,0.08587337851524353,10.1696977992526
4.3556663752533495,0.9557674518227578,10.264051498174668,0.6200165283679963,10.327084054785015
4.365693375002593,0.3946206906437874,10.234549956321716,1.0963389015197755,10.300664895282955
4.375721374992281,-0.06044997721910477,9.597082412838937,1.4331876397132874,9.703693721938835
4.38574937498197,-0.2021379527449608,8.912483387589456,1.6070160055160523,9.05846125608443
4.395776375196874,-0.40370525378733874,8.314562317728997,1.5668316006660463,8.470530428029889
4.4058043751865625,-0.7486389005184174,8.093413020372392,1.523518935441971,8.269516580088164
4.415832375176251,-1.1275887608528137,7.8428411185741425,1.8020849668979646,8.125830631555061
4.425859374925494,-1.4141274708509446,7.469108728766442,1.949716637134552,7.847849174842086
4.435887374915183,-1.4112690594792368,7.5456856191158295,1.7517626595497133,7.873863361537811
4.445915375370532,-0.9220760875940324,8.24669310092926,1.5639840066432953,8.444182458075085
4.4559423751197755,0.9001063442230225,7.6108089834451675,-1.4669716823101044,7.80298729526711
4.465970375109464,2.2862926027178765,5.827680104970932,-0.34116983056068423,6.2694007787348625
4.475998375099152,3.2728740039467814,3.874060451388359,2.1523951649665833,5.509342390239832
4.486026375088841,3.603795419633389,-0.8041476881504059,1.546317229270935,4.003135259327166
4.496053375303745,2.63641832113266,-7.2745677709579475,0.2946061134338379,7.74317961694914
4.506081375293434,1.9289306625723839,-21.516322202682495,2.339556936621666,21.728930514186708
4.516109375283122,-1.9066330365836621,-52.549015946388245,10.661873831748963,53.65361013085784
4.526136375032365,0.454655954092741,-77.08611266613006,14.04698017001152,78.35683205635988
4.536164375022054,8.103215292692186,-60.91500160217286,4.294402166604996,61.601472451890174
4.546192375011742,7.61406120479107,-24.86212706565857,-19.98145616054535,32.79264979465753
4.556219375226647,5.894772811532021,-11.231681488752365,-29.475248093605042,32.088771645918875
4.566247375216335,2.608702518939972,-9.20452491223812,-12.508921548128129,15.74807054815161
4.5762753752060235,-3.086082945764065,-12.358789608478547,2.2819016361236573,12.94104569235875
4.586302374955267,-5.323449556231499,-12.011491895914078,4.526838344335556,13.896305917008938
4.596330374944955,-3.929187415838242,-7.740938767790794,2.0700394713878634,8.924444529973382
4.6063583749346435,-2.796274765133858,-4.381108188629151,3.3322363990545276,6.173901597999574
4.616385375149548,-2.6166711044311524,-1.151527846455574,4.463446340560913,5.3005034935366435
4.6264133751392365,-2.496892061233521,2.52223974108696,5.349208295345306,6.4195165444105236
4.636441375128925,-2.0480983793735503,6.275044142603875,4.883786301612854,8.211105565211126
4.646469375118613,-1.031319690719247,9.647333384156228,3.353987456560135,10.26566576449298
4.656496375333518,0.6826293906569482,12.103331773281099,1.9857541966438295,12.284129705786773
4.666524375323206,3.154652074277401,13.449515182971956,0.19150683760643006,13.815859120430618
4.676552375312895,5.0132419019937515,13.829163200855255,-0.46894201755523685,14.71727745949039
4.686579375062138,5.888073656558991,13.85765083551407,-0.12455503980629147,15.057204654982575
4.696607375051826,6.166421586871148,13.766481049060822,-0.22624980529770256,15.086150756093433
4.706635375041515,5.9102439594268805,13.663329148292542,-0.18427264412865044,14.887965055100603
4.716662375256419,5.215241568088532,13.523249741792679,0.27853796482086185,14.496710371331174
4.726690375246108,4.102802358269692,13.258358008861542,0.7674821376800538,13.899858744383852
4.736718375235796,3.0879452839493755,12.911538598537446,1.2615122187137604,13.335465801244126
4.746745374985039,2.262814862430096,12.402932578325272,1.5740002870559693,12.705532045049084
4.756773374974728,1.6556475904583932,11.788217135667802,1.8326963102817537,12.044169043448495
4.766801374964416,1.1044884583353998,11.2900261759758,1.7133698415756227,11.4725856729351
4.776828375179321,0.6433431181311607,11.013092687129975,1.3597068500518799,11.115345411683816
4.786856375169009,0.4100389212369919,10.811927418708802,0.9239945590496064,10.859082482857824
4.796884375158697,0.096591617166996,10.617399909496308,0.41929564833641053,10.626114982409751
4.806911374907941,-0.32356766492128375,10.45798493027687,0.05886395651847125,10.463154868444686
4.81693937536329,-0.693003520667553,10.266305015087129,-0.13519464254379274,10.290556356865906
4.826967375352979,-1.0783613446354867,10.03719239473343,0.020741243362426758,10.094975213326423
4.836994375102222,-1.345397251546383,9.765672258138657,0.22552359938621522,9.860492346314542
4.84702237509191,-1.6230341604351999,9.566332490444184,0.4487983596324921,9.713412231099658
4.857050375081599,-1.823603305220604,9.40438566684723,0.573353408575058,9.596704273694055
4.867077375296503,-1.8701901188492775,9.243049877285959,0.4498426723480225,9.44107729787775
4.877105375286192,-1.8619543156027796,9.020013098716737,-0.8612340545654298,9.250364007494868
4.88713337527588,-1.543621078133583,7.866366806030274,-5.8042631757259375,9.897068443380665
4.8971613752655685,-0.6585058254003525,7.223976491689682,-3.471489593982697,8.04180988806012
4.907188375014812,-0.7206511297076941,7.6089279341697695,2.7499478602409364,8.122643386988113
4.9172163750045,1.8532261767983438,2.7962215554714205,2.6979006242752077,4.304877469582401
4.9272443749941885,7.27071971833706,-9.950064203739167,4.24413833141327,13.033796571119188
4.937271375209093,7.764032346010208,-27.729837849140168,7.461519042849541,29.747241415571725
4.9472993751987815,0.39558518886566163,-58.44241056919098,12.574981051683427,59.78128460672063
4.95732737518847,-4.730296890735627,-80.10770579338075,10.854242548942567,80.97798970994911
4.967354374937713,6.11856388092041,-62.15978961467743,-1.8641227555274964,62.48800863008469
4.9773823749274015,6.901803680062295,-27.127282276153565,-23.9742835021019,36.85499433139818
4.98741037491709,2.8421163511276246,-13.327396084070207,-22.61692723274231,26.40497129682586
4.9974373751319945,-1.1052358786761762,-10.456636562347413,-2.7490263390541076,10.86829979147369
5.007465375121683,-3.608824317455292,-11.055263975858688,4.73846311211586,12.55768717539413
5.017493375111371,-4.5671613281965255,-8.967223266363144,3.507678596377373,10.65710396130498
5.027520375326276,-3.3896610268950464,-5.989638038277627,2.0434100818634033,7.179212385038796
5.037548375315964,-1.9883012437820435,-3.172201030254364,2.190902588367462,4.337770782797002
5.047576375305653,-2.6205793833732605,-0.0764008891582489,3.548655298948288,4.412054830935231
5.057604375295341,-1.9935467809438707,2.970168035030365,3.3453949731588364,4.89773360347051
5.067631375044584,-0.3402843062952161,6.2081543344259265,2.368367922306061,6.653280413793677
5.077659375034273,1.9000603276491166,9.172718397974968,0.9489902365207673,9.415390301324011
5.087687375023961,3.061922250688076,11.730285261869431,0.6125531423091889,12.138788306344368
5.097714375238866,4.147944617271423,13.340040103197099,1.3400444179773332,14.034166649466936
5.107742375228554,5.665259656906128,13.832655158042908,1.7645844340324404,15.051620309000914
5.117770375218242,6.589699773788452,13.856517645120622,1.1650588881969453,15.387806424931835
5.127797374967486,6.977126342654229,14.100099785327911,-0.2506935238838196,15.733910931503365
5.137825374957174,5.828156068325043,14.072948824167252,-1.2619951987266542,15.284237751552858
5.1478533749468625,3.818750761449337,13.542888200283052,-1.4785959470272065,14.148460133809653
5.157880375161767,2.3769908112287523,13.231233944892884,-0.5712402248382569,13.455183105986514
5.167908375151455,1.6919321948289872,12.939998166561127,0.22226788798347116,13.052033945578474
5.177936375141144,1.6180488243699074,12.718437809944154,0.5814611577987672,12.834127917450822
5.187963375356048,1.885724124312401,12.341258486509323,0.36236130952835083,12.489752688604177
5.197991375345737,2.27016422778368,11.797417144775391,0.43612744331359865,12.021767925549064
5.208019375335425,2.366310287117958,11.123316210508348,0.735180948972702,11.395967660607432
5.218046375084668,2.080066569149494,10.694056906700135,0.8330364418029785,10.926274743443255
5.228074375074357,1.888881913125515,10.624180340766907,0.9177462244033814,10.82974334540193
5.238102375064045,1.863206496834755,10.511188745498657,0.8158538138866425,10.706177877234166
5.24812937527895,1.7887650096416474,10.052034966945648,0.764181969165802,10.238508744852172
5.258157375268638,0.9099054005742073,9.236241379380226,0.8575736975669861,9.320489005568772
5.2681853752583265,0.38401208728551867,8.84908787548542,0.6619504201412201,8.882116857482206
5.27821237500757,0.10798813283443451,8.918335865736008,0.6010528385639191,8.939219236916166
5.288240374997258,-0.39850879669189454,8.980310504436494,0.630157939195633,9.011208855945164
5.298268374986947,-0.6511272239685059,9.113184387087822,0.889574339389801,9.179620844030268
5.308296374976635,-0.7258680886030198,9.26667262852192,0.7798092377185822,9.327711859479836
5.3183233751915395,-0.9541012877225876,9.044755591750146,-0.8087342441082002,9.130824938597975
5.328351375181228,-0.7942091757059098,7.55708008825779,-5.266858448982239,9.24554084933561
5.338379375170916,0.16404188096523287,6.792544362545014,-0.9307211959362031,6.857974234452736
5.34840637492016,1.9837231662869454,3.444649119973183,0.9137432205677033,4.078687513567197
5.358434374909848,3.7357334554195405,-4.505155699253082,1.367475460767746,6.010168172377151
5.368462375365198,2.8102437633275987,-12.197076673507691,2.5003325629234316,12.763926210769254
5.378489375114441,0.2914790225028992,-29.95066882610321,7.435180844664574,30.86113149812134
5.388517375104129,-4.005218760967255,-62.61401068210602,15.099578390121462,64.53335090154171
5.398545375093818,0.9565942481160165,-80.45623726844788,16.92282676935196,82.22227954646966
5.408572375308722,11.07907734632492,-54.8457133769989,3.681914513111115,56.074546143144346
5.418600375298411,7.13398082613945,-21.167308917045595,-26.550905857086182,34.697251347177584
5.428628375288099,2.789881711900234,-11.945904847383499,-32.04602323293686,34.31378276487547
5.438655375037342,1.1936062375456096,-10.863923199176789,-5.435036065578461,12.206110771333268
5.448683375027031,-4.623062756359578,-12.680042653083802,5.609706430435181,14.615915885394571
5.458711375016719,-7.619562265276909,-10.804508471488953,5.204618931412697,14.208560470579974
5.4687393750064075,-7.647090956568718,-7.018217650651932,3.9724509644508363,11.1136738189909
5.478766375221312,-5.414428723454476,-3.565218122005463,2.5501847541332245,6.9663664086135
5.488794375211,-3.070857380926609,-0.026238795518875122,1.4601041275262834,3.4004055039952226
5.498822375200689,-0.9171123862266541,3.41066159427166,0.28781219702214006,3.543521341880808
5.508849374949932,0.26777060955762866,6.774823206067086,-0.7719938492774964,6.8239215320906395
5.5188773749396205,1.0866266763210297,9.6193456864357,-0.5742854547500611,9.697544676482758
5.528905374929309,2.8311797189712524,11.636313489675523,0.37633849382400514,11.981694408265152
5.538932375144213,5.386535165905952,13.540362203121186,1.635459201335907,14.663931822144038
5.548960375133902,7.683298670053483,14.450174925327302,1.8349469035863877,16.468383769052284
5.55898837512359,8.920292928814888,14.608031036853792,0.44108763635158543,17.121937828776588
5.569015375338495,8.760916541218759,14.619636590480805,0.013721067113801838,17.043697396621674
5.579043375328183,7.275637226700783,14.467819483280183,0.22267132759094238,16.195748830340232
5.589071500115097,5.517650790810586,13.922961895465852,0.3155239427089691,14.979749448850917
5.599098500330001,3.8119299843907357,13.239322983026506,1.1801224851608276,13.82762352448074
5.6091265003196895,2.575857539176941,12.576897768974305,1.8932711255550385,12.976820685677442
5.619154500309378,1.9622008810937406,12.050653038024903,1.9354798364639283,12.361818358881605
5.629181500058621,1.5761283811926843,11.576632128953934,1.3776402604579927,11.764373540922794
5.63920950004831,1.4318968668580057,11.212487418651582,1.3483047795295715,11.383678163460178
5.649237500037998,1.2612985029816628,10.8946351146698,1.2071974325180055,11.03364281805869
5.6592645002529025,1.1825341692566873,10.71244990825653,0.6957870876789093,10.799957859628233
5.669292500242591,1.133969754204154,10.573612450361253,0.22501839995384218,10.63662544861866
5.679320500232279,1.1456294676661491,10.203671979904176,-0.5379099261760711,10.281864414557575
5.689348500221968,1.0427102129906416,9.493180314302444,-1.3349877458810806,9.64312757095887
5.699375499971211,0.8453056544065476,9.07776487827301,-1.4495586740970612,9.231553346226663
5.709403499960899,0.7576381308585406,8.743016459941865,-1.0047691655158997,8.833114594078168
5.719431499950588,0.6184536407142878,8.45191341340542,-0.06947663465514779,8.474795115882047
5.729458500165492,0.41107716746628287,8.43216385781765,1.012255940437317,8.502648637433454
5.739486500155181,0.25128555446863177,8.602368704080583,1.2829463571310045,8.701140333663476
5.749514500144869,0.2547833588719368,8.639613128900528,0.7451381725072861,8.675428546945444
5.759541500359774,0.4512519244104624,8.170495110154153,0.7486611199378967,8.217123104642143
5.769569500349462,1.742708830833435,6.686479963660241,1.7650814473629,7.131729165449246
5.77959750033915,4.551327945291996,3.1272704404592515,2.6457329356670383,6.123259690739843
5.789624500088394,4.660449560880661,-1.012960529923439,1.5856596350669863,5.02595221057426
5.799652500078082,2.5644256478548053,-5.012464222311974,0.011903688535094261,5.630383484375985
5.8096805000677705,2.1617074406147005,-12.477248350381851,0.295189665555954,12.666563953755043
5.819707500282675,1.0052650094032287,-30.060278391838075,3.794879211187363,30.315540617997225
5.829735500272363,-4.603071418404579,-61.686478557586675,11.58952407002449,62.93430679278362
5.839763500262052,-3.8417154085636143,-78.85393177986145,10.28745790243149,79.61490516553883
5.84979150025174,-1.599359368979931,-56.674231266975404,-4.035019095540047,56.8401954535268
5.8598185000009835,-4.624537716507912,-23.640360710620882,-30.9268123626709,39.20102966167503
5.869846499990672,-3.9721875473856927,-11.8781578373909,-20.335643062591554,23.883200922211095
5.87987449998036,-2.493651534318924,-10.637011470794679,0.12467257797718048,10.926108834170021
5.889901500195265,-1.7362271922826769,-8.850374847650528,5.413055212497712,10.5187825598163
5.899929500184953,-2.2319971123337745,-5.607085708379746,6.119020548462868,8.594395483284064
5.909957500174642,-0.6868121963739395,-2.284130594730377,4.409742003679276,5.013460691566721
5.919984499923885,0.33791117727756503,1.2380590367317201,2.2855538070201873,2.621207803083658
5.930012499913573,0.9006498429179192,4.935888501405716,0.7539896875619889,5.073723079436546
5.940040500368923,2.4353474852442742,7.685698367357254,-0.3257168090343476,8.068888907871461
5.950067500118166,3.350442289710045,9.70931211590767,-0.025402570590376854,10.271165980130084
5.960095500107855,4.693539831340313,11.560911304950714,1.3471172100305557,12.549849047971685
5.970123500097543,5.7390965420007705,12.823219914436342,1.6928700882196428,14.150547947976811
5.9801505003124475,5.968271142840385,13.099075176715852,0.13778024476021528,14.395312234042056
5.990178500302136,5.361420789957047,13.683270492553712,-0.2273631699755788,14.697905234094963
6.000206500291824,5.492217156887055,14.21403979897499,0.5502990067005158,15.248154173604918
6.010233500041068,5.772975894212723,14.187834917306901,0.4482849740982056,15.323931275423952
6.020261500030756,4.693547140359879,13.677194066047669,1.1362245136499405,14.504689876882201
6.030289500020444,3.2864585477113724,12.986020431518556,1.74788946390152,13.50898419614371
6.040317500010133,2.52772296756506,12.361053650379182,1.3404028522968292,12.687856814874365
6.050344500225037,2.1179559418559077,11.917383298873903,0.8015509396791458,12.130632546278116
6.060372500214726,2.00799481227994,11.593736404180527,0.7691170191764832,11.791450630221496
6.070400500204414,2.1934486122429373,11.371603020429612,0.7229509127140046,11.603759308559807
6.080427499953657,2.6418702650070194,11.22939054965973,0.6148043203353882,11.552344998580097
6.090455499943346,3.1961740297079086,10.838321750164033,0.6191944098472596,11.316719865113042
6.100483499933034,3.6914706176519396,10.161588399410249,0.19480583667755128,10.813083900258066
6.110510500147939,3.836600264310837,9.406358517408371,-0.3594634294509888,10.165052685709192
6.120538500137627,3.5187631630897522,8.743224620819092,-1.03329656124115,9.481211565590515
6.1305665001273155,3.339524368643761,8.391381867527961,-1.4282759785652162,9.143723799765006
6.14059350034222,2.8359931468963624,8.13511243879795,-1.0418709182739259,8.678041629968897
6.1506215003319085,1.9338025626540185,8.119325541257858,0.49772025883197785,8.361265756588606
6.160649500321597,0.9438546270132065,8.277728952169419,1.8010342222452165,8.523812669939227
6.17067650007084,0.07127668172121049,8.540168362855912,2.543342342376709,8.911124861756145
6.1807045000605285,-0.3260003624483943,8.759659389853478,2.495567666888237,9.114042288830062
6.190732500050217,-0.6423660483956337,8.67849535882473,1.8775877237319947,8.902485691849376
6.2007595002651215,-0.7523404803872109,7.956781132221223,0.9237600857019425,8.045477914980374
6.21078750025481,0.24507526326924564,4.4289676487445835,-0.1907554886676371,4.439842787165942
6.220815500244498,1.264830221235752,-1.1126304137706757,-0.12485091805458069,1.6891801792401715
6.230843500234187,0.15003284761682154,-3.984532481431961,-0.18635657351464033,3.9917086220617946
6.24087049998343,-1.1881292968243362,-8.105903257727624,0.36245139319449665,8.20052985251808
6.250898499973118,-3.431970894634724,-20.147463290691377,4.13885336637497,20.852549207704314
6.260926499962807,-8.891697120666505,-45.482520174980166,11.745546494722367,47.80878351948344
6.270953500177711,-8.886201907396316,-70.21629384040833,14.224081807136537,72.1915300314219
6.2809815001674,-1.4240010792016984,-68.99007658481598,10.228361263275147,69.75871143007451
6.291009500157088,6.339692128300667,-36.333833248615264,-1.488717623502016,36.91280827818906
6.301036500371993,5.838147790431977,-14.499887952804567,-27.549208002090456,31.674746752093498
6.311064500361681,3.976046124994755,-10.499403097629548,-28.766521117687226,30.879753001099992
6.321092500351369,5.032657581567764,-10.928546626567842,-2.4813472384214403,12.284862954872576
6.331119500100613,0.11962878802791238,-9.12310418844223,3.9717972457408908,9.95090520713428
6.341147500090301,-5.285281271338463,-6.025966204404831,4.105740584135056,9.005752192793446
6.351175500079989,-5.132574802637101,-3.38017830491066,2.5323010450601577,6.646914928029901
6.361202500294894,-2.1140377226471903,-0.33940631031990054,1.281807319521904,2.495472328165595
6.371230500284582,-0.5294697627425194,3.316449501514435,0.22528327882289886,3.3659958528600655
6.381258500274271,-0.3334365589544177,6.789775121212006,0.1691868094727397,6.800062522652012
6.391285500023514,1.7271789184212685,9.316762216687202,1.2775651645660402,9.561243536708064
6.401313500013202,4.58455211699009,11.41285980463028,3.664495657682419,12.83355038400197
6.411341500002891,5.125701985359192,13.578883659839631,4.858449146747589,15.305666610824478
6.421369499992579,6.437398517131806,14.751375528573991,3.8379913169145587,16.54609793885235
6.431396500207484,8.247665492892265,14.991263397932054,1.7220979803800585,17.196731834940387
6.441424500197172,9.51743865787983,14.952712705135346,0.009000600781291723,17.724709782098994
6.451452500186861,9.831361048221588,14.664903395175935,0.0663302113674581,17.65557847671017
6.461479499936104,7.899326391220093,14.029067809581758,0.5403295040130616,16.1091916933711
6.471507499925792,5.218460460305214,12.986398161649705,0.6432352370023727,14.010446758001304
6.481535499915481,3.4078835821151734,12.071602442264558,0.4633608502149582,12.551970335801853
6.491562500130385,2.4284135645627978,11.43254153251648,0.4845406347513199,11.697648394442025
6.501590500120074,1.9808197313547136,11.006154381036758,0.5928877866268158,11.198687288913376
6.511618500109762,1.67846956551075,10.79148438334465,0.8921272337436676,10.957613165261149
6.5216455003246665,1.3268560230731965,10.574729268550874,0.8590144515037537,10.69220986686122
6.531673500314355,1.2183109429478647,10.211749323606492,0.25942224740982056,10.287439219958255
6.541701500304043,1.2475344496965408,9.630471183657647,-0.6580082273483276,9.733205651258894
6.5517285000532866,1.263355407267809,9.251717789769174,-1.2623448622226716,9.42251895714645
6.561756500042975,1.3671749138832092,9.055859454274177,-1.4217060470581055,9.268171652756553
6.571784500032663,1.180376619771123,8.91692727148533,-0.9822503685951234,9.048187482367194
6.581811750307679,0.6727180677652359,8.875123772621155,0.11762434422969818,8.901359843551905
6.591839750297368,0.23890794910490515,8.973415467739105,1.373237307071686,9.081026531529265
6.601867750287056,-0.07230659566819668,9.057030066847801,2.3425360929965975,9.355345916776887
6.611895750276744,-0.25188284754753115,9.126403772234918,2.6989519536495212,9.520453373178242
6.621922750025988,-0.36597927421331405,9.070950533151628,2.613456305265427,9.447022719543396
6.631950750015676,-0.3095033571124077,8.902171238064767,2.428123542666435,9.232563512824726
6.641978750005364,0.2553520005941391,8.73423394203186,1.2745444929599763,8.830430955671611
6.652005750220269,1.3071873052418232,7.802783598303796,0.2614161114022136,7.9158391163694555
6.662033750209957,3.7819141799211504,2.697280234694481,0.40992252510041,4.663285537616893
6.672061750199646,4.8563394713401795,-6.008078402280808,0.6413693904876709,7.751928395173955
6.682088749948889,2.9264753007888795,-21.76939437389374,4.91456779897213,22.508304372896184
6.692116749938577,-4.409437948465348,-57.10107800960541,14.049727191925049,58.96923848116005
6.702144749928266,-11.18922017812729,-84.58149936676026,14.250828140974045,86.5003744848972
6.71217175014317,-10.890725666284562,-68.66777805805206,-3.9260848832130435,69.63681347877974
6.722199750132859,-3.0412780711054803,-30.502023839950564,-35.69191889762879,47.04822956534721
6.732227750122547,0.13109165132045747,-15.508545516729356,-23.631568837165833,28.266291139292036
6.7422557501122355,1.3928959384560586,-12.341387125253679,0.8338837033510209,12.447704900963032
6.75228275032714,2.5145863205194474,-10.047885782718659,7.664173012375832,12.884979667408611
6.7623107503168285,2.0194215872883796,-6.578560827970505,6.538653581142426,9.492603266159445
6.772338750306517,1.6165709406137467,-3.8445793747901917,3.1878692293167115,5.2494382936008765
6.78236575005576,1.1681938728690149,-1.3544116115570068,1.992286121249199,2.6773703006964378
6.7923937500454485,2.4348645052313804,1.170232504606247,1.7915284037590027,3.241540265853248
6.802421750035137,3.922785299420357,3.707470353841782,2.0300603038072587,5.7666910587492195
6.8124487502500415,3.690465188920498,6.352844855189324,1.3119315898418427,7.4631987486040074
6.82247675023973,3.6272070863842965,9.037384591698647,1.6038982701301576,9.869318171318376
6.832504750229418,4.442639608383179,11.097968530654908,1.6590971553325653,12.06874291582244
6.8425317499786615,4.8589014288783074,12.10999759912491,0.5437676302716137,13.05973384805747
6.85255974996835,4.46566828250885,12.452288925647736,-0.251569436788559,13.231212335940379
6.862587749958038,3.4463334104418757,12.443281874656678,-0.3991747945547104,12.917887532591973
6.872614750172943,2.0908339244127276,12.29866152048111,0.11337807795032859,12.475636908927639
6.882642750162631,1.299753447622061,12.213708493709564,0.8291971600055695,12.310629639627694
6.89267075015232,0.7747032297402621,11.981866393089295,1.0792790651321411,12.055294714624159
6.902697750367224,0.38215413451194763,11.754074074029923,0.5065548169612885,11.771189273089343
6.912725750356913,0.4135623072087765,11.648006751537324,0.1886563382484019,11.65687292028888
6.922753750346601,0.5856186743080616,11.61096113204956,0.2785788770578802,11.62905730626549
6.932781750336289,0.809472455084324,11.556169213056565,0.5114571225643159,11.595769958245914
6.942808750085533,1.1280379731953145,11.555333061218262,0.92093237221241,11.646729509130155
6.952836750075221,1.2689026607573033,11.487493665218354,1.0027530455589295,11.600781798710226
6.9628647500649095,1.230288087129593,11.264884318113328,0.2682784402370453,11.335043043557647
6.972891750279814,1.1887095598876476,11.277488576173782,-0.6173186230659485,11.356753994248642
6.982919750269502,1.339459404051304,11.339255053997041,-1.0553464114665985,11.466761213302314
6.992947750259191,1.7081895008683206,10.945701187849046,-1.2928568029403686,11.153374582495918
7.002974750008434,2.144081009030342,9.914386832714081,-1.184324879050255,10.212481337124506
7.0130027499981225,2.2803965628147127,9.165967202782632,-0.8713894987106323,9.485488016156427
7.023030749987811,2.575270771086216,8.92220789194107,-0.570877697467804,9.303962304141857
7.033057750202715,3.108220796585083,8.678394201993942,-0.15265793681144715,9.219483005635274
7.043085750192404,4.077584778964519,8.485251313447952,0.3350676032155752,9.420109223397462
7.053113750182092,5.1578569936752325,8.428190090060234,0.9217843115329742,9.924090047877558
7.0631407499313354,5.934488854408264,8.505483264327049,1.2654754614830017,10.448101821214179
7.073168749921024,5.586403521895409,8.203295651078225,-0.41145804047584533,9.933340906639446
7.083196749910712,3.7417490708827974,7.781152993440628,-3.8440075170993806,9.451106909156136
7.093223750125617,2.536540568768978,7.099961725473404,-3.844470616579056,8.463063799944903
7.103251750115305,2.198027420639992,6.199042618274689,-3.0817831957340243,7.2633905024155085
7.113279750104994,1.9738498502969744,7.154987533092499,-2.617739975452423,7.870355291173844
7.123307750094682,1.2121301436424257,5.831107158064842,-1.4443464660644532,6.128393499767661
7.1333347503095865,0.40623698852956297,-20.381335544586182,8.862068109512329,22.228362923290078
7.143362750299275,1.1028091380000116,-76.7209470319748,23.33656979084015,80.19922313265069
7.153390750288963,-0.5453744816780091,-107.65681088447572,23.90554129600525,110.28037571479364
7.163417750038207,-1.791990041434765,-78.2794358253479,1.3992281806468965,78.31244563251028
7.173445750027895,-2.441183883547783,-29.512076196670535,-28.558198857307435,41.1399166523815
7.183473750017583,-2.9329698032140734,-11.135491282939912,-27.185609421730042,29.523868947173128
7.193500750232488,-0.574254464507103,-8.570486176013947,-2.9465604865550996,9.0810362946186
7.203528750222176,-0.8299859493970871,-6.400280392169953,2.800536215901375,7.035301619061328
7.213556750211865,-3.037865051329136,-2.2401314663887026,2.903377629518509,4.761975925640562
7.223583749961108,-3.6986559686064724,1.1256270200014116,1.094085384607315,4.017973990841265
7.233611749950796,-1.7152008971571924,3.1012555932998658,-1.5727431356906891,3.877269831136946
7.243639749940485,1.3530348846316338,4.136937233805656,-1.7646686339378357,4.696701870789944
7.253666750155389,2.945247201919556,5.463709641695023,-2.3243547606468202,6.627912882839339
7.263694750145078,3.110338950455189,6.911553327441216,-1.4515256774425507,7.716910299922986
7.273722750134766,3.022481319308281,8.296628322601318,0.3611046697944403,8.837410900909001
7.2837507501244545,3.439459131360054,9.4855543756485,1.8430540680885317,10.256825494643952
7.293777750339359,4.378581022024155,10.535108535289766,2.4917909502983093,11.677735472117611
7.303805750329047,4.631589166224003,11.485449478626252,2.3941377711296083,12.613447728432899
7.313833750318736,3.5876609051227573,12.533567562103272,1.7939935898780823,13.159788737076186
7.323860750067979,3.385534939169884,12.896361565589906,0.6050570118427276,13.347062689683623
7.3338887500576675,3.0850488656759265,12.604788987636567,0.42491189897060394,12.983789202245205
7.343916750047356,2.5836600637435914,12.271687145233155,0.5357195226475596,12.552155198307975
7.35394375026226,2.1923211228847506,11.956344466209412,0.6734273350238801,12.174315146079488
7.363971750251949,1.9890720529854298,11.66044728755951,0.9903622108697892,11.870267725988343
7.373999750241637,1.716829346716404,11.428901056051254,1.1228302967548371,11.611547279758486
7.3840267499908805,1.1893911990523338,11.38020661354065,1.1234840154647827,11.49721576401271
7.394054749980569,0.8721518294513226,11.325755002498628,0.7619109106063843,11.384809327605756
7.404082749970257,0.8619732888042927,11.33216588973999,-0.2824860048294068,11.36841150056256
7.414109750185162,0.8850676710158587,11.507329759597779,-1.219745557308197,11.60559185061129
7.42413775017485,0.988628511428833,11.4991272854805,-1.7490600764751436,11.673325396493123
7.434165750164539,1.2862832169234752,11.338780260086061,-1.5600757277011872,11.51765160858839
7.444193750154227,1.76678883433342,10.821413941383362,-0.8385573828220367,10.996714098319407
7.454220750369132,2.068665083348751,9.737823724150658,0.2133637297153473,9.957414834727723
7.46424875035882,2.2357861080765726,9.153393934965134,1.2651907020807267,9.507053568922194
7.474276750348508,2.3475480338931085,8.881570327877998,2.31927937746048,9.474826124588871
7.484303750097752,2.4176500099897384,8.620071734189988,2.807475106716156,9.382568131818466
7.49433175008744,2.8313870027661325,8.550071207284928,2.421208040714264,9.32645261530316
7.504359750077128,3.3241286498308185,8.562415848970414,2.203747751712799,9.445702758636068
7.514386750292033,3.9691633674502373,8.592220276594162,1.586932573914528,9.596815206784788
7.524414750281721,4.337646127045155,8.426407274007797,-0.5539043998718262,9.493488481855271
7.53444275027141,4.413320499658584,7.955138649344445,-2.078094010949135,9.331672062462498
7.544469750020653,4.592798152863979,6.152380667924882,-4.081074104905129,8.694869096526629
7.554497750010341,4.445682791769505,5.152826634049416,-2.4039821434020996,7.2176760769239765
7.56452575000003,3.3550446331501007,5.07186784029007,-0.6672994530200959,6.117634873037035
7.574552750214934,1.0697449607402088,-13.305424586534501,2.119257824420929,13.515544067308397
7.584580208640546,-7.056155555248261,-60.96952571868897,13.59910917878151,62.864999546951054
7.594608208630234,-13.072519462108612,-95.42263947486877,16.224054093360902,97.67082891356198
7.604636208619922,-13.250452573299409,-85.84132641792297,2.02004460811615,86.88146174417439
7.614663208369166,-2.8449952277541164,-40.068073325157165,-19.074250127077104,44.46764571850432
7.624691208358854,-1.195132799372077,-16.017307072877884,-15.005335307121278,21.980503996818165
7.6347192083485425,-0.6071375242620707,-8.569149502515794,-2.9657557260990144,9.088159670512113
7.644746208563447,1.3545338183641435,-4.336622571945191,0.006213178262114525,4.543247274822359
7.654774208553135,2.419808802008629,-0.8747808837890625,0.8734219177812338,2.717274752280648
7.664802208542824,3.069012876749039,2.203007494211197,0.34352625846862794,3.793427519731933
7.674829208292067,3.815851419568062,4.3394578868150715,-0.14272242106497288,5.780310242291132
7.6848572082817554,3.2394136047363284,5.415762473344803,-0.0977432993799448,6.311405344518312
7.694885208271444,3.3816889330744746,5.872230625748634,0.10733850717544556,6.777199577788839
7.704912208486348,4.371950279474259,6.747098633050919,0.9231291711330414,8.092555633229185
7.714940208476037,3.9551350200176243,8.278334723711014,0.9778508504480125,9.22659802473757
7.724968208465725,3.3705833163857464,9.728967531323434,1.5404957413673401,10.410896611119258
7.73499520868063,3.882253862321377,10.803568239212037,1.0125845539569855,11.524509066755625
7.745023208670318,3.533666546344757,11.599914572238923,0.017072663716971876,12.126215766670299
7.7550512086600065,2.7712399113178257,12.303507692813874,0.651115529537201,12.62854004333104
7.765079208649695,2.381777049601078,12.54051171541214,1.0106941491365433,12.80463973181184
7.775106208398938,1.8980366063117982,12.334488580226898,0.7147408372163773,12.500120237783001
7.785134208388627,1.2902641475200654,12.027535486221314,0.8601979279518128,12.127090826655058
7.795162208378315,1.1565895617753268,11.851639544963838,1.0451324951648713,11.953717465734575
7.8051892085932195,1.1916833075881006,11.690913619995118,1.436840980052948,11.839006815511636
7.815217208582908,1.2932699087262154,11.554432590007783,2.082649576663971,11.811642087069405
7.825245208572596,1.4503350381553173,11.414242086410523,2.1332525503635407,11.702100690633232
7.83527220832184,1.5966955237090588,11.290684572458268,1.9823686587810518,11.574056342073726
7.845300208311528,1.4348953190445901,11.223405339717866,1.2217733716964723,11.38053083858614
7.855328208301216,1.223806156218052,11.165873415470124,0.291336350440979,11.236516698131496
7.865355208516121,1.325132556259632,11.07037201166153,-0.7260721564292908,11.17301631362722
7.875383208505809,1.6718724444508553,10.849622079133988,-1.6705822563171389,11.104066903872088
7.885411208495498,2.188374837040901,10.132314898967744,-2.3679872685670853,10.632974811563004
7.895438208244741,2.456903538107872,9.277009921073914,-2.4738715732097627,9.91056651418102
7.905466208700091,2.806749467253685,8.750970427393913,-2.2199047780036927,9.454380107466342
7.915494208689779,3.2354322355985645,8.38439502954483,-1.4844291293621064,9.108766744335103
7.925521208439022,3.277798821330071,8.191667878031732,-0.29497097969055175,8.828045968160186
7.935549208428711,3.0359503805637362,8.16277269244194,0.7622617435455322,8.742362135452524
7.945577208418399,3.5760006800293924,8.054726087450982,1.1677100157737732,8.889878508077176
7.9556052084080875,4.613197041749954,7.803347269892693,1.7157315319776536,9.225917312136211
7.965632208622992,4.657707216739655,7.5320434802770615,1.656113321185112,9.009363287061946
7.97566020861268,3.778920990228653,7.777395572662354,1.1505987238883972,8.72307303462904
7.985688208602369,3.2251566311717035,7.464857218265534,-0.2141683248616755,8.134592593120807
7.995715208351612,4.266991004347801,0.7492598748207092,-0.7308879232406617,4.393495163026864
8.0057432083413,4.937349720597267,-27.500615301132203,3.272120590209961,28.131264410993413
8.015771208330989,-6.227008681297303,-67.92017177581788,13.123165705204011,69.45604976745943
8.025798208545893,-13.070958255529405,-92.17857616424561,11.534919261932373,93.81254828520926
8.035826208535582,-9.442582018375397,-71.94466529846191,-4.153056253194809,72.68043131630175
8.04585420852527,-4.302635046243668,-30.474427320957187,-22.99415450334549,38.417893359802925
8.055881208274513,-4.167282528877259,-14.055361568927765,-13.074901617765427,19.643637260523374
8.065909208264202,-2.0351719397306445,-9.778570046424866,-1.2459352362155915,10.065520929884762
8.07593720825389,-0.0003841986134648323,-5.290343790650368,2.317795938849449,5.7758043236443255
8.085964208468795,-1.9747842353582383,-1.3475844025611878,5.4008035415411,5.9063047155195525
8.095992208458483,0.0433074027299881,0.7182456582784653,5.320573310852051,5.369008540961565
8.106020208448172,1.0531595528125763,2.730613456964493,5.923567425012589,6.607120850544981
8.11604820843786,0.6358955195546151,5.194028454422951,2.9714322030544285,6.017616142169073
8.126075208652765,2.4579554522037506,7.714290082454681,0.7002579418569803,8.126633845966643
8.136103208642453,5.116593192815781,9.4798439848423,-0.5787199831008911,10.788043599122124
8.146131208632141,5.868184937238693,10.992709293365479,-1.6450930738449097,12.569072491146327
8.156158208381385,6.071044728755951,12.482006814479828,-1.8871397352218628,14.007832615916339
8.166186208371073,6.040305331349373,13.85858054280281,-0.6690138566493988,15.132518716250418
8.176214208360761,6.098093948364258,15.021368372440339,0.1749615561962128,16.21292290519431
8.186241208575666,6.344392120242119,15.134900250434876,-0.6838143289089204,16.42510636198211
8.196269208565354,6.440458949804307,14.568800897598267,-1.732995436191559,16.022881896208162
8.206297208555043,5.553110060691834,13.805818777084351,-0.7864738941192627,14.901550410543958
8.216324208304286,3.971071313917637,12.716063840389252,0.9075685608386994,13.352579064199448
8.226352208293974,2.5148555848002436,11.488157908916474,1.6484446978569032,11.875169079827607
8.236380208283663,1.6097913864254951,10.588495953083038,1.65401007771492,10.837131732771734
8.246407208498567,0.852703624740243,10.201493307352067,1.4115973806381226,10.333933246185529
8.256435208488256,0.49616029478609563,10.03731518626213,1.3465962231159212,10.139388175555796
8.266463208477944,0.11443567480891943,9.864282041788101,1.5541244316101075,9.986613964329434
8.276491208467633,-0.2360310459136963,9.708214593529702,1.8522762966156008,9.886155406813215
8.286518208682537,-0.5199568910524249,9.600437545180322,2.350222842693329,9.897590799673342
8.296546208672225,-0.7814435344934464,9.445792139768601,2.299797624349594,9.753087319319967
8.306574208661914,-0.9940637907385826,9.159279742240907,2.039745047092438,9.436160663841006
8.316601208411157,-1.2022226214408875,8.855705169439316,1.6697542905807496,9.091585817141652
8.326629208400846,-1.3248831725120545,8.546348869800568,1.3168420815467836,8.748112224524757
8.336657208390534,-1.454312460422516,8.227624745965004,1.2272299933433533,8.444816584717362
8.346684208605438,-1.5979674392938614,7.78338546037674,0.9502146434783936,8.00234322124015
8.356712208595127,-1.6632869777083397,7.328329410552979,0.5831165045499802,7.537304583050131
8.366740208584815,-1.3318764424324037,7.159457144737244,-0.07275574405677616,7.282651636837287
8.376767208334059,0.5065624183416367,6.65172586798668,-4.3496887600421905,7.963783950846271
8.386795208323747,2.009951729178429,6.0905966484546665,-4.907034246325493,8.075534569451472
8.396823208313435,1.9694001191854478,5.350105258226395,-0.3559089070558548,5.712165460985096
8.40685020852834,3.5190566933155063,1.9779581040143968,-0.43019602775573734,4.059697882146121
8.416878208518028,5.0813824295997625,-2.1749601548910142,0.9911942696571351,5.615457697410771
8.426906208507717,5.80906023144722,-8.868080216646195,2.818086048960686,10.969486609718803
8.436934208497405,3.8824482822418216,-26.611693511009218,7.247886925935745,27.852962159873105
8.446961208246648,-3.704737657606602,-59.705820794105534,12.958505773544312,61.2081121232514
8.456989208701998,-3.668508601784706,-76.47367062091828,10.352170207500459,77.25831787971525
8.467017208691686,6.317289690971375,-51.1490802526474,-5.0963232350349426,51.78908253915467
8.47704420844093,4.393975571393967,-21.839289650917053,-20.521006815433502,30.28817119764295
8.487072208430618,1.074317483380437,-12.044595322608949,-12.569428535699846,17.44181665580096
8.497100208420306,0.1740315565466881,-10.412780106067657,0.5930468308925629,10.43110641608186
8.507127208635211,-0.8817924262583257,-9.739757983088493,3.3605187964439396,10.340866986544
8.5171552086249,-1.4056642109155655,-8.038731029033661,2.271906405687332,8.471047582631122
8.527183208614588,-1.0299996817857027,-6.553530067205429,1.2798900175094605,6.756313650443162
8.537210208363831,-1.2413486802577973,-4.440794227123261,0.911900836005807,4.700336482459224
8.54723820835352,-0.5500531312823296,-1.7681067967414856,0.2796734941005707,1.8726925415613092
8.557266208343208,0.6987519183754921,1.3389544969797136,-0.2628698753938079,1.5330211870046624
8.567294208332896,1.5724501901865007,4.41021387398243,-0.7657361590862275,4.744358532005861
8.5773212085478,2.0460790434479716,7.261674075722695,-0.7723014128208161,7.583851218629295
8.587349875364453,2.733311362266541,9.737869917154313,-0.4170034667104483,10.122795731306784
8.597377875354141,3.4469368430972103,11.920716211795808,0.3469000653550029,12.41391107821446
8.607404875103384,4.324701853394509,13.475191476345064,1.0504066105931997,14.19109528868348
8.617432875093073,5.3937763577699664,13.95981104850769,1.256635640859604,15.018264914481774
8.627460875082761,6.326873862147331,13.865587846040727,0.13274703461676837,15.241439596015692
8.637487875297666,6.254154964685441,13.593576543331148,0.11835173785686494,14.963749018730436
8.647515875287354,5.613130559921265,13.21702053308487,1.1098120558261872,14.402379985751184
8.657543875277042,4.6774284133315085,12.751116728782655,1.8187074315547944,13.703175220162457
8.667570875026286,3.5086729153990746,12.225297675132753,1.9438776075839996,12.866520470823795
8.677598875015974,2.4378851768374443,11.622132822275162,1.747595933675766,12.002972424422603
8.687626875005662,1.6522971358895302,11.171690225601196,1.3455659437179566,11.373095270459824
8.697653875220567,1.0998168984800578,10.879262784719467,1.1095512700080872,10.990862567148259
8.707681875210255,0.6718553110957146,10.895746085643768,0.8935217946767807,10.952947252654486
8.717709875199944,0.46154733628034594,10.929520772695541,0.29269465863704686,10.943176889167308
8.727736874949187,0.4162546576559544,10.971736500263214,-0.7974327456951141,11.008549802545982
8.737764874938875,0.34400638796389105,11.002799248695375,-1.9539979684352875,11.180252222678194
8.747792874928564,0.1712656042724848,10.947178194522857,-2.4976241326332094,11.229789340755923
8.757819875143468,0.27114576861262324,10.316484650373459,-1.965554405450821,10.505559465826408
8.767847875133157,0.5940013888478279,9.61178055882454,-0.40885953783988954,9.638792937014115
8.777875875122845,0.6079768189787865,9.307910116910936,1.1974442768096925,9.404291539131101
8.787903875112534,0.5170540042966605,9.194855371713638,2.280507075190544,9.487540390959317
8.797930875327438,0.627500014230609,9.179416968226434,2.285242150425911,9.480389434538331
8.807958875317127,1.3004570138454439,9.132156262993814,1.262860586643219,9.310332073449034
8.817986875306815,2.883949670791626,8.97742256462574,0.8505558693408967,9.467561824164697
8.828013875056058,5.370852348804474,8.822667231559754,1.6084251844882966,10.45335083146036
8.838041875045747,7.657848663926125,8.083745234012603,3.23308574795723,11.594931074467876
8.848069875035435,8.612901878356935,7.100951659083367,2.543116639852524,11.448713267207719
8.85809687525034,8.629481073617935,6.004596970081329,-0.7286602071672679,10.538219682211464
8.868124875240028,11.258100378513337,-2.6632769215106964,-5.789843941926956,12.936775524264226
8.878152875229716,5.353847476243973,-17.494302052259446,-2.0754329431056977,18.412542165488755
8.88817987497896,-3.9049214708805087,-35.19865480184555,4.626647976636887,35.71553699796416
8.898207874968648,-10.56943052172661,-63.955212264060975,5.541220917105675,65.05910517788321
8.908235874958336,-15.181548167467119,-73.6673719739914,-7.421573789119721,75.58069102504214
8.918263874948025,-10.926722295284272,-48.41005265235901,-14.794959504604341,51.78626540565864
8.92829087516293,-4.810140620470047,-23.543051347732543,-2.1071820084750654,24.12162796262947
8.938318875152618,-2.022802739739418,-14.57380845308304,3.2344113117456437,15.064827920842646
8.948346875142306,-0.18580236710608006,-9.63038230597973,3.490567304491997,10.245137675313993
8.95837387535721,1.6779070633649826,-7.934968678951264,3.3554749882221224,8.77714717011239
8.968401875346899,3.6631510904431344,-8.195425883531572,2.470001885890961,9.31045598454656
8.978429875336587,5.135610677003861,-8.047590730190278,-0.015613235235214235,9.546646393342273
8.98845687508583,6.6731939202547075,-5.9760473549366,-3.194533885717392,9.510505025116478
8.998484875075519,5.970443383455277,-3.1200894749164583,-2.7659142673015595,7.282268483143949
9.008512875065207,3.6656338182091717,-0.5611958777904511,-1.121996556892991,3.8743629639112895
9.018539875280112,2.278797349333763,2.4176236975193026,0.38039521895349027,3.3440278444923517
9.0285678752698,1.9245867660641671,5.614863674640656,1.1422348666191102,6.04445438360063
9.038595875259489,1.9743924719095232,8.53621389091015,0.9348446524143219,8.81130567785774
9.048623875249177,2.124529966413975,10.928170065879822,0.7019395279884338,11.154875511090896
9.05865087499842,2.331195125877857,12.585385587215423,0.5547884623333812,12.811486694827598
9.068678874988109,2.923131570518017,13.290808886289597,0.39520457167178397,13.614201617572142
9.078706874977797,3.8917064711451532,13.248305475711824,0.5017186214402318,13.817188527715356
9.088733875192702,4.705087205171585,13.110913449525833,0.2955358572676778,13.932739807093137
9.09876187518239,5.080546862483025,12.827760862112045,-0.5016981561854482,13.806342969712853
9.108789875172079,4.475803261399269,12.265526518821718,-0.15440274596214296,13.057557038995917
9.118816874921322,3.4894727057218553,11.897499257326126,0.4177958375215531,12.405702789600591
9.12884487491101,2.7464833849668504,11.569568692445756,1.0309307777881622,11.935698931428812
9.13887287536636,2.018340144753456,11.24978329896927,1.5260718297958376,11.530837629738254
9.148899875115603,1.4751338106393814,10.922173161506654,1.734366023540497,11.156966963867886
9.158927875105292,1.257069504261017,10.769682455062867,1.5942339920997621,10.95937342839445
9.16895587509498,1.1734051307290794,10.702383341789247,1.5677718329429626,10.880064214681761
9.178982875309885,1.0222245660424234,10.67925175666809,1.4828737699985506,10.83006351613271
9.189010875299573,0.7850974595546723,10.64123432993889,1.282731764316559,10.746983151789895
9.199038875289261,0.5591824621707201,10.711446526050569,1.01558300614357,10.774004851901996
9.209065875038505,0.37198787301778796,10.817150151729585,0.8078331881761551,10.853649471152757
9.219093875028193,0.2565373042970896,10.750870792865754,0.878030766248703,10.789716039816303
9.229121875017881,-0.00013974845409393311,10.52793166279793,0.9458982288837433,10.570339094630702
9.239148875232786,-0.14496212393045427,10.35089434504509,0.8725250279903413,10.388615291949662
9.249176875222474,-0.10331353973597289,10.036659128665924,0.5770511877536774,10.053764878184378
9.259204875212163,0.17325811609625819,9.694668349027634,-0.08201544044539333,9.69656327287678
9.269232875201851,0.8382703576236964,9.345986015796662,-1.8531206345558167,9.564737732220047
9.279259874951094,1.4214394140243531,9.117126579880715,-2.0562055438756945,9.453595523396082
9.289287874940783,0.8661927857995033,9.255061812400818,0.21019219994544985,9.297883622333037
9.299315874930471,0.8079477936029434,8.930732547640801,-0.4982821762561798,8.981038280836644
9.309342875145376,2.18317900121212,7.933408641815186,-0.5403763182833791,8.24604449386025
9.319370875135064,4.360759293437004,7.318779153227807,-0.9596222287416458,8.573308855448648
9.329398875124753,6.108106720447541,-2.2706521779298785,-0.7731235313415528,6.5622061089414245
9.339425875339657,10.264859583377838,-48.67843049526215,10.365782525539398,50.817382706268035
9.349453875329345,-1.2422858427464962,-94.44794137001038,18.821974346637727,96.31315393783706
9.359481875319034,-12.998604809045792,-97.14023334503175,10.24940188407898,98.5405444489238
9.369509875308722,-6.191261143684388,-54.50742154598236,1.9227527868747711,54.89159950684761
9.379536875057966,1.5928865012526512,-19.155215352773666,-4.940014296770096,19.84598961677905
9.389564875047654,1.8494213935732842,-3.8576332837343217,-21.78666003227234,22.20270815474082
9.399592875037342,0.8901052665710449,0.2763943755626679,-21.669975335597993,21.690009503959317
9.409619875252247,2.3887647646665573,-1.6389184141159059,-7.970919699668885,8.481026560954174
9.419647875241935,2.8198808518052103,-2.303804721236229,-0.83723708152771,3.736336460043856
9.429675875231624,1.833129004240036,-0.6240663099288941,2.470054510831833,3.1386286801491856
9.439702874980867,1.315616212785244,1.7681348633766176,3.772638741731644,4.369204731990223
9.449730874970555,1.5614077234268189,3.8140908229351047,3.7059120708704,5.542478431297468
9.459758874960244,2.955031932592392,5.802478605508805,3.0235946291685107,7.1793520718491575
9.469785875175148,4.605446265041828,8.07363656759262,1.0780711034685373,9.357135246959421
9.479813875164837,5.481671703457833,10.062459383010864,0.10202463068068028,11.459154529218077
9.489841875154525,4.704881967902184,11.200111202001573,1.3217174899578095,12.219874892663697
9.49986887536943,3.6150653430819513,11.640925773382188,2.516204245090485,12.446330145836455
9.509896875359118,1.993797918856144,11.752374873161317,2.3714663618803025,12.153904640323553
9.519924875348806,0.41506522435694937,11.820048208236695,1.1888418531417848,11.886932478031984
9.52995187509805,-0.6305152040719987,11.932321765422822,0.13018591761589052,11.94967784123466
9.539979875087738,-1.24092212587595,12.012614561319351,-0.3675612384080887,12.08213133454898
9.550007875077426,-1.4318673384189606,12.004773445129395,-0.5975117647647858,12.104621012355043
9.560035875067115,-1.3245788249373436,11.965308247804643,-0.4619499170780182,12.047261442101378
9.57006287528202,-1.1062163105607032,11.992812380790712,-0.01842107732780278,12.043737072133691
9.580090875271708,-0.6854895561933518,12.053258557319642,0.21355140706524253,12.074623885848737
9.590118208434433,-0.3067820264026523,12.069644794464113,-0.0948968199826777,12.073915938199221
9.600145208649337,-0.03844394456595183,11.885901889801026,-0.5895958042144775,11.900578342383058
9.610173208639026,0.33705605853348974,11.825890746116638,-0.6491976428031921,11.848491731233242
9.620201208628714,0.858996325135231,11.840052702426911,-0.35188368380069734,11.876386016367428
9.630228208377957,1.5221153113245964,11.321030452251435,-0.3290929913520813,11.427636138709097
9.640256208367646,2.089151095747948,10.306985263824464,-0.5884111583232879,10.533030201266817
9.650284208357334,2.5655032896995547,9.536099461913109,-0.992792313694954,9.924950209199565
9.660311208572239,3.094207067191601,9.348181645274163,-1.122723292708397,9.910758045663773
9.670339208561927,3.4651669996976855,9.457978321909906,0.34107978343963624,10.078545117832375
9.680367208551615,3.682084374725819,9.582253289222718,2.528898550271988,10.572258572272407
9.690394208300859,5.283502548336983,9.851867233514787,2.3258820533752442,11.418599497806143
9.700422208290547,8.227375069856643,9.875725042819978,0.7503766930103303,12.875663510782402
9.710450208280236,8.093249298334122,8.669794117212296,-0.3274709737300873,11.864790410220923
9.72047720849514,5.36195171713829,7.4133280456066135,-1.343308918476105,9.247293538066005
9.730505208484828,4.1570715361833575,6.483598537445069,-3.5581535160541535,8.484029125098182
9.740533208474517,4.405334372520447,6.129989340305329,-1.1441328728199005,7.6349708759519315
9.750561208464205,4.613424790799618,5.660532183051109,0.5023623267933727,7.319677643387248
9.76058820867911,2.0024803031980993,0.7145367693901062,2.2781319361925125,3.1161475058486956
9.770616208668798,-5.224297150969505,-35.08871077537537,11.220716789960862,37.207732931207744
9.780644208658487,-12.380796189308167,-77.39073389053345,19.670438082218173,80.8055439975682
9.79067120840773,-14.699620653390886,-93.8484661102295,14.986051189899445,96.16753698032812
9.800699208397418,-11.288557355403901,-64.25339219570161,2.7371716940402986,65.29488528746757
9.810727208387107,-9.910317170619965,-26.4200030708313,-23.013840909004212,36.41246794808031
9.820754208602011,-4.509308976531029,-13.878977969884874,-21.02223949670792,25.590905618819342
9.8307822085917,0.14675838857889176,-12.754967705011369,-1.165539529323578,12.808950838180195
9.840810208581388,2.2171986865997315,-9.278076453208923,1.6419741690158844,9.679604943341689
9.850837208330631,2.4858188965916637,-5.046071678996086,0.4269648563861847,5.64131491452192
9.86086520832032,3.540573862195015,-2.168077397346497,-1.0703357487916947,4.2874049831669465
9.870893208310008,5.846032760739327,-0.049656309485435486,-2.351859478354454,6.30157185110468
9.880921208299696,7.64577825665474,1.7332509595155716,-2.3091098999977113,8.17276407152828
9.890948208514601,7.228753666877747,3.7024891108274463,-1.6060670024156571,8.279055284779943
9.90097620850429,6.073632121682167,6.225524073243141,-0.16914953347295525,8.699124593930899
9.911004208493978,4.9969462966918945,9.00012437939644,2.2879125738143924,10.545437642983195
9.921031208243221,5.44335665345192,11.705343378782272,4.109465260505677,13.54743149084668
9.93105920869857,6.657995837330819,13.224865157604219,3.151227067708969,15.13790603217599
9.94108720868826,6.2311718988418585,13.965005714893342,1.1252171301841736,15.333460191358638
9.951114208437502,5.8636381423473365,14.398349883556367,-0.5243894459679723,15.555375788605712
9.96114220842719,5.424573642611504,14.26928546190262,-1.1869467705488206,15.311673632673116
9.97117020841688,4.774147499799729,13.849184067249299,0.35959206819534306,14.653384937750896
9.981197208631784,3.948972931802273,13.161004207134248,2.2612340676784517,13.92550173118161
9.991225208621472,2.639978106021881,12.271266145706177,2.2414324718713763,12.750587309806118
10.00125320861116,1.8312736827135088,11.539731520414353,1.9496137261390687,11.845672650609314
10.011280208360404,1.4824191489815712,11.018829975128174,1.6960176444053652,11.24671758355231
10.021308208350092,1.3840432539582253,10.680629360675812,1.5452881193161012,10.880226773402152
10.03133620833978,1.2809337455034258,10.551677205562592,1.5328230249881745,10.739098171480347
10.041364208329469,1.1461233381181957,10.49267646074295,1.3341147565841676,10.63906575784472
10.051391208544374,0.8667475403845311,10.477969543933868,0.8055381560325623,10.544571531512918
10.061419208534062,0.6753368163853884,10.418301047086716,0.08100732564926148,10.440480770065264
10.07144720852375,0.631141587048769,10.385927352905274,-0.7529260790348054,10.43229238294341
10.081474208272994,0.5762145242840052,10.427641389369965,-1.2348951083421709,10.51630610299571
10.091502208262682,0.4542400708794594,10.436941970586778,-1.2163693749904634,10.517397310922654
10.10153020825237,0.26289702840149404,10.343013467788698,-0.8483035218715668,10.381072261940018
10.111557208467275,0.12441712774336339,10.022520561218263,-0.17891544342041016,10.024889463610712
10.121585208456963,0.01995925135910511,9.769062473773957,0.6002587866783142,9.787506863302722
10.131613208446652,-0.05012934923171997,9.644084086418152,1.0891392248868943,9.705518794415138
10.141640208661556,0.10441921167075635,9.556125006079673,1.0719805705547334,9.616629911108882
10.151668208651245,0.4376629221439362,9.459073505401612,0.49252091467380527,9.48199331709327
10.161696208640933,1.3560657888650895,9.152103454470636,-1.6050642049312593,9.390215288640366
10.171723208390176,1.5079413682222367,9.113634622693063,-0.8151591646671296,9.273440983242761
10.181751208379865,1.321473368704319,8.964252296090127,-0.2968894511461258,9.065994398760331
10.191779208369553,3.1081202244758606,7.764155137538911,-1.054429568052292,8.4293735261614
10.201806208584458,5.210141041874886,6.372264043092728,-0.25493743300437927,8.235065986734318
10.211834208574146,7.736710646152496,-6.345635238289834,-0.5585950362682343,10.021766641379081
10.221862208563834,8.724557384848595,-35.76278247356415,5.516120574474335,37.22260197789943
10.231890208553523,-1.267059618383646,-78.6360692024231,16.578449156284332,80.37463403408017
10.241917208302766,-9.692569783329963,-94.16259724617005,13.077938661575319,95.5592649029129
10.251945208292454,-0.9914420454204083,-58.77766184806824,5.6340635919570925,59.05539062789696
10.261973208282143,2.262706688940525,-21.448120279312135,-0.7404960680007935,21.579852629310086
10.272000208497047,-0.047629079818725585,-5.680188767910004,-18.76276777982712,19.603781975120363
10.282028208486736,0.31572621982544663,-0.10078494787216187,-29.461072103977205,29.46293621089634
10.292056208476424,3.244461506009102,-3.416812280416489,-9.957725225687028,11.016234760291901
10.302083208691329,2.4637766477465632,-5.79992921948433,-0.6588567314296961,6.3358871923006665
10.312111208681017,0.4241002688929439,-4.177440311908722,0.9673808991909028,4.308908725159365
10.322139208670706,-0.42870995789766314,-1.8834980893135072,3.5230392318964006,4.01785548644167
10.332166208419949,-1.5233844494819642,-0.05244601607322693,4.8548308897018435,5.088500145733378
10.342194208409637,0.4071594598889351,0.6698459154367448,5.358943909406662,5.4159719534328365
10.352222208399326,1.5176907232403756,2.4497553169727326,5.582588213682175,6.282513621790979
10.362250208389014,1.9829697525501253,5.000260498523712,4.906009814143181,7.2803644406784
10.372277208603919,2.3633632904291155,7.523406558036805,3.618929475545883,8.676622777845878
10.382305208593607,2.8826232299208643,9.902759059667588,2.6773757278919224,10.655632053886466
10.392333208583295,3.823032385110855,11.682949712276459,2.4582127296924594,12.5359363599856
10.402360208332539,4.701438834965229,12.468429579734803,2.513533236980438,13.560350756419627
10.412388208322227,5.463718412518501,12.626546477079392,2.3998832452297214,13.965719974991408
10.422416208311915,5.9031682437658315,12.529613674879075,1.887396427989006,13.978586460451133
10.43244320852682,4.916622510552407,12.135503153800965,0.6950591093301773,13.112083010439136
10.442471208516508,3.2800529229640962,11.80448292016983,-0.7891174203157425,12.277103505838515
10.452499208506197,1.9538845324516296,11.872210049629212,-1.2948156201839447,12.101387677408855
10.46252620825544,1.255336389541626,12.020233483314515,-0.8690295624732972,12.116810422910616
10.472554208245128,0.8701975437998772,12.017487630844117,-0.7882689893245698,12.074709964312081
10.482582208700478,0.5708597172796727,11.796479251384735,-1.0888357543945313,11.860369591425517
10.492609208449721,0.40925130128860476,11.658927011489869,-1.1889096808433532,11.726532817335974
10.50263720843941,0.22275625839829447,11.549181790351868,-0.9785198450088501,11.592701215175301
10.512665208429098,0.06353939015418292,11.29723462343216,-0.5956149280071259,11.31310322296409
10.522693208418787,-0.04617305003106594,10.741445081233978,-0.2860411302186549,10.745352200458186
10.532720208633691,0.17966162122786045,9.46469034075737,-0.06652145186439157,9.466629106927462
10.54274820862338,0.5651105886697769,8.848024266958237,0.31218810617923737,8.871546923719016
10.552776208613068,0.6323380735516548,8.792825966477395,0.782063924074173,8.850156151015668
10.562803208362311,0.9315313276648521,8.645891869068146,0.9171632570028305,8.744162925405483
10.572831208352,1.4121157363057137,8.548329906463623,1.026910817027092,8.72482440330978
10.582859208341688,1.9053666758537293,8.626662130951882,0.9562302589416505,8.886174542465884
10.592886458616704,2.8640758618712425,8.487696619033814,-0.23640409827232362,8.96101620001836
10.602914458606392,4.596664039492607,7.9486336219310765,-1.396030923128128,9.28757229236939
10.61294245859608,5.778006838560104,7.414019186496735,-0.30387745857238774,9.40454066044788
10.622969458345324,6.044628177881241,6.556051971316338,0.4121807563304901,8.926883007821145
10.632997458335012,5.878194200992585,5.9520778638124465,0.08312750777229667,8.36584174748826
10.6430254583247,6.880840242505074,-2.194430213570595,-0.5729067178443075,7.24497815817687
10.653052458539605,4.714876028895378,-34.20108472824097,4.382472344040871,34.80158496968856
10.663080458529294,-10.161527588367463,-72.34602753639221,10.561823294162751,73.81569246794811
10.673108458518982,-18.634228438138962,-83.21185692787171,6.437515461444855,85.51543257322434
10.68313645850867,-10.987630401849747,-53.83014557361603,-16.950012813806534,57.49535223574643
10.693163458257914,-6.219588564634323,-23.71308837890625,-29.409090356826784,38.28692254536986
10.703191458247602,-4.50591993033886,-13.741688854694367,-7.785639562010766,16.424174572483192
10.713219458702952,-1.7173297221958639,-10.067770993709564,2.8403504920005798,10.600793605854465
10.723246458452195,-0.47361865717917684,-7.171152745485307,3.467826898097992,7.979697345556509
10.733274458441883,1.1421588528156281,-5.276864789128304,4.36251521229744,6.9412799846522395
10.743302458431572,2.847793997526169,-3.540890781283379,5.077158985733986,6.813617361119059
10.753329458646476,2.78082495957613,-1.8659517645835877,5.358107172846794,6.318550143764506
10.763357458636165,5.132322202920914,0.18635368645191194,6.536017656326294,8.312339363552132
10.773385458625853,7.568619568347931,2.7827027928829193,5.9813829392194755,10.040138388960754
10.783412458375096,8.964603129029275,4.954253436326981,3.929353476762772,10.97034890592395
10.793440458364785,9.148381116986275,7.03555873811245,1.6385243117809296,11.656617251130736
10.803468458354473,7.866123561859132,9.34331442296505,-0.0016530444100499155,12.213657397740366
10.813496458344162,6.964256621003151,11.178522112369539,-0.48498915273696186,13.179356637491585
10.823523458559066,5.959492133259774,12.5860404753685,-1.0358330833911897,13.964129457672863
10.833551458548754,3.8468893173336984,13.173121976852418,-1.1617826932668687,13.772415876062656
10.843579458538443,1.2649784481525421,13.404533722400666,-1.9666203528642656,13.606957426315665
10.853606458287686,-0.7797148051857948,13.48384067773819,-4.154891109466553,14.13099553221843
10.863634458277375,-1.580026135146618,13.51222540140152,-6.1612380301952365,14.934442472042635
10.873662458267063,-1.5585358634591104,13.17115965127945,-6.066593828201294,14.584650879385151
10.883689458481967,-1.2159878441691399,12.31917238354683,-3.7418964207172394,12.932224227722257
10.893717458471656,-0.8290895712375641,11.494937170743944,-1.2819423902034761,11.595876265650917
10.903745458461344,-0.5407095730304718,10.868722593784334,0.3994770956039429,10.889494001693421
10.913772458676249,-0.3715062817186117,10.622978153228761,1.2620723819732667,10.704135110258633
10.923800458665937,-0.1705547655746341,10.57664130806923,1.9245198154449463,10.75166065348311
10.933828458655626,0.34766287118196487,10.672164931297303,2.7508179259300234,11.026466934355193
10.943855458404869,0.9516279155015946,10.744825941324235,3.2705944669246674,11.271808566773764
10.953883458394557,1.6033690971136094,10.6961572265625,3.720889713764191,11.4378141329067
10.963911458384246,2.198641378283501,10.32694298028946,3.863464711904526,11.24304828810148
10.97393845859915,2.0106440395116807,9.29447555422783,3.2889500463008883,10.062164662180061
10.983966458588839,1.749842726290226,8.85419775724411,2.5795576572418213,9.386846392594924
10.993994458578527,1.7031989023089409,8.87245276451111,1.9947495532035828,9.252044657226483
11.004022458568215,1.5619158464670182,8.877212398052215,1.5658866906166078,9.148578151790964
11.014049458317459,1.556156631410122,8.846474170088769,0.42075043559074404,8.992149889352339
11.024077458307147,1.7581030878424646,8.781721519231796,-1.1282611906528472,9.026767562264656
11.034105458296835,2.4392969870567325,8.558495290875435,-2.211966598033905,9.170104016085027
11.04413245851174,3.5444856494665147,8.192201728820802,-1.0342087268829345,8.985829698794063
11.054160458501428,3.3133671417832375,7.854970582723618,0.9459227871894836,8.577513310454641
11.064188458491117,2.449858812689781,6.994687870144844,0.07268090883269906,7.4116630466700215
11.07421545824036,2.359827771484852,3.441839532852173,-1.441191893219948,4.414983641425881
11.08424345869571,4.124877936244011,-11.091557643413545,-1.3752405631542206,11.913377168234993
11.094271458685398,3.4363150835037235,-32.84867988109589,1.8475406366586686,33.07956223543375
11.104298458434641,-6.798312056064606,-64.22615352630615,7.46814452290535,65.01529840130924
11.11432645842433,-16.160563856363297,-81.25691287994385,13.909340221881868,84.00785356347609
11.124354458414018,-6.727793465852738,-57.06153679847718,7.084729728698731,57.89193019801502
11.134382458403707,1.4157813557982446,-24.481786737442018,0.9059277590364219,24.53941775612475
11.144409458618611,2.061947217285633,-9.446015503406525,-6.455624288320542,11.625571821180346
11.1544374586083,4.20465793132782,-3.2031877648830416,-25.341039755344394,25.886441548782237
11.164465458597988,6.117629495859147,-4.730085806250573,-24.074649789333346,25.28612000410793
11.174492458347231,4.670205640196801,-7.4903604340553285,-4.204248626232148,9.777117502871818
11.18452045833692,1.3578070896863939,-7.544923726916314,4.045042392611504,8.667864909873225
11.194548458326608,-2.1539613416790964,-5.193567109107971,4.997245674133301,7.522310356924934
11.204575458541512,-1.8271718609333039,-3.073091894388199,6.060558332204819,7.036534523385654
11.2146034585312,0.112218602495268,-0.1964418876171112,6.527183098196984,6.531102634880647
11.22463145852089,0.49639820337295537,3.7878017413616183,4.958634170293808,6.259545194579185
11.234658458270133,0.5593981513381004,8.01412653028965,2.8240133714675903,8.51552710391087
11.244686458259821,1.6574067252874376,11.412118377685548,1.4225381058454514,11.619253744622268
11.25471445824951,3.4539710435271265,13.099344148635865,1.4219071912765504,13.621473971436737
11.264741458464414,5.368342723846435,13.635281224250795,1.5960302567481996,14.740668582039858
11.274769458454102,5.925395849347115,13.805652716159821,1.3916689002513887,15.087846275018777
11.28479745844379,5.737497328519821,13.841783831119539,1.3793382918834687,15.047140238120678
11.294825458433479,5.607731240987778,13.805993024110794,1.2772979468107224,14.956055064684442
11.304852458648384,5.299544969201088,13.826368231773378,0.7778644537925721,14.827633272699007
11.314880458638072,4.582358534038067,13.702823581695558,0.12838672935962678,14.449286037649717
11.32490845862776,3.6096224623918536,13.338495268821717,-0.364213707447052,13.823077876582897
11.334935458377004,2.627991606295109,12.780620609521867,-0.5176218420267106,13.058274595773968
11.344963458366692,1.8125877356529236,12.084561041593552,-0.5358978992700577,12.231487089715712
11.35499145835638,1.262188449203968,11.604386522769929,-0.6431019204854965,11.690529771198584
11.365018458571285,0.924765514433384,11.326597001552582,-0.7635387754440308,11.389907038859963
11.375046458560973,0.6210473924875259,11.085607516765595,-0.6793599200248719,11.123754931695576
11.385074458550662,0.38604750305414204,10.854317393302917,-0.5101046615839004,10.873152510424113
11.395101458299905,0.16137728651985528,10.61531830072403,-0.36723788738250734,10.622894564111055
11.405129458289593,-0.2129833683371544,10.14473321557045,-0.1668479597568512,10.148340365397765
11.415157458279282,-0.390498403608799,9.865858451128007,0.07831409811973572,9.873894119286435
11.425184458494186,-0.5380806648731232,9.750529139041902,0.2558250403404236,9.768715153206212
11.435212458483875,-0.7164882776141167,9.64576106786728,0.3890807461738587,9.680157326065821
11.445240458473563,-0.8057483634352685,9.507125923633575,0.3552721452713013,9.547821324794985
11.455268458463252,-0.8795791820436717,9.37613484442234,0.0219223877764307,9.417326836706964
11.465295458678156,-1.0069469609856605,8.964307259917259,-1.6268520998954774,9.166209390330216
11.475323458667845,-1.1310927048325539,8.499907944202423,-1.3752832478284835,8.68442339931665
11.485351458657533,-1.0775947015732528,8.58040422320366,0.041947934227064256,8.647907643101645
11.495378458406776,-1.063144916072488,8.460435730218888,0.22216846704483034,8.529865689768172
11.505406458396465,0.4245903021097183,4.303037334680558,-0.5892332768440247,4.363897693901717
11.515434458386153,7.3959466123580935,-18.018993762731554,2.0104809021949768,19.58127156168109
11.525461458601058,4.893300306200981,-53.91043953895569,10.756284145116807,55.190375318351975
11.535489458590746,-3.6691766461730007,-86.67188364028931,17.35538273334503,88.46856832139628
11.545517458580434,-3.3056435546278955,-80.51051814079285,11.542151098251344,81.40081119119178
11.555544458329678,4.497496139109135,-40.0593305683136,4.335558378696442,40.543489040261576
11.565572458319366,3.856053950786591,-15.59776116371155,2.4269523453712463,16.249597012795984
11.575600458309054,1.8179151338338853,-6.252786716222763,-11.517422053813934,13.23076596112537
11.585629333276302,1.9689615780115128,-3.0996207118034365,-32.983647651672364,33.18742940726802
11.595656333491206,4.4675873386859895,-5.020070865154267,-18.51143106222153,19.693489484886577
11.605684333480895,2.736796595156193,-6.687424873709679,-0.023930387869477272,7.225806509188648
11.615712333470583,-1.5818571907281875,-5.236132500171662,5.520888394117356,7.771715665894638
11.625739333685488,-2.6026845645904544,-2.918176347613335,5.506755673885346,6.75381952604567
11.635767333675176,1.0183408454060554,-0.621467222571373,5.337553625106811,5.469252077482237
11.645795333664864,2.0907894855737688,3.2616950047016147,3.0479827809333804,4.929528781693811
11.655822333414108,2.6467646768689157,6.869752167463303,1.7524771893024444,7.567696769566891
11.665850333403796,3.7839118811488155,9.793476938009263,1.590899909734726,10.618904942714781
11.675878333393484,3.859866627752781,12.116576886177064,1.4202828347682954,12.795593349017363
11.685905333608389,4.747945834100246,13.130783457756044,0.788042117357254,13.985044663380899
11.695933333598077,6.6328212350606925,13.407817518711092,0.7206126111745834,14.976086627911577
11.705961333587766,7.683674646019936,13.673369987010956,2.141624593734741,15.82992289204439
11.715988333337009,9.269675758481027,13.927213990688324,2.8936899626255035,16.978445741869162
11.726016333326697,8.384845849871637,13.761784565448762,2.8547954535484314,16.365885598816035
11.736044333316386,5.749275375008583,13.053392050266266,2.251837592124939,14.440082544672023
11.746072333306074,2.723025817573071,12.075010199546815,1.262976361513138,12.44250176660908
11.756099333520979,1.177134046331048,11.410456598997117,0.3829879474639893,11.477405810048333
11.766127333510667,0.6561886469274759,11.453013803958893,-0.6476352667808533,11.490062670534385
11.776155333500355,0.32224539019167425,11.663013045787812,-1.715932091474533,11.792969869386958
11.786182333249599,-0.10252412907779217,11.748513371944428,-2.557292629480362,12.024051864517002
11.796210333704948,-0.4402692454308272,11.669214602708816,-2.545132759809494,11.951657090864027
11.806238333694637,-0.5949948307871818,11.347990794181824,-1.6976139342784882,11.48968263196836
11.81626533344388,-0.7129550975561142,11.033052742481232,-0.45908887445926666,11.06559173221912
11.826293333433568,-0.805983129143715,10.576020333766937,0.5712577664852143,10.622059609157054
11.836321333423257,-0.9206200578063727,10.037978260517121,1.3235406517982484,10.166627204063907
11.846348333638161,-0.8904578536748886,9.877613693475723,1.6280303138494492,10.050405472891288
11.85637633362785,-0.809274526834488,9.82775682449341,1.5808567321300508,9.986933336549358
11.866404333617538,-0.6158170580863953,9.62112323999405,1.508634263277054,9.7581361124201
11.876431333366781,-0.2847073620557785,9.45318769812584,0.971882085800171,9.507279880528698
11.88645933335647,0.12643697530031206,9.366460626125336,0.008073835372924805,9.367317447182888
11.896487333346158,1.0582855144143104,9.060342514514923,-1.9537272423505785,9.328816905044741
11.906514333561063,1.5228292563557626,8.864220469594002,-1.7974013471603394,9.171917197639551
11.916542333550751,0.788801963031292,9.034957997202874,0.41538561522960665,9.078833612168573
11.92657033354044,0.7409319779276848,8.891051003336907,-0.014502245988696814,8.92188200185324
11.936598333530128,1.909756473004818,8.150483014583589,-0.7240934586524964,8.402490969591263
11.946625333279371,4.967682736515999,-0.7997991138696671,0.3112963692471385,5.041275217911857
11.95665333326906,8.532949390411378,-40.81439321994782,8.168810527324677,42.48947380991173
11.966681333258748,1.6868825393915177,-86.24529885292054,21.207486305236817,88.83048250639015
11.976708333473653,-7.2048438173532485,-96.46460394859315,14.795783962011338,97.85828944163033
11.986736333463341,-3.487667962610722,-55.4811700630188,4.579539883732796,55.77899465682162
11.99676433345303,1.2355710464715959,-19.79869558811188,-5.704072304964066,20.64101314523727
12.006791333667934,0.8216092282533646,-4.9661571979522705,-33.07160380840302,33.452484773162986
12.016819333657622,2.5678927543759347,-1.8854668468236924,-32.95352981328964,33.107162149357
12.02684733364731,4.417994471490383,-5.356863470077515,-7.829917602539063,10.465288866042904
12.036874333396554,0.3785785621404648,-7.54423901796341,3.705696308612824,8.413741689613518
12.046902333386242,-2.0899843239784244,-5.382485384345055,5.835836386084557,8.209517020648178
12.05693033337593,-2.223538237810135,-2.8792438316345215,6.382279154062272,7.346268068712649
12.06695833336562,-0.9201093766093255,-0.2505777490139008,6.982780600190163,7.047596425989315
12.076985333580524,0.15191358625888826,3.045471401810646,5.482083347439766,6.273054409553047
12.087013333570212,0.9228096207976342,6.788350739479065,1.7416487306356432,7.068707354201855
12.0970413335599,1.8808785367012024,10.01314864397049,-0.4217316349223256,10.19699501853196
12.107068333309144,2.4572888696193695,12.4328551197052,0.17530771136283876,12.674576435131799
12.117096333298832,3.451138652265072,13.82329376578331,1.084547991156578,14.288808658436976
12.12712433328852,4.381861602365971,14.183738358020783,0.909602222442627,14.873013182074168
12.137151333503425,4.367385942935944,14.32110231757164,0.021956294775009155,14.972258134422828
12.147179333493114,4.424405066370964,14.362514637708665,0.4498181140422821,15.035275961732305
12.157207333482802,4.614976057112218,14.099234397411347,1.1986464643478394,14.883654388199155
12.167234333697706,3.9962924015522003,13.706108547449112,1.8889225512742998,14.40124275463316
12.177262333687395,2.648824358582497,13.080727783441544,2.1112108862400056,13.512176776274718
12.187290333677083,1.6241071245074272,12.441321887969972,1.9084610223770142,12.691195284365016
12.197317333426327,1.3462158617377282,11.848526487350464,1.276362977027893,11.992872029541852
12.207345333416015,1.2828925627470018,11.37361329317093,0.3874119508266449,11.452291503877701
12.217373333405703,1.653217779994011,11.033186058998108,0.0724668824672699,11.156593346071777
12.227400333620608,2.0125426304340364,10.677085947990419,-0.08064829747192562,10.865403643122235
12.237428333610296,2.157322321236134,9.954678826332092,-0.4109329605102539,10.194044145046746
12.247456333599985,1.57228851467371,9.143296378254892,-0.5770394933223725,9.295425456149795
12.257484333589673,0.8833762907981872,8.747578457593919,-0.40543540835380554,8.801412410133533
12.267511333338916,0.48888105947524313,8.699236017465592,-0.4516553092002869,8.72466070951834
12.277539333328605,0.20171841502189639,8.708887431621552,-0.40722991883754733,8.720736598614318
12.287567333318293,-0.026572360899299385,8.71366168320179,-0.2507274377346039,8.717308659654984
12.297594333533198,-0.11613125771284104,8.739517486095428,0.032427488565444945,8.740349186434166
12.307622333522886,-0.03937372494488955,8.744149650335313,-0.02035297910682857,8.744261983805936
12.317650333512574,0.3648975758627057,8.69400451362133,-0.5600112318992615,8.719660389234885
12.327677333261818,1.2167982682585716,8.584876173734665,-1.3457173866033554,8.774488716079174
12.337705333251506,2.7418316325545313,8.251154526472092,0.0002210248944174964,8.694779569940202
12.347733333241194,4.379247896969319,7.6690998762846,1.6163119089603424,8.978049300521004
12.357760333456099,5.3295879632234575,6.075075799226761,0.46704167246818545,8.09500968176746
12.367788333445787,8.017946516275407,-3.701295694112778,0.1404185450077057,8.832144333110325
12.377816333435476,9.142128104567528,-19.59803551912308,1.282976177930832,21.663506880518476
12.38784333365038,2.139742375016213,-36.52513075590134,5.092428989410401,36.9404454112199
12.397871333640069,-7.988086540102959,-59.528565959930425,11.188633117675781,61.09537791731804
12.407899333629757,-10.37558012008667,-67.78449298381805,10.40443729877472,69.35879516979624
12.417927333619446,-5.192165531516076,-44.318199205398564,5.16593667626381,44.919352905615426
12.427954333368689,-2.8892472481727602,-18.714263956546784,0.7815259071439505,18.95210299254194
12.437982333358377,-2.9259879353642466,-8.18983886897564,-7.07608345091343,11.211860822449244
12.448010333348066,-4.485704936385155,-4.212452854514122,-17.363567665815353,18.421720601321766
12.45803733356297,-2.095421942174435,-5.941478031277657,-13.7959030687809,15.166373851224272
12.468065333552659,-0.3176286479830742,-9.618749270439148,-2.425363072156906,9.924898564588737
12.478093333542347,-0.40427528422325854,-9.739670274853706,3.042342556715012,10.211780638101365
12.48812033329159,0.33727942217141393,-6.941345475912095,5.027005078196526,8.577109914230972
12.498148333281279,1.4317468857765199,-3.1276949483156207,3.9214293301105503,5.216318896089569
12.508176333270967,1.778361935913563,1.0463498854637145,1.522162381410599,2.564058808471005
12.518203333485872,2.2511666241288184,4.784101215004921,0.4252819911763072,5.30436050594433
12.52823133347556,2.411913599073887,7.636747816801072,0.24851894438266756,8.012428226981541
12.538259333465248,2.282433440387249,9.820286421775819,0.7581488120555878,10.110505300761865
12.548286333680153,2.275887482464314,11.821622278690338,1.0130476534366608,12.081253357205908
12.558314333669841,2.6479265186190606,13.587053389549256,1.1607834041118623,13.891254542687264
12.56834233365953,3.067435005605221,14.438510899543763,0.7187631368637085,14.778239914034772
12.578369333408773,3.1956410560011865,14.686739237308503,0.5248753130435944,15.039545381351797
12.58839612500742,3.34556249588728,14.72004731655121,0.2767060687020421,15.097984887522259
12.59842412499711,3.6357332038879395,14.424457701444627,-0.4391106927394867,14.882081645761007
12.608451125212014,3.7089295265078546,13.835063041448594,-0.12870423316955568,14.324164630898878
12.618479125201702,3.628742857575417,13.164006167650223,0.17272791981697083,13.656085385007742
12.62850712519139,3.20582895219326,12.473175179958345,0.08067991811782121,12.878817786964646
12.638534124940634,2.5283620682358743,11.777368211746216,-0.36040888767689466,12.051095855127066
12.648562124930322,2.131677602827549,10.969392936229706,-0.5914043480157852,11.19023636455704
12.65859012492001,1.959143225848675,9.917070704698563,-0.5975316452980042,10.12638028164614
12.668618124909699,1.6484691099822522,8.982645297646522,-0.5439565684273839,9.148839035540638
12.678645125124604,1.4326093500852586,8.469896525144577,-0.580029211230576,8.60975903161573
12.688673125114292,1.3078993499279024,8.429277672171594,-0.8741727733612061,8.574817830239802
12.69870112510398,0.8940764030814171,8.53127123951912,-1.1134209573268892,8.64995189610947
12.708728125318885,0.42971889495849613,8.61369709968567,-0.9911065614223481,8.68117090431424
12.718756125308573,0.09572063785046339,8.574098585844041,-0.3647048370167613,8.582385368790352
12.728784125298262,-0.21519160587340594,8.609125161767006,0.2378647692874074,8.615098555830706
12.738811125047505,-0.38941169857978825,8.674517498016359,0.2800067488476634,8.687767208770214
12.748839125037193,-0.49934169173240667,8.592568185925485,0.04015980999916792,8.607158820727088
12.758867125026882,-0.38793878495693207,8.143342979550361,0.376961807012558,8.161288598463614
12.768894125241786,0.297319221496582,7.163561890125275,0.9567565083503724,7.2332842256749
12.778922125231475,2.3456202068924905,4.175532365441322,2.246304956674576,5.289885693302941
12.788950125221163,4.52611767500639,-1.1601823103427888,3.067472135424614,5.589378275161203
12.798977124970406,3.875860516726971,-7.034156575798988,2.4604358410835268,8.399726067323124
12.809005124960095,3.043403241634369,-14.800010329484941,2.197838555574417,15.268696845520937
12.819033124949783,3.423476352095604,-32.59792788505554,6.20950094819069,33.36020076016061
12.829061124939471,-0.08141984671354294,-60.51141742229462,13.381285192966462,61.97335767135846
