Time (s),Linear Acceleration x (m/s^2),Linear Acceleration y (m/s^2),Linear Acceleration z (m/s^2),Absolute acceleration (m/s^2)
0.0020584166049957275,-1.0021803107857705,0.6309022897481918,-2.709678086042404,2.9571537674788915
0.012085416819900274,-0.5166757625341416,0.6256649386882782,-2.790048065185547,2.90564599790471
0.022112416569143534,-0.1253505626320839,0.4898779731988907,-2.0063837581872943,2.069122755492144
0.03213841654360294,0.5424043884873391,0.4112048560380936,-0.883392078280449,1.1152011111222426
0.04216541675850749,1.0817077061533928,-0.06034151136875153,-0.509112389087677,1.1970497417686796
0.05219241650775075,1.1365651139616966,-1.097853330373764,-0.7720148992538453,1.758712369308141
0.06221841648221016,0.3635365998744965,-1.8471985745429993,-0.6700827276706696,1.9983273743720178
0.0722454166971147,-0.8151259817183019,-1.8371103733778,0.2632533431053162,2.026994625720717
0.08227241644635797,-1.074360972046852,-1.860045492053032,1.107516438961029,2.4167361033702424
0.09229841688647866,1.0644269911944866,-1.921653217971325,0.7442172360420227,2.3193997508288486
0.10232541663572192,3.7590331479907038,-2.480731234252453,0.34718135297298436,4.517177498852657
0.11235241685062647,4.891188876628876,-3.181834025681019,0.13677923798561098,5.836651861622675
0.12237941659986973,4.980781084299088,-3.246054872274399,0.40191187620162966,5.958740269533475
0.13240541657432914,5.345301185846329,-1.5794680184125902,3.1397589236497883,6.397268955361877
0.14243241678923368,5.0388322412967685,0.029298351109027863,5.092792686223984,7.16430220566986
0.15245941653847694,2.7505524623394013,-0.5012502229213714,6.366640775799752,6.953481531012802
0.16248541651293635,0.25943704817444085,-1.9390875685214997,6.666453834772111,6.947587704484763
0.1725124167278409,-2.946898455619812,-3.429599848687649,5.818398819565774,7.368862222445006
0.18253941647708416,0.2198577205091715,-6.1779563891887666,2.6785171043872835,6.737205388176987
0.1925664166919887,7.079468988776207,-8.297582588195802,-0.8760748726129532,10.94240673496457
0.20259241666644812,4.472244645953179,-6.804455140829087,-0.003760929107666016,8.142579203262319
0.21261941688135266,1.1881284928321838,-6.61895690202713,0.267469185590744,6.730065345270641
0.22264641663059592,-0.07699613571166992,-9.141731663346292,-1.695540511608124,9.297959122089482
0.23267241660505533,-1.0458204200863839,-10.307775807380677,-3.803593901395798,11.036816072265921
0.24269941681995988,-1.5684677977859975,-10.330675842761995,-5.833455984592438,11.967128449427424
0.25272641656920314,-1.4047754341363907,-8.795240281820298,-6.6389304059743885,11.10878222716958
0.2627534167841077,-0.7461131957173348,-7.373206205964089,-6.683524780869484,9.979496888770864
0.2727794167585671,-0.11552607089281083,-7.086087452173233,-6.501116795539856,9.617198201251405
0.28280641650781035,1.2987493345141412,-6.268577122092247,-6.178655131459236,8.897055029785237
0.2928334167227149,2.467081201672554,-4.1076713347435,-5.420120987892151,7.234442962198854
0.3028594166971743,1.626025888323784,-1.953510895371437,-4.331304529309273,5.021988045928533
0.31288641644641757,-0.46343686401844025,-0.369470939040184,-3.4160129660367966,3.4670487573522806
0.3229134166613221,-1.8011786484718324,0.03272803544998169,-2.5566699010133744,3.127599180004204
0.33294041687622666,-1.8412355840206147,0.390264807343483,-0.9506052374839783,2.1085790033210876
0.3429664168506861,-1.2878983640670778,0.9567641097307206,0.15888756036758422,1.6122422320095193
0.35299341659992933,-1.6318280804157257,1.6085254642367364,0.5293554496765137,2.3516875313768844
0.3630204168148339,-2.5494602841138843,3.3636502727866175,1.0469924944639206,4.348572660236381
0.3730464167892933,-3.2361613833904266,4.986049425601959,1.6787414610385896,6.176698330572981
0.38307341653853655,-2.5795073711872103,5.892801715135574,2.9009697461128234,7.056528594130107
0.3931004167534411,-0.6995000696182251,6.954546734690666,5.339983727931976,8.79604722855504
0.4031265415251255,1.1466612088680268,6.473379943370819,7.592415397167207,10.043119604102102
0.4131525414995849,2.733022509813309,5.777589347362518,9.16139760375023,11.170548632896395
0.42317954171448946,4.167308841347695,5.433886502981186,9.958730946779252,12.085938423506656
0.4332065414637327,4.749776889681816,4.737300978004932,8.956830425262451,11.190496518245698
0.4432325419038534,4.508355880379677,4.841945380568505,6.600634651780129,9.345484771741019
0.4532595416530967,4.404283043146133,6.160868486166001,3.775634855031967,8.462235413087383
0.4632865418680012,4.607772579789162,7.299219632148743,0.8352139449119569,8.672240640064013
0.4733135416172445,4.564530081152916,7.458880779147148,-1.7172652566432953,8.91172470967067
0.4833395415917039,4.353319296240807,6.7043613338470465,-3.6116999781131747,8.771785822836112
0.49336654180660844,3.8946011352539065,5.689233825802804,-4.407037958800793,8.182743005721914
0.5033935415558517,2.8507877719402313,4.4249307310581205,-4.09401106953621,6.668427815669262
0.5134195415303111,2.1056145161390307,3.5651780685782435,-3.3828422963619236,5.346749400645397
0.5234465417452157,2.547002699375153,3.3169681495428085,-2.7617536810040475,5.011664778319193
0.5334735414944589,3.289440042972565,3.040880460441113,-2.7928944897651675,5.278979958473468
0.5434995414689183,4.07705882191658,3.2175733771920205,-4.029805718064308,6.5737752623835926
0.5535265416838229,4.353608733415604,3.599039586782456,-5.963452452421189,8.213997814900376
0.5635535418987274,3.9990452706813815,4.795501823723316,-8.184051879644395,10.294071399937136
0.5735805416479707,4.150219768881798,5.051807797551155,-9.519086403250695,11.548077420331412
0.5836065416224301,3.419109651446343,3.8864767214655878,-9.667518557310105,10.966126352137417
0.5936335418373346,2.5237278574705124,2.355349096655846,-9.101984045505525,9.734628150593494
0.6036605415865779,1.47453739464283,0.9406278410553933,-8.286358273029327,8.46892996148688
0.6136865415610373,0.7327654641866684,-0.23626157239079476,-6.957196108102798,6.9996673094293556
0.6237135417759418,-0.09393318057060242,-1.0501733797788622,-5.724449851512909,5.820739959188559
0.6337405415251851,-1.5056568610668184,-2.0952876023948193,-4.131519788503647,4.871004874030023
0.6437675417400897,-3.2385979181528093,-3.2825508534908296,-1.7426187837123872,4.929541236927055
0.6537935417145491,-4.6839740788936615,-5.566383240222931,0.9302218437194825,7.334135820075555
0.6638205414637923,-6.286372538208962,-9.205896084308625,6.0716189253330235,12.693760623971874
0.6738475416786969,-6.079296904206276,-12.794070374965669,14.629661056995392,20.363523031431317
0.6838745418936014,-5.512771289348603,-14.060407716035844,17.23754262685776,22.917647964888648
0.6939005418680608,-6.0682234472036365,-9.924001994132997,7.98717495918274,14.110425763007418
0.7039275416173041,-6.9409811943769455,-5.5278670459985735,3.1894602566957477,9.429060968515003
0.7139545418322086,-7.290573939085007,-2.607181658148766,1.911053385436535,7.975085554515466
0.723980541806668,-6.535489652752877,-0.08382831484079362,0.9078161904215813,6.5987712813220405
0.7340075415559113,-5.320627105236054,1.7776854130625726,0.19397333934903147,5.613097529632481
0.7440345417708158,-4.840973573327065,2.668924747109413,-0.4712328104674816,5.547994665196168
0.7540605417452753,-4.570283741354943,2.6835422015190127,-0.992920367717743,5.392103771298878
0.7640875414945185,-3.7728936803340916,2.1862411880493164,-1.5445266656577588,4.626006904054088
0.7741145417094231,-2.5070650470256806,1.7736183822155,-1.36949421197176,3.362530551887188
0.7841415414586663,-1.3989369893074037,1.8369460666179658,-0.49814564377069476,2.362105974363428
0.794167541898787,-0.4178402763605118,1.899145823121071,0.3057330724596977,1.9684557565825263
0.8041945416480303,-0.2273508542776108,2.1129837620258334,0.6680525743961334,2.2277080220897227
0.8142215418629348,1.200524882376194,2.2371762835979463,1.5845167967677116,2.9928099165059754
0.8242485416121781,1.1518737092614175,2.6693498396873476,1.8871713101863863,3.4660722962334654
0.8342745415866375,0.6610066795349121,3.402771946191788,1.7784110525250436,3.8959636317505395
0.844301541801542,0.6328128674626351,3.6675473195314408,1.764934243708849,4.11902274221018
0.8543285415507853,0.25249271214008334,3.9428950434923173,0.7381349623203278,4.019330431338007
0.8643545415252447,0.03901218429207802,3.9186437165737154,-0.8835844516754151,4.0172144592003605
0.8743815417401493,0.6181342365592718,3.760729717612267,-1.715357894897461,4.179429464762602
0.8844085414893925,1.3870840984582902,2.6357552468776704,-2.95293979883194,4.194169938517589
0.8944355417042971,2.318090784698725,0.44849255025386814,-4.2538856399059295,4.86520641814263
0.9044615416787565,2.1597335667908193,-2.9259788721799853,-4.089976490736008,5.472998185157738
0.914488541893661,1.0008005140721798,-5.8218615406751635,-2.8547954535484314,6.560909277635267
0.9245155416429043,0.40376778244972233,-8.31565808594227,-1.180127747654915,8.408679998978823
0.9345415416173637,-1.1828689223527908,-10.483377048969269,1.1246049267053604,10.609670564135987
0.9445685418322682,-3.376537536084652,-12.762588965892792,1.312150275707245,13.266741166954139
0.9545955415815115,-4.964384322166443,-13.695209337472916,0.11624272026121617,14.567682824162222
0.964622541796416,-5.185824226140976,-13.494645162820817,0.11893017366528512,14.457259953431077
0.9746485417708755,-2.4127351328730584,-10.94139880657196,2.4016470578312874,11.458769884077608
0.9846755415201187,-0.6902676084637642,-7.554218460917474,3.909360969364643,8.53380273473393
0.9947025417350233,-0.8223635190725327,-4.701367791295052,3.779701008796692,6.0881261963289335
1.0047285417094827,-1.8051038843393328,-1.5135494327545167,1.6426889911293985,2.8718737855668706
1.014755541458726,-2.266673440039158,-0.14073137104511263,-0.8851713860034943,2.437445832254439
1.0247825416736305,-2.643334115445614,0.13988995671272278,-4.896370971500874,5.56607879358747
1.034809541888535,-1.1750976803898812,0.7854576480388642,-9.241012122631073,9.348481337946547
1.0448355418629944,2.296037572324276,1.8289687103033068,-9.952075645923616,10.375968616904123
1.0548625416122377,2.6170084887743,2.1950073337554934,-5.2380878090858465,6.25334746525818
1.0648895418271422,1.0793995177745819,2.4455149161815646,-2.280604869872332,3.5138020855938827
1.0749155418016016,1.098415247797966,3.174384380578995,-0.8940905825793743,3.4760077994901106
1.084942541550845,0.92314349681139,3.51142958521843,-0.23078477784991266,3.638075488680749
1.0949695417657495,0.5499905660748482,3.483234896063805,-0.2755721108615399,3.537139374157123
1.1049965415149927,0.05727318495512009,3.1391414576768875,-0.5423196038603783,3.186157538752903
1.1150225414894521,-0.37490037113428115,2.6527244514226913,-0.7012520416080952,2.7693413890872973
1.1250495417043567,-0.6600772646069527,2.068960075378418,-0.4695850650966168,2.221892869182189
1.1350765414536,-0.8027373397350311,1.3642542296648026,-0.1643210855126381,1.5914076344253318
1.1451025418937206,-0.8305548834800721,0.7291045224666596,-0.0037191215157508853,1.1051826324272296
1.1551295416429639,-0.735403727889061,0.5574133139848709,0.07353195279836655,0.9257079418926175
1.1651565418578684,-0.29605417639017106,0.9791414040327072,0.3135301883518696,1.0698911829981415
1.1751835416071117,0.4252235555648804,1.7545757550001144,0.7133225950598717,1.9411801247860565
1.185209541581571,1.2724435883760452,2.571157547235489,1.1349936747550964,3.0851538794749604
1.1952365417964756,2.1029540330171588,3.091414729356766,1.2861851298809053,3.9539262616029984
1.205263541545719,2.6399792754650115,3.1727857518196108,1.139231444299221,4.281811332311874
1.2152895415201783,2.8231813126802447,2.8532757622003557,1.0576410050690175,4.150920355177918
1.2253165417350829,2.893522147536278,2.336911071538925,1.0958638152480127,3.8774400415911128
1.2353435414843261,2.743553929924965,1.674170107841492,1.0400708529353142,3.378117981291107
1.2453705416992307,2.3109079188108446,0.7099385190010071,3.187473957538605,4.000537256415797
1.25539654167369,2.147540221810341,-1.2450447052717208,7.24144797205925,7.655105097544996
1.2654235418885946,2.4890994769334793,-2.6360651493072513,10.35746193766594,10.973671831600464
1.2754505416378379,4.493884606361389,-2.316069256067276,10.707215480804443,11.840761757867194
1.2854765416122973,6.602764792442322,-0.8043213504552842,6.097726743221283,9.023619405433175
1.2955035418272018,6.854220793247223,-0.8422458064556122,-2.7875092041492464,7.447142287098551
1.305530541576445,7.778379074335098,-3.6003610575199128,-18.61426019668579,20.492839321052635
1.3155575417913496,5.239084759354592,-4.29452963590622,-5.8340886533260345,8.940222834149377
1.325583541765809,3.319344457983971,-2.6976556259393694,6.714085253477097,7.960799852896055
1.3356105415150523,3.076158174276352,-0.9392318183183671,5.559310448169708,6.422681541290812
1.3456375417299569,0.5133586370944977,-2.066276203393936,-5.257664287090302,5.67239527842836
1.3556635417044163,-2.6875574845075607,-3.0096560364961626,-7.722067463994026,8.712710290663033
1.3656905414536595,-4.784138052463532,-2.243298318386078,-3.7131462460756306,6.458159125869299
1.375717541668564,-5.118883547186852,-1.8514547628164293,-2.6955389338731766,6.074272273486103
1.3857445418834686,-2.308423436880112,-2.9685729146003723,-3.7964503580331805,5.34362042385559
1.395770541857928,-0.4378798538446427,-4.326173597574234,-5.0250059151649475,6.645163745927869
1.4057985418476164,-1.5869542086124422,-5.982858191728592,-6.107720219492912,8.695818655087583
1.4158255415968597,-3.652570261359215,-6.737721453309059,-6.5440634250640874,10.077843321257202
1.425851541571319,-5.804994077682496,-6.9452525854110725,-6.115947836637497,10.924253185346764
1.4358785417862236,-7.719138008952141,-8.298995275497436,-7.208947978019714,13.432324636256112
1.445905541535467,-8.954952884316445,-10.51930000305176,-7.962138351202012,15.944983563435054
1.4559325417503715,-9.704298713207246,-12.75086997628212,-7.859905048012734,17.847582638301038
1.4659585417248309,-10.527313027381897,-14.59289844274521,-7.672419340610505,19.56126333023852
1.4759855414740741,-11.119665209054947,-15.57513945579529,-7.166789553165436,20.435136308043052
1.4860125416889787,-10.16507918715477,-15.424450861215592,-5.719107835292816,19.337805296436542
1.496038541663438,-7.831202820539475,-14.564813096523286,-3.9372396165132524,16.998922729129724
1.5060655418783426,-6.111230303049088,-13.963476083278657,-3.26947355568409,15.588946644225775
1.5160925416275859,-4.980893350839615,-13.13407076239586,-3.8231130766868593,14.55779196723164
1.5261195418424904,-4.316788524091244,-11.469194219112397,-3.9971753311157228,12.890092700408603
1.5361455418169498,-3.9543880382180214,-8.754474079012871,-3.205955544412136,10.127001140992181
1.546172541566193,-3.3383777296543125,-5.757663205862046,-2.3266804906725884,7.050453429650176
1.5561995417810977,-2.040685571730137,-2.766017178297043,-1.121243947148323,3.6155824734499755
1.566226541530341,-0.6258771926164627,0.01020105242729187,1.3290346956253052,1.4690675763503656
1.5762525415048003,0.7244723582267761,2.240486392378807,3.3953784343600275,4.131977031009057
1.5862795417197049,1.907493308186531,4.093602349162102,4.614252756536007,6.456581093352891
1.5963065414689481,2.914126566052437,5.685175858139992,5.392184745669365,8.359964982724495
1.6063325414434075,3.667081588804722,6.865691860914231,5.908506166934967,9.772187945014311
1.616359541658312,4.124818294644356,7.56970831990242,5.775084400177002,10.376232931146085
1.6263865418732166,4.363516547977925,8.047184933423996,5.340486588478089,10.598030902904448
1.6364135416224599,4.497383287847042,8.514380387663842,5.017250753045082,10.857897353657936
1.6464395415969193,4.551179133653641,8.995866436958313,4.953241868019104,11.232695556334408
1.6564665418118238,4.662211326956749,9.610259698033333,4.9488003230094915,11.772167623588546
1.666493541561067,4.993044449687004,10.387707245349885,4.911039004325867,12.528098770110917
1.6765195415355265,5.200044069886208,10.986793080568313,4.825491900444031,13.078052324609864
1.686546541750431,5.077385272979736,11.183562412261963,4.563616161346435,13.10261431575136
1.6965735414996743,4.8508372414112095,11.185905976295471,4.253180465698242,12.912964745827418
1.7066005417145789,4.52289235085249,11.060728783607484,3.7101249897480013,12.512445959183026
1.7166265416890383,4.209888265728951,10.895596396923066,2.8456971859931945,12.022278175492978
1.7266535419039428,4.045368374884129,10.768106045722963,1.7512176990509034,11.635457727563502
1.736680541653186,3.815864868164063,10.684212534427644,-0.7598643851280212,11.370603152722177
1.7467065416276455,4.0587172758579255,10.653936821222306,-3.951803276538849,12.066329386039785
1.75673354184255,3.3861848571896553,10.4892382979393,-5.103700082302094,12.146527178091173
1.7667605415917933,2.838522944748402,10.342201874256135,-4.4199845713377,11.59976791692806
1.7767875418066978,2.230124833881855,10.251467120647431,-3.5428536915779114,11.073294323747524
1.7868135417811573,2.130779178142548,10.1299853682518,-3.2232366979122165,10.841866918467938
1.7968405415304005,1.9334683942794801,10.064546838998796,-3.1035020935535433,10.708180440708382
1.806867541745305,1.694059704244137,10.05645078420639,-3.7287893021106724,10.858448798803817
1.8168935417197645,1.5830713650584223,10.007090928554536,-4.272017270922661,10.99536790481737
1.8269205414690077,1.6525795564055443,9.918355922698975,-4.0778093120455745,10.850499167549527
1.8369475416839123,1.782863999605179,9.88265633225441,-3.752997944355011,10.720564061320156
1.8469745418988168,1.9510898557305336,9.80347567677498,-3.383149859905243,10.55275271883266
1.8570005418732762,2.0851074537634853,9.66068959414959,-3.015478109121323,10.332942695807429
1.8670275416225195,2.2891252863407137,9.46802266895771,-2.752807148694992,10.122326562325867
1.877054541837424,2.527836111187935,9.284394954442979,-2.487560197412968,9.93870720017776
1.8870805418118834,2.8338556972146036,9.076293718814851,-2.159209071546793,9.750488685060024
1.8971075415611267,3.032487659454346,8.902413312792778,-1.8318227362632753,9.581467462431005
1.9071345417760313,2.9835245373845103,8.76236898958683,-1.615971601009369,9.39637659899374
1.9171615415252745,2.8737027177214625,8.65091638147831,-1.483407766968012,9.235638589305589
1.927187541499734,2.632552726864815,8.39888326048851,-1.3946194052696228,8.911595657826497
1.9372145417146385,2.0709247398376465,7.960199999213219,-1.3131308537721635,8.329335264273745
1.9472415414638817,1.0511720842123031,7.162937992215157,-1.0816460180282594,7.320013766330151
1.9572675419040024,-1.286120810508728,4.527565153241158,-0.19277568340301515,4.710638536353512
1.9672945416532457,-9.548921821117402,-7.806872556209565,0.5288748816400767,12.345398968649816
1.9773215418681502,-28.735767102241518,-48.67795804023743,-11.88726078271866,57.763265825589734
1.9873485416173935,-18.315453443527222,-89.45536411285401,-22.370434348583224,94.01145853750793
1.997374541591853,0.8516460826992989,-56.63272539138794,1.4088795948028565,56.656648577366326
2.0074015418067575,-0.8347774502635003,-10.282835093736649,7.4993417572975165,12.754359166543674
2.0174285415560007,-7.533298877477646,-8.118185334205627,3.0195197045803073,11.479243195623397
2.0274555417709053,-15.443022787570953,-13.156167390346528,-1.0883612528443336,20.31640281735293
2.0374815417453647,-18.166531877517702,-18.52701272249222,-6.028391629457474,26.63859205202798
2.047508541494608,-16.34967918276787,-21.189317836761475,-8.947928624153137,28.219933140063784
2.0575355417095125,-15.045406275987625,-22.011548624038696,-9.92344183087349,28.449028465110676
2.067561541683972,-13.088318638801576,-20.670092103481295,-8.084671432971955,25.76661996724276
2.0775885418988764,-9.678819471001626,-17.276169333457947,-4.474356952607632,20.301858125055976
2.0876155416481197,-6.522211795449257,-13.753461638689043,-2.0251541975140572,15.355722167169388
2.0976425418630242,-4.357410300672054,-9.930328681468964,-0.29149247109889986,10.84819893397588
2.1076685418374836,-2.825263213813305,-6.187894316911698,1.0960231518745422,6.890095431417461
2.117695541586727,-1.5200649851560593,-2.632556819915772,2.460793398320675,3.9110685392103717
2.1277225418016315,-0.39008339747786525,0.371356081366539,3.4701733857393267,3.5117194824258564
2.1377495415508747,0.6942665192484856,2.937069286108017,4.013706871569157,5.021775068840691
2.147775541525334,1.6729424849152565,4.99181478023529,4.148032033145428,6.702471268570313
2.1578025417402387,2.439822651743889,6.543367021679878,4.229058069884777,8.16414837633589
2.167829541489482,3.0888010239601136,7.723571952581406,4.269732763767243,9.350126916053421
2.1778555414639413,3.5363983654975892,8.421873342990876,4.161414263248444,10.037501316325788
2.187882541678846,3.873395330607891,8.878706361651421,3.9016788974404335,10.443070250761336
2.1979095418937504,4.065578691065312,9.157630242705345,3.6230099549889565,10.65445084879108
2.20793554186821,4.199448062181473,9.370037367939949,3.342031069993973,10.7982468936562
2.217962541617453,4.29801019102335,9.573500592112541,2.8727230167388917,10.880135234463824
2.2279895418323576,4.3624587866663935,9.687937034368515,2.21579871699214,10.853429623924221
2.238016541581601,4.421658921539784,9.816317331790925,1.7086756968498231,10.90095070229457
2.2480425415560603,4.525264566242695,9.888496531248093,1.5040734350681306,10.97827946178612
2.258069541770965,4.597346117198468,9.895868700742723,1.4678733229637146,11.009925556329971
2.268096541520208,4.636261968612671,9.84431380033493,1.4372666573524475,10.975936164419236
2.2781235417351127,4.60500509262085,9.781534584760667,1.3343135619163513,10.893341242128004
2.288149541709572,4.536361704468727,9.755611538887024,1.1579673850536347,10.820879006637307
2.2981765414588153,4.534459312856198,9.727592266201974,1.0845649480819703,10.78719860223352
2.30820354167372,4.510234883129597,9.720313652157785,1.0437607383728027,10.766436396333402
2.3182295416481793,4.4413967826962475,9.71838290154934,1.0388093161582947,10.735552915328041
2.328256541863084,4.337640572190285,9.759572442770004,1.0533478331565858,10.731911370152226
2.338283541612327,4.232528977096081,9.770234255790712,1.0260869443416596,10.69694504857965
2.3483105418272316,4.141111561059952,9.779048348665238,0.8295175874233246,10.652074492535307
2.358336541801691,4.027830236256123,9.760623772144319,0.5968498599529267,10.575888737537554
2.3683635415509343,3.8895479714870453,9.727718566060068,0.274056658744812,10.480085828616629
2.378390541765839,3.763041414320469,9.692172172665597,-0.001070049600675702,10.397051661672673
2.3884165417402983,3.688837908804417,9.643447324633598,-0.2065926722623408,10.326968672008642
2.3984435414895415,3.592896502017975,9.625432637929917,-0.3633962666988373,10.280560081444499
2.4084700415842235,3.5549460259079937,9.706876165866852,-0.44866274077445273,10.34709545725525
2.418497041799128,3.5919969078898433,9.867324932813645,-0.5929287902265787,10.517514329265044
2.4285230417735875,3.6131840014457706,9.973623805046081,-0.835451341867447,10.640782366795857
2.4385500415228307,3.6131009709835054,9.852746654748918,-1.1961450254917145,10.562285651846219
2.4485770417377353,3.557308008670807,9.621424956321716,-1.4993015223741533,10.366974655784457
2.4586030417121947,3.4706657212972645,9.547761733531953,-1.6173076897859575,10.286931458541256
2.468630041461438,3.2603501451015475,9.571663396954538,-1.4753536659479143,10.218771535409182
2.4786570416763425,2.978095105290413,9.54974861741066,-1.354475346207619,10.094619981721737
2.488684041891247,2.5180578124523163,9.39777012705803,-1.2975224424898626,9.815409466580663
2.4987100418657064,2.122042707055807,8.918455148935319,-0.6101780033111572,9.18772140902544
2.5087370416149497,1.7062302450835705,8.40320084452629,1.063351542055607,8.640354308978154
2.5187640418298542,1.0539250995218754,7.639415901303292,2.021413441300392,7.972298647765127
2.5287900418043137,0.39821877479553225,6.8114998662471775,0.6612291660904884,6.855095377204733
2.538817041553557,-4.629740861356258,-8.482135332226754,-6.530691427588463,11.663235004058638
2.5488440417684615,-31.332784545421603,-58.27443175792694,-23.04421602487564,70.06203448573436
2.5588710415177047,-17.911290389299392,-91.38792969703675,-34.430064032077794,99.2874479829818
2.568897041492164,0.7536762768030167,-74.18246957302094,-11.654362674951553,75.09614496924391
2.5789240417070687,-15.521492421627045,-51.280764226913455,14.884154101610184,55.60729763269738
2.588951041456312,-21.40443456172943,-44.63516507148743,8.924847325086594,50.30010615935511
2.5989780416712165,-15.251911221742631,-33.33775970935822,-3.9568982478976253,36.87389404577502
2.609004041645676,-4.903082113265992,-17.51402003288269,-2.507903245389462,18.3594850311734
2.6190310418605804,-1.6719386641681195,-8.68158795118332,-0.19643487095832826,8.84329887029722
2.6290580416098237,-0.4937032216787339,-3.565858976840973,0.742031546831131,3.6755549146089375
2.639084041584283,0.17490337640047074,0.7662647473812104,1.8366829419136048,1.9977880476346557
2.6491110417991877,0.9137897059321404,3.7540942972898486,2.3166035453975202,4.504984750935353
2.659138041548431,1.8906360778212548,5.637664307355881,2.227740046977997,6.349849552399122
2.6691650417633355,2.8831912869215013,6.690222766399384,1.7707473993301392,7.497160730120647
2.679191041737795,3.340952551066876,7.353854261040688,1.2264675164222718,8.169783290268203
2.689218041487038,3.306550457775593,8.071623371243478,0.5104291820526123,8.73755788117657
2.6992450417019427,3.3146932902932167,8.811399646997453,-0.9332202959060669,9.46038347365014
2.709271041676402,3.9410318282246593,8.819381681084634,-1.739730259180069,9.81528840546409
2.7192980418913066,4.4011267161369325,8.881577929258347,-0.12669860165566207,9.913041683592617
2.72932504164055,4.3050230491161345,9.1162266933918,1.805488192588091,10.24200176685717
2.7393520418554544,4.6554314804077155,9.035878933668137,2.4173933172225954,10.448154900403768
2.749378041829914,4.5536314558982856,9.14699649631977,2.934726891517639,10.630885488407317
2.759405041579157,4.32988657951355,9.2547811460495,3.4468248689174654,10.783296969374106
2.7694320417940617,4.14145800858736,9.353296204805375,3.967943930625916,10.97180037041825
2.779458041768521,4.12441863745451,9.44627453505993,4.591628125011921,11.283881447760088
2.7894850415177643,4.195999959111214,9.553444057703018,5.2419563269615175,11.677020816727797
2.799512041732669,4.369616948068142,9.619576066732407,6.049453300237656,12.174796967845152
2.809539041481912,4.230745576322079,9.776784891486168,6.670394858121872,12.568965689714478
2.8195650414563715,3.619741361439228,10.065869479179383,6.831108503937721,12.692056542899547
2.829592041671276,2.437056187838316,12.26211876153946,7.459311718940735,14.558163713363909
2.8396190418861806,0.5214659477770329,15.261258580684663,9.584571125507356,18.028919653188364
2.849646041635424,-1.020727094113827,15.453082337379456,11.356671570539476,19.204520996046387
2.8596720416098833,-2.2339243546128276,14.236463871002197,10.274601044654847,17.69843914584859
2.869699041824788,-1.8580255714058878,12.918807857036592,4.961687586307526,13.963029727646745
2.879726041574031,-1.3954780688881874,13.343247885704042,-3.0879753971099855,13.766815725985797
2.8897520415484905,1.0213738692551853,10.634838645458222,-3.7791209650039677,11.332464553832123
2.899779041763395,5.00158196926117,6.772367960214615,-3.824385430812836,9.246984043848752
2.9098060415126383,7.499052904844285,4.6753453427553175,-4.763992055654526,10.039435683842832
2.919833041727543,8.139175084233285,4.902915467619896,-4.297977154254913,10.428679626536022
2.9298590417020023,7.909292970299721,5.858743438124657,-2.986215133666992,10.285877249332849
2.9398860414512455,7.0462573885917665,4.736950437426567,-3.1082336604595184,9.041546279311596
2.94991304166615,4.991178603172303,0.3942719042301178,-5.1488440954685215,7.181776221985152
2.9599390416406095,1.141037795394659,-4.080848402380943,-7.620348715782166,8.71923193199132
2.969966041855514,-1.4715474209189416,-6.805847362875939,-7.458261559009553,10.203463903076159
2.9799930416047573,-2.330655427873135,-8.889909626841545,-5.280148000717164,10.599170288582117
2.990020041819662,-3.1657351791858677,-10.051401128768921,-2.7314121866226198,10.886374805663392
3.0000460417941213,-4.213131131529808,-10.020083441734315,-0.2781134569644928,10.873357034776728
3.0100730415433645,-4.465211030244827,-9.476497623324395,1.604843180179596,10.598001622120178
3.020100041758269,-3.689584305882454,-8.806954593658448,1.6386529505252838,9.688171399043318
3.0301270415075123,-2.3987121941149234,-7.2964246630668645,0.8521653154492379,7.727730506355714
3.0401530414819717,-1.7556006257236005,-5.886339957118035,0.9897466452419759,6.221794762733113
3.0501800416968763,-2.4174187526106836,-7.824250481128693,1.8663809502124786,8.399177749531939
3.0602070414461195,-4.919026300907135,-14.207831225395203,2.7139807596802714,15.278251845098175
3.0702330418862402,-8.95768411874771,-15.216955397129059,-3.2975419449806216,17.96300696454763
3.0802600416354835,-8.297797765731811,-25.247449221611024,-6.869071551561356,27.449431395555
3.090287041850388,-4.427354986667633,-32.755643663406374,-7.649336872100831,33.92706911250817
3.1003140415996313,1.592360544204712,-29.25754923820496,-7.581622606515885,30.26583553904237
3.1103400415740907,3.126954983174801,-21.198584504127503,-6.1780253863334655,22.30080335144044
3.1203670417889953,1.758131446838379,-14.696210557222367,-6.301440228223801,16.086571414582206
3.1303940415382385,4.330189465284348,-11.073648791313172,-3.8912693917751313,12.51072403332346
3.140420041512698,5.0658908164501195,-6.143578269481659,0.02483824118971825,7.962877661729227
3.1504470417276025,3.448861454129219,-1.1592338919639589,2.297821265459061,4.303306997420949
3.1604740414768457,1.867780773639679,2.870318641662598,3.575020686686039,4.950566334601222
3.1705010416917503,2.609034640789032,5.679134514927864,3.587621436417103,7.20629295591857
3.1805270416662097,3.4838538238406183,7.0482793557643895,2.980385459661484,8.408220788665398
3.1905540418811142,3.7700987112522126,7.46786034822464,2.797893566787243,8.821042505522852
3.2005810416303575,4.202895580530167,7.490968544483185,2.7600468787550927,9.022017499883397
3.210608041845262,4.6385131466388705,7.389365571141243,2.6600235307216646,9.121088363759126
3.2206340418197215,4.93278070628643,7.459922168254852,2.6099354043602943,9.316358036682852
3.2306610415689647,4.8678058612346655,7.644058590531349,2.660384888648987,9.444829982265354
3.2406880417838693,4.435187332034111,8.072163653969765,2.738494626581669,9.60885349802582
3.2507140417583287,3.958772572875023,8.519911268949508,2.7832188096642496,9.798320022176721
3.260741041507572,3.4425011453032495,8.956586011648179,2.8735147297382357,10.016403247747599
3.2707680417224765,2.982152780592442,9.311415522694588,3.060341455936432,10.245066328238002
3.2807950414717197,2.7156644654273987,9.485573086738587,3.2635482797026634,10.392385560909233
3.290821041446179,2.512485123574734,9.565893949270249,3.533948382139206,10.502747245958737
3.3008480416610837,2.395515228956938,9.563516471385956,3.8528821286559105,10.585085791241902
3.3108750418759882,2.30917100340128,9.511438829898834,4.168291758298874,10.638345525510951
3.3209010418504477,2.1692599967122077,9.499377778172493,4.4556803610920905,10.714334071046832
3.330928041599691,1.952979383468628,9.471367276310922,4.683530859947205,10.745063418663692
3.3409550418145955,1.6771324534714223,9.422610853314401,4.8240210333466536,10.717721189210716
3.3509820415638387,1.3720463754236698,9.36622264444828,4.900252645611763,10.659320516454791
3.361008041538298,1.101700286641717,9.313878369927407,4.950010111927987,10.604936299647319
3.3710350417532027,0.9251212444156409,9.4151995074749,4.9399844759702685,10.67264155236425
3.381062041502446,0.8296813094615937,9.63843567609787,4.920006294250489,10.853307113180321
3.3910890417173505,0.7549366441369058,9.856010570526124,4.87080665230751,11.019783625241763
3.4011150831356645,0.5897370144724846,9.951994954347612,4.72283584356308,11.031553459184405
3.411142083350569,0.3435221654176712,9.86053280711174,4.488418629169464,10.839465692963639
3.4211690835654736,0.03796100109815598,9.638204126358033,4.233451960086823,10.52703829751333
3.431195083539933,-0.21137158334255218,9.452362071275711,3.9512887215614323,10.247170791680745
3.4412220832891762,-0.3976445782184601,9.328628556132317,3.7028054451942447,10.044510944482763
3.4512490835040808,-0.5536900628730655,9.127149876952172,3.6602350839972497,9.849302433786708
3.461276083253324,-0.6559019871801138,8.993239867687226,3.6367854103446007,9.722899714356881
3.4713020832277834,-0.7901145898550749,8.957815096378328,3.5924190768599513,9.683605071965328
3.481329083442688,-1.1470613776892424,8.159414051771165,3.1817901715636254,8.832642649189765
3.4913560831919312,-5.663273942470551,-2.008823216557503,1.8308059054613115,6.281710971249662
3.5013820831663907,-13.151349284648896,-26.817976262569427,-5.441408361196518,30.360677920294723
3.511409083381295,-12.995132732391358,-41.89223620891571,-19.973340225219726,48.19509569518913
3.5214360831305385,-11.699958093166352,-53.01451044559479,-29.06633593082428,61.5814844057161
3.531463083345443,-8.087579253315926,-63.154691019058234,-27.156520693302156,69.21994331157119
3.5414890833199024,-5.666738417744637,-57.12814360141754,-15.192142152786255,59.384660467411884
3.551516083534807,-7.139815177917481,-43.135405712127685,-10.812818534374237,45.03950745048158
3.5615430832840502,-2.5507343924045562,-24.069827005863193,-11.146178823709489,26.647703848603662
3.5715700834989548,1.1302632772922516,-14.372715690135957,-9.36908017873764,17.19395576303168
3.581596083473414,-0.6193502381443977,-6.8577835017442705,-5.1922240036726,8.623919026672233
3.5916230832226574,-0.8334502784907818,-0.02352978050708771,-1.9614850357174873,2.1313414936679447
3.601650083437562,0.3481098908185959,3.543554188013077,-0.3940181350708008,3.582346587117922
3.6116760834120214,1.5901046884059906,4.725419728159904,0.06094669818878174,4.986154733599194
3.6217030831612647,2.2427963349223137,5.479086649417877,0.46820497602224354,5.938833371239016
3.631730083376169,2.574587816298008,6.554122974872589,0.8799390050768853,7.096430303063546
3.6417570831254125,2.736836648583412,7.658046884536744,1.3314054492115974,8.240667290758834
3.651783083565533,2.8652748334407807,8.456467809677125,1.6950820899009706,9.088176438579831
3.6618100833147764,2.87701691955328,8.890068671107292,1.8655543000996113,9.528422754003905
3.671837083529681,2.934201811552048,9.073269538879394,1.8847084629535675,9.720385094552624
3.6818640832789242,3.02084848433733,9.102859958410264,1.8027687987685204,9.75897332354
3.6918900832533836,3.1170240721106532,9.11171965956688,1.751294882297516,9.788069676162728
3.701917083468288,3.2115647783875465,9.125605627298356,1.756980422437191,9.832487304623712
3.7119440832175314,3.2820921394228937,9.120965276956559,1.7825157979130746,9.85603870553066
3.721970083191991,3.4028590697050096,9.089282723665239,1.78300901055336,9.867807832072303
3.7319970834068954,3.5128413954377176,9.073757196664811,1.7763197958469392,9.890825867977101
3.7420240831561387,3.634291572868824,9.122190853357315,1.6955802726745606,9.964809765509042
3.752051083371043,3.723350806832314,9.171755361557008,1.6272603817284108,10.031570863674913
3.7620770833455026,3.8551903170347215,9.186444736719132,1.571656723022461,10.085800123756895
3.772104083560407,4.053907063901424,9.153009188175202,1.5852690410614014,10.135325234747885
3.7821310833096504,4.271244269013405,9.070689747333526,1.5691915369033815,10.148068889076907
3.79215708328411,4.469049434959889,8.93148683845997,1.6052504387497903,10.115368948723786
3.8021840834990144,4.658430224955082,8.801583341360093,1.7214112249016762,10.106042651844493
3.8122110832482576,4.774724035263062,8.628414541482925,1.8164565458893778,10.027314769951982
3.822238083463162,4.951970683336258,8.475142062306405,1.8750152412056924,9.993284183873222
3.8322640834376216,5.161911453008652,8.323357699513435,1.9402562807500363,9.984398213099347
3.842291083186865,5.456216434836388,8.128587530851364,1.8978936418890955,9.972273226622606
3.8523180834017694,6.117406132221222,7.928164858818055,1.9308184361457825,10.198358478132437
3.8623450831510127,6.346404731869698,7.673270695209504,1.812616971731186,10.12133965781541
3.872371083125472,6.149393910169602,7.3688348275423055,1.501572580933571,9.714396141492426
3.8823980833403766,6.342772441506386,7.081836526393891,1.6115870663523675,9.64263364977296
3.892425083555281,7.089146715402603,6.652611136436462,2.131253972053528,9.9526619343036
3.9024510835297406,7.82496793448925,6.025990762710571,2.567927252948284,10.204750767387345
3.912478083278984,8.440234184861184,4.971957635879517,3.0829757353663445,10.269501215401732
3.9225050834938884,8.49753046631813,3.8335158580541613,2.6288184025883674,9.685791348864832
3.9325320832431316,7.648177369236946,1.7117998641729355,2.079309939444065,8.1085390589527
3.942558083217591,6.048236494660378,-4.876733974814416,1.1523473337292671,7.8544002529794605
3.9525850834324956,4.446920939683914,-16.039094967842104,0.20660610258579254,16.645430583583074
3.962612083181739,2.6136714828014376,-24.481473326683044,-0.6409016132354737,24.62893764949984
3.9726390833966434,-0.8467712590098382,-26.062324211597446,-1.054041605293751,26.097370913201082
3.982665083371103,-5.249410357475281,-27.502205743789673,-2.586314114928246,28.117906226744257
3.992692083120346,-10.781870391368866,-29.39810226917267,-4.755874950885773,31.671998558876496
4.002719083335251,-14.6675252866745,-33.11330147266388,-9.195710819363594,37.36560089076743
4.01274508330971,-15.940344851016999,-36.424666235446935,-14.381697013378144,42.28101362689478
4.022772083524615,-17.31285593390465,-34.318262929916386,-16.96961618900299,42.01721105353237
4.032799083273858,-15.994292432069779,-23.397993621826174,-12.825238373279571,31.109005693866617
4.042826083488762,-12.770227768421174,-14.087895476818085,-7.587880296707154,20.472504576144644
4.052852083463222,-9.049994696974755,-8.447158457636833,-3.0581680458784106,12.75183444922841
4.062879083212465,-5.493386600017548,-4.848817028403283,-0.009559028148651123,7.327237834764554
4.07290608342737,-2.5032000374794006,-1.9348787426948548,2.214602522850037,3.861894678882768
4.082932083401829,0.4507051366567612,0.8444431900978089,3.5381855669617654,3.6653753597371037
4.092959083151072,2.9872711408138275,3.1698568814992907,2.963507764041424,5.268221690994158
4.102986083365977,6.415483152866364,5.5844347643852235,-4.843066291809082,9.78772837941694
4.11301308311522,8.502692388296127,8.112928687334062,-13.896359403133394,18.19956577495218
4.123039083555341,7.882979330420494,8.719223554730416,-8.330688353776932,14.407171511749176
4.133066083304584,6.658684054613114,7.742298830151558,-0.32329942390322686,10.21693628403453
4.143093083519489,6.085835845470429,7.868936657309533,1.2181154266744854,10.022044065332423
4.153120083268732,6.190967028737068,8.523673952221872,0.5637347388267517,10.549828778253
4.163146083243191,6.279018495082855,9.121516669392586,0.11435516595840454,11.07434949401457
4.173173083458096,6.474309065937996,9.381843481063843,-0.5951939650252461,11.414461040297502
4.183200083207339,6.966715959906578,9.168186221122742,-1.5040114545822145,11.612614705858299
4.1932260831817985,7.445699400901795,8.763733729720116,-2.353245853185654,11.737939959786763
4.203253083396703,7.856811286211014,8.228885405659677,-2.805001734495163,11.718023439861026
4.213280083145946,8.0248532474041,7.969549697041512,-2.9731097692251205,11.6940742992273
4.223307083360851,7.901138443350792,8.101085152029992,-3.2436002111434936,11.771852516539896
4.23333308333531,7.751101228594781,8.212444204688072,-3.5778989785909654,11.845892586548322
4.243360083550215,7.726138295531273,8.417764504551888,-3.8720285439491273,12.064185727222762
4.253387083299458,7.617276003956795,8.744694026112557,-3.9625510436296465,12.25538159765558
4.263413083273917,7.526090430021286,9.064724417924882,-4.065603541731835,12.463562816960648
4.273440083488822,7.570864899158479,9.163776835799217,-4.021285155415535,12.548447534209384
4.283467083238065,7.666230647563935,9.15247065961361,-3.7762260085344317,12.521928540934436
4.29349408345297,7.767447119951249,8.933290704488755,-3.375350258946419,12.309748451642454
4.303520083427429,7.930102041363717,8.36543543279171,-2.8588733017444614,11.876034056960064
4.3135470831766725,8.15259502887726,7.693487443327904,-2.374760829359293,11.458361302654824
4.323574083391577,8.496330617666246,7.141652373075486,-2.0253206969797612,11.282409162415721
4.33360108314082,8.733853288292885,6.711466870307922,-1.702667098045349,11.14553973836312
4.34362708311528,8.93383391082287,6.361109309792519,-1.3660658432543278,11.051843099022166
4.353654083330184,8.94063363790512,6.204702138304711,-1.3401106376945973,10.96490560805636
4.363681083545089,8.341137328147889,6.277841450572014,-1.3705598670244217,10.529211725226169
4.373707083519548,7.8620217400789265,6.7244535362720494,-1.3467798256874086,10.432807728595114
4.383734083268791,7.656725413799286,7.188462257981301,-1.3536393405497076,10.589229110800526
4.393761083483696,7.373823087215424,7.693452360033989,-1.2901163591444493,10.734378247378647
4.403788041789085,5.249571155905723,7.546881374716759,-2.404685563445091,9.502416980116443
4.413814041763544,-8.340084829330445,2.6821622586250307,-3.089091630578041,9.289429285167506
4.423841041512787,-36.72506109237671,-11.973336474895477,-5.211012861728668,38.977500607721964
4.433868041727692,-43.40614583015442,-21.715571923255922,-18.73806212425232,52.026671351865986
4.443895041476935,-37.74665854454041,-30.32497248888016,-33.21917817592621,58.719059822287655
4.453921041451395,-30.79518452167511,-32.63946650505066,-25.623965470790864,51.67461436630781
4.463948041666299,-29.54099418640137,-27.345621986389162,-15.40985971927643,43.10356314634868
4.473975041881204,-27.43437570333481,-16.306343128681185,-7.473021100759507,32.777855952371446
4.484001041855663,-25.52314777851105,-11.524128810167314,-2.9108202579617504,28.155097086161902
4.494028041604906,-22.083890376091006,-10.140444867610931,-1.3753437665104866,24.33964680787996
4.504055041819811,-17.931801252365112,-8.367018274068833,-1.940621585547924,19.882718704724947
4.514082041569054,-13.089619059562684,-6.302524302005768,-2.343409374654293,14.715689151346519
4.5241080415435135,-7.8125899636745455,-4.075975040495396,-1.3375909262895584,8.912871813133062
4.534135041758418,-3.6809415364265443,-2.4776070669293406,0.1919944953918457,4.441253118090567
4.544162041507661,-0.5151145559549332,-1.2500288718938828,1.7440548598766328,2.20672665742367
4.554189041722566,1.9195023196935654,-0.12317978382110596,3.0745668545365334,3.6266546234051384
4.564215041697025,3.7950651526451114,0.7684448817372322,4.103139157891274,5.641699920955574
4.574242041446269,5.224821061491967,1.3431984061002733,4.839227594733239,7.247141560393863
4.584269041661173,6.172603263258934,1.6799819478392601,5.261941525340081,8.2831998048314
4.5942950416356325,6.838109959959985,1.8443170666694642,5.514274608492851,8.975994525665731
4.604322041850537,7.3462014251947405,1.9192596602439882,5.6412872421741485,9.459088474672912
4.61434904159978,7.667731627821922,1.9145839342474937,5.7255637460947035,9.759191573494869
4.624376041814685,7.855159447789193,1.8512387081980706,5.7293001168966295,9.897246815877352
4.634402041789144,7.9379454964399345,1.7975168296694757,5.748857883810997,9.96450763588708
4.6444290415383875,8.002012853622437,1.7240942198038103,5.796329088807107,10.030061888844507
4.654456041753292,8.025423350930215,1.6602570967376233,5.835500755906105,10.06066313227435
4.664483041502535,7.981121921539307,1.5691788192093372,5.857456465959549,10.023493679538179
4.674509041476995,7.8651079005002975,1.4770527206361295,5.909923532009125,9.948306548365204
4.684536041691899,7.713117715716362,1.3671496246755124,5.955692027807236,9.840302359319791
4.694563041441143,7.428013912439346,1.217993146777153,5.959774553775787,9.600927596895103
4.704589041881263,7.119281510710716,1.0386887173354626,5.958322105407715,9.341554784512997
4.7146160416305065,6.859842306375504,0.9148498061299325,6.007128814458848,9.164059320498582
4.724643041845411,6.679130013585091,0.7979977329075337,6.142376666665077,9.109136580120552
4.734670041594654,6.374611700177193,0.6455207674205303,6.309257370829583,8.992168812949108
4.744696041569114,6.048615978956223,0.45370124995708466,6.442461036443711,8.848553796592556
4.754723041784018,5.846488843560219,0.32737244814634325,6.58460860311985,8.811678329010848
4.7647500415332615,5.57571130335331,0.197625217884779,6.689043383002281,8.710391130412713
4.774777041748166,5.392691699266434,0.13447748154401779,6.714305693507195,8.612845575200026
4.7848030417226255,5.074763966202736,0.11448438942432404,6.669671557545662,8.381578292518968
4.794830041471869,4.495198475718499,0.07978818118572235,6.765628459453583,8.123232357954997
4.804857041686773,3.9384494054317476,0.08829441815614701,7.059812403917313,8.084561262179164
4.814883041661233,3.3627079939842224,-0.03687663495540619,7.438275191187859,8.163155196298293
4.824910041876137,2.706537546515465,-0.4689200904965401,7.7666787958145145,8.238114533030238
4.8349370416253805,1.789504097700119,-1.1215044406056405,8.20315590262413,8.47064719420782
4.844964041840285,0.5498534488677979,-1.830141077041626,8.896473126411438,9.099394994507481
4.8549900418147445,-1.4066158452630044,-2.6045609360933306,9.426623797416687,9.880462642204105
4.865017041563988,-3.4848554518818857,-3.3629059222340585,9.752599053382873,10.888826477557274
4.875044041778892,-5.4535729086399085,-3.9480701217055323,9.996743695735931,12.052534989536067
4.8850710415281355,-7.653256845474243,-4.6642444038391115,9.91097205877304,13.362443015830705
4.895097041502595,-10.064576075077058,-5.379742455482483,9.323242101073266,14.736355171261287
4.9051240417174995,-12.30435436964035,-6.186034317612648,7.426864349842072,15.646803862237299
4.915151041466743,-13.183216609954835,-7.082749276757241,3.6959764820337297,15.41501799084713
4.925177041441202,-13.95530284523964,-7.902868634462357,-0.010402781367301942,16.03764067354618
4.935204041656107,-15.926911457777024,-8.551502020955086,-3.6946345460414887,18.451152262855324
4.945231041871011,-17.828366346359253,-8.929738520979882,-7.047226856946946,21.148387243625493
4.9552580416202545,-19.35192153453827,-9.101374765634537,-9.448794100284577,23.379726252739314
4.965284041594714,-19.71579610347748,-8.967549540996552,-9.852782907485963,23.79510226467146
4.9753110418096185,-18.1001308965683,-7.5292923653125765,-7.864255376458169,21.12229851653015
4.985338041558862,-18.54214063882828,-6.919572198987008,-7.719944924712181,21.243563931875237
4.995365041773766,-20.721409606933594,-7.45915852189064,-11.554488723278046,24.87010397262893
5.005391041748226,-18.082186961174013,-6.737171815037728,-13.275956958532333,23.42233981755438
5.015418041497469,-13.948114278316499,-4.965978273153305,-13.755918638706207,20.209802812623188
5.0254450417123735,-9.694796403050423,-3.4162103095650673,-15.932703709602357,18.96076521857055
5.035471041686833,-4.827060708403588,-1.4642746540904046,-16.13097109794617,16.901267523709574
5.0454980419017375,-1.535380012392998,-0.10703211307525635,-15.039339205026627,15.117889117847643
5.055525041650981,0.2328805661201477,0.5698289993405342,-15.154063915014268,15.166561627043336
5.065552041865885,1.9950968778133393,0.6948024165630341,-13.671843863725663,13.834105557787804
5.075578041840345,3.9094834685325623,0.438829880207777,-11.414226883649826,12.073160646902988
5.085605041589588,5.138841263651848,0.31806601971387866,-8.198618463277818,9.681229272789043
5.0956320418044925,5.7400157243013386,0.5086403726041318,-5.269251129627228,7.808425130008438
5.105659041553736,6.2732087016105655,1.249892485588789,-2.8322708094120026,6.995508314435853
5.115685041528195,6.543371114730835,2.7026552876830103,-0.675687722414732,7.111723071616104
5.1257120417431,6.485467307567597,4.44765154927969,1.393040657043457,7.986454330522037
5.135739041492343,6.10880546271801,5.8251605397462844,2.95668669462204,8.943824445130037
5.145765041466802,5.7116900575160985,7.152597191333771,4.010522185564041,9.993364703417232
5.155792041681707,4.969201258420944,8.755083943605424,4.52774817109108,11.038340432650571
5.1658190418966115,4.874104481935501,10.38096423625946,4.285459142625332,12.242813117843168
5.175846041645855,5.434850708842278,11.438650703430177,3.7664442014694215,13.212359140791992
5.185872041620314,6.294090278148651,12.112220710515977,2.944649616479874,13.963968788763909
5.195899041835219,7.2341892385482796,12.767308838367462,1.1385055124759675,14.718487140848472
5.205926041584462,11.032705417871476,13.458510539531709,-7.828289737701416,19.082301092835163
5.215952041558921,14.215208072662355,13.580099880695343,-16.740461468696594,25.821198723213104
5.225979041773826,12.728284521102905,12.695189280509949,-16.747548294067382,24.56944101074019
5.236006041523069,11.596079968214035,10.935190232992174,-15.091326799392702,21.94984283832143
5.246033041737974,11.299905631542206,8.498625065088273,-12.424313507080079,18.8222756700915
5.256059041712433,11.223164434432984,6.733855859041214,-7.510604664087296,15.09017617766191
5.266086041461676,10.95009946346283,5.216428552865982,-6.737826118469239,13.874945257896
5.276113041676581,10.475417819023132,4.37531944513321,-5.24642126083374,12.50610789879075
5.2861400418914855,10.099237200021744,4.326741654574871,-3.347314614057541,11.485634527235293
5.296166041865945,10.003358066082,4.317001070380211,-1.4518051743507385,10.991424343741047
5.306193041615188,10.409440176486969,4.596602059006691,1.666756276935339,11.50057701871645
5.316220041830093,10.081329517364502,5.160349076986313,2.576462141275406,11.614670232058408
5.326247041579336,8.707233839035034,5.858432366251946,3.3045913481712343,11.00261218511283
5.336273041553795,7.71162842988968,6.586785521507264,3.5251892530918125,10.73694164169362
5.3463000417687,6.621379988193512,6.7292353892326355,3.97867240190506,10.244760414642766
5.356327041517943,3.70031628549099,5.294648510813714,4.021469927430153,7.6090645839654165
5.3663530414924026,-8.61796907544136,1.7329925125837327,2.1194835269451144,9.042392628885707
5.376380041707307,-41.682405366897584,-8.155441453456879,-6.752503214478493,43.00616748947385
5.38640704145655,-39.39266846179962,-12.560902125835419,-5.188924419879913,41.671135422391664
5.396434041671455,-29.64077575206757,-10.667424008846284,-6.399447748661042,32.14533331071105
5.406460041645914,-20.461273999214175,-10.115105373859405,-7.58635417342186,24.052689247562167
5.416487041860819,-17.24703148841858,-10.144354315996171,-8.672192645072938,21.807680869918958
5.426514041610062,-18.928940970897674,-10.17892773270607,-6.7370460999012,22.523391534570795
5.436541041824967,-22.08138776779175,-10.647327128648758,-4.632372108399868,24.94818895404482
5.446567041799426,-23.75218754053116,-11.284770698547364,-2.3422057253122333,26.40072707974237
5.456594041548669,-21.43679305315018,-10.545147035121918,-0.3721916484832764,23.892985351753957
5.466621041763574,-16.694060304164886,-8.587371180653573,0.4130262637138367,18.77778431892141
5.476647041738033,-12.391410055160524,-6.836676222682,1.0730459332466127,14.192907119536006
5.4866740414872766,-8.530079576969147,-5.492584946751595,1.9658195766806603,10.334175999796466
5.496701041702181,-5.0617445558309555,-4.4619974005222325,3.2498921075463296,7.489491135013339
5.506728041451424,-1.9550791186094285,-3.127945209145546,3.580710319876671,5.140803632342952
5.516754041891545,0.34511319279670716,-1.7905375930666925,2.7617621594667434,3.3094498354696076
5.526781041640788,2.534660396575928,-0.5440609046816827,2.1592960488796233,3.3738798171660833
5.536808041855693,4.923083683848382,0.721595528125763,2.3650490427017212,5.509166002106814
5.546835041604936,6.345228272080422,1.1137149991840125,2.5483446353673935,6.927939326006104
5.5568610415793955,6.796895275712013,0.5965297248959541,2.884272437095642,7.4076082910120435
5.5668880417943,7.28500972867012,0.4140521577000618,3.7593702399730686,8.208268425027873
5.576915041543543,7.851865126490593,0.5268760109692813,4.622794661521912,9.126862263567338
5.586941041518003,8.195240526795388,0.7054442028701305,5.23237098634243,9.748708886519829
5.596968041732907,8.31331335246563,0.8944126179814339,5.632510571479798,10.081484422708762
5.6069950414821506,8.289805206656457,1.136536608785391,5.79987016260624,10.180917430689044
5.617022041697055,8.03423276603222,1.433000821173191,5.845004820227623,10.038250287811762
5.6270480416715145,7.1391409939527515,1.8228624629974366,5.612251138687134,9.262155501514581
5.637075041886419,6.455344206690788,2.289260064661503,5.274615949988365,8.64486864506234
5.647102041635662,6.095446329116822,2.8455741021037104,5.045669390559197,8.408955792518658
5.657129041850567,5.57175273835659,3.428591496348381,4.85008061170578,8.14389035819251
5.667155041825026,4.970311059951783,3.9765811452269557,4.79919112443924,7.971789327757596
5.6771820415742695,4.330576550960541,4.496526670753956,4.889189713597298,7.929490615422694
5.687209041789174,3.750738580226898,4.954661571979523,4.934988030195236,7.935415430097113
5.697236041538417,3.3981397819519046,5.380756362676621,5.02542516052723,8.108932793914944
5.707262041512877,3.0984419131278993,5.822182552814484,5.1867779070138935,8.390519472834354
5.717289041727781,2.885272895693779,6.133897034525871,5.357814812064171,8.64035138597758
5.7273160414770246,2.785204231739044,6.4496525269746785,5.515004925727845,8.93144219384587
5.737342041451484,2.680640228390694,6.828659105300904,5.5600267320871355,9.204907086548946
5.7473690416663885,2.4745399099588394,7.273741559386254,5.495248938202859,9.446079871118046
5.757396041881293,2.047013720870018,7.790300962328911,5.466301712393761,9.734449582180384
5.767423041630536,1.564791507124901,8.303437405228616,5.49154355764389,10.077335751517861
5.777449041604996,0.7823907834291458,8.900504196882249,5.380358167290688,10.429734622944393
5.7874760418199,-0.2514454758167267,9.435838424563409,5.106344777941704,10.731869762207724
5.7975030415691435,-1.5648198661208153,9.932812578678131,4.768154688477517,11.128554536407817
5.807530041784048,-3.2871312698721886,10.251200487613678,4.23232052385807,11.567405951175601
5.8175560417585075,-4.963508409261704,10.353718550205231,3.57447134077549,12.025504102186357
5.827583041507751,-7.045621211528778,10.114787285327912,2.806901494860649,12.642325580589452
5.837610041722655,-10.749196150302888,8.454225402474403,1.189831202030182,13.72715714643256
5.847636041697115,-15.43765504360199,5.5340510612726215,-1.2106689244508744,16.444227973324065
5.857663041446358,-22.025785424709323,1.994154891371727,-4.549348955154419,22.578938266045284
5.8676900416612625,-29.63703119516373,-2.261476727128029,-9.930277225971222,31.33812854710843
5.877717041876167,-34.48174640178681,-6.105370223522186,-14.934309178590775,38.069672590201634
5.8877430418506265,-31.5417359662056,-8.016685856580734,-16.113041195869446,36.314989418485524
5.89777004159987,-25.88788773536682,-8.634444190263748,-16.548430720567705,31.915308508412767
5.907797041814774,-23.47097622871399,-8.940189249515534,-20.61321272850037,32.49181816913944
5.9178240415640175,-19.56654709339142,-8.586988188028336,-20.378379192352295,29.527351215551647
5.927850041538477,-14.975774123668671,-7.9062775611877445,-17.165479202270507,24.112998812285177
5.9378770417533815,-10.247571705579759,-7.832044234871865,-11.643403823375703,17.375917108233118
5.947904041502625,-6.928158250451088,-7.870806596875191,-5.855650845766068,12.009896754603195
5.957930041477084,-4.82538255751133,-6.977873032093049,-2.468935353755951,8.83576089872129
5.967957041691989,-1.871193208694458,-5.414924567341805,-0.17985684514045716,5.731938640548237
5.977984041441232,1.8736513781547548,-3.6905300930142406,1.677358886897564,4.4658834164988175
5.9880110416561365,5.344938073754311,-1.7947320932149888,2.6501803278923037,6.229998560917302
5.998037041630596,7.601297317743302,0.1905686153098941,-5.544370812177658,9.410424273793408
6.0080640418455005,18.80941452741623,6.449910973906517,-80.8872191619873,83.2954839723911
6.018091041594744,9.821631281375886,-4.882355780303478,-36.40834080934525,38.024585724004915
6.028118041809648,-2.9056334853172303,-11.023501900434495,-0.009488715380430222,11.400017111197652
6.038144041784108,5.169044471383095,-5.066527578234672,3.2630036115646366,7.939516044270739
6.048171041533351,11.405505176782608,8.356204433441162,7.519231646060944,16.01407335496503
6.0581980417482555,8.209978433847429,8.772735518217088,11.245600200891495,16.456857483587758
6.068225041497499,11.873978247642517,4.79294892936945,5.881791408061981,14.091103187223602
6.078251041471958,12.371949352025986,2.88180695861578,3.31605773806572,13.128830147351595
6.088278041686863,11.972687433958054,2.3216208949685098,1.398503272086382,12.275625416786218
6.098305041901767,11.215588781833649,0.9459078767895699,0.6464745213836431,11.273956836060867
6.108331041876227,10.98536051273346,0.44963597327470783,0.08046104952692985,10.994852981448966
6.11835804162547,10.975960528850557,0.6180907478928567,-0.10114520944654942,10.993815354867033
6.1283850418403745,10.975394518375397,1.181579611301422,0.20982959948480132,11.04080810777218
6.138412041589618,10.898040533065796,1.9685429173707962,0.2796115136146545,11.07793443185243
6.148438041564077,10.737021077871324,2.9867279344797137,0.03872493982315064,11.144759530928376
6.158465041778982,10.621014658212662,3.9549072709679605,-0.7316574899107218,11.357049201903898
6.168492041528225,10.77917599439621,4.666664274036885,-2.3177702111005782,11.972487181709779
6.1785190417431295,11.08974500656128,4.640388348698616,-3.510491691827774,12.52354583397532
6.188545041717589,11.327003967761994,4.094029195904732,-3.8617117166519166,12.648118884843825
6.198572041466832,11.51456627368927,3.5205766770243647,-4.1446719306707385,12.734127454320545
6.208599041681737,11.322047867774964,2.943917545080185,-3.4617954951524736,12.199977314842702
6.218625041656196,10.997564821243287,2.515064038038254,-2.2053995901346206,11.49503225158795
6.228652041871101,10.86911903500557,2.4582627233862877,-1.3396128934621812,11.223874862035887
6.238679041620344,10.902592005729677,2.801156020760536,-1.371952089071274,11.33998412832887
6.2487060418352485,10.496961300373078,3.3774584725499155,-1.5132449389994145,11.130288968429195
6.258732041809708,10.269883511066437,4.132564685940743,-1.2588400411605836,11.141511408403618
6.268759041558951,10.608551902770996,5.255066953897477,-0.8009791550785303,11.865861526690836
6.278786041773856,11.529474334716797,8.072525011897088,-0.22503608778119089,14.076401519685394
6.288813041523099,12.976267275810242,12.062294844388962,1.4247150242328646,17.77392140824616
6.298839041497558,-1.287678508758545,8.29385557293892,-0.24389555096626284,8.396763736492158
6.308866041712463,-47.331980452537536,1.114236643910408,-9.824715102910996,48.353727092245904
6.318893041461706,-63.35840333461762,-8.981092861890794,-30.0371959233284,70.69073801455468
6.328920041676611,-45.58235787391663,-13.938785630464555,-33.5810155749321,58.30716680856382
6.33894604165107,-31.13809799194336,-8.449254684448242,-10.65328310251236,33.97739678287336
6.348973041865975,-34.2681312417984,-8.361621878743172,-7.718068553209306,36.10803402901125
6.359000041615218,-32.96485937833786,-6.359862098693848,-7.456419686079026,34.390812643538084
6.369026041589677,-30.97522730827332,-4.673789398670197,-1.5809397625923158,31.365719897290237
6.379053041804582,-26.294236478805544,-3.6661983668804172,2.977090846002102,26.714994897510543
6.389080041553825,-20.987462596893312,-2.868946592509747,5.302712990641594,21.836281869122963
6.39910704176873,-15.849946897029877,-2.2639325577020646,5.462022135257722,16.916852339325295
6.409132791683078,-10.501662461757661,-1.5387541481852531,4.565652161836624,11.554127334079833
6.419159791897982,-5.279929899573326,-0.6809054853022098,3.7737020578980447,6.525497624404362
6.429186791647226,-1.2346337378025056,-0.19471441911533477,2.8453668183088303,3.1077880401122155
6.43921379186213,1.946766716837883,-0.17156686378642919,2.5231372886896133,3.191482040700407
6.44923979183659,4.363113967180253,-0.21999198719859125,2.7131349599361423,5.142592855346676
6.459266791585833,5.70373842895031,-0.39275849863886836,3.4498104572296144,6.677430905291976
6.469293791800737,6.136994304656983,-0.7777875629067421,4.375786052942276,7.577278942306981
6.479320791549981,6.3239058154821395,-1.0798587434738876,5.243402928113937,8.285599189889627
6.48934679152444,6.49781604230404,-1.1668676512688398,5.9519398695230485,8.888688409749744
6.499373791739345,6.422941861152649,-1.1896599517017603,6.584101064801216,9.274689201474441
6.509400791488588,6.123399528265,-1.2235585997253657,7.045427083969116,9.414412367495036
6.519426791463047,5.518295153975487,-1.1762280202656985,7.357935617566109,9.272233297016175
6.529453791677952,4.887648972272873,-0.9672347187995911,7.665119091868401,9.142139036895953
6.539480791892856,4.641120420098305,-0.6807212249189616,7.864712044000626,9.157350909239918
6.5495077916421,4.301311821341515,-0.450915197879076,8.004313148260117,9.098001806743081
6.559533791616559,3.94422820866108,-0.30141790039837363,8.11899692773819,9.031384169954267
6.569560791831464,3.5513146126270296,-0.1268353168666363,8.31468978703022,9.042233625051256
6.579587791580707,3.106864827275276,0.016925862058997154,8.604186018705368,9.147945812271278
6.589614791795611,2.641580827832222,0.14733302369713783,8.84672852396965,9.233864947391245
6.599640791770071,2.311769798398018,0.31219307631254195,9.043472712635994,9.33949371335912
6.609667791519314,2.0591250586509706,0.49463219806551934,9.228303784132004,9.468170243016997
6.619694791734219,1.7116229858994485,0.6677472035586834,9.370301077365875,9.548721477465131
6.629721791483462,1.3503480890393258,0.8582037350535393,9.484003694057465,9.618018490381875
6.639747791457921,0.7419610878825188,1.075085588246584,9.434430415034294,9.524431349645578
6.649774791672826,0.25916058450937274,1.4442635817825795,9.43861702144146,9.551992084359743
6.65980179188773,-0.20782963246107103,1.8901805797219278,9.53831848025322,9.726021551015963
6.66982779186219,-0.569390750527382,2.375326401293278,9.636734136343003,9.941480078641487
6.679854791611433,-0.7297325134277344,2.817720305621624,9.585362838506699,10.017546506390234
6.689881791826338,-0.6523294115066529,3.303242687880993,9.554825754761696,10.13072757110827
6.699908791575581,-0.24650925636291504,3.8793708926439288,9.597924411892892,10.355213100297602
6.70993479155004,0.007834099531173706,4.46425617992878,9.662274774312973,10.643739870340339
6.719961791764945,0.04705108255147934,5.091195226907731,9.637271495461464,10.899517627862775
6.729988791514188,-0.1747381925582886,5.7452115601301195,9.349270396828652,10.97482784646793
6.740015791729093,-0.43844352543354037,6.448576639294624,8.890663332939148,10.991827322948609
6.750041791703552,-0.9537305742502213,7.013084380030632,8.27777923822403,10.891032258076462
6.760068791452795,-1.758554492890835,7.509645720720291,7.472205998897553,10.738768795591033
6.7700957916677,-2.8452071893215183,7.935725893378258,6.434441580176354,10.605328276564727
6.780122791882604,-3.9192217138409617,8.224671317338943,5.4386478906869895,10.61058000296753
6.790148791857064,-4.451106084287167,7.995741714835168,4.762926692962647,10.316477190711447
6.800175791606307,-6.034918876290321,7.074099490642548,3.913888176083565,10.088689216236228
6.810202791821212,-10.944177403450013,5.400548018217087,2.4471509671211242,12.447067357057895
6.820228791795671,-18.99236805796623,2.6192918264865876,0.3476678413152695,19.175286361602016
6.830255791544914,-28.026853015422823,-1.321911032795906,-3.4014954990148545,28.26344123344787
6.840282791759819,-35.563675425052644,-6.139979892969132,-9.239984766840935,37.25388142618177
6.850309791509062,-41.15386852741241,-11.469353263378144,-17.839347417354585,46.29718431318242
6.8603357914835215,-40.272955083847044,-15.033708336353303,-24.01106014966965,49.23874802469245
6.870362791698426,-32.86424283027649,-14.588293175697327,-25.018621945381167,43.804202979090775
6.880389791447669,-25.911936163902283,-12.657411589622498,-25.66149290084839,38.602470410733424
6.890416791662574,-20.16596154212952,-12.262143319845201,-24.972232475280762,34.360421396055926
6.900442791637033,-14.090136129856111,-11.747472567558289,-20.956362426280975,27.851466281419587
6.910469791851938,-10.312416157722474,-11.973014878034592,-16.742195752859118,23.021731709555368
6.920496791601181,-7.710678842067719,-13.343486452102661,-12.186738796234131,19.647386630048185
6.930523791816086,-4.134644540548325,-13.952523078918457,-8.58595673918724,16.896355786726115
6.940549791790545,0.9013898080587388,-15.271311113834383,-18.57835361480713,24.066172727677554
6.950576791539788,8.741092725992203,-21.524000766277315,-55.50146691799164,60.16728464107401
6.960603791754693,3.228215602040291,-19.679994771480562,-34.75081655502319,40.06672960723938
6.970629791729152,2.4002937197685243,-16.29220222234726,-13.206617166996002,21.109523921458077
6.9806567914783955,2.617511934041977,-18.08033339381218,-0.9351824752986432,18.292741473556053
6.9906837916933,-1.7400062477588654,-17.21543898224831,7.86590838432312,19.007142757508802
7.000710791442543,-4.011717356443405,-13.20305621266365,20.55934116125107,24.760877982968577
7.010736791882664,-0.532993587255478,-4.250451862514019,26.34943419456482,26.6953761084819
7.020763791631907,7.635409973859788,7.043293434977532,22.15791378736496,24.472037334239527
7.030790791846812,10.225449349880218,7.993751907348633,16.663391658067702,21.121754319027715
7.040817791596055,12.457235670089723,11.905491231679918,10.046324576139451,19.94622970631058
7.050843791570514,11.056480196714402,10.500819293260575,4.294592785835266,15.841606211688244
7.060870791785419,10.727498302459717,3.2175853639841083,-1.772264751791954,11.339003384523926
7.070897791534662,10.760245048999787,1.5420747819542886,-3.015374028682709,11.280662599356386
7.080924791749567,10.779311649799347,1.8787013259530068,-3.3518052756786347,11.443674100642006
7.090950791724026,11.053845441341402,2.903707412481308,-4.276428410410881,12.202739681224553
7.1009777914732695,10.864063532352448,4.41129824012518,-5.678150428533554,13.028001415696025
7.111004791688174,11.146637245416642,6.903695254325867,-10.93812085747719,17.07486509282836
7.121030791662633,11.405845484733582,8.524746916294099,-14.628745383024217,20.41481845840995
7.131057791877538,10.327841112613678,8.559509782791139,-8.566904756426812,15.916072595800099
7.141084791626781,9.487400341629982,8.957146174907685,-5.223772071003914,14.05450203638765
7.151111791841686,9.287612092494966,9.374819220900536,-4.026164949238301,13.79699162874646
7.161137791816145,9.696283349990845,9.21390209197998,-2.7566014069318774,13.656967228510199
7.171164791565388,10.328114762306214,8.573916737437248,-1.8147092516720296,13.545300750886936
7.181191791780293,11.001692955493928,7.652102605104447,-1.2584469620883465,13.460148993321003
7.191218791529536,11.430509040355682,6.779954137802124,-0.9035322278738023,13.320686375677484
7.201244791503996,11.685793797969819,5.796807391047478,-0.608254269361496,13.058741358713291
7.2112717917189,11.85714762210846,5.011238645911217,-0.4278879855573178,12.87973410544374
7.2212987914681435,11.86720015525818,3.8583352419734003,-0.3632266974449158,12.483954661810914
7.231325791683048,11.96027613401413,3.4439687964320185,0.21302444502711299,12.44807236831649
7.241351791657507,11.97447902083397,3.6310937306284905,0.5995522968471051,12.527268355777212
7.251378791872412,10.720748276710511,3.5580994293093684,0.5192992620170117,11.307704757596674
7.261405791621655,9.882256382703781,3.7092949774861337,0.44006539687514307,10.564635251489772
7.271431791596115,9.623213034868241,4.484372940659523,0.4881669317185879,10.627988367447571
7.281458791811019,9.465466266274452,6.16813482105732,0.6386403487622738,11.315864982571444
7.291485791560262,10.896940087080003,11.068544172048568,2.280143963098526,15.698886261211529
7.301512791775167,4.722268663644791,14.507356016635896,6.124849637746811,16.44010288927872
7.311538791749626,-38.49916713237763,6.395760494470597,3.662313476800919,39.19826733660219
7.32156579149887,-65.80610394001008,-2.8106138920783996,0.013236926794052124,65.86609933364798
7.331592791713774,-74.15936605453491,-16.15162580251694,-26.761955258846285,80.47787794761692
7.3416197914630175,-51.86055541992188,-41.64447330951691,-45.24853799343109,80.4438285776655
7.351645791903138,-24.257522628307346,-33.339149007797246,-23.384963686466218,47.400240371165786
7.361672791652381,-13.835397502183914,-4.64880980104208,-3.349944106936455,14.975038635319113
7.371699791867286,-12.689006434679031,-1.4231000232696533,-0.3946674683690071,12.77465695766993
7.381726791616529,-13.190303435325623,-0.5989278142154217,-0.6594302701950073,13.22035050684562
7.391752791590989,-15.80577702999115,0.8874930229783059,-0.4114209106564522,15.836019024785125
7.401779791805893,-17.089489957094194,1.2915008336305618,-0.714633248448372,17.153114646520603
7.411807291675359,-15.672025480270387,1.8617948327958584,-1.2432712447643282,15.831120808133814
7.421834291890264,-11.053426780700685,1.8154180803894997,0.016211113035678865,11.201528877930103
7.431860291864723,-6.179785398244858,1.4774148094654085,1.0565082532167436,6.4411731677314155
7.441887291613966,-2.3076592057943346,1.2753628107905388,2.068660405576229,3.3512978355905183
7.451914291828871,0.8543729317188263,1.006061107814312,2.891810082793236,3.1787855564751464
7.461941291578114,3.483306232094765,0.685184770077467,3.4107770767807963,4.923037755612859
7.471967291552573,5.532562360167503,0.3454012778028846,3.8178958985209466,6.730889792872347
7.481994291767478,6.962708278298378,0.027682674061506988,4.1649483203887945,8.113375833192828
7.492021291516721,7.85955363035202,-0.16495994864031674,4.535272368192673,9.075708815664317
7.502047291491181,8.359346142411232,-0.3008279163390398,4.887274750471115,9.687859404971096
7.512074291706085,8.559510952234268,-0.36751595903187995,5.204934096336365,10.024551594398941
7.5221012914553285,8.646388882398606,-0.3566976233571768,5.518054248690605,10.263342369407118
7.532128291670233,8.609423369765283,-0.3426473488658667,5.8193951851129535,10.397352465222156
7.542154291644692,8.510881413817406,-0.327216619849205,6.0359789764881135,10.43911947249262
7.552181291859597,8.43550846517086,-0.30339491710066796,6.19784803211689,10.472018514637329
7.56220829160884,8.341565929055214,-0.23978758960962296,6.334572306275368,10.47692829699318
7.572235291823745,8.209172687530518,-0.22378025203943253,6.496353068947792,10.471064750603315
7.582261291798204,8.09186935544014,-0.17066480286419392,6.677423211336136,10.49263822323721
7.592288291547447,7.862210605144501,-0.09433481119573117,6.901656914949418,10.462128025785152
7.602315291762352,7.409733177423478,-0.03131257528904825,7.172998711466789,10.312954802222576
7.612342291511595,6.990488399863244,-0.05837749558500946,7.458736937642098,10.22267541818481
7.622368291486055,6.729758715033531,0.002026553582400084,7.718396582007409,10.240278427202693
7.632395291700959,6.517033501267433,0.1436012575775385,7.98257553935051,10.30601082957208
7.6424222914502025,6.3258301341533665,0.33411238744854926,8.172542805075645,10.340126395475206
7.652448291890323,6.140955208539963,0.520855608098209,8.263472855687143,10.308618000219994
7.662475291639566,5.964354677796364,0.6834976290911436,8.293963161706925,10.23867768118892
7.672502291854471,5.755697371959687,0.8398566341400147,8.252886471748353,10.096709687767577
7.682529291603714,5.548746283650399,1.0498736368864776,8.16209733903408,9.925253293776464
7.692555291578174,5.325312479138375,1.2906775456666948,8.08055967092514,9.763208802578019
7.702582291793078,4.987801836133004,1.5251769134402275,7.999778047800064,9.549909977999093
7.712609291542321,4.493781110644341,1.800177458971739,7.878319099545479,9.246762643673565
7.722636291757226,3.5574962890148165,1.973566406518221,7.627219194173813,8.644374867118204
7.732662291731685,2.481199888586998,2.142623882889748,7.289706212282181,7.992934795933161
7.742689291480929,1.9024723041057587,2.47969890832901,7.226949800848962,7.873824418149569
7.752716291695833,2.02829619884491,3.0205415055155758,7.4495503771305085,8.290564352213684
7.7627432914450765,1.9677032572031021,3.738910540044308,7.802181335091591,8.872730229219961
7.772769291885197,1.036554629802704,4.577821387052536,7.955464339256287,9.236899209447914
7.78279629163444,-0.5746666932106018,5.4622735655307775,7.688898548483849,9.44911822350948
7.792823291849345,-2.1546235388517383,6.30817388176918,7.12278691649437,9.755488392417481
7.802850291598588,-3.579390018582344,7.23204506456852,6.337500007152558,10.260527036255763
7.812876291573048,-4.327482204437256,8.066188969016075,4.834004276990891,10.351719860176084
7.822903291787952,-4.128890880346298,8.457805652618408,3.0817019194364548,9.903489439562655
7.8329302915371954,-3.9361081802845,8.817032854557038,0.30377630174160003,9.660501850667004
7.8429572917521,-3.573869662284851,8.728645173311234,-1.8370068776607513,9.609182337386592
7.852983291726559,-1.5509973406791688,7.267068132162095,0.7420356398820878,7.467696356918574
7.863010291475803,0.6763304775953293,5.977911447286606,2.64805018723011,6.573052409696274
7.873037291690707,0.7534605145454407,5.230294055342674,2.644477538466454,5.909055770915146
7.883063291665167,0.5240362375974655,4.702018294036389,1.842156520485878,5.077118342301745
7.893090291880071,0.1582519680261612,4.18745249927044,0.8651598751544953,4.278820366480433
7.903117291629314,-0.7862809360027314,3.6216361516714097,-0.1523673301935196,3.709137626015639
7.913144291844219,-2.0219929003715515,2.922516151070595,-0.9955773425102235,3.690627343330828
7.923170291818678,-2.7979266035556796,2.0728354637324813,-1.5027683365345001,3.7925390982667984
7.933197291567922,-3.7763230723142627,1.174496294260025,-2.056456389427185,4.457473541518722
7.943224291782826,-5.303360277414322,0.5431934702396393,-2.3732632112503054,5.835500633882342
7.9532512915320694,-7.513329466581345,0.19500230312347414,-1.710392439365387,7.708021008550849
7.963277291506529,-10.319564963579179,0.11302755564451218,0.037628586888313297,10.320252524837613
7.973304291721433,-13.519031560420991,0.4230808433890343,1.5936065858602524,13.619206793429592
7.983331291470677,-16.258211188316345,0.7545998445153237,1.6822035974264147,16.362416108644585
7.993358291685581,-18.680902082920074,0.9220480209589005,1.0010988682508468,18.730415748952687
8.00338429166004,-19.135552335977554,0.8665070736408234,1.8074632358551026,19.24024742721812
8.013411291874945,-17.610966868400574,0.7588031154870988,3.3999427708983423,17.952201732750208
8.023438291624188,-15.512463151216508,0.9618166887760163,2.9578885897994045,15.821210739710269
8.033465291839093,-13.10815239429474,1.2826545810699463,1.2532701297104358,13.230251244191058
8.043491291813552,-11.185767982006073,1.4193402636051178,-0.05683800593018532,11.275600325041722
8.053518291562796,-10.420435280799866,1.491204005777836,-0.6427819316089154,10.546199762937801
8.0635452917777,-10.91080851316452,1.9377058714628221,-1.786378176212311,11.224597696295955
8.07357129175216,-15.285802853107453,7.380088963508606,-13.21597505092621,21.512402899724464
8.083598291501403,-22.668654041290285,2.7522241812944412,-132.46445125579834,134.41827800000854
8.093625291716307,-15.752946267127992,1.1369516149163246,-36.29133802413941,39.579150959211205
8.10365229146555,-1.7836983972787859,-0.6639817428588868,5.913012031316757,6.211776155802909
8.113678291905671,-0.8193679904937744,-1.0123278611898423,-4.412587843537331,4.600772009056789
8.123705291654915,-2.705074573159218,-1.551872668862343,0.4455578327178955,3.1502791954064526
8.13373229186982,-6.320993317365646,-1.344407025575638,1.5298912310600281,6.641005492203169
8.143759291619062,-9.832648605108261,-0.4798111143708229,1.37601838901639,9.940051504088018
8.153785291593522,-15.009741768836976,-0.23272941559553148,-0.19395915985107423,15.012798909721761
8.163812291808426,-18.465064980983737,-0.569017405807972,-2.190398266017437,18.603232249365604
8.17383929155767,-16.371463569402696,-0.653179889023304,-3.5259093376994133,16.759579351206284
8.183866291772574,-12.287769327163696,-0.6014896255731583,-2.5071270275115967,12.555347495761964
8.193892291747034,-10.832365776300431,-0.6749748006463051,0.3381760561466217,10.858641827504176
8.203919291496277,-10.769324605464936,-0.6085931155085564,2.239862786829472,11.016611245838732
8.213946291711181,-11.072806792259216,-0.4264323212206364,1.8884883955121041,11.240786591838996
8.223973291460425,-12.394275190830232,-0.24057696372270584,0.3067054644227028,12.400403341158324
8.233999291900545,-14.152600765228271,-0.04373117968440056,-1.0999717766046524,14.195349898658476
8.244026291649789,-15.193083554506302,0.3588338305056095,-1.6666660836338998,15.288437639159232
8.254053291864693,-15.261862013339996,0.9573872767388821,-1.5402852416038515,15.369238794988986
8.264079291839153,-14.834830498695375,1.608114404976368,-0.9971502435207368,14.955017100380342
8.274106291588396,-14.235417219400407,2.158515591770411,-0.6875381281971932,14.414541326314984
8.2841332918033,-13.100168606042862,2.6105718737840653,-0.5643998596072197,13.369669039152319
8.294160291552544,-11.771443812847139,3.2750988695025445,-0.23122054159641267,12.220745680313055
8.304186291527003,-10.157666087150574,4.027258086204529,0.2818317013978958,10.930526846353812
8.314213291741908,-8.040583426952363,4.719168469905854,0.952305900156498,9.37168178186858
8.32424029149115,-5.609538615345955,5.03727103471756,1.587147459089756,7.704548008232345
8.334267291706055,-2.606508643627167,4.928958381414414,2.061853954195976,5.94472537325755
8.344293291680515,0.2621002721786499,4.6709280636906625,2.474803619384766,5.292534221275197
8.35432029189542,2.742883254289627,4.2897422280907636,2.7329488348960878,5.778780690101282
8.364347291644663,4.593032918572426,4.029998091459275,2.733415150344372,6.693907259022004
8.374374291859567,5.866685126423836,3.92985370606184,2.522007021903992,7.498150701485246
8.384400291834027,6.97829344689846,3.6058074465394023,1.8621756327152252,8.07255380035484
8.39442729158327,7.9341184937953955,3.0510350275039673,1.2227875712513925,8.588030068476073
8.404454291798174,8.64823835670948,2.370195031017065,0.6720289734005929,8.992300823516134
8.414480958133936,9.232970446944238,1.7944903108477592,0.20702651739120484,9.4080177895652
8.424506958108395,9.673334782719612,1.3762825369834901,-0.20940501853823662,9.77299390678045
8.4345339583233,10.06685648918152,1.0858480464667082,-0.6881636340916157,10.148607527196912
8.444560958538204,10.33949110507965,0.8949643758684397,-0.917014079913497,10.418586870053653
8.454587958287448,10.530772240161896,0.724643535465002,-1.052677742242813,10.608034815962334
8.464613958261907,10.61659767150879,0.6059254695475101,-1.183679931163788,10.699550923883308
8.474640958476812,10.755837417840958,0.5210909219831229,-1.5013381075859071,10.872607342366894
8.484667958226055,10.945517585277559,0.3790181265771389,-1.7300168645381928,11.087874832513258
8.494693958200514,11.010763156414033,0.1653213979303837,-1.719123501777649,11.145385684920132
8.504720958415419,11.075662572383882,-0.05600346207618714,-1.6389476501941682,11.196409567586684
8.514747958164662,11.040207395553589,-0.36049020051956177,-1.3916396641731263,11.133408888404606
8.524774958379567,10.985690295696259,-0.6366283218562603,-1.2221568759530783,11.071781894644776
8.534800958354026,10.910928965806962,-0.9765667288005353,-1.112928548678756,11.010933812676821
8.54482795856893,10.792154474258423,-1.2649762554466726,-0.9376337742805482,10.906416470031372
8.554854958318174,10.659290531873703,-1.5434662730991842,-0.6508079659938812,10.790102584669349
8.564881958533078,10.480768021345138,-1.842176108658314,-0.288946008682251,10.645355838509852
8.574907958507538,10.322426590919495,-2.056933814585209,-0.10988672375679016,10.525946158638847
8.584934958256781,10.240633399486542,-2.311090936660767,0.056679400205612185,10.49832969069854
8.594961958471686,10.169975645542145,-2.607940334379673,0.17098548609763384,10.500428251031515
8.604988958220929,10.085997934341432,-2.9095557975769046,0.2785111041739583,10.500973178991613
8.615014958195388,9.957833983898164,-3.2558936896920208,0.38420065999031067,10.483649723096937
8.625041958410293,9.840570412874222,-3.5738149908185006,0.4154189443588257,10.47766923216546
8.635068958159536,9.70473959326744,-3.8514138928055766,0.35503357887268067,10.447076547482345
8.64509595837444,9.611349619030953,-4.08968588411808,0.28598147034645083,10.449179753999003
8.6551219583489,9.543088638782502,-4.275420642793179,0.15966465532779694,10.458262534601177
8.665148958563805,9.463819690346718,-4.415250080823898,0.04161286136135459,10.443181892404267
8.675175958313048,9.423611896634103,-4.512176743447781,-0.06671384353190661,10.448380299329347
8.685202958527952,9.307523031234743,-4.603137784302235,-0.1956723940372467,10.385429703388509
8.695228958502412,9.192015963792802,-4.690652476251126,-0.2789490240812302,10.323429211730877
8.705255958251655,9.04308094918728,-4.788404765725136,-0.3206256749108434,10.23762345846853
8.71528295846656,8.898331371545792,-4.883086389899254,-0.41324955426156523,10.158523961833861
8.725309958215803,8.809315699338914,-4.911150101423264,-0.5748298305273056,10.102171437042278
8.735335958190262,8.767789943218231,-4.903913587331772,-0.7185345107316972,10.071683116715317
8.745362958405167,8.72009654402733,-4.835323408842087,-0.8412734875828028,10.006406811946203
8.75538995815441,8.779959168434143,-4.734747791290284,-0.9683731716871262,10.022138805970629
8.76541595812887,8.844292573928833,-4.562815677523613,-1.093035297766328,10.011769284320883
8.775442958343774,8.879615018963815,-4.2185421448946006,-1.1938155678659679,9.902972095453912
8.785469958558679,9.086560844779015,-3.473926128745079,-1.3256532508134842,9.817897293985167
8.795496958307922,9.528513869047165,-1.9233480334281923,-1.4635282570123673,9.830247157085621
8.805522958282381,10.070158996582032,0.5713653552532196,-1.5014006727933884,10.197488149828374
8.815549958497286,11.067705681324005,4.547760266661644,-0.8061509442329408,11.992752471235521
8.825576958246529,12.051414345502854,8.301303756237031,-0.22717953085899353,14.635567714289335
8.835603958461434,11.963190386295318,11.475095229148865,-0.02560495734214783,16.5769837531025
8.845629958435893,9.436147742271423,17.34644000172615,0.20691311795264483,19.747979086120182
8.855656958185136,3.583391852974892,14.546677372455598,1.2856378304958345,15.036601490412671
8.86568395840004,-0.4182525050640106,10.42969259262085,-0.6832356007397176,10.460412688832152
8.875710958149284,-4.75558259010315,7.627416830062867,-7.507634278535844,11.711431412558623
8.885736958123744,-10.376155486106873,5.14440488934517,-14.32963691353798,18.424657348542866
8.895763958338648,-17.528818166255952,2.4270878545939922,-18.947809935808184,25.92623619276608
8.905790958553553,-36.88371710300446,-2.9519545429944993,-23.000448446273804,43.567685865651264
8.915817958302796,-36.78837006568909,-8.523649978637696,-15.273876872062685,40.7348511197887
8.925843958277255,-23.817241322994235,-11.560317227840423,-5.768556568622589,27.09572223675625
8.93587095849216,-13.045258573293687,-10.601911804676057,-1.0466457545757295,16.84264743126191
8.945897958241403,-7.981568648815156,-8.860842533111573,1.6062166911363602,12.033283032956266
8.955924958456308,-4.89182797729969,-7.841168814897538,3.0428214436769485,9.729988267275244
8.965950958430767,-1.6152687656879425,-7.1757603514194495,3.9544798395037652,8.350960460177749
8.97597795818001,0.6678952842950822,-6.434543906450272,4.0300141713023185,7.621709363109922
8.986004958394915,0.7852757996320725,-5.918371589183808,4.047534183561802,7.212926820386241
8.996030958369374,-0.07146057665348053,-5.505923030376435,3.715551790595055,6.6427118061104675
9.006057958118618,-0.7271100372076035,-5.066320586800575,2.8711758434772494,5.868555530845275
9.016084958333522,-0.9680498206615449,-4.696657859086991,1.842635407447815,5.1372191646246534
9.026111958548427,-0.23658419251441956,-4.466794456243515,0.9603712570667268,4.574990464020162
9.036137958522886,1.2411779415607453,-4.421773819327354,0.5287613725662231,4.623007136164069
9.04616495827213,1.9940554887056352,-4.342728819251061,0.5589657497406006,4.811236181998744
9.056191958487034,1.0182879281044006,-3.2797301566600803,-0.32641087353229525,3.449649875478499
9.066218958236277,0.3059280771017075,-2.4260816949605943,-0.638872629404068,2.5273746488369477
9.076244958210737,0.4490345871448517,-2.0945846208930017,-0.4493497520685196,2.188796928501561
9.086271958425641,0.20109100878238678,-1.7189206033945084,-0.23198301851749423,1.7461219188440842
9.096298958174884,-1.1785735577344896,-0.6609151706099511,-0.3212331640720368,1.3888971306158873
9.106325958389789,-2.533009727597237,0.40122395128011706,0.009918631911277771,2.5646086092115596
9.116351958364248,-4.290751749873161,1.2584728360176087,-0.15812742233276367,4.474294216938287
9.126378958113492,-6.170176668763161,1.7857373213768006,-0.6099107855558396,6.452280920034758
9.136405958328396,-7.278953182697297,2.2551601262390615,-0.5211787033081055,7.638097529598559
9.1464329585433,-7.322751751542092,2.7112626814842224,-0.3952694392204285,7.8185597441154995
9.15645895851776,-7.1254210871458055,3.2744787722826008,-0.1409711068868637,7.843067623847724
9.166485958267003,-6.878518313169479,3.7844939714670183,0.08947701752185822,7.851395732055716
9.176512958481908,-6.324750153422356,3.9800324642658236,0.43266121387481693,7.485340249168211
9.186539958231151,-6.361968265771866,4.066915072202683,0.5771558529138565,7.572816338572484
9.19656595820561,-7.071756511330605,4.120163910984993,0.10843544483184815,8.185184729413617
9.206592958420515,-7.728219319581986,3.825194685459137,-0.6569329243898392,8.648066205827316
9.216619958169758,-8.742301930189132,3.2349577340483666,-1.7030512601137162,9.475926243605048
9.226646958384663,-9.403245459794999,2.5882279086112976,-2.7288440895080566,10.127513956984346
9.236672958359122,-9.392005357146264,2.09048762306571,-3.3848204094171526,10.19984864274279
9.246699958108366,-8.471764125823976,1.7293755711615086,-3.5064652991294865,9.33042475794792
9.25672695832327,-7.456548909544945,1.4441695877909662,-3.17305647790432,8.231283912653408
9.26675295829773,-7.109041866660118,1.1332639221847058,-2.8216855949163437,7.732054899948023
9.276779958512634,-7.513777948021889,0.7640366658568383,-2.85144850730896,8.072878648213916
9.286806958261877,-8.350696941018105,0.3533858335018158,-3.0463163244724276,8.89601394427842
9.296833958476782,-9.116031396389008,-0.016219006776809694,-3.180213469862938,9.654845891573238
9.306859958451241,-9.733779205083847,-0.34903857484459877,-3.208450843691826,10.254874078039139
9.316886958200485,-9.97629598259926,-0.6416763693094254,-3.074537910819054,10.459015893496856
9.326913958415389,-9.888764333724977,-0.847019327133894,-2.8629002791643146,10.329632123020096
9.336940958164632,-9.705357643961907,-1.0707734128832818,-2.622575038075447,10.110312682072893
9.346966958139092,-9.611624438166618,-1.3003893323242666,-2.5691332411766052,10.03368239316469
9.356993958353996,-9.50225168466568,-1.6081318004429341,-2.840920595526695,10.04737302962398
9.3670209585689,-9.36536544263363,-1.9223949372768403,-3.479756387472153,10.174201525677438
9.377047958318144,-9.294235818386078,-2.116721156090498,-4.061654332280159,10.361484633745398
9.387073958292603,-9.162041966915131,-2.0297543482482436,-4.35254395544529,10.344445591805782
9.397100958507508,-9.121361718177797,-1.8271762463450432,-4.533260633647442,10.348345983857739
9.407128291670233,-8.783394407629967,-1.5433345645666123,-4.341413195729256,9.918556721329143
9.417155291885138,-8.112217081189156,-1.241577891111374,-3.967411249279976,9.115367993281838
9.427181291859597,-7.1905315876007085,-0.7971647970378399,-3.791053085625172,8.167698557362904
9.43720829160884,-6.021592487096787,-0.08619512155652047,-3.371791935861111,6.90188282560481
9.447235291823745,-5.005013700127602,0.5330888968706131,-2.775092934072018,5.747650537669124
9.457262291572988,-4.1497730416059495,0.8286647710204125,-2.3205055385828017,4.8261835392122485
9.467288291547447,-3.1236831736564636,0.9002394414693118,-1.488254085481167,3.575294092003185
9.477315291762352,-2.350690619945526,0.9582990769296885,-0.7441283583641053,2.6453375068723903
9.487342291511595,-1.0489419561624527,1.11619166046381,0.2234373128414154,1.5479299994045799
9.4973692917265,1.3396146476268769,1.295008578300476,1.2690609741210939,2.2543580855856686
9.50739529170096,3.239273271560669,1.3210894989967348,1.640274968147278,3.863763807912869
9.517422291450202,2.6310037994384765,1.2543638513982296,0.7959098383784294,3.0214370976708875
9.527449291665107,1.2613210147619247,1.2373195101320744,-0.06706902533769608,1.7681596439782457
9.537475291639566,1.2518473559617997,1.3552471786737443,0.026466252207756044,1.8451333774114047
9.547502291854471,2.393555388450623,1.468194335103035,0.5054742515087128,2.8531046637212505
9.557529291603714,4.1545361834764485,1.3622582826018335,1.2275314173102378,4.541228017707989
9.567556291818619,5.822456787228584,1.0619618050754072,1.9788667613267898,6.240567247748173
9.577582291793078,6.973568311929703,0.7165083774179221,2.398976342082024,7.409394492529696
9.587609291542321,7.934120247960091,0.3365411746501923,2.6006114342808724,8.356237425027944
9.597636291757226,8.66574550509453,-0.0028525641560554504,2.736955347061157,9.087688257637085
9.60766329150647,9.174469639062883,-0.28510862722992897,2.805366600751877,9.598034270204588
9.617689291480929,9.449021556973458,-0.5456209418177604,2.7198478558659556,9.847805997041059
9.627716291695833,9.545175510048868,-0.7583465941250325,2.6363598489761353,9.931558705850314
9.637743291445076,9.601426894068718,-0.8711500552296639,2.5860314020514488,9.981676173532625
9.647770291659981,9.701313709616661,-0.9014028181135655,2.5726892253756524,10.077040467481673
9.65779629163444,9.830308549404144,-0.940544225871563,2.5831174421310426,10.207452441091762
9.667823291849345,9.934059205055238,-0.9857629372179508,2.6458747306466104,10.327531842033194
9.677850291598588,9.98815530538559,-0.9954077732563019,2.6842120000720024,10.390335754964413
9.687877291813493,10.084746630191804,-0.9961303429305554,2.6139425012469295,10.465518890867138
9.697903291787952,10.151135916709901,-0.9946455886960031,2.525931673049927,10.507864248435405
9.707930291537195,10.169389754533768,-0.9985510902106762,2.3286034937202933,10.480266527638678
9.7179572917521,10.267032408714295,-0.9736018981039525,2.1429181440174583,10.533373311031015
9.727984291501343,10.274825577735902,-0.9909745605289937,1.942656708955765,10.503712977864655
9.738010291475803,10.235158066749573,-1.0179267163574697,1.741622418165207,10.432060395659084
9.748037291690707,10.242089356184007,-1.0364357851445676,1.628109397441149,10.422347803005911
9.758064291905612,10.223027433156968,-1.0958667388558387,1.5405963134765626,10.396376811635294
9.768091291654855,10.215250636339189,-1.1436605639755726,1.4199333174526692,10.376681342068535
9.778117291629314,10.197906625270845,-1.1958715219795704,1.3176304323971273,10.351983297475115
9.788144291844219,10.214751284122467,-1.2605431888997556,1.1852538554370404,10.36025770091611
9.798171291593462,10.179245821237565,-1.3285818287730218,1.1625378611683845,10.33119883864299
9.808198291808367,10.172053745985032,-1.3501862673461438,1.174438991546631,10.328261582309159
9.818224291782826,10.1913086271286,-1.3310204100608827,1.2063121640682222,10.348409341660362
9.82825129153207,10.214222695827484,-1.3555089877545834,1.2222469961643219,10.376012606751855
9.838278291746974,10.210482816696167,-1.3490675488114359,1.1966806304454805,10.368509397815444
9.848305291496217,10.23166844844818,-1.3261645898222925,1.1428230965137482,10.380356274627273
9.858331291470677,10.235560355186463,-1.3156001329421998,1.1010038101673127,10.378328809806774
9.868358291685581,9.833826234340668,-1.2231536069512368,1.0740517274290324,9.967639152106072
9.878385291900486,9.542447783946992,-1.108269706517458,1.0107966946810485,9.65962118355152
9.888412291649729,9.588263642191887,-0.9972790284454823,0.9586125607788564,9.687533389590921
9.898438291624188,9.623932242393494,-0.8810445673763753,0.8122449123859405,9.698250003664647
9.908465291839093,9.602423844337464,-0.7076614670455457,0.6876522950828076,9.652988869628638
9.918492291588336,9.648787586688996,-0.45341195896267894,0.540203057974577,9.674528600475536
9.92851929180324,9.659215511083604,-0.12204060003161431,0.391275644749403,9.66790746892978
9.9385452917777,9.697410108447075,0.4357277861237526,0.2886057007312775,9.711483654185205
9.948572291526943,9.86166833639145,1.9830630156397822,0.4051617586612702,10.067233848066984
9.958599291741848,10.191257171630859,6.849181662797928,0.6747018818557263,12.29748896391879
9.968625291716307,6.432717821002007,10.161203652620316,-1.3228423480689526,12.098753246202925
9.97865229146555,-3.529829018712044,9.853990942239761,-6.256420176029206,12.19440953101503
9.988679291680455,-22.000455286502838,8.463396760225297,-11.905536839962005,26.408160196842477
9.99870629189536,-38.47767978429795,7.482403542995454,-16.53307125449181,42.54245702200691
10.00873229186982,-24.53469936132431,7.153144490718842,-11.456851916313171,28.006756411408972
10.018759291619062,-17.68664855003357,4.738683552145958,-7.0067056524753575,19.605269262119645
10.028786291833967,-13.942964050769806,2.115731807202101,-4.006313359737397,14.660597339040322
10.03881329158321,-10.699916986227036,0.5510476695746184,-1.6082468444108964,10.83412825098776
10.04883929155767,-7.982601267099381,-0.27219534382224086,0.03751895159482956,7.9873287754057
10.058866291772574,-6.699471307396889,-1.5545875310897828,1.0712812435626984,6.960409592348948
10.068893291521817,-5.653953480720521,-2.7127861735224723,1.411742976307869,6.428018125095868
10.078920291736722,-5.0422908693552015,-3.4745783856511117,1.0113154157996178,6.20646042760692
10.088946291711181,-4.5115426129102705,-4.042520488500595,0.04106090247631073,6.057860566715323
10.098973291460425,-3.9890582263469696,-4.342678825557232,-0.9871287006139756,5.978784825255497
10.10900029167533,-3.548815512657166,-4.43310981631279,-1.5149510103464128,5.877212838592335
10.119027291890234,-3.2289757400751116,-4.30804167419672,-1.2585412484407426,5.528963146073238
10.129053291864693,-2.8415012240409854,-4.013144954144955,-0.632590965628624,4.9577850860036765
10.139080291613936,-1.9910950434207917,-3.6609703713655475,0.3419714838266373,4.181400247249936
10.149107291828841,-1.3737974703311921,-3.3189605882763864,1.1742524653673172,3.779112029093811
10.159134291578084,-1.0205566477775574,-3.0303107410669328,1.9510743606090546,3.7457990094737625
10.169160291552544,-0.6696161198616029,-2.9152498161792755,2.292102103829384,3.768394789972369
10.179187291767448,-0.2318625658750534,-2.9704121562838557,2.2767636877298356,3.7497681951579658
10.189214291516691,-0.7562584072351456,-2.605630684196949,2.1704689085483553,3.4745033204643208
10.199241291731596,-1.3716948115825653,-1.9967449155449868,1.9873709517717362,3.133397551193174
10.209267291706055,-1.603425230383873,-1.3192385628819467,1.9142053270339967,2.8241007222249936
10.219294291455299,-1.8585234618186952,-0.49548676863312724,2.0911999601125717,2.841255685290549
10.229321291670203,-2.146845572590828,0.2658929955214262,2.2763935589790347,3.1403204666055076
10.239348291885108,-2.4655287659168246,0.80256557777524,2.352728959321976,3.501182251500957
10.249374291859567,-3.049573223590851,1.2409789900481702,2.3450574123859407,4.042180100783426
10.25940129160881,-3.418076448440552,1.5679273688793183,2.2875605714321137,4.401656075778254
10.269428291823715,-3.7887256014347077,1.8679126283526422,2.14441956281662,4.737306674843491
10.279455291572958,-4.008445254564285,2.0763492017984393,1.9983771657943727,4.936838124084717
10.289481291547418,-4.262430176138878,2.163332674205303,1.8036496818065644,5.108959917676444
10.299508291762322,-4.563474074006081,2.303691723793745,1.608186618089676,5.358969619339539
10.309535291511565,-4.818227904438973,2.377262414395809,1.3553764021396637,5.5410957325686425
10.31956229172647,-5.314284045696259,2.2370625552535057,1.0909682339429856,5.868242963778155
10.32958829170093,-6.040908764004707,1.8340841469168665,0.7566437387466431,6.358376608882581
10.339615291450173,-6.755204628109932,1.2212883451581003,0.4244540619850159,6.877826403769758
10.349642291665077,-7.165741147398949,0.5033364363759756,0.0799068796634674,7.183841511971684
10.359668291639537,-7.032270264029504,-0.15132926668971777,0.2596198832988739,7.0386879528158195
10.369695291854441,-6.531759713888168,-0.5689816281571984,0.4803464269638062,6.574067062561026
10.379722291603684,-5.679632112979889,-0.6978822912275792,0.8734453797340394,5.788623969699552
10.389749291818589,-5.295892798304558,-0.6865563806891442,1.1111270946264267,5.454580058575731
10.399775291793048,-5.695369893908501,-0.6735535617917776,0.9849096822738648,5.819017074324368
10.409802583511919,-6.595350522994996,-0.7030244788527489,0.41511371970176697,6.645691185973147
10.419829583261162,-7.5999524581432345,-0.7568983118981123,-0.3550978982448578,7.645800608041615
10.429856583476067,-8.638039058446884,-0.8297849513590336,-1.279357920885086,8.77160296242866
10.439882583450526,-9.375285828709602,-0.869250879585743,-2.01908391058445,9.629552497372071
10.44990958319977,-9.618252257108688,-0.7264586573839188,-2.3982004165649413,9.939310031399396
10.459936583414674,-9.375839560031892,-0.37028640635311605,-2.5679316383600237,9.728193685236706
10.469963583163917,-8.98031576693058,0.08329651057720185,-2.4494612020254136,9.308752320407075
10.479989583138376,-8.395909366607667,0.6610834242403507,-2.318575957417488,8.735222942570505
10.490016583353281,-7.932814564704896,1.265112057030201,-2.3318204855918885,8.364654339054502
10.500043583568186,-7.8608827024698265,1.6381423424184323,-2.621381621360779,8.446811753603932
10.510070583317429,-8.141329198479653,1.7916207897663117,-3.161925133466721,8.915655709031656
10.520096583291888,-9.051176419258118,1.6510654199123382,-4.026963386535645,10.043218891862466
10.530123583506793,-10.140009834766389,1.237417889535427,-4.9896852242946625,11.368727330710586
10.540150583256036,-10.732227530479431,0.6631369663774968,-5.839439440369606,12.235992455861563
10.55017758347094,-10.489675669670106,0.03595759883522988,-6.8547979134321215,12.53087558943015
10.5602035834454,-8.899832936525346,-0.681906967163086,-8.495023180246353,12.322233654774193
10.570230583194643,-6.537611607313156,-1.4187265983223916,-10.998123815059662,12.872912574093155
10.580257583409548,-5.933811746835709,-1.3725907512009146,-10.415256986618042,12.065309996616898
10.590284583158791,-6.889294146895409,-0.6090160519257188,-6.784485729932785,9.688267183227977
10.60031058313325,-7.963482041358948,0.05718924086540938,-2.7945995378494266,8.439792853457096
10.610337583348155,-8.09236519932747,0.7850760441273451,-1.0650276464223862,8.199817241987345
10.62036458356306,-7.557782923579216,1.3040542209148407,-0.6631762889027596,7.698080469908993
10.630391583312303,-6.087177781462669,1.64506413012743,-0.2946847584843636,6.312432846553514
10.640417583286762,-3.7715499901771548,1.8885869210958481,-0.0467329940199852,4.218238241217495
10.650444583501667,-2.3591877937316896,1.8379740071296693,-0.16846851557493212,2.995379297804689
10.66047158325091,-1.9964516776800156,1.7327366968989373,-0.8328057691454888,2.771599035072281
10.670498583465815,-2.629650753736496,1.453032943457365,-1.963526591062546,3.5891230816466853
10.680524583440274,-3.31726811170578,1.1496630232036114,-2.559093279540539,4.3445311835975176
10.690551583189517,-2.061372143626213,1.018443537130952,-1.9258899642527105,2.9992556588679196
10.700578583404422,0.16690994024276734,0.8830258233100177,-0.6914075231552125,1.1338597337677199
10.710605583153665,2.9154936450719835,0.6336031917482615,0.5654593750834466,3.0366594316647473
10.720631583128124,5.036970487833023,0.40699888072907925,1.289183728247881,5.215238678085085
10.730658583343029,6.6010094583034515,0.13227512776851655,1.504478939473629,6.771578800941292
10.740685583557934,7.8232365739345555,-0.1718547843396664,1.6269962337613106,7.992476543808008
10.750712583307177,8.661668826341629,-0.450755715072155,1.5144756317138672,8.804619469968234
10.760738583281636,9.297231346964837,-0.6461817951500416,1.2208424949645997,9.399282846519744
10.77076558349654,9.718437280654907,-0.844878734573722,0.795914808511734,9.787508551034135
10.780792583245784,9.989811236858369,-1.0272916900366544,0.593216692507267,10.059998151528129
10.790819583460689,10.097867782115937,-1.0435136935114862,0.7799861159920692,10.181563382643228
10.800845583435148,10.093782917261125,-1.0190134213864803,1.2337987554073335,10.219838614312996
10.810872583184391,10.116222192049028,-1.0501382964849473,1.5123507535457612,10.282409575697711
10.820899583399296,10.137862737178803,-1.0913706685602667,1.7410681021213532,10.34401609387266
10.830926583148539,10.184072113037109,-1.16099156498909,1.8266128671169282,10.411519619336703
10.840952583122998,10.23164155125618,-1.2017117209732533,1.7441634719073773,10.44857435779889
10.850979583337903,10.262424802780151,-1.1709805096685888,1.6565514238178731,10.461009550062267
10.861006583552808,10.290337071418763,-1.0965508630871774,1.5698078334331513,10.466984163199093
10.87103358330205,10.328872561454773,-0.9549022100865842,1.323316264897585,10.45698869457857
10.88105958327651,10.39388775229454,-0.8296599671244622,1.1498222136497498,10.49015392600842
10.891086583491415,10.401651685237885,-0.731085559129715,0.9681807982921601,10.47216395660237
10.901113583240658,10.398356194496156,-0.6753947769105435,0.7922812756150961,10.45034350019103
10.911140583455563,10.44237871170044,-0.6715271361172199,0.6552425674349069,10.484443937343316
10.921166583430022,10.463634510040285,-0.6955966146290302,0.6080999759584665,10.504346119142783
10.931193583179265,10.457479730844499,-0.6926297374069691,0.5250332244113088,10.493535065024547
10.94122058339417,10.40953256249428,-0.6881766441464424,0.4013049352169037,10.439971308112241
10.951247583143413,10.447164072990418,-0.7224040518701077,0.1994040870666504,10.47400910693126
10.961273583117872,10.462270939350129,-0.7718643334507943,0.007077460689470173,10.490707213914297
10.971300583332777,10.470143630504609,-0.8132598428428174,-0.16248652160167695,10.502937735942224
10.981327583547682,10.513572070598602,-0.838989930599928,-0.34600138485431675,10.552668797306213
10.991354583296925,10.561063156127931,-0.8935193096101285,-0.543534362912178,10.612721674859628
11.001380583271384,10.529347858428956,-0.9399662286043168,-0.7018939197063446,10.594496585927988
11.011407583486289,10.535838267803193,-1.0073385782539845,-0.7285993230342865,10.608933781962774
11.021434583235532,10.501384134292604,-1.0278694680333138,-0.7372613883018494,10.577293544852022
11.031461583450437,10.505652601718904,-0.9916322261095047,-0.7446931993961334,10.578593433017875
11.041487583424896,10.453563265800476,-0.9364285169541836,-0.7397388535737992,10.52145887655057
11.05151458317414,10.34539328455925,-0.8331922701001168,-0.7156899134069682,10.403537072712853
11.061541583389044,10.298827228546143,-0.5875522023439408,-0.7699882543087005,10.344270964437078
11.071568583138287,10.116637344360353,-0.19632435858249667,-0.9190045452117921,10.160190144145888
11.081594583112746,10.222256770133972,0.2911439770460129,-1.116880097016692,10.287211451167513
11.091621583327651,10.240210061073304,0.8518619911372662,-1.1846418712288143,10.343642845241698
11.101648583542556,10.154496896266938,1.449664070159197,-1.2001855245977642,10.32742845175213
11.111675583291799,9.971275563240052,2.1672972325980666,-1.1902067394554616,10.27327142321961
11.121701583266258,9.53908621966839,3.0680235278606416,-1.0034905987232925,10.070448235083672
11.131728583481163,8.583528975248337,4.103289431333542,-0.5824027056992054,9.531691703880641
11.141755583230406,7.726572158932687,5.402765282392502,-0.06692964233458043,9.42837576684566
11.151781583204865,6.474229543805123,7.080225033760071,0.2911153256893158,9.59843647931334
11.16180858341977,-3.078698204755783,7.050735186338425,-1.7971838307380676,7.90070370443694
11.171835583169013,-26.315494616031646,2.8901024034619334,-6.901269829273224,27.35846256728115
11.181862583383918,-25.612937622070312,2.9873541712760927,-4.570487516820431,26.18847484520847
11.191888583358377,-24.95180464267731,3.0326379328966144,-5.182078499794007,25.664048498559296
11.20191558310762,-23.552682881355288,0.7625681376457215,-4.692716835737229,24.027733400690348
11.211942583322525,-19.330672752857208,-1.4201153120398522,-2.5418767377734186,19.548728192073767
11.22196958353743,-22.52463478088379,-5.74784397661686,-1.9793918412923814,23.33055666830745
11.231995583511889,-25.74249554872513,-10.770751326084138,-4.286240038275719,28.232198194086735
11.242022583261132,-13.392717669010164,-9.091142722964287,-1.7489858168363572,16.28105383439961
11.252049583476037,-1.8819240188598634,-4.387908792793751,0.7790216177701951,4.837587856317616
11.26207658322528,3.1025642001628877,-0.9539287948608399,-0.5167278027534485,3.28677537777309
11.27210258319974,5.2419434630870825,0.9268123322725297,-0.8473013091087341,5.390257125394967
11.282129583414644,5.082851834893227,1.7512253004312517,-0.8200006592273713,5.43825099728592
11.292156583163887,4.3643290185928345,2.142115028947592,-1.541491522192955,5.100217710330353
11.302183583378792,2.214294959306717,2.286987398117781,-2.0041343343257907,3.7616443154535695
11.312209583353251,0.651973900794983,2.120915510058403,-1.6027913922071457,2.7372052928228534
11.322236583568156,0.3239287304878235,1.9578306721150875,-1.5560809099674227,2.5217887622628328
11.332263583317399,0.10263091385364533,1.5490891018509865,-1.376721078157425,2.0749870064641063
11.342290583532304,-0.8865162456035615,1.0558049793541433,-0.3789849436283112,1.429777883324886
11.352316583506763,-2.451534039974213,0.5658891454339028,0.2671996289491654,2.530147291321746
11.362343583256006,-4.654559075832367,-0.08723753392696382,-0.07346792578697205,4.655956197588048
11.37237058347091,-5.085334562659264,-0.8077606827020646,0.44582563519477847,5.1683522936902255
11.382397583220154,-6.030727592110634,-0.16781625866889954,1.632805734872818,6.25011137138785
11.392423583194613,-7.518797197937966,0.4399488911032677,0.6687799680233002,7.561291753141923
11.402450583409518,-6.707895975708962,1.0248274540901186,1.7683190506696702,7.012352814608703
11.412477291654795,-6.74483751475811,1.58748001947999,2.8875690972805024,7.506729061602389
11.4225042918697,-6.002960334420204,2.002861980199814,4.041973189115525,7.508963720106855
11.43253029184416,-5.049786999821663,2.132566964328289,5.015114765167237,7.4296410888219
11.442557291593403,-4.0767255306243895,1.9254794897139074,5.444461777210236,7.068898525290689
11.452584291808307,-3.163548320531845,1.5914825847744942,5.623264954090119,6.645446827556331
11.46261129155755,-2.5241532424092292,1.1440008719265462,5.600641492009164,6.24878169791107
11.47263729153201,-2.2724943432211875,0.7107825645804405,5.353696033358574,5.859309141160174
11.482664291746914,-2.3295581978559494,0.3198280781507492,4.9255915546417235,5.458075078260588
11.492691291496158,-2.628995573222637,0.020591847002506256,4.349974104166031,5.08274693990388
11.502718291711062,-3.077774052321911,-0.1796478071808815,3.661373244524002,4.786503994303897
11.512744291685522,-3.7038874724507336,-0.3317792022228241,2.899405031204224,4.7154437100422975
11.522771291900426,-4.407944569587707,-0.33497477866709235,1.999215071797371,4.851705301664827
11.53279829164967,-5.140818791985512,-0.1566191330552101,0.9398568856716156,5.228372439910406
11.542825291864574,-5.856611543297768,0.1509952810406685,-0.23165732860565186,5.863135975046282
11.552851291839033,-6.606750254631042,0.5415897982567549,-1.6698542779684067,6.835998957452563
11.562878291588277,-7.525236736536026,0.9433115668594838,-3.142374383211136,8.209356942985476
11.572905291803181,-8.341790462136268,1.2151803436875344,-3.6923044306039814,9.203001868419346
11.582932291552424,-8.509108538031578,1.5122922813892365,-3.5063682353496555,9.326659330018462
11.592958291526884,-8.228514692187309,1.7709978063404561,-2.8467110931873325,8.88530535871902
11.602985291741788,-8.445984336733819,2.0602412921190263,-2.4771606320142747,9.03966649799132
11.613012291491032,-8.823870003819467,2.295003199875355,-2.3664623147249224,9.419546985856396
11.623039291705936,-9.350174376368523,2.5901545661687853,-2.53254311978817,10.027384314901365
11.633065291680396,-9.742895599007607,3.0775322699546814,-2.7461366450786593,10.580004064234478
11.6430922918953,-9.828243312835694,3.692122874557972,-2.9318202406167986,10.900537044587487
11.653119291644543,-9.434544435739518,4.221911895275116,-3.1343724685907364,10.800900866745728
11.663146291859448,-8.990448406934739,4.343317341506482,-4.425259929299354,10.921332040032885
11.673172291833907,-7.109482161998749,3.558692629337311,-10.058314876556397,12.821026791869434
11.68319929158315,-0.9796793478727341,1.1960035228729249,-22.415125787258148,22.46837911621526
11.693226291798055,-4.077652899026871,0.1815531224012375,-16.41947622656822,16.919202530144112
11.703253291547298,-8.399818814992905,0.7575024023652077,-7.069298926591873,11.004805919588536
11.713279291521758,-7.532919977903367,1.2456937462091446,-7.339676517248154,10.590915337244663
11.723306291736662,-2.0786500811576842,2.2730445662140846,-7.660576390028,8.256630571083258
11.733333291485906,-4.421401351690292,0.9753452454507351,-9.155485484004021,10.213863260704073
11.74336029170081,-9.783296350836755,-0.5111992603540421,-1.3972097218036652,9.89577723975156
11.75338629167527,-10.656856920719147,-1.981540839225054,-0.9494995290040971,10.88102260276006
11.763413291890174,-8.135980165600778,-2.987974853217602,-1.6371373522281647,8.820566063953642
11.773440291639417,-6.7217930531501775,-3.414222256243229,-2.206925128698349,7.8555670697973685
11.783467291854322,-4.872979477643967,-3.204251373410225,-2.074455873370171,6.190034169865347
11.793493291828781,-3.4204059791564942,-2.652664225101471,-1.9294659751653673,4.739055127628664
11.803520291578025,-2.9721274369955064,-2.0243067897856237,-2.297019612193108,4.267043306519566
11.81354729179293,-3.6400127810239793,-1.687378968000412,-3.0894772544503213,5.063774336740724
11.823574291542172,-4.906668210625649,-1.5558813737332822,-3.911395508050919,6.464918761956362
11.833600291516632,-6.170134568810464,-1.233400267660618,-4.082048835754395,7.500330627044316
11.843627291731536,-6.469924823641778,-0.5167449789494276,-3.5299801692366604,7.388349788149558
11.85365429148078,-5.965097858905793,0.48350158452987674,-3.031775176227093,6.708787294865757
11.863681291695684,-5.131777242422104,1.4859760102629662,-2.547795581817627,5.918996933235215
11.873707291670144,-4.105395013689995,2.173313286602497,-2.086939971148968,5.092433338133438
11.883734291885048,-2.931271187067032,2.4680705505609515,-1.4389515325427056,4.093202233909608
11.893761291634291,-1.590705197453499,2.3820575697720052,-0.7113617312908173,2.9513686322888835
11.903788291849196,-0.06603085219860078,2.141909060776234,-0.1726983913779259,2.1498742364291745
11.913814291823655,2.051579226851463,1.993155748397112,0.4813758292794228,2.900580950504804
11.923841291572899,4.045403750538826,1.817151926010847,1.2578278881311418,4.60971405005115
11.933868291787803,5.636123566031456,1.5616022895276547,1.9407356062531471,6.162056901361097
11.943895291537046,7.124974359869958,1.159937604367733,2.3400387471914295,7.588576692185954
11.953921291511506,8.195206028223039,0.736293527930975,2.5261997678875923,8.607276878988593
11.96394829172641,8.797518941760064,0.26933956369757656,2.5661321577429774,9.168092363311057
11.973975291475654,9.135151791572572,-0.2612628047168255,2.7302266636490824,9.537997386406671
11.984002291690558,9.353896129131318,-0.7268746867775917,2.7770090666413307,9.784451898857903
11.994028291665018,9.486333809494973,-1.0730529499053956,2.7116871893405916,9.924475764054339
12.004055291879922,9.589457058906556,-1.3152845294773579,2.569052841961384,10.01437429812193
12.014082291629165,9.701028950214386,-1.4916138955950737,2.369558415412903,10.097013508482796
12.02410929184407,9.775187432169915,-1.5817783994972707,2.2699952432513237,10.159192420835057
12.03413529181853,9.851248598098755,-1.619688968360424,2.2616512665152553,10.23648170745697
12.044162291567773,9.93321252822876,-1.6806937001645565,2.1895799481868745,10.309592755983898
12.054189291782677,10.010047280788422,-1.7044016745686532,2.0948401442170144,10.367949983565472
12.06421629153192,10.101635727882385,-1.702395933419466,1.963540624380112,10.430565089032523
12.07424229150638,10.138442780971527,-1.673497531861067,1.8383625546097757,10.438783113676141
12.084269291721284,10.179002577066422,-1.6148958595097065,1.7324516451358796,10.450902870265347
12.094296291470528,10.125845539569855,-1.5766405972838402,1.6295266163349151,10.37660351259381
12.104323291685432,10.035423027276993,-1.5263114194571972,1.4876379351317883,10.259259647343464
12.114349291659892,9.987127364873887,-1.4894480869174005,1.3795536155998707,10.191385420253196
12.124376291874796,9.933078042268754,-1.4861314000189305,1.340663491934538,10.132719503200017
12.13440329162404,9.927550084590912,-1.4825748310983182,1.2540302677452564,10.115674506640103
12.144430291838944,9.920365025997162,-1.4509965044260025,1.203452729433775,10.097887480897466
12.154456291813403,9.946499741077423,-1.3833600068092347,1.1181759130954743,10.104299054378755
12.164483291562647,10.015950629711151,-1.2963917371630669,0.9963316333293916,10.148525768631062
12.174510291777551,10.092911682128907,-1.1267578715085984,0.9290550318360329,10.198019061388374
12.184537291526794,10.150582770109176,-0.9363805697858334,0.9014455027878285,10.233461933227002
12.194563291501254,10.170092589855194,-0.794389416128397,0.8757528372108937,10.23859271885386
12.204590291716158,10.211324815750123,-0.7179649919271469,0.8169940209388733,10.269085034833292
12.214617291465402,10.15324559211731,-0.7262412871420384,0.8080841799080373,10.211210628657943
12.224644291680306,10.153570697307588,-0.7422784455120564,0.888191034346819,10.219337478985082
12.234670291654766,10.090102679729462,-0.7673296715319157,1.0610240578651429,10.17471075577412
12.24469729186967,10.121129175424576,-0.7771383757889271,1.1827739050984383,10.219596564998847
12.254724291618913,10.116447894573213,-0.6975934387743473,1.2728631260991097,10.220045750739994
12.264751291833818,10.256589281558991,-0.4257487817108631,1.3183920322358609,10.349736386323185
12.274778291583061,10.36931892156601,-0.0008732816576957703,1.311189139634371,10.451889428216454
12.28480429155752,10.187979222536088,0.52503084897995,1.2328096988797188,10.275718845164047
12.294831291772425,10.126738994121553,1.1507498744130136,1.3030172172188759,10.274868456427672
12.304858291521668,9.98997963666916,2.0532345736026767,1.3006023171544077,10.281392500176679
12.314884291496128,9.932409120798111,3.4024898180365564,1.3027666640281679,10.579550504896652
12.324911291711032,9.63159501850605,4.802987721562386,1.391451383829117,10.85230162719179
12.334938291460276,8.274169167280197,6.590734146237374,1.1700100180506707,10.642771041297866
12.34496529167518,5.978669246435166,8.343330034017564,1.3858637845516206,10.357425377193934
12.35499129164964,4.67521962761879,8.805692764520646,2.00151858240366,10.168774767163958
12.365018291864544,4.21433273434639,7.822285231947899,1.2280991819500924,8.96978117048795
12.375045291613787,0.7920918989181519,6.728733698129655,-0.8593360483646393,6.829474738272065
12.385072291828692,-14.05800684928894,4.768740871846676,-5.602794436812401,15.8669389479714
12.395098291803151,-20.634793632030487,2.790551802814007,-8.192801653146745,22.37641362078558
12.405125291552395,-18.974294314384462,1.9842669573426248,-10.598808102607727,21.824204298960993
12.415151833556592,-21.598814721107484,-1.2670331597328186,-13.775799171924591,25.649304341634494
12.425178833305836,-17.392942907810212,-3.4753975805640223,-12.166266524791718,21.508391211097205
12.43520583352074,-13.23511415719986,-4.342380617558956,-8.758363646864892,16.453979760306876
12.4452318334952,-10.357587068080903,-5.009982663989067,-5.71456454873085,12.84662539922291
12.455258833244443,-6.843359005451203,-4.703645281791688,-2.351652486920357,8.630533635508872
12.465285833459347,-4.215508609414101,-4.218691833615304,-0.2832601761817932,5.970603817912171
12.47531283320859,-2.2542460602521897,-3.9128397703170776,0.8226728367805481,4.590068732025053
12.48533883318305,-0.8265273213386536,-3.6011001455783846,1.5109427440166474,3.9917436850454804
12.495365833397955,-0.017317113876342775,-3.221440433263779,1.7756356716156008,3.678431783493275
12.505392833147198,0.5523244822025299,-2.972972359657288,1.8067282408475878,3.5224840554930457
12.515419833362103,0.5326181960105896,-2.8583599162101745,1.4704004895687104,3.258217480930718
12.525445833336562,-0.22178956747055054,-2.77964469909668,0.9458725011348725,2.944535626182537
12.535472833551466,-1.27838319003582,-2.669014794230461,0.49388039231300357,3.000303550359276
12.54549983330071,-2.034174989461899,-2.5622928759455683,0.1349671858549118,3.2743592978064155
12.555526833515614,-2.2544489586353302,-2.360461024940014,-0.1366201937198639,3.266952928140355
12.565552833490074,-2.043565617799759,-2.000665766000748,-0.315592355132103,2.877224787207023
12.575579833239317,-1.7186533856391908,-1.6312240630388262,-0.28172177374362944,2.386216369403078
12.585606833454221,-1.7144936764240266,-1.1776442889869214,-0.3696790999174118,2.112580714386372
12.595633833203465,-1.7313055908679964,-0.713131391108036,-0.5780206561088562,1.9596130507942064
12.605659833177924,-1.84327567756176,-0.35953447312116626,-0.8818314564228058,2.0747426294338407
12.615686833392829,-2.117299007177353,-0.3111206969618798,-1.261131564974785,2.4839895325963033
12.625713833142072,-2.89695387840271,-0.6493142947554589,-2.838358345627785,4.107338423500209
12.635740833356977,-3.4367828607559208,-1.0467887189984322,-4.483199404478073,5.745112701637852
12.645766833331436,-3.1298864847421646,-1.0980568134784698,-4.349053752422333,5.469569152543638
12.65579383354634,-2.471889367103577,-0.9205958649516106,-2.5956626433134082,3.7007024127398402
12.665820833295584,-2.1960300117731095,-0.595947049856186,-1.0184037029743196,2.4929594463352793
12.675847833510488,-2.1456439697742464,-0.21279333382844925,-0.3023507505655289,2.1772654923821193
12.685873833484948,-2.3546684807538987,0.2250751179456711,-0.4519909393787384,2.4081981380805453
12.695900833234191,-2.478469823598862,0.6105443313717842,-0.6910280388593674,2.6444464066322495
12.705927833449095,-2.9075542956590654,0.9612623727321625,-0.751106425523758,3.153102946923749
12.715954833198339,-3.5308382481336595,1.0607907539606094,-0.8962653082609177,3.794125361788132
12.725980833172798,-4.29920039176941,0.98932696133852,-1.1026018542051317,4.547265408343585
12.736007833387703,-5.108338678479195,0.780203632414341,-1.4285572296380997,5.36140070507982
12.746034833136946,-6.116522617936135,0.5733086773753167,-2.260940537452698,6.546173224806615
12.75606183335185,-6.911004273891449,0.4255530461668968,-3.2600969606637955,7.653189378408006
12.76608783332631,-7.156280937194825,0.4627641418576241,-3.9851043391227723,8.204118727611297
12.776114833541214,-6.415103668570519,0.6349538254737854,-3.8565345919132237,7.511962493091537
12.786141833290458,-5.6634031659364705,0.6950108698010445,-3.3346004283428194,6.608837684932575
12.796168833505362,-5.663056426048279,0.7844168436527252,-2.9312419509887695,6.424772155061163
12.806194833479822,-5.9985298991203315,0.855999042391777,-2.671262463927269,6.621989011045171
12.816221833229065,-6.6164004993438725,0.9402925032377244,-2.7498157131671905,7.226506210870098
