Time (s),Linear Acceleration x (m/s^2),Linear Acceleration y (m/s^2),Linear Acceleration z (m/s^2),Absolute acceleration (m/s^2)
0.0024234168231487274,-1.9392056822776795,-1.3636867573857308,-1.223069699406624,2.6675943732235337
0.012451416812837124,-2.486459751427174,-1.7769287833571434,-1.1255317103862763,3.2568051258365824
0.02247841702774167,-2.6600825875997547,-2.1901816266775134,-0.9594871580600739,3.5768073106010845
0.03250541677698493,-2.452521049976349,-2.3223675844073295,-0.30554859280586244,3.3914024591971783
0.042533416766673326,-2.146439191102982,-2.4165136036276817,0.913073714375496,3.3586370458124724
0.05256041698157787,-2.006666178703308,-2.023342437744141,2.0005727952718737,3.4817977084130054
0.06258741673082113,-1.9176317954063415,-1.542500459253788,2.6879293674230578,3.6443907109154496
0.07261441694572568,-1.2510869255661965,-1.370610153079033,2.7802007693052295,3.3426496981723046
0.08264241693541408,0.11309216737747194,-1.2229980710148811,2.69744395673275,2.963902498352854
0.09266941668465734,1.0365324103832245,-1.6695543158054353,1.3714059591293335,2.396365029776319
0.10269641689956188,1.3890549024939538,-1.9188825148344042,0.3015309709310532,2.3879917408379616
0.11272441688925028,1.061443010866642,-2.1150668326020243,-1.7837533611059189,2.9634346668937153
0.12275141710415483,0.13596793681383135,-2.018562923669815,-3.170958496928215,3.761390879169179
0.13277841685339808,-1.3694711154699326,-1.6473115074634552,-3.3527718204259873,3.978714015680264
0.14280641684308648,-2.4802099549770356,-1.9361867648363114,-3.423781576752663,4.650004397245818
0.15283341705799103,-3.785765448510647,-2.7901623782515528,-3.300251544713974,5.745318649695102
0.1628604168072343,-5.27084391117096,-3.7986240604519845,-0.9600122380256654,6.567569092573884
0.17288841679692268,-4.3969863027334215,-4.630330260694027,0.13405677437782287,6.386815958541527
0.18291541701182723,-1.992196951210499,-4.923927437067032,0.46649554252624514,5.332122296901185
0.1929424167610705,-0.3761725059896708,-5.444313257932663,2.7365887266397477,6.104995533457471
0.20296941697597504,0.4978414058312774,-4.9049880132079124,1.8908720129728318,5.28035514378695
0.21299741696566343,0.2654592052102089,-2.9607212734222412,1.2194339007139205,3.212998301701422
0.2230244167149067,-0.4886502040922642,-1.8464051073789598,1.2836421757936478,2.301244897439377
0.23305141692981124,-0.9529740907251836,-2.177413354218006,1.0377638339996338,2.5935000111582838
0.24307891679927707,-0.8307096885144711,-2.795402068197727,0.5296618437767029,2.9639320130915414
0.2531059170141816,0.337933689057827,-3.8057810524106026,-0.9210306054353714,3.930199228186331
0.2631329167634249,1.944877773821354,-4.987452757358551,-2.802239509820938,6.04233240002478
0.27316091675311327,2.8483722871541977,-5.264556984901429,-3.904356045126915,7.146522305332961
0.2831879169680178,1.108700792491436,-5.652186452150345,-5.0936411172151566,7.689057742540884
0.2932149167172611,-2.168447233736515,-5.07629242837429,-2.531326314210892,6.072768819318433
0.3032419169321656,-2.1669940544664863,-3.67043262809515,-1.4741801297664643,4.510115959094271
0.313269916921854,-1.41324205622077,-5.198840128183365,-3.1313184678554538,6.231400094281651
0.3232969166710973,0.2738642853498459,-6.982675935029984,-4.3991678988933565,8.257447732991764
0.3333239168860018,1.3468295270204544,-8.295617339015008,-6.183762674331665,10.43408537547389
0.3433519168756902,0.08150316953659058,-9.113719407320023,-6.898264360427857,11.430335751339733
0.35337891709059477,-2.0738740754127503,-9.525193819999695,-6.868613129854203,11.925104499199787
0.36340591683983803,-3.1651282382011416,-10.60531020641327,-6.644215704202653,12.908766155697641
0.3734339168295264,-3.5421631354093552,-11.640038166046143,-6.88494440317154,13.979980959201159
0.38346091704443097,-3.9548935300111774,-12.18635521888733,-7.642516095042229,14.91832727277446
0.39348791679367423,-3.923296930789948,-12.326496605873109,-7.837721296548843,15.12496785134178
0.4035159167833626,-3.9996446102857592,-12.249689919948578,-7.931318846940995,15.131354162642522
0.4135429169982672,-4.0213904052972795,-12.620438475608827,-7.742121659517289,15.342343233652786
0.42356991674751043,-3.530810766220093,-13.104674470424653,-7.4692198258638385,15.491557779956567
0.433596916962415,-2.9029630619287494,-13.387908918857574,-7.021648796796799,15.393727670194341
0.4436249169521034,-2.544605340957642,-13.286676074266435,-6.360987102985383,14.949011150175139
0.45365191670134664,-1.9173832887411117,-13.13769720554352,-5.865720335841179,14.514893096361076
0.4636789169162512,-1.2266429328918458,-12.830065834522248,-5.476993346214295,14.00402436149924
0.4737069169059396,-0.1344497072696686,-12.579238994121551,-5.181538217067719,13.60528091183517
0.48373391665518284,2.1507404029369357,-12.501402028799058,-4.49398283958435,13.45758591757694
0.4937609168700874,5.184170633554459,-12.061110198497772,-3.254444457292557,13.525435782395983
0.5037889168597758,9.05722711801529,-10.935425291061401,-2.0612932062149047,14.348024917935033
0.5138159170746803,13.11932408452034,-9.314232711195947,-1.3560991179943085,16.14653523982198
0.5238429168239236,15.88526407957077,-7.428408014774323,-2.28947261095047,17.685150419149878
0.533870916813612,17.28336140871048,-5.213162298202515,-6.059192422628403,19.042201961588905
0.5438979170285165,19.410122380256652,-2.916411657929421,-11.003367598056794,22.50183117599572
0.5539249167777598,22.021853756904605,0.30433968096971514,-14.399625746011735,26.313568499105365
0.5639519169926643,22.906822829246522,3.0520460110902787,-14.38635841369629,27.22140381008356
0.5739799169823527,22.461760840415955,4.662832301259041,-12.20995224237442,25.98760548574594
0.584006916731596,22.206796510219576,5.896410031914711,-15.570378652811051,27.755110410565454
0.5940339169465005,23.839673581123353,10.162840873003006,-33.0090105342865,41.96675049985558
0.6040619169361889,16.57260661840439,9.309005885124208,-6.06342931509018,19.951793296762904
0.6140889166854322,13.702714823484422,6.206095529794693,-1.0530641701072454,15.079421719848579
0.6241159169003367,12.889319179058075,6.048092653155327,-1.5946742874383928,14.326791675870874
0.6341439168900251,10.046620445251465,7.012675659656525,-0.001247795820236206,12.252028560017244
0.6441709171049297,8.894172247052193,6.99821023285389,-3.8181979072093966,11.944031215719113
0.654197916854173,6.5703051441907885,6.725311322808266,-4.011570591330528,10.222104513538344
0.6642249170690775,3.8843878036737443,5.453800950050354,-3.621785255670548,7.612472781579719
0.6742529170587659,1.0694925802946091,4.636161981225014,-2.1314445912837985,5.213527437462512
0.6842799168080091,-1.2618344002962114,3.696873444914818,-0.4783280046656728,3.935466554493215
0.6943069170229137,-2.310389270782471,2.4638307344913484,1.0326323175430299,3.531952714010371
0.7043349170126021,-1.4714746230840683,1.4814061188697816,2.0735875618457795,2.942714228743042
0.7143619167618454,0.4023071479797363,1.3897580301761627,2.0773058062791825,2.531497153179502
0.7243889169767499,0.9865878331661225,1.1215760689973833,1.004459263086319,1.800063010646838
0.7344169169664383,0.34244335412979127,-0.35140421211719514,0.2658798392862082,0.5580720921352619
0.7444439167156816,-1.8578954708576203,-2.4890410047769547,0.08314609095454216,3.1070909186142837
0.7544709169305861,-4.007341884970665,-4.581298141479492,-0.12645188570022584,6.0879447865072525
0.7644979166798294,-3.748838235139847,-5.698784667849541,0.1364835150539875,6.822650698492847
0.7745259166695178,-3.2784548789262775,-5.795574213266373,0.4391580551862717,6.673065761107756
0.7845529168844223,-2.7725204515457156,-5.4112987089157105,0.12385440632700921,6.081477064440736
0.7945799170993268,-0.9464466977119447,-4.303137322068214,1.2846307937800885,4.5894475092884885
0.8046079170890152,2.799296606183052,-1.0224248331785202,3.0607115846872333,4.271928069797841
0.8146349168382585,5.1703068852424625,2.7987229943275453,1.7736802165210248,6.140917292802552
0.824661917053163,4.199967879652977,3.899829715490341,-5.5984610652923585,8.011939109824327
0.8346899170428514,3.6044032377004624,4.381008201241493,-5.074340043067933,7.611431037063495
0.8447169167920947,3.9731461983919147,3.6069865375757217,-0.4724711045622826,5.386972390934905
0.8547439170069993,2.291945398449898,2.826970893144608,3.940100074410439,5.3636896569928085
0.8647719169966877,0.23317760467529297,2.067545633912087,5.318075965046883,5.710608436378769
0.8747989167459309,-0.5704140132665635,2.7042875379323963,1.5429869475960731,3.165335993982183
0.8848259169608355,0.5332385855913162,4.346190955638885,-3.787126095592976,5.78930421345795
0.8948529167100787,2.5224712908267977,5.98643317937851,-7.688409136533737,10.06538020518573
0.9048809166997671,4.444893710017205,6.826613749265671,-8.989239202737808,12.131205909515009
0.9149079169146717,6.239759704470635,6.338074788451195,-7.091969166398049,11.375492070705194
0.9249349166639149,6.131896702051163,5.4137866991758345,-7.433993275165558,11.053212184881183
0.9349629166536033,3.4625515401363374,2.41691910803318,-7.293053158521652,8.427300013402814
0.9449899168685079,0.2976074892282486,0.21482553362846377,-4.92733636379242,4.940988147070847
0.9550169170834124,0.09234098374843598,0.03295139908790588,-2.775715954899788,2.7774469777597415
0.9650449170731008,1.5425574696063997,0.5955704891681671,-1.6688152277469637,2.3492832990013484
0.9750719168223441,2.0378797852993014,1.3052587473392487,-1.5007124555110931,2.847594123284301
0.9850989170372486,2.632825791835785,3.0583247512578966,-2.5519482743740083,4.77467924884938
0.9951259167864919,4.02843396127224,4.892490466833115,-3.3815126395225525,7.183270207895234
1.0051539167761803,4.0105368036031726,4.974442702531815,-3.871707531809807,7.471251894140657
1.0151809169910848,1.7530209803581238,3.8528262877464297,-3.4655283576250078,5.470579471923315
1.025207916740328,4.180363919734955,4.81907458126545,1.9909710824489595,6.683029864692252
1.0352359167300165,-0.37634726464748386,-0.6677274692058563,5.0564680284261705,5.1142317271742535
1.045262916944921,-6.037638416290283,-2.0063325950503352,10.390206345319749,12.183383603340593
1.0552899166941643,-10.320631495714188,-4.3285057595372205,8.512236213684082,14.060923224960346
1.0653179166838527,-13.238477475643158,-3.5781603491306306,7.168645459413529,15.474171870571041
1.0753449168987572,-14.769772038459779,-4.667979020476341,5.7019696462154394,16.506018661386452
1.0853719166480005,-14.887911522388459,-5.383375915288926,1.5058416330814361,15.902773492938307
1.0953999171033502,-10.669220273494721,-5.510824166536332,-2.0196119141578674,12.177038906180766
1.1054269168525934,-6.089020823836327,-5.586235706806183,-5.225170140266418,9.776738053146385
1.115453917067498,-3.6564036959409716,-6.335877404808999,-3.7147361040115356,8.204382658000956
1.1254809168167412,2.6292385250329975,-8.493069625496865,-2.4226710140705108,9.214904325464948
1.1355089168064296,1.72846852183342,-9.445926625728609,-2.489024047851563,9.920099493472888
1.1455359170213342,-2.551941842436791,-10.233368818759919,-1.5708451294898989,10.66310456521878
1.1555629167705774,-10.436633237600327,-9.814745600223542,0.7893624186515809,14.348367069505532
1.1655909167602658,-0.5463878041505814,-6.5005654031038285,3.876755140721798,7.588486055443986
1.1756179169751704,1.6597871267795563,-1.2106437814235689,3.400899667739868,3.9732442942456783
1.1856449167244136,2.7962437748909,1.269260364174843,1.7508575105667115,3.534897897109509
1.195672916714102,4.10119963645935,3.1045224326848984,-0.6930400657653809,5.190202551528615
1.2056999169290066,6.252711287140847,3.432638939023018,-3.694676938354969,8.033059579316443
1.2157269166782498,8.587605069279672,2.267357271909714,-4.938593423366547,10.162557494337687
1.2257539168931544,8.873704068660736,1.546928848028183,-2.3793311592936517,9.316481606519362
1.2357819168828428,7.158180112838745,1.7493617928028107,0.15674718707799912,7.370507369958681
1.245808667037636,4.5300768247246745,2.539562702178955,2.131413016319275,5.613723915756927
1.2558356667868793,3.088963868916035,3.684929337501526,2.6240950217843055,5.477798525794951
1.2658636667765677,3.712138478457928,5.2364482498168945,2.0562812653183937,6.740078263518738
1.2758906669914722,2.236656466126442,5.877659180760384,4.274635361731052,7.604078975681644
1.2859176667407155,1.0787941116839648,5.756016629934312,5.797742360830307,8.240712388019043
1.295945666730404,0.3344867554306984,6.338446671366692,5.290230939388276,8.26282826805562
1.3059726669453084,0.171271086037159,6.802437266707421,3.61671571969986,7.706044325691771
1.3159996666945517,0.3569997051358223,6.939731644392014,2.0832822453975677,7.254473723133311
1.32602766668424,-0.6843899872899056,4.603087205886841,0.9059208154678345,4.741043556391326
1.3360546668991446,-0.9886489766836167,3.880350885987282,-0.17655784606933594,4.008206889681281
1.346081666648388,-0.7096265700459481,5.922437742948532,3.1860448980331424,6.762375380019916
1.3561086668632925,-0.16700057208538055,7.599484680891037,4.659716320037842,8.915885418139995
1.3661366668529809,-0.1255061351135373,7.829891874790192,4.019268450737,8.802129142426077
1.3761636670678854,0.5257576578855515,2.145579650402069,2.9667661249637605,3.698869339578955
1.3861906668171287,-2.043061880171299,-13.34959913134575,1.7999998497962952,13.624459558936751
1.396218666806817,-6.9698921674489975,-25.896003670692444,1.8279507100582124,26.87980295197094
1.4062456670217216,-8.061288417577744,-36.59638492584229,-0.645450747013092,37.47927917207866
1.4162726667709649,-6.663316218852997,-27.84344457149506,-7.36788465499878,29.562525482910175
1.4263006667606533,-5.352163478136063,-11.123313871622086,-10.796953868865968,16.399633478518158
1.4363276669755578,-3.585424345135689,-2.582980617284775,-8.345257276296616,9.443006703986931
1.446354666724801,-3.307865788936615,1.4452288109064102,-5.354613461494446,6.457750979676186
1.4563816669397056,-3.3974202820658688,3.5607730686664585,-1.954781495332718,5.295539643325134
1.466409666929394,-2.748358879387379,4.762378808856011,0.2806499060243368,5.505678234214175
1.4764366666786373,-2.4364748284220696,5.245752339363098,1.5200679087638855,5.98037905510358
1.4864636668935418,-1.629951416552067,5.64105335354805,2.6206811249256137,6.430100630350754
1.4964916668832302,-0.36698696874082093,5.499157801866532,2.5254440152645112,6.062448633950679
1.5065186670981348,0.9123841083794832,3.148067232370377,2.617879139184952,4.194766173236268
1.516545666847378,1.449750462770462,1.757626247406006,2.633243283033371,3.48209658359932
1.5265736668370664,1.2897060307860375,1.93150022149086,2.348835883140564,3.303190087989765
1.536600667051971,0.8227517011016607,1.5852895063161851,1.5665579509735108,2.375745565977177
1.5466276668012142,0.1731713580340147,1.009957984685898,1.0133751706033947,1.4411567182196408
1.5566556667909026,-0.6554226616770029,0.4830092489719391,1.051297872439027,1.3297007244590897
1.5666826670058072,-0.9192344869673252,-0.16507742285728455,1.5083746469020844,1.774101652381924
1.5767096667550504,-0.780821171477437,-1.1300966316461563,1.5599926972389222,2.078551734772111
1.5867376667447388,-0.1571368309110403,-2.47901127576828,1.1889261992275715,2.753858092971524
1.5967646669596434,0.6155305445194245,-3.950063145160675,0.5810822582244873,4.039744211310451
1.6067916667088866,0.7980252148211002,-5.481358292698861,-0.9179589899629355,5.614693373968217
1.6168186669237912,1.0210966381430626,-5.743783085346222,-4.92693407535553,7.635991216524276
1.6268466669134796,2.979603102207184,-2.8648503255844116,-8.997249888181686,9.901308377435234
1.6368736666627228,2.4073675350844863,-1.8248937857151033,-4.500440504550934,5.420297087164413
1.6469006668776274,-1.0223160749673843,-1.0297741985321045,4.870621880292893,5.082176950666617
1.6569286668673158,-3.88477518171072,0.07454615235328675,8.056002534627915,8.944060161872661
1.6669556670822203,-4.668200922310352,1.6059214067459107,1.8380687320232392,5.267787019170907
1.6769826668314636,-4.206100731790066,3.3204671233892444,-4.133861013650894,6.767982872588891
1.687010666821152,-1.8136114369332792,3.7595608592033387,-4.255345982015133,5.960826597451169
1.6970376670360565,-1.161354677081108,3.6134757775068285,-0.41914142802357673,3.8185902395114857
1.7070646667852998,-1.5777278870344162,3.0007068729400634,2.7837576305866243,4.3866585881152265
1.7170916670002043,-0.012019536495208741,2.6502867472171783,3.7037655580043793,4.554343379719195
1.7271196669898927,0.568747264444828,2.2668625974655154,1.7399395895004273,2.91367967726593
1.737146666739136,-0.03629103630781174,0.9062798345088959,0.9628349813818932,1.322766562597663
1.7471736669540405,-0.09655711859464645,-0.16818697214126588,2.94347344905138,2.949855264249379
1.757201666943729,-0.4550420165061951,-1.6017593586444856,3.0578742232918743,3.4818516690496883
1.7672286666929722,-1.715713405609131,-2.389814339876175,1.84690665230155,3.4736075269927085
1.7772556669078767,-3.050500591993332,-2.166645998954773,0.46608272910118104,3.770562538521911
1.7872836668975651,-2.7539225050807,-1.5789476162195206,-0.3524980799853802,3.1939661293051693
1.7973106666468084,-1.2344963282346726,-0.9513080728054047,1.0106815776228906,1.8575374788024914
1.807337666861713,-0.004089542627334595,-0.19505609750747682,2.736467396914959,2.743413461349251
1.8173656668514013,0.3131774550676346,0.6000120341777802,1.9514428813755513,2.06548393331735
1.8273926670663059,0.6490508776903153,0.8438257241249085,-0.06568762063980103,1.0665944674668126
1.8374196668155491,0.24704515367746355,0.7412819337844849,-0.151827632188797,0.7959785444387578
1.8474466670304537,0.1463397279381752,0.9099168026447296,0.723632698059082,1.171754319560416
1.857474667020142,-0.7554374581575394,1.3564452731609344,7.020745986700058,7.190375771963044
1.8675016667693853,2.272784949839115,2.569258956313133,-1.7352077302336695,3.8441629621899644
1.8775286669842899,-0.2234408211708069,2.015226502418518,4.136068629920483,4.606313859044752
1.8875566669739783,-0.5881147044897079,2.2297397947311404,1.0086751055717469,2.5169513158670473
1.8975836667232215,0.36809625864028933,0.036196603775024414,-3.9596981871128083,3.976935350590236
1.907610666938126,-0.01656691610813141,-1.4969760847091675,-1.3946603357791902,2.046042353690716
1.9176386669278145,-2.5749389415979387,-1.3732074862718582,4.150386706888676,5.073629782515553
1.9276656666770577,-2.584998491406441,-0.29923126101493835,1.4410158920288088,2.9746064192127584
1.9376926668919623,-1.9570391052961351,-0.1330528074502945,-2.878781024515629,3.4835449324416583
1.9477196671068668,-0.9941073524951936,-0.7826135623455048,-2.3042824387550356,2.6287736634801746
1.9577476670965552,0.7592317163944244,-0.807472414970398,-0.6333715689182282,1.2765594558935702
1.9677746668457985,1.1742051029205323,0.013280196189880371,-0.3433385628461838,1.223444055146267
1.977801667060703,0.8188353091478349,0.8582262468338013,-0.3614055821299553,1.2400232050475326
1.9878296670503914,0.9371344220638276,1.0996443325281144,1.6523342657089235,2.1949139182924586
1.9978566667996347,1.104167738556862,1.0238761121034623,1.802072980105877,2.3483985422908
2.0078836670145392,0.8400390672683716,0.6809544557332993,1.3137819412350655,1.7015838487819304
2.0179116670042276,0.03989672183990479,0.10502008616924287,1.0795015516877176,1.0853315470439233
2.027938666753471,-0.3561305165290833,-0.3434256863594055,1.298864232301712,1.3898987160248104
2.0379656669683754,-0.38902402818202975,-0.8930891007184982,1.5998327010869982,1.8730756812773128
2.0479926667176187,0.07727504789829255,-1.1804546070098878,1.3801943242549897,1.8177956114327705
2.058020666707307,0.7289688670635224,-0.6121309733390808,0.9744490134716034,1.362222748864776
2.0680476669222116,1.2846414649486542,0.09730702400207521,1.383586294054985,1.8905246318105384
2.078074666671455,1.5964927715063095,0.7526191002130509,1.3259254387021064,2.2075558766370498
2.0881026666611433,1.489758866429329,1.4507018047571183,1.553278047144413,2.59549415298342
2.098129666876048,1.1044238466024399,1.6739081525802613,1.5437269127368929,2.530773264701319
2.1081566670909524,1.4771037375926972,1.7014105314016343,1.2948463180661203,2.5987035682016706
2.118184667080641,1.8327881115674973,0.4026579809188843,1.2516532284021378,2.255633284838278
2.128211666829884,1.4101887863874436,-0.956572905778885,0.454413440823555,1.7635633565381916
2.1382386670447886,0.6549776154756546,-1.714487244486809,-0.04460928529500961,1.8358791290868461
2.148265666794032,-0.34375313043594363,-2.0127502065896987,-1.1009812983870506,2.3198037477789843
2.1582936667837203,-0.7952429634332657,-1.3965209197998047,-1.4675166428089144,2.1763012537904216
2.168320666998625,-0.5086276549100877,-0.32215819358825687,-0.976469518840313,1.1471620261583
2.178347666747868,-0.21250945150852205,0.6348672866821289,-0.9718598663806916,1.1801391183081242
2.1883756667375565,-0.16357702732086182,0.9482300984859467,-1.0337128829956055,1.412253549477885
2.198402666952461,-0.36422891020774845,0.5679956048727036,-0.7715015137195588,1.0249372136172064
2.2084296667017043,-0.36876167178153996,-0.10601118922233582,-0.517636167705059,0.6443374464764795
2.2184576666913927,0.44007139027118686,-0.7022798359394073,-1.399608834385872,1.6265806730049621
2.228484666906297,0.8562639212608338,-1.4338974916934968,-1.799686439037323,2.455223248177795
2.2385116666555405,1.2041387540102007,-1.5353501915931702,-1.8054479929804803,2.658362805392008
2.248539417050779,0.9343131405115128,-1.1478721672296526,-2.259232858121395,2.7008673910520584
2.2585674170404673,0.885310549736023,-0.5204641735553742,-1.4988901707530022,1.8169561000223815
2.2685944167897105,1.1342534172534944,0.06295755565166473,-0.7674242502450943,1.3709246690570227
2.278621417004615,1.4132264149188996,0.18081578850746155,-0.5610783487558365,1.5312452979978997
2.2886494169943035,1.5566188538074495,0.12436501443386079,-0.2115949469804764,1.5758494009364037
2.2986764167435467,1.9673389756679536,-0.04596964001655579,0.010698358118534089,1.9679050555989526
2.3087034169584513,2.3937962937355044,-0.5168079096078873,0.1537882035970688,2.4537729974267637
2.3187314169481397,2.5639379900693893,-0.8710626393556595,-0.32219970881938936,2.7269654913411734
2.328758416697383,2.29307683467865,-0.6519107508659363,-0.8200088453292848,2.5210322297132004
2.3387854169122875,2.165306401848793,-0.02365958869457245,-0.8150229245424271,2.3137359308171392
2.3488124166615307,2.183477793931961,0.31921061217784885,-0.38987889111042023,2.2408650653831055
2.358840416651219,1.825047567486763,0.3282083076238632,-0.8413912358880044,2.0362854732605187
2.3688674168661237,1.9522128134965897,0.3520877516269684,-0.6818236443400383,2.0976139149059665
2.3788944170810282,1.884322546720505,0.22869746804237367,-0.5204513096809388,1.9682082099505749
2.3889224170707166,1.640766134262085,0.10437747716903686,-0.5494116917252541,1.7334535967501192
2.39894941681996,1.3509062057733536,-0.007144712805747986,-0.5837787017226219,1.471664430603317
2.4089764170348644,1.351388601064682,-0.1319131851196289,-0.595864019393921,1.4828034829687455
2.419004417024553,1.357859714627266,-0.3966289168596268,-0.558055045902729,1.520698174048479
2.429031416773796,1.2781112945079804,-0.8766502386331558,-0.9740891173481941,1.8305555797573092
2.4390584169887006,1.425582166314125,-1.400479484796524,-1.564323437511921,2.53786034237464
2.449086416978389,1.5284364438056948,-2.0024082362651825,-1.559274951517582,2.9626162562583422
2.4591134167276323,1.6279887986183168,-2.6933257627487186,-1.3881263646483422,3.439657831375746
2.469140416942537,1.6620944380760194,-3.5989279049634937,-1.6554289045929909,4.295961457505189
2.47916741669178,1.5646862572431566,-4.758258275985718,-1.7908434024453164,5.319434650099021
2.4891954166814685,1.2770026624202728,-6.2309719240665435,-1.3687758815288544,6.506096704798437
2.499222416896373,1.0425702452659606,-7.988058473467827,-0.8548838321864606,8.101040504675241
2.5092494166456163,0.7936911123991013,-10.024971714019776,-0.1482877278327942,10.057434697726043
2.519277417100966,0.34161334186792375,-12.274578008651734,0.9965364320576191,12.31970169388192
2.5293044168502092,-0.14626459121704102,-14.818865261077882,1.856032694131136,14.935361338725903
2.539331417065114,-0.35536716252565387,-16.881648337841035,1.8326356454193593,16.98454856131284
2.549359417054802,-0.3555645060539246,-17.426626378297808,1.4662853653728962,17.49181882536682
2.5593864168040454,-0.282592131793499,-15.888850761651993,1.0886115136742593,15.928606714546783
2.56941341701895,1.6410815915465355,-13.689908251762391,0.753719107657671,13.808505683999018
2.5794414170086384,4.205213709175587,-11.207485710382462,-0.019746120348572732,11.970461486406203
2.5894684167578816,5.646345668435097,-8.74452621102333,-1.469526915550232,10.512253203678858
2.599495416972786,5.721183596849442,-6.521346407532692,-2.4416405510902406,9.012297670218562
2.6095224167220294,4.845106385350228,-3.7680171024799347,-2.4229341387748717,6.598758868967979
2.619550416711718,3.5390594333410266,-0.7373900270462036,-2.6346010065078738,4.473232409365694
2.6295774169266224,3.065672362446785,2.7092325282096863,-4.32922233581543,5.956547150715984
2.6396044166758657,2.6316750597953797,6.4510546892881395,-6.648244435787201,9.630211539863025
2.649632416665554,2.208848277926445,9.264291642308235,-7.973571996688843,12.421109480840324
2.6596594168804586,2.383989051282406,10.48351972103119,-7.255442698001862,12.970313731050332
2.669686417095363,2.03583121329546,10.785492156744004,-3.1503265964984895,11.419107121698275
2.6797144170850515,1.4786927184462548,11.05891848564148,1.118850681781769,11.213297332888857
2.689741416834295,0.8339874914288521,11.032318332195283,1.8814960026741028,11.222638287266971
2.6997684170491993,0.393144853413105,10.849256043434144,-0.26846202453598383,10.859695733784417
2.7097954167984426,0.28104378908872607,11.01635309457779,-1.9451628255844118,11.190293987819736
2.719823416788131,0.3591315999627114,10.993149003982545,-1.8611757588386537,11.155369816153243
2.7298504170030355,0.5320916907861829,10.715416785478592,-1.2971451508998872,10.806750852889278
2.739877416752279,0.5363502179458738,10.607309954166412,-1.328218424320221,10.703590995677672
2.749905416741967,0.08395814130082727,10.574633374214173,-1.0619865095615388,10.628157663255925
2.7599324169568717,-0.48472306787967684,10.756772972345352,-0.011646411046385766,10.767695058368082
2.769959416706115,-1.0104690313339233,11.094197076559068,1.0794826213270425,11.192298207542711
2.7799864169210196,-1.6967327588796617,11.091661723852159,1.7342280292510988,11.353916007654037
2.790014416910708,-1.9772298333048821,10.765563676357269,2.032213833332062,11.132685756267447
2.800041416659951,-1.9136317151784898,10.61079021692276,2.4098831534385683,11.04800399086223
2.8100684168748558,-1.8681795537471773,10.514308819770813,3.2078561818599702,11.150386813292467
2.820096416864544,-1.9778847214579582,10.373252928256989,3.5312270879745484,11.134898698767502
2.8301234170794487,-2.001360999941826,10.220714274644852,3.052475781440735,10.852928385108758
2.840150416828692,-1.6901511329412462,10.012968549728393,2.1634604358673095,10.382519496133666
2.8501784168183804,-1.3598445519804956,9.803755758404732,1.5256790430843832,10.014514502386616
2.860205417033285,-0.693183614909649,9.642754429578781,1.2516210687160492,9.748321486942986
2.870232416782528,0.5347100374102592,9.607320887446404,1.1163165716081858,9.686727628385052
2.8802594169974327,1.3516224896907807,9.489391318559647,1.2067554561048748,9.66083276339219
2.890287416987121,1.7566944935917854,9.093477516174318,0.830951397791505,9.298805789265371
2.9003144167363644,2.1146297532320024,8.783319563269616,0.18826740704476835,9.036249562751362
2.910341416951269,2.33355476975441,8.504209156036378,-0.3383923300355673,8.825053008457424
2.9203694169409573,2.391382270753384,8.146850724220275,-1.042020606994629,8.554279211774858
2.9303964166902006,2.531364321112633,7.807136265635491,-1.9967165565490723,8.446659635832386
2.940423416905105,2.501837051510811,7.409979345202446,-2.540599998235703,8.223237250601153
2.9504514168947935,2.2550822120904925,6.998235960602761,-2.5721925044059755,7.78953635483415
2.960478417109698,1.83165609061718,6.691101602911949,-2.346438524723053,7.323358412988563
2.9705054168589413,1.454462149143219,6.421695234775544,-2.4944795000553133,7.041026758067707
2.9805334168486297,1.3232000514864923,5.875833095312119,-3.6198521661758423,7.027062163179361
2.9905604170635343,2.160873335301876,4.942391774654388,-5.696379708051682,7.845084563195796
3.0005874168127775,3.5638519200682643,2.9510224968194962,-11.573604440689088,12.464264680856518
3.010614417027682,3.2987605047225954,-2.244700480699539,-15.855607001781465,16.349947232652216
3.0206424170173705,-2.6084119123220444,-8.73749493420124,-5.8431775653362275,10.830067150742163
3.0306694167666137,-5.104474838376046,-17.250177290439606,6.264262461662293,19.04902265513388
3.0406964169815183,-0.6583555519580842,-24.579954471588135,13.406903014183046,28.006296475790048
3.0507244169712067,1.0011146557331085,-26.241047866344452,12.985902317762376,29.29553690725211
3.06075141672045,-7.879379199743271,-25.68771883249283,4.86845168620348,27.30650723200335
3.0707784169353545,-6.965538330674172,-15.982914919853211,10.425122408866883,20.313923077810845
3.080806416925043,-1.7669034397602081,-7.180699494481087,3.381641278266907,8.131413821123362
3.090833416674286,2.1567799919843673,-3.8797679185867313,-2.8450990158319476,5.272465025565065
3.1008604168891907,3.6467777171730997,-3.980846981406212,4.895304147005081,7.28766993623657
3.110887417104095,2.19054123044014,-4.262996771335602,2.9723540166020395,5.6397252375170055
3.1209154170937836,1.1271239072084427,-5.830820644497872,-2.19451441347599,6.331253525286859
3.130942416843027,1.1946627563238144,-7.0855109167099,-3.83763259023428,8.146109988810037
3.1409694170579314,1.8391832113265991,-8.092951090335847,-2.060109729766846,8.551169764077533
3.15099741704762,0.8384544718265534,-8.418601241111755,-4.731122225224972,9.693264169937391
3.161024416796863,-3.5040656018257144,-7.930564556121826,-6.699711627960205,10.95711941244318
3.1710514170117676,-4.582201536297799,-5.241159936189652,-4.564820395410061,8.32489721488026
3.181079417001456,-1.5604604744911195,-0.7616787761449815,-2.8239768263697624,3.3151224059380073
3.1911064167506993,0.5957260251045228,2.8965580219030382,-1.448430453836918,3.292854180014641
3.201133416965604,3.634636850953102,2.9773612797260287,-0.8868039286136628,4.781389592589452
3.211160416714847,5.770255769491196,0.30998370587825774,-1.6732415699958803,6.015952035614872
3.2211884167045355,6.332359719872475,-2.657755395770073,-0.5253439673781395,6.887556144937691
3.23121541691944,4.431197776794434,-3.964466006755829,2.2519755864143374,6.357979120569416
3.241242041811347,0.9014085191488267,-2.6890912091732027,2.824350755810738,4.002587418345209
3.2512700418010354,-2.476795765757561,0.7319316512346268,0.674645017683506,2.669342073852433
3.26129704201594,-5.761713572144509,5.2182154619693755,0.12468251824378968,7.7744878690062995
3.271324041765183,-7.252393959760666,9.117839355468751,0.6844189310073853,11.670503071111764
3.2813520417548716,-5.014113721847535,10.650780494213105,2.772672771513462,12.094138077987296
3.291379041969776,-1.1486837607622147,8.073036058545114,3.2241786843538285,8.768620973303046
3.3014060417190194,1.9201115995645524,2.479797726273537,2.2034244006872177,3.83292374142215
3.311433041933924,4.538931555747986,-1.471613786816597,1.9585181584954263,5.1578425899274825
3.3214610419236124,5.7150510370731356,-3.407142155170441,1.1223479014635087,6.7475988939629294
3.3314880416728556,5.363533973693848,-3.96494197010994,-0.5988677340745926,6.696783114019973
3.34151504188776,3.8471065413951875,-3.231787081360817,-1.4688506850600243,5.234710958123439
3.3515430418774486,1.135139855146408,-1.1915228015184403,-1.3414053574204445,2.1231197352472684
3.361570042092353,-1.5226120322942736,1.3615323507785797,-1.214824540615082,2.3765345374272573
3.3715970418415964,-2.0520557749271395,3.491762475371361,-0.6311420255899429,4.098985038309988
3.3816250418312848,-1.6305253207683563,3.6670538145303726,-0.06834985792636872,4.0137972299814875
3.3916520420461893,-1.198137756586075,1.6151494824886323,-0.48339165687561036,2.068310766900699
3.4016790417954326,-0.32699734926223756,-0.5301828306913376,-0.1432816341519356,0.6391797298645026
3.411706042010337,0.42004935443401337,-1.7361511784791948,0.8105638378858566,1.961549415636368
3.4217340420000255,0.2728299129009247,-2.0891358929872514,0.4706447267532349,2.158803233173833
3.4317610417492688,0.5218563956022263,-1.551049965620041,-0.055935634374618536,1.6374427894353343
3.4417880419641733,0.2413935273885727,-0.9552052420377731,0.16531043440103532,0.9990072217974189
3.4518160419538617,-0.18505501985549927,-0.04557495296001435,-0.01400583565235138,0.19109840434537237
3.461843041703105,-0.21240361690521242,0.8465376627445221,0.3574660205841065,0.9431454112657345
3.4718700419180095,0.05484045088291169,1.2925124019384384,0.3713344466686249,1.3459142080758366
3.481898041907698,0.7138742798566818,1.0002615469694138,0.3810800009965897,1.2866085717676925
3.491925041656941,0.9903277122974397,0.2781497097015381,0.6314747321605683,1.2070114233546392
3.5019520418718457,1.4866142338514328,-0.5617601341009141,0.8115642964839935,1.7844419116021453
3.5119790420867503,1.7518415969610215,-0.8083272778987884,0.7329484820365906,2.0638690477736104
3.5220070420764387,1.541012050509453,-0.7348622757196427,0.901909625530243,1.9308499881439014
3.532034041825682,1.2878878390789033,-0.14909581303596497,0.40965183556079865,1.3596688103690964
3.5420610420405865,1.4087287366390229,0.744678873717785,-0.09000911414623261,1.595983997107601
3.552089042030275,1.6049186092615129,1.0301846730709077,0.10848573088645935,1.910186733487093
3.562116041779518,1.6753471523523331,0.3689344570040703,-0.060554350018501284,1.7165568862598535
3.5721430419944227,1.5010258662700653,-0.35582880020141605,-0.7205225640535355,1.7025996451235563
3.582171041984111,1.359503366947174,-0.8943430361151695,-1.4475905013084411,2.1779846488133994
3.5921980417333543,1.3105726969242097,-1.6041689962148666,-1.779222646057606,2.7306761409190283
3.602225041948259,1.5160830312967302,-2.2640278673172,-2.2237645250558855,3.517024112040146
3.612252041697502,1.6483219063282013,-2.561622492671013,-2.318406095802784,3.828038887850409
3.6222800416871905,1.6754103022813798,-2.36337498486042,-2.1218528187274934,3.590933079910622
3.632307041902095,1.6444656676054001,-1.9098848193883897,-2.001247563958168,3.2182167682602736
3.6423340416513383,1.6144326138496399,-1.3172069478034973,-2.749157316684723,3.4495351512753616
3.652362042106688,1.7123331302404405,-0.8514475697278977,-3.0619979721307757,3.6101079338778157
3.6623890418559313,2.0398081970214843,-0.958603059053421,-3.45077173948288,4.121597130176155
3.672416042070836,2.5290634417533875,-1.3299147015810013,-3.487074762582779,4.508272995919448
3.6824440420605242,2.9368190252780915,-1.5907829654216767,-3.410607215166092,4.773650385863438
3.6924710418097675,2.941741211414337,-1.6033585721254349,-2.9342097052931786,4.453558875818112
3.702498042024672,2.539832258820534,-1.4391512149572374,-2.4197070604562763,3.7916864824086214
3.7125250417739153,1.9480057418346406,-1.2187825208902359,-2.422157336175442,3.3387128305136993
3.7225530417636037,1.9560415703058245,-1.223418193459511,-2.4443244230747223,3.361186187358829
3.7325800419785082,1.640543355345726,-1.5689564788341523,-3.060201122760773,3.8102280568216607
3.7426070417277515,0.6176144921779633,-1.9235287123918534,-3.2752307242155076,3.848187451929719
3.75263504171744,0.4205668330192566,-2.1574945217370987,-2.569340817332268,3.3812972818093185
3.7626620419323444,0.25753418147563933,-2.6361095881462098,-3.0650823783874515,4.05094156976449
3.7726890416815877,0.4265415179729462,-3.2470588392019275,-2.5474698919057848,4.149088047024371
3.782717041671276,2.040241475701332,-4.173554837107659,-1.7554183387756348,4.96614929312707
3.7927440418861806,3.550127043128014,-5.466757210493088,-2.0539438408613204,6.8342901403319996
3.802771042101085,4.52237633407116,-7.18287524342537,-1.7627372986078262,8.669073033115085
3.8127980418503284,5.250433620214462,-9.09260861992836,-1.322494000196457,10.582607197474045
3.822826041840017,4.885039067566395,-10.878730688095093,-1.1442694053053857,11.979972476916206
3.8328530420549214,4.1766453829407695,-12.353157570362091,-1.0308342987298966,13.080806090011144
3.8428800418041646,3.662914862930775,-13.261940013170243,-0.5646466121077538,13.770069861934974
3.852908041793853,2.8731887474656106,-13.568831126689911,-0.1804649555683136,13.870867288074683
3.8629350420087576,1.9808919444680215,-12.645672719478608,0.833925510942936,12.827018483717298
3.872962041758001,0.8827798748016358,-10.217273772954941,1.3728268325328827,10.346817731601826
3.8829900417476892,0.3823166871070862,-6.6215776240825654,1.3254567843675613,6.763748366713346
3.893017041962594,0.35071248650550846,-2.7901299262046817,1.2928699591755868,3.0950504009842073
3.903044041711837,0.016118580847978594,0.4424126154184342,1.1376706762611866,1.2207715996674062
3.9130710419267416,-0.20375763148069384,2.9123180222511293,0.18098769664764405,2.9250418768717092
3.92309904191643,-0.014658092558383943,4.957856490612031,0.01176810622215271,4.957892125642242
3.9331260416656733,0.4143594288825989,7.0370661503076555,1.4694509017467499,7.200783269391883
3.943153041880578,0.2998864415287972,9.017666026353837,2.9837850308418274,9.503220798810515
3.953181041870266,0.6496621309965849,10.388946855068207,2.207218658924103,10.640680986205034
3.9632080420851707,1.754201240837574,11.388771615028382,-2.6837527012825015,11.831477906596174
3.973235041834414,2.711586032509804,11.669760732650758,-6.032881121635437,13.41386107713976
3.9832630418241024,3.519940792322159,11.468020098209381,-5.994537420272827,13.410441716716084
3.993290042039007,3.727235696911812,10.915343613624573,-4.039081156253815,12.220932400215341
4.00331704178825,3.235437205731869,10.151818871498108,-2.8813558459281925,11.037648835816608
4.013344042003155,2.0987130475044253,9.634204630851746,-3.428341820240021,10.439158153859784
4.023372041992843,0.8800524410605431,9.09412421822548,-4.675745877027512,10.263536773552847
4.033399041742086,-0.33829537589102987,8.22089401602745,-4.5307232344150545,9.392816149109574
4.043426041956991,-1.409804331958294,7.671949224472046,-2.8501972031593326,8.304816509362677
4.053454041946679,-2.267949594855309,7.0948851728439335,-0.7880831209570169,7.4901312395833495
4.063481041695923,-3.335542999505997,5.938117636442184,0.7477758514881134,6.851733860115114
4.073508041910827,-4.268453685343266,5.201138668656349,1.9952385266125203,7.018013756939476
4.083536041900516,-4.4194758635759355,5.744993458986283,1.743087730407715,7.45486898532921
4.093563041649759,-3.70670670747757,7.63692264854908,0.6692185091972351,8.515287168864788
4.103590041864663,-3.067583232522011,9.812306141853332,-0.17431602358818055,10.282110910994026
4.113617042079568,-3.0562867042422295,11.13181221485138,0.7098121460527183,11.565550781866213
4.123645042069256,-2.7249048203229904,11.542218925952913,2.2344257533550262,12.068164005419435
4.1336720418185,-2.0829083159565926,11.61008171081543,2.9437620091438297,12.157229912729733
4.143699042033404,-1.3681069600582123,11.124730067253113,2.582648495435715,11.502234955624125
4.1537270420230925,-0.08707761257886887,10.832193868160248,2.1768482208251956,11.049102890485305
4.163754041772336,0.49344188768416647,10.564132944345475,1.2661584162712098,10.651175845765628
4.17378104198724,0.9767478463053704,10.274779969453812,0.07072682417929173,10.321344004518497
4.183808041736484,1.9090776112675667,9.988045377731323,-0.41237963475286965,10.177213997780632
4.193836041726172,2.162171124815941,9.796035679578782,-0.950659031867981,10.076757990715096
4.2038630419410765,2.1236394354701043,9.692721810936929,-1.0838047369569541,9.98164982675442
4.21389004169032,2.5253150841593746,9.513781224489213,-0.5113249754905701,9.85650560250877
4.223918041680008,3.1417689040303234,9.192526425719262,0.1520919994264841,9.715780252258096
4.233945041894913,3.588607276976109,8.69901967048645,0.537045634612441,9.425468870540731
4.243972291704267,3.576469042003155,8.248985209465028,0.7748788654804231,9.02426313061338
4.254000291693956,3.539423714876175,7.767467000484467,1.3041372513771057,8.634919675797365
4.26402729190886,3.7179541191458703,7.265188252329827,1.7303665280342102,8.342680114639792
4.2740542916581035,3.7863834992051126,6.957221835851669,1.854091272354126,8.134942539595702
4.284081291873008,3.2319186437129974,6.900630143880845,1.4262082569301129,7.752294143951986
4.294109291862696,2.4780526247620585,6.708000640869141,-1.0000187413394452,7.220668590374514
4.304136292077601,2.2737702056765556,5.986165376901627,-5.538775026798248,8.466536225949909
4.314163291826844,4.434071098566055,4.646154288053513,-15.961813488006593,17.20544175548672
4.324191291816533,6.439052694439888,-0.6604628884792328,-15.027050696611406,16.361841689350292
4.334218292031437,0.9093629251420499,-10.405296839475632,-3.381596839427948,10.978722167522665
4.34424529178068,-6.699611055850983,-20.326638350486757,1.7426585447788239,21.47309651016477
4.354273291770369,-7.435762642621994,-31.125444617271423,-0.09606288269162179,32.00145460409065
4.364300291985273,-7.181553772687912,-37.175759797096255,8.796946499347687,38.87155899618372
4.374327291734517,-4.770039538443089,-31.87969801425934,12.666799879074098,34.63403300014587
4.384354291949421,6.789200339913369,-17.75138775229454,0.7553257763385773,19.020397614566157
4.39438229193911,11.567973572015763,-7.058186293244362,-0.4254599292576313,13.55791364718044
4.404409291688353,3.6413436073064807,-3.5002836227416996,-5.214473243951797,7.259621196591094
4.414436291903257,-0.8868232244253159,-4.787280930876732,1.5714485621452332,5.116049718873383
4.424464291892946,-3.868188092708588,-3.5564701026678085,6.323742093443871,8.22198715494839
4.43449129210785,-5.620541905760765,-0.43107661843299866,4.942456094026566,7.496945418418946
4.444518291857094,-4.968646942377091,4.028148032426834,3.5475568994879723,7.314272962109229
4.454546291846782,-2.6908842578530314,8.086096399426461,2.065746591836214,8.768872336376084
4.4645732920616865,-0.7304254084825517,7.488080019950867,1.6769548442959787,7.708245015070034
4.47460029181093,2.3736146289110187,3.7971075850725176,0.01725834935903549,4.4779873012122575
4.484627292025834,6.635772909522057,-1.0374913537502288,-3.228085209131241,7.451872552135147
4.494655292015523,8.8057255089283,-6.403630846738816,-4.54912500679493,11.800077461073823
4.504682291764766,5.33905577480793,-10.5923410820961,-3.1801778018474582,12.280746598531133
4.5147092919796705,-1.1415454798936844,-9.550810471773149,-3.260158064067364,10.156265915832492
4.524737291969359,-2.377212420701981,-3.1731716680526736,-0.376936956346035,3.9827426225066778
4.534764291718602,-3.4907918375730516,1.4974485397338868,1.969057764708996,4.278453957117989
4.544791291933507,-3.5775867372751238,3.826396872997284,1.3600158753991127,5.41203132601317
4.554819291923195,-1.5069882720708847,3.3999348771572113,0.6836646401882172,3.7812654179934126
4.564846291672438,1.3083033925294876,1.1105055356025697,1.375308683216572,2.199171272465839
4.574873291887343,4.306163840889931,-0.9714195710420609,1.0002197393774988,4.526272476843595
4.5849002921022475,5.283810696601868,-2.8007198184728623,-1.1617680752277375,6.0919940938685535
4.594928292091936,3.9109160363674165,-3.401346395015717,-3.7684123742580415,6.408225445851868
4.604955291841179,0.9657530343532563,-2.233326476812363,-3.8023297333717347,4.514215045462103
4.614982292056084,-1.8538299018144608,1.1113773554563522,-1.729164632856846,2.7680056464186484
4.625010292045772,-4.2727066576480865,4.617961937785149,-1.175735026896,6.400308390586566
4.635037291795015,-5.109386499524117,6.2852487033605575,-0.11311350971460343,8.100800968465702
4.64506429200992,-3.1955665040016177,4.236417667865753,2.0781834733486177,5.698923274356442
4.655092291999608,-0.02618500113487244,-0.38419890582561494,1.9508255615830423,1.9884704738184638
4.6651192917488515,2.1059062922000886,-3.239242281317711,1.0802669522166253,4.011796175861342
4.675146291963756,3.56140515267849,-3.7783912324905398,1.1836936721205713,5.325502575035014
4.685173291712999,3.9269555336236954,-2.9933551687002184,0.841442691385746,5.00891013414381
4.695201291702688,2.5828262507915496,-1.2563532203435899,0.39602373003959657,2.899353315965496
4.705228291917592,-0.4761615747213364,1.5201439225673676,0.1778977355360985,1.602877099115362
4.7152552916668355,-2.446581448316574,4.294913213253022,0.785330471098423,5.004876046562781
4.725283291656524,-2.479667918086052,5.146039770841599,1.5973716080188751,5.931447914394383
4.7353102918714285,-1.55239950299263,3.30797220826149,1.9763884189724923,4.154363432605621
4.745337292086333,-0.6054037517309189,0.43107661843299866,1.3277518165111541,1.5215996976268662
4.755364291835576,0.20497297525405886,-1.2112577390670778,1.1340987583994866,1.6719268000835583
4.765392291825265,1.1987172156572343,-1.9224557483196258,2.050346341431141,3.055598008112368
4.775419292040169,1.638458822965622,-1.7821985864639283,0.9810739088058472,2.6121418664933764
4.7854462917894125,1.101092103123665,-1.406009196639061,0.07870790809392929,1.787585135145019
4.795474291779101,0.5811553484201432,-0.908191289305687,-0.27159176498651505,1.111897047291949
4.805501291994005,0.07409884035587311,-0.4588041150569916,-0.49874644517898564,0.6817183221199129
4.815528291743249,-0.6126227241754533,-0.12998360395431519,-0.7558625507354737,0.9815959123169994
4.825556291732937,-0.8290796309709549,0.003182639479637146,-0.874351405799389,1.2049371537588007
4.835583291947842,-0.3505060797929764,-0.37861189126968386,-0.6727072504162789,0.8477832983406063
4.845610291697085,-0.5406347286701203,-0.7509438729286194,-0.16354896068573,0.9396546560703201
4.8556372919119895,-0.39586000800132753,-1.1854814583063127,0.21054215580224991,1.267438137856334
4.865665291901678,-0.22898632049560547,-1.5938387203216553,0.396829768717289,1.6583818820497604
4.875692291650921,-0.48089606523513795,-1.6302358835935593,0.1318716698884964,1.7047933009704994
4.885719291865826,-0.5909009027481079,-1.3134577131271363,-0.3597522819042206,1.484505555859253
4.895747291855514,-0.5249910879135132,-1.3071111452579498,-0.5440167582035065,1.510003119749233
4.905774292070419,0.3792258489131928,-1.4542101341485978,-0.6302228432893754,1.6296380551975826
4.915801291819662,1.6664435970783233,-1.7409002870321275,-0.6076034742593766,2.4853470690356207
4.92582929180935,2.4853268533945085,-1.9566742390394212,-0.732938834130764,3.246940556970717
4.935856292024255,2.7313654088974,-2.1324193221330643,-0.667098308801651,3.5288226529444238
4.945883291773498,2.7380405902862552,-2.092255382537842,-0.6861830359697342,3.5135802280105004
4.955910291988403,2.1383782196044923,-1.9956839382648468,-0.562470278441906,2.978554784733308
4.965938291978091,1.6083386456966402,-1.8044226837158204,-0.4690478521585465,2.4622551265788952
4.975965291727334,1.149827476143837,-1.7952010399103167,-0.7565940374135971,2.2621415817848796
4.985992291942239,1.0954501247406006,-1.9205057018995286,-0.985245604813099,2.420549943427387
4.996020291931927,1.1956351482868195,-2.0272565639019016,-0.8938603484630585,2.517597844425652
5.0060472916811705,1.3095815938711166,-1.9327907019853592,-1.1354091194272042,2.5961197424551763
5.016074291896075,1.6861282485723497,-1.6873614263534547,-0.9814507618546486,2.5794306836440275
5.026101291645318,2.146516374349594,-1.4325046849250793,-0.9461844500899316,2.7486118735236547
5.036129292100668,2.4468007189035417,-1.305603148341179,-1.0772904270887376,2.9752290673631037
5.046156291849911,2.1263107359409332,-1.0470176374912263,-1.373856527209282,2.7395118244590457
5.056183292064816,1.8927846372127535,-0.7279608070850373,-1.7594406384229662,2.6848076243289256
5.066211292054504,2.033321880698204,-0.7559081590175629,-1.4571445593237877,2.6132480330351955
5.076238291803747,1.570976107120514,-0.7050455689430237,-1.2264955830574036,2.1140829214316637
5.086265292018652,1.5620515018701555,-0.5044164901971817,-1.3814500138163568,2.1454242076453935
5.09629329200834,1.7671051687002184,-0.5186702477931977,-0.9232718431949616,2.06012387968042
5.106320291757584,1.6333477717638016,-0.6210392063856125,-1.192448123395443,2.115525269615837
5.116347291972488,1.6085415440797806,-0.6634011143445969,-1.2294376096129418,2.130498480045222
5.126374291721731,1.4376765471696855,-0.642965680360794,-1.251271112859249,2.011466658505577
5.13640229171142,1.3379587161540987,-0.7803641384840012,-1.643621329665184,2.2584492002466976
5.146429291926324,1.1431493711471559,-1.1114253026247025,-1.7032357397675515,2.3330385066025094
5.156456291675568,0.8671970450878144,-1.6792104077339174,-2.2774802640080454,2.959509192652914
5.166484291665256,1.2404172188043594,-2.5189805030822754,-1.8005924651026726,3.3355705474475417
5.176511291880161,1.841080048084259,-3.5724903041124345,-1.5824293407797814,4.319299171739789
5.186538292095065,1.7321464204788208,-4.821057372093201,-1.6095528200268747,5.369691395922885
5.1965662920847535,1.1404994130134583,-6.025791957378388,-1.1404508811235428,6.237911175781969
5.206593291833997,0.5433928602933884,-7.031794300675393,-0.6981306517124176,7.087227475853245
5.216620292048901,0.6442032435536384,-7.835471287965775,0.5147885736823082,7.878744531912107
5.226647291798145,1.4133132460713387,-8.718802555203439,0.640923832654953,8.855831733237022
5.236675291787833,2.315131070315838,-10.005526213645936,0.4579211854934693,10.280081638626294
5.24670270876959,2.441439114511013,-11.40377557039261,0.5835548995435238,11.676782884447618
5.256729708518833,2.7667290768027306,-12.370763536691666,1.0346604242920876,12.718533817180424
5.266757708508521,3.557610017359257,-12.438346824645997,1.4299110062420368,13.015902052933873
5.276784708723426,4.633170838057995,-11.61902327299118,1.3929506099224092,12.586035326290201
5.286811708472669,5.0719409304857255,-9.474301993846893,0.7925702011585236,10.775674020529392
5.2968397084623575,5.007729731798173,-6.365904611349106,0.357538526058197,8.107399853537943
5.306866708677262,4.2089135348796844,-2.9680700540542606,0.4221946978569031,5.167459854973771
5.316893708426505,3.0081591492891313,0.04064224183559418,-0.12530817031860353,3.0110422442772085
5.32692070864141,2.2113878698647023,2.6166810446977617,-1.3393866062164308,3.6784796426753923
5.336948708631098,1.918378192484379,5.234972412586212,-2.591123449802399,6.148091718741209
5.3469757083803415,1.388889426290989,7.4967876935005195,-3.0285396194458007,8.203833968726858
5.357002708595246,1.2695898547768594,9.205646408200264,-3.315626213550568,9.866567862237934
5.3670307085849345,1.8118194115161896,10.822775173187257,-3.30443932056427,11.460125272116208
5.377057708334178,2.16065201818943,11.87180542230606,-1.5737558734416963,12.16901346362941
5.387084708549082,2.119194089770317,11.883075345754625,0.08602759882807733,12.07086840334029
5.397111708763987,1.9151940912008287,11.110030167102813,0.12846091590821743,11.274628194659952
5.407139708753675,1.3152186021208765,10.729430222511292,-0.0001660609245300293,10.809739723910088
5.4171667085029185,0.5162398526072502,10.758865106105805,-0.45794106602668766,10.780973609871916
5.427193708717823,-0.5469149306416512,10.745635195970536,-0.9672803270816803,10.802935848064578
5.437221708707511,-1.6673157092928887,10.506216273307802,-1.949036021232605,10.814770615599517
5.447248708456755,-3.0000449681282046,10.488399807214737,-4.865585088729858,11.944903456388579
5.457275708671659,-4.815589348375798,10.554833532571793,-8.422316561937333,14.336311518029186
5.467303708661348,-5.800885239243508,10.542490060329438,-6.2061855769157415,13.53924317109842
5.477330708410591,-6.229335873126984,10.283100557327272,-1.7028167867660524,12.14274958572495
5.487357708625495,-6.670467363595963,9.815374760627748,1.5844551086425782,11.97276971012433
5.497384708374739,-6.086209482550621,9.567166303396226,4.801470369100571,12.313680792016662
5.507412708364427,-5.161092842817307,9.450195677876472,6.245792276859284,12.448011843182439
5.517439708579332,-3.8931147730350495,9.383901700973512,5.2144159412384035,11.419460905743252
5.527466708328575,-2.565928966999054,9.311233674287797,3.9055155479907993,10.418066792667139
5.537494708318263,-1.3145572820305824,9.0455841422081,2.570061779022217,9.495044542786363
5.547521708533168,-0.9412258650362492,8.551945239901544,1.0840280275046825,8.671608286800298
5.557548708748072,-0.5648897100985051,8.15912286043167,0.36049736335873606,8.186595420880554
5.567576708737761,0.6822959531843663,8.080194804668427,0.21699704334139824,8.111853275666498
5.577603708487004,1.6945346443355085,8.26176956176758,0.11196263149380685,8.434501738896824
5.587630708701909,2.5963032057881357,8.569696801900864,0.4191541457176209,8.96416107679731
5.597657708451152,3.35097555577755,8.814568837881088,0.915711247175932,9.474396448395408
5.60768570844084,3.5196446308493616,9.079531906843187,1.137147789001465,9.804024840282747
5.617712708655745,3.63773821413517,9.322087275981904,1.5643382017314436,10.12825772307357
5.627739708404988,3.9066554626822474,9.41663149058819,1.9418404376506806,10.378133253092177
5.6377677083946764,4.080316305756569,9.388754305243493,1.6624172043800354,10.371177344962813
5.647794708609581,4.033972443938255,9.318045095801354,1.0361629394441842,10.206494585454815
5.657821708358824,3.8842118024826053,9.245089970827102,0.3575271239876747,10.034272048316208
5.667848708573729,3.6288688650727274,9.098600261807443,0.0037308159470558168,9.795571952828702
5.677876708563417,3.474392736554146,8.831949686408043,-0.022967716902494432,9.4907991058226
5.6879037083126605,3.778500283062458,8.492252769470216,-0.11371650382876397,9.295609336289939
5.697930708527565,5.495788051486016,7.746348611712456,-3.547559530735016,10.138776146317896
5.707958708517253,7.016393904089928,4.966184095144272,-9.446592038869857,12.772269533370082
5.717985708732158,4.731831784844399,-0.20343749642372133,-11.971249018907548,12.874098878279202
5.728012708481401,0.33701801508665086,-9.54526731133461,-6.092836132049561,11.329093578893886
5.73804070847109,-0.15858525931835174,-23.135610344409944,0.11450719356536866,23.136437219032228
5.748067708685994,-0.8474504131078721,-32.40339803695679,3.8403506684303284,32.64118058221309
5.758094708435237,-9.928482130765916,-38.49545064210892,6.703367307186127,40.31636901824164
5.768121708650142,-8.258446004390716,-30.874035394191743,3.2235606336593627,32.12163344364853
5.77814970863983,7.70735002219677,-11.896707544326782,3.816311595439911,14.679888587907861
5.788176708389074,16.263258504867554,-0.653747946023941,-1.1426045568287373,16.316449023803038
5.798203708603978,15.377548005580904,0.08360173523426057,-2.5618487799167635,15.589709461219616
5.8082317085936666,8.318766465783119,-4.5130009084939955,-0.8623400554060936,9.503298537006147
5.81825870834291,1.2647965997457504,-9.917125668525696,-1.8615439872443678,10.169288961402627
5.828285708557814,-4.882723862528802,-13.286749749183656,-0.6365274573862553,14.169822808318624
5.838313708547503,-8.441827551126481,-11.333913037776947,3.925315389633179,14.667315298272532
5.848340708762407,-7.520074229836465,-4.351071041822434,5.210167354345322,10.130606077304655
5.858367708511651,-5.989956126809121,2.7884909516572955,1.253840964138508,6.725129987734402
5.868394708726555,-5.24303981602192,7.392934126853944,-1.6030390217900277,9.20405756293247
5.8784227087162435,-2.436721288561821,8.919780128002166,-2.2140024523437023,9.507991114268915
5.888449708465487,0.9434225177764893,6.205366966724396,-0.30296997070312504,6.283980907188526
5.898476708680391,4.6968514019250875,1.4062138491868974,0.2690292227268219,4.910216614783068
5.90850470867008,6.423763394951821,-1.8815100359916688,-2.1520430164039137,7.031081375884734
5.918531708419323,4.296680826544762,-2.9707925176620487,-2.9276286640763285,5.988161980350527
5.9285587086342275,1.7204034572839737,-1.4988635659217835,-2.5276112857460977,3.4051723681648562
5.938585708383471,1.0387479203939438,0.8497682493925095,-1.5727311488986015,2.067507336507967
5.948613708373159,0.992963052392006,2.0237874108552933,0.3122977414727211,2.275790189600303
5.958640708588064,1.2742345905303956,2.6284509050846103,0.7475326073169709,3.01516715144391
5.968667708337307,1.6296546703577042,2.0494601958990097,1.3282488298416137,2.936035829680677
5.978695708326995,1.5951455730199815,0.08467937707901002,1.593980222940445,2.256641962552546
5.9887227085419,0.6150884950160981,-1.9978690427541734,1.271236138343811,2.4466008845187504
5.9987497087568045,-0.9763429266214371,-2.590196666121483,0.9079056528210641,2.913186735170782
6.008777708746493,-2.3808873957395553,-1.3438515400886537,0.849924662411213,2.863028760729613
6.018804708495736,-2.8572618091106414,0.5946056985855103,1.579868552684784,3.3186572022965692
6.028831708710641,-2.833118070960045,2.748517046570778,1.0332003745436669,4.080245945191012
6.038858708459884,-1.4005724555253982,4.218365558981896,0.9057933461666108,4.536151758742292
6.048886708449572,0.8461634409427643,3.736577208638191,2.0642030730843546,4.351888800490354
6.058913708664477,1.869936057329178,2.2028735929727556,0.9688926967978478,3.047632849118262
6.06894070841372,2.489342721104622,0.4177508139610291,0.23886489897966387,2.535428832692062
6.0789687084034085,2.4752889382839203,-1.2183504116535187,-0.1359425014257431,2.762229790814103
6.088995708618313,2.095791778564453,-2.1127522122859954,-0.6274518477916717,3.041341958891651
6.099022708367556,1.2051526612043382,-2.2985504132509234,-0.14646193474531174,2.599457258235501
6.109050708357245,0.013923974633216858,-1.4760828137397768,-0.1295205044746399,1.4818197971301668
6.119077708572149,-1.648667476773262,0.020868127942085268,-0.21364644259214402,1.6625837513238244
6.1291047083213925,-2.307237621545792,1.2711624634265901,0.04196868270635605,2.634570329490019
6.139131708536297,-1.8583486300706864,1.7609433728456498,0.16550631612539293,2.5654967421402053
6.1491597085259855,-1.0546915233135223,1.5770080947875977,-0.3676577174663544,1.932485688844183
6.15918670874089,-0.014488230943679811,0.8124899107217789,-0.4188804960250855,0.9142267956097017
6.169213708490133,1.002270065546036,-0.3005153095722199,0.1906361871957779,1.0635774026583518
6.179241708479822,1.092256960272789,-1.207134867310524,-0.2270584934949875,1.643701741378089
6.189268708694726,1.1081520313024522,-1.6589287555217744,0.0706405046582222,1.996255399811142
6.1992957084439695,1.1379354089498521,-2.0073643362522127,0.4405903306603432,2.3491548294802844
6.209322708658874,0.621640300154686,-1.929356632232666,0.5367021837830543,2.096879326807836
6.219350708648562,0.12433577835559846,-1.1465986436605453,-0.260722668170929,1.1824229975443064
6.229377708397806,-0.06994088530540467,-0.46728491663932803,-0.17701685249805452,0.5045610833429839
6.23940470861271,-0.41114287555217743,-0.13970401525497436,-0.06675473749637605,0.43933116321732224
6.249432417098433,0.040487290620803834,-0.16893950879573824,0.049367457032203674,0.18060156186419105
6.259459416847676,0.5377327555418014,-0.7152097839117051,-0.24990502685308458,0.9290500922081907
6.269486417062581,0.634091945886612,-1.569707261323929,-0.5080552124977112,1.7675331909295038
6.279514417052269,0.9796278923749924,-2.2827483129501345,-0.3927984058856964,2.514935636445215
6.289541416801512,1.5994444459676744,-2.7089296424388887,-0.5703391689062118,3.197156410157244
6.299568417016417,1.7327340656518937,-2.796356041431427,-0.8822816920280457,3.4059353248129143
6.30959541676566,2.0458068555593494,-2.6312762796878815,-1.1215143808722496,3.516636895786228
6.319623416755348,2.243387780785561,-2.408285109400749,-1.1692805778980255,3.4928273608910136
6.329650416970253,2.0595975136756897,-2.1048719197511674,-1.1679924362897873,3.168064716530614
6.339677416719496,1.4806120669841767,-2.0154878729581833,-1.1894078636169434,2.7693130059591455
6.349705416709185,0.7688790374994279,-2.0393205392360687,-1.4314097937941552,2.607477178006734
6.359732416924089,0.061815009713172914,-1.9350038731098176,-1.4101981419324876,2.395145065311426
6.3697594166733325,-0.15736260652542114,-1.8585024118423463,-1.3506465893983841,2.3028331277384777
6.379786416888237,0.33924609661102295,-1.9745661342144014,-1.179077587723732,2.3246985375150553
6.389814416877925,0.8914407706260682,-2.172668631076813,-1.4590580606460573,2.7647795666808275
6.39984141709283,1.3665013146400453,-2.028595576286316,-1.0267511880397797,2.652686158817602
6.409868416842073,1.8220877069234849,-1.8255270391702654,-1.1136335036158562,2.809400676806206
6.419896416831762,1.8792068177461625,-1.7267669820785523,-1.4020921468734742,2.911873084903358
6.429923417046666,2.256478527188301,-1.5727361190319062,-1.038843230009079,2.9401342656935117
6.439950416795909,2.5257012927532196,-1.4658355683088304,-1.0691227439045907,3.1098013401290827
6.449978416785598,2.1664091867208484,-1.0606018888950348,-1.1713165783882142,2.6814525276132106
6.460005417000502,1.6151641005277635,-0.3798877537250519,-1.0452272200584412,1.961012421841081
6.470032416749746,1.1977033084630966,0.03323323488235474,-1.3268969535827637,1.7878068095942057
6.48005941696465,1.3170169132947922,0.2247979599237442,-0.554301133453846,1.446484503628932
6.4900874169543386,1.1738057380914688,0.4560003751516342,-0.7240551593899727,1.4525880788283125
6.500114416703582,1.4191332721710206,0.4945621776580811,-0.9223608469963074,1.763315208300682
6.510141416918486,1.6327876085042954,0.42412544846534733,-0.18121778458356858,1.696678418549162
6.520169416908175,1.8218163961172105,0.34304971039295196,-0.3458905801177025,1.885825648986764
6.530196416657418,2.471906324028969,0.11126725137233735,-0.3095606598258019,2.4936978722600203
6.540223416872323,2.6236006397008897,-0.241555495262146,-0.8153986081480981,2.757989170410231
6.550250417087227,3.005837804675102,-0.6330669289827348,-1.1462019100785257,3.2786603153198612
6.5602784170769155,3.2103324776887896,-1.318588644862175,-0.885229858160019,3.5816954830695638
6.570305416826159,2.5860878276824955,-2.0579912835359573,-1.6744422957301142,3.7049879051526577
6.580332417041063,2.076388962864876,-2.8114523828029636,-1.611208751499653,3.8485905558768665
6.590360417030752,1.5792458242177965,-3.534411481618881,-1.4338358035683632,4.128191735651732
6.600387416779995,0.8225985771417618,-4.363614488840104,-1.71153176933527,4.758901220216159
6.6104144169948995,0.9652864265441895,-5.598371602892876,-1.2980839213728905,5.827397734518781
6.620442416984588,1.916546552181244,-7.392295026183128,-0.9687864236533642,7.697903842960414
6.630469416733831,2.620922322571278,-9.912854862213136,-1.4212499642372132,10.351515676513237
6.640496416948736,3.495655843913555,-13.233096867799759,-0.5684744918346405,13.69881840669207
6.650523416697979,4.4356355211138725,-16.678244755268096,0.19217941358685495,17.25907423704416
6.660551416687667,4.670602081418037,-18.97175194501877,0.28734869554638864,19.540329192188707
6.670578416902572,6.194955999255181,-18.295825510025026,2.0144100849330426,19.42093094875398
6.680605416651815,5.579046555161477,-14.328142365217209,2.6749558576941492,15.606947585713344
6.690633417107165,3.422486418485642,-10.375734486579896,2.512719304561615,11.210844648118119
6.700660416856408,2.1840937981009483,-7.022132946252823,2.329990307092667,7.714238242684637
6.710687417071313,1.809650094509125,-3.6627683901786807,1.5973856413364411,4.386609924736509
6.720715417061001,1.4735650026798248,-0.4036403131484986,-0.004346893206238747,1.5278541209820906
6.730742416810244,0.8378957703709603,2.4249444115161896,-2.27548139333725,3.429320675056968
6.740769417025149,0.2555647661536932,5.233569665551186,-3.3461463403701783,6.217094186599515
6.750796416774392,-0.1375212679244578,8.197374175786972,-3.031722843647003,8.74112114534982
6.7608244167640805,-0.3607407537102699,10.449120551347733,-4.45900362610817,11.366484396049238
6.770851416978985,0.3341014239192009,11.40046136856079,-4.8747850978374485,12.40345407245941
6.780878416728228,0.7551432701200247,11.579853944778442,-3.896994985342026,12.241316459294291
6.790906416717917,0.8174461568892003,11.596774617433548,-3.2845658040046692,12.08063625260693
6.800933416932821,0.7108348971605302,11.450526398420335,-2.653951197266579,11.775538119738515
6.8109604166820645,0.6985208071768284,11.327573486566545,-2.839641809463501,11.698949440769349
6.820987416896969,0.6642528343945742,11.461284105777741,-3.7042894685268406,12.06333393585677
6.8310154168866575,0.552241013199091,11.627899346351624,-4.313337789773941,12.414422911848767
6.841042417101562,0.3167993666231632,11.5957373213768,-4.1482931113243104,12.319489502512852
6.851069416850805,-0.16747624307870865,11.200409409999848,-3.172489882707596,11.642246832097786
6.861097416840494,-0.826913529932499,10.638868546485902,-1.7423322701454163,10.81226302283581
6.871124417055398,-1.4427101227641106,10.088718059062959,-0.022783091068267824,10.1913769257558
6.8811514168046415,-1.865096755474806,9.648520368933678,2.0240043425559997,10.033400460247575
6.891178417019546,-1.8525468765199185,9.33729062139988,2.998008967638016,9.9802296490724
6.901206417009234,-2.0326775175333025,9.544262174963952,3.071285104751587,10.230225342063681
6.911233416758478,-1.7805593195557594,10.347985939979553,3.5254079389572146,11.076087108746208
6.921260416973382,-1.2651076716184617,10.998082884550096,4.161400229930878,11.826900541980152
6.931288416963071,-0.9371214120090008,11.104078871011735,4.284658366441727,11.938888617941542
6.941315416712314,-0.2732618759572506,10.775810337066652,3.611553797721863,11.36820484100825
6.951342416927218,0.44957764729857447,10.625833933353425,2.6617601537704467,10.963367819988331
6.961370416916907,0.7657591094076633,10.704542133808136,1.7359143662452698,10.87138482416344
6.97139741666615,0.7908628141880035,11.036286252737046,0.10500195980072022,11.065084891440286
6.981424416881055,0.9368305130302906,11.231789077520371,-1.8228554463386537,11.417247447186954
6.991451417095959,1.5345612560212614,11.127094681262971,-1.6064804005622864,11.346712897207853
7.001479417085648,2.948442997634411,10.838871388435365,-0.28820107340812684,11.236436665778692
7.011506416834891,3.9067414167523387,10.397001979351044,0.8487724685668946,11.139151375189886
7.021533417049795,4.096577704846859,9.929182627201081,1.6627247679233552,10.869005023001227
7.031561417039484,4.074156556427479,9.568818726539613,1.4601456427574158,10.50205069335126
7.041588416788727,3.828979295790196,9.352033206224442,0.5071617579460145,10.118241971144863
7.051615417003632,3.4722000306844714,9.105753160715103,-0.5220018816366792,9.75927249549835
7.061642416752875,3.0030258786678314,8.776623916625978,-0.9998867404460907,9.329901676628738
7.071670416742563,2.4224353712797164,8.416048931479455,-1.2978409695625306,8.853387144328355
7.081697416957468,1.857967976331711,8.034395903348923,-1.6422185826301576,8.408355630321537
7.091724416706711,1.4266624394059182,7.5773564779758456,-2.5578633177280428,8.123691381540345
7.1017524166963995,1.1274376103281976,7.0983712828159335,-3.79786012172699,8.129067101340265
7.111779416911304,1.1019460889697075,6.268730319142342,-6.02005934715271,8.760843540457207
7.121806416660547,0.6379502311348916,4.672030556201935,-9.646472089290619,10.737284283511942
7.131834416650236,0.01490133672952652,2.141452685594559,-14.340869414806367,14.499881972864648
7.14186141686514,-1.8865023887157442,-1.1645156818628313,-8.13727883219719,8.433877804951832
7.151888417080045,-6.4708492684364325,-3.9261322456598284,2.084558107852936,7.850591517220191
7.161915416829288,-11.025356637239456,-8.402154777646064,1.7793875375390054,13.975725880775919
7.171943416818976,-12.83632937192917,-20.642851095199585,-7.09392973780632,25.322371378055553
7.181970417033881,0.9016698896884918,-26.65281580924988,10.962433580160141,28.833323588362024
7.191997416783124,11.22175642490387,-34.1693273305893,13.990899524688722,38.59036171111594
7.202025416772813,12.466473101377488,-35.70615335941315,-2.8751671528816223,37.9289984770269
7.212052416987717,7.150006290078164,-25.441370959281922,-1.184683313369751,26.4535332382827
7.22207941673696,2.341922720074654,-16.84056813955307,-16.062030086517336,23.389701746493476
7.232106416951865,7.273628123402596,-8.404718781709672,-4.608059678077698,12.032421945473073
7.242134416941553,11.081598665714264,-9.235428616404533,6.285246949195862,15.735288364978883
7.252160791773349,3.104343507885933,-9.327188386917115,2.3957659283280375,10.11795859861724
7.262187791988254,-5.835644012689591,-6.916350383162499,7.3957986778020866,11.687107501349125
7.272215791977942,-9.65062361240387,-1.0188381510972977,8.554584088325502,12.936517159214468
7.282242791727185,-8.868264403939248,5.053755505084991,6.927937810420991,12.336242561996485
7.29226979194209,-8.00944232583046,9.54958021759987,6.079110962748528,13.867272219170884
7.302297791931778,-7.834892998337746,13.855952804088593,3.9989444062113764,16.412328682076218
7.3123247916810215,-5.522011644244194,17.091542329788208,1.4163526287674904,18.01719974299911
7.322351791895926,-1.8159703499078752,15.885780973434448,0.5577305254340172,15.998963991042588
7.332378791645169,-0.5700795525312424,5.121814756393433,-0.6966691401600839,5.200319700352578
7.342406792100519,1.8978190898895264,-2.270066286921501,-1.0416659733653069,3.1368752358093195
7.352433791849762,4.346074011325836,-4.699137663245201,-0.20281886100769045,6.404013552486586
7.362460792064667,4.9538236659765245,-6.176000495553017,-0.024502172470092776,7.917319710048089
7.372488792054355,5.40534507393837,-4.9887531781196595,-1.0429035365581514,7.42920328346952
7.382515791803598,7.753592727184296,-2.9272155582904817,-1.199494310617447,8.374101605840874
7.392542792018503,8.68204052567482,-2.540157364010811,-2.1342495006322864,9.294366468692067
7.402569791767746,7.928907455205918,-3.0513051688671116,-1.7745071589946748,8.679107806917626
7.412597791757435,6.586236467957497,-3.9290488368272785,-1.1540287005901337,7.7554959748434396
7.422624791972339,1.6647999447584154,-4.215913821458817,-1.7579215317964554,4.861663945398603
7.432651791721582,-2.8352265769243243,-2.548469181060791,-1.9445810276269915,4.279556084726724
7.442679791711271,-5.48742770254612,0.22799346327781678,-0.1472118401527405,5.494134612097628
7.452706791926175,-6.826165267825127,2.5104915153980256,0.2081404119729996,7.276154365023042
7.462733791675419,-5.921563584208489,3.1781447249650956,0.45725460290908815,6.736067172061833
7.472761791665107,-3.5140234100818635,2.0913136884570123,-0.20345679223537447,4.0943067955928445
7.482788791880012,-0.8608200716972352,0.4860357677936554,-0.5852466452121735,1.148806162563426
7.492815792094916,2.373722217679024,-1.2715030637383462,0.22658837735652926,2.7023359340674302
7.502842791844159,4.458134729862214,-2.4568202152848246,-0.7870089143514634,5.150758572395378
7.512870791833848,5.532610892057419,-2.622417455613613,-1.2165705192089082,6.242347348764533
7.522897792048752,5.14163097023964,-1.736104400753975,-0.5090901696681976,5.450651367065915
7.532924791797996,2.3237174141407015,0.06083735525608063,-0.13495724558830263,2.328428066896653
7.542952791787684,0.4464612275362015,1.5210625201463701,0.23277560859918595,1.6022307267824694
7.5529797920025885,-0.888545229434967,1.9724924191832542,0.7923368972539903,2.303917691072562
7.563006791751832,-2.102710788846016,1.8943736180663109,0.6491181206703186,2.9036870356389386
7.573033791966736,-1.6557092785835268,1.2657140278816223,1.176611232161522,2.393286277738741
7.583061791956425,-1.0364920645952225,0.4628752389550209,1.0443492606282234,1.5424767956054481
7.593088791705668,-1.021015654206276,-0.17762993305921557,0.14525653123855592,1.0464821160059778
7.6031157919205725,-0.16618956327438356,-0.5925825619697571,-0.2523009234666824,0.6651532302215123
7.613143791910261,0.04038028657436371,-0.6497528359293938,-0.40791287362575535,0.7682462026015742
7.623170791659504,-0.2620172417163849,-0.5274700149893761,-0.9060202181339264,1.0806249522091385
7.633197791874409,0.041256784200668334,-0.40507492750883106,-0.7929841840267182,0.8914099703589732
7.643225791864097,0.4471944683790207,-0.37719978868961335,-0.5571145212650299,0.807860856175522
7.653252792079002,0.3696732527017594,-0.37019277781248094,-0.24922353386878968,0.5794940692894687
7.663279791828245,0.6622381031513215,-0.43898029983043674,0.31240971565246584,0.8537346422271589
7.6733067920431495,0.684420685172081,-0.5559912711381912,-0.37708927631378175,0.9590382110135832
7.683334792032838,0.4709657388925553,-0.68224844455719,-0.7667284315824509,1.1292228102142645
7.693361791782081,0.43366576552391056,-0.5881012558937073,-0.559452822804451,0.9202806877877334
7.703388791996986,0.9758973687887192,-0.6794900205731392,-0.3885164898633957,1.2510105616512615
7.713416791986674,0.5997465705871582,-1.23925040692091,-0.9193407601118089,1.6554832989757573
7.723443791735917,0.38098761498928074,-1.4301947423815728,-1.0890158486366273,1.8375429471152143
7.733470791950822,0.6797353112697602,-1.3059466722607613,-0.5114775878190995,1.558571822861301
7.743497791700065,0.8471644842624665,-1.184703486263752,-0.6985604220628738,1.6153008007903171
7.7535257916897535,1.1550344216823578,-1.2261260390281679,-0.9545386594533921,1.936138846065819
7.763552791904658,1.5900041162967682,-1.3877442491054535,-0.8332370012998581,2.268971372913529
7.773579791653901,1.6669908964633942,-1.54163916438818,-0.7928660702705383,2.4050252737660704
7.783607792109251,1.7413692337274553,-1.222715650498867,-0.8699984461069108,2.298760028009851
7.793634791858494,2.0210269403457644,-0.9370496374368668,-0.7532108384370805,2.3515821235421517
7.803661792073399,1.9357131403684618,-1.0563845846056938,-1.0374738121032716,2.437064969012474
7.813688791822642,2.087041420340538,-1.2002810534834862,-0.7517905497550965,2.5222223391821643
7.8237167918123305,2.2348028987646105,-1.088374993801117,-1.2337139707803726,2.775059330024668
7.833743792027235,2.30380706012249,-0.9693683677911759,-1.295776317715645,2.815357573790064
7.843770791776478,2.186738201379776,-1.0037309923768043,-1.1623627370595933,2.6721502575521554
7.853798791766167,1.4829275643825532,-0.8164595854282379,-1.72367848277092,2.415936242497033
7.863825791981071,1.220290517807007,-0.4584763786196709,-1.4979607558250427,1.9857482125369859
7.8738527917303145,1.819906695485115,-0.44870275765657425,-1.5276102322340013,2.4180545003424103
7.883879791945219,1.5024023008346559,-0.3017943879961968,-1.6862112790346147,2.278508504202435
7.893907791934907,1.2421573501825334,0.18883027464151383,-1.474917756021023,1.9375226817407254
7.903934791684151,1.125343430042267,0.484692662358284,-0.9157274731993675,1.5296671591085933
7.913961791899055,1.1883191120624543,0.5186462742090225,-0.9568521103262901,1.6114162190072667
7.923989791888744,1.6744010728597643,0.307669962644577,-1.1364218571782112,2.046884070039146
7.934016792103648,1.8108897042274477,0.13729964017868043,-1.334462081193924,2.25365519949583
7.9440437918528914,1.627728597521782,0.1751349261403084,-1.758973445892334,2.402948233503741
7.954070792067796,2.012883523106575,0.1988418772816658,-1.2521572583913805,2.37889385418876
7.964098792057484,1.967192795276642,0.25523037850856783,-0.828228276371956,2.149639997228377
7.974125791806728,1.4067243111133576,0.42559017598629,-1.546563397049904,2.133508525051618
7.984152792021632,1.3026087892055511,0.5709350001811981,-1.5761567401885987,2.1229758599167834
7.994180792011321,0.7450376003980637,0.6618814229965211,-1.689102727174759,1.9611823135710797
8.004207791760564,0.17827751219272614,0.7246366649866105,-2.2955326652526855,2.4137836242792443
8.014234791975468,0.32559635639190676,0.5194169372320175,-1.4763608488440514,1.5985769602927171
8.024262791965157,0.6105949097871781,0.150632461309433,-1.237113834321499,1.387792103064357
8.0342897917144,0.763852186203003,-0.42048321783542636,-0.9740195354819299,1.3072835783978838
8.044316791929305,0.9265410214662553,-1.0934720116853716,-0.09442610085010529,1.4363410435271768
8.054343791678548,0.6797569459676743,-1.5790563744306565,0.10712829977273941,1.7224880295182277
8.064371791668236,0.9114780092239381,-1.8357953345775606,0.17162747383117677,2.0567918371894716
8.07439879188314,0.9560390549898148,-1.8899563390016556,1.0978001207113266,2.3856049008652214
8.084425792098045,0.6886499762535095,-1.6668236660957336,1.4325941473245623,2.303229453311018
8.094453792087734,0.5172803646326065,-1.4217463928461076,0.8585446277260781,1.739551855795817
8.104480791836977,0.7422034549713135,-1.4142011457681656,1.3056999197602273,2.0629307137480914
8.114507792051882,0.9836192017793656,-1.4503258287906649,1.503653312623501,2.3090961496503417
8.124534791801125,0.7478407555818558,-1.7522479784488678,1.316230170428753,2.315621004230677
8.134562791790813,0.9534303197264672,-2.379265962839127,0.877076208293438,2.709095526490881
8.144589792005718,1.3828495448827745,-3.420315347313881,0.7437181761860848,3.7635019150311226
8.154616791754961,1.5649192687869073,-5.62458467066288,0.37974654346704484,5.850566850532655
8.16464479174465,1.292204546034336,-9.044610580801963,1.3459191155433656,9.235056654549103
8.174671791959554,1.0505829772353172,-13.02335373401642,1.8230393412709236,13.192230270625114
8.184698791708797,2.2899593916535377,-16.55503690481186,1.995801759660244,16.831410683569214
8.194726791698486,3.9058003073930743,-16.650580408573152,3.5159445127844813,17.460211046850816
8.20475379191339,2.845647777020931,-15.756151710748673,2.640942896604538,16.227402977251735
8.214780791662633,1.0740955084562303,-14.08700903892517,1.1606163199245931,14.17549064639812
8.224807791877538,0.3295733401179314,-10.366292402744294,0.8367236959934236,10.405226730309506
8.234835791867226,0.2786654341220856,-5.973282791376114,1.175721870660782,6.094266456848975
8.244862792082131,0.8417809528112412,-2.1096672213077547,0.3613649439811707,2.299972951996327
8.25489016668871,0.5017639008164406,1.119114391207695,-0.42308581352233887,1.297376444357828
8.264918166678399,-0.4168725621700287,4.54282814025879,0.7400914406776429,4.621558783092739
8.274945166893303,-1.6576591788232327,7.771336103081704,1.005348039865494,8.009508315836836
8.284972167108208,-2.5868193143606186,10.087961429357529,-1.6334723174571992,10.541671204190223
8.294999166857451,-2.757850372195244,11.59630684018135,-7.1423107695579535,13.895779004287515
8.30502716684714,-1.7571799586713315,12.43252182841301,-13.308486188650132,18.29675066930228
8.315054167062044,-0.31701461724936963,13.614304922819139,-13.132662752866745,18.91868462075471
8.325081166811287,-0.07538062311708928,13.291502366065979,-11.30406534075737,17.448541790464642
8.335109166800976,-1.4072890059649945,12.201557979583741,-9.90876181125641,15.78106587362422
8.34513616701588,-2.2961814138293266,11.634119614362717,-6.274686877727508,13.416291726853599
8.355163166765124,-2.4549210396409036,11.309198026657105,-3.398326892852783,12.061228087873266
8.365191166754812,-2.596219298243523,10.765459595918657,-0.7141976308822632,11.097096611811894
8.375218166969717,-2.662426736354828,10.046450875997543,2.2094160425662994,10.625498133237715
8.38524516671896,-2.5598285669088363,9.585690867304802,3.788081238269806,10.62015777487439
8.395272166933864,-2.4283898833394053,9.33443542599678,4.2126814806461335,10.524991563178935
8.405300166923553,-2.2237651097774505,9.32515940308571,3.3735896623134614,10.162914757395617
8.415327166672796,-2.141928064227104,9.52646032691002,2.1348067402839663,9.994933817233413
8.4253541668877,-1.8490258294343949,9.951345913410186,1.4850641369819642,10.230034090715982
8.435382166877389,-1.3135699796676636,10.328750939369202,1.3356163215637207,10.497258357182206
8.445409167092294,-0.7235002586245537,10.515382368564607,1.5068438458442688,10.647408011206668
8.455436166841537,-0.23956799011677504,10.652108981609345,1.9450505590438845,10.830883632243863
8.465463167056441,0.3277551484107971,10.517365744113922,2.297496160268784,10.770371128202619
8.47549116704613,1.1121532809734345,10.181038577556611,2.183280158042908,10.471730692038436
8.485518166795373,1.8019978433847428,9.838679423332215,0.7181434050947428,10.028087503255296
8.495545167010278,2.201472892463207,9.448723933696748,-0.539450009688735,9.716783067683318
8.505573166999966,2.226405420005322,9.330146493315697,-0.4085682734102011,9.600804274382313
8.51560016674921,2.243447422385216,9.398034421205521,0.030022017136216165,9.66214306666402
8.525627166964114,2.3696651270985605,9.417959393262864,0.750847978591919,9.74048482544328
8.535654166713357,2.7085504505038265,9.522950828075409,1.123600959777832,9.96420178106005
8.545682166703045,3.33844321846962,9.450446523427964,0.7496398707479239,10.050776216339335
8.55570916691795,5.422891983389855,8.905007137656213,-0.068318794593215,10.426484404770227
8.565736166667193,7.534485862255097,7.979726775884629,-0.5462913250923157,10.988309735266983
8.575764166656882,8.65677412211895,7.448195577263832,-0.6028466912359,11.435855004838723
8.585791166871786,7.82702966272831,7.141570512056351,-0.8544945538043976,10.629891046590414
8.59581816708669,5.219242233037948,6.04600110411644,-1.8345498776435853,8.195132219291295
8.605845166835934,2.9236703914403916,3.8041476327180863,-7.822518535852432,9.176665190201433
8.615873166825622,1.4459703840315343,0.8804287093877793,-14.785561859607697,14.882164646586071
8.625900167040527,-1.7270774692296982,-1.205657275915146,-4.690652768611908,5.1418507803488955
8.63592716678977,-7.463112409114838,-3.9695729649066926,-6.3883777999877935,10.595608867364767
8.645955166779459,-10.922864302396775,-14.280392832756043,-18.513725509643557,25.806910242662344
8.655982166994363,-5.97281092107296,-23.88763478279114,2.6416378381848338,24.76432547603571
8.666009166743606,-5.708290486335755,-19.118956768512728,27.34507000923157,33.850730302349845
8.676037166733295,-13.1731020963192,-27.455325107574463,27.492162566184998,41.02614408116124
8.6860641669482,-9.984137098789216,-25.77796943664551,9.874492449760437,29.35459594381134
8.696091166697443,9.688365050554276,-8.172402471899987,1.4320754992961884,12.755525067640416
8.706118166912347,24.15058874845505,-0.5938631021976472,6.355102465152741,24.979810600237663
8.716146166902035,31.285461859703066,-3.1940702015161517,-12.23823873281479,33.745469258976335
8.726173166651279,8.380764493346215,-14.544366552829743,-18.52487731933594,24.99893780968408
8.736200166866183,-6.057166362404824,-17.03122011423111,1.7789251689612866,18.163598147889168
8.746228166855872,-1.881252173781395,-12.68381059885025,4.641575918197632,13.636802706399157
8.756255167070776,-1.8410706925392153,-6.814625787734986,-1.0480653123557568,7.136323060284818
8.76628216682002,-3.7031089156866077,-0.8945935893058777,-1.2411394961178304,4.006711941266609
8.776309167034924,-4.719598824977875,4.694295583963394,2.266690689325333,7.031991949613205
8.786337167024612,-4.014013558030129,9.339868658781052,3.9936459517478946,10.922209455748531
8.796364166773856,-3.7922251600027086,9.979370448589325,2.7933646059036255,11.035021161549741
8.80639116698876,-1.3204346108436584,5.502193091511726,0.18625369906425476,5.661480973933264
8.816419166978449,2.88254809319973,-0.834242137670517,-3.1380907130241398,4.341964621809213
8.826446166727692,4.467241183519364,-5.294302355647087,-5.194221997261048,8.658280625018591
8.836473166942596,2.416168910264969,-7.106589544415474,-2.9823243963718418,8.076864859642077
8.84650016669184,-1.1259585571289064,-6.194574176073075,0.09863317251205445,6.296845273465358
8.856528166681528,-2.5950592106580737,-2.7761743766069413,1.2239678317308427,3.9924395711472136
8.866555166896433,-3.0567571127414706,1.165907319188118,1.4564244747161865,3.5810998553215905
8.876582166645676,-3.102467721104622,4.422946770787239,1.2584590950608254,5.54720500717746
8.886610167101026,-1.6397785395383835,7.5940502786636355,1.6828345119953156,7.9492392899172675
8.896637166850269,-1.1166573911905289,6.549792526960373,1.9966250476241112,6.937810710615156
8.906664167065173,0.9412631410360337,2.5235454243421556,0.5077420940995216,2.7408137192286195
8.916691166814417,3.548097474575043,0.3492296326160431,-1.1731341853737831,3.75329200066762
8.926719166804105,5.024605380892754,-0.7223533272743226,-0.8490297460556031,5.1467761825056995
8.93674616701901,4.585122220516205,-1.2315586870908737,0.38685383409261703,4.7633746929852805
8.946773166768253,1.896779454946518,-1.251364375948906,1.4941931024193764,2.7196135992855393
8.956801166757941,-0.10414241909980775,0.21898290395736694,1.894038280248642,1.909497358659811
8.966828166972846,-1.2866388738155365,1.8384248274564743,0.525349814593792,2.30461230264776
8.976855166722089,-1.9998799002170564,1.7072442984580996,-0.38711491227149963,2.6578300670307806
8.986883166711777,-1.2960967451334,0.22236493349075317,-0.8203289803862572,1.549920182607252
8.996910166926682,-0.5122868424654007,-0.9416297614574433,-0.7518712413311005,1.309356628335589
9.006937166675925,-0.0225217205286026,-0.8047879582643509,-0.6449423316121101,1.0315723419945575
9.01696416689083,0.786301401257515,-0.6204638403654099,0.0878763422369957,1.00546880724639
9.026992166880518,0.7256675291061402,-0.24013169825077058,-0.3525721934437752,0.8417622864523955
9.037019167095423,0.24090996265411377,0.2333688086271286,-0.2372990146279335,0.4108642516567243
9.047046166844666,0.3445150226354599,0.5367463302612305,-0.3219041320681572,0.7144294885522035
9.057074166834354,-0.031396039724349976,0.562634877562523,-1.2606281197071076,1.380842848754501
9.067101167049259,0.5373018157482148,0.42601117551326756,-0.8407170519232751,1.0848888995021966
9.077128166798502,0.6741500508785249,-0.315547331571579,0.008096054792404175,0.7443883097313279
9.087155167013407,0.46724632501602176,-0.9696478646993637,-0.12954243153333664,1.0841205428016676
9.097183167003095,1.153315340280533,-0.9383944970369339,-0.4057847794890404,1.5412273659199576
9.107210166752338,1.5673303681612016,-0.7750718235969544,-0.4332093903422356,1.801369254365947
9.117237166967243,1.2941057682037354,-0.6174285507202149,-0.41780694723129275,1.4934826412440745
9.127265166956931,1.0848801130056382,-0.4841453629732132,-0.09156885892152787,1.1915311359791574
9.137292166706175,0.6878524160385132,-0.4079695916175842,0.18877794206142426,0.8217160369273467
9.14731916692108,-0.3808314943313599,0.15792744755744934,-0.6278898042440415,0.7511453335009732
9.157346166670322,-1.3006102108955384,0.8268068182468414,-0.5884058958292008,1.6496720685129413
9.16737416666001,-1.090910346508026,0.7223667758703232,-0.27609207451343537,1.3372082771986866
9.177401166874915,0.04244552314281464,-0.2831970262527466,-0.1524176162481308,0.32439683700065347
9.18742816708982,0.94002119243145,-1.0228838396072388,0.06602442026138305,1.3907876960991366
9.197456167079508,1.0691756612062455,-1.272855232357979,0.058563665449619294,1.6633480513614076
9.207483166828752,1.3568183255195618,-1.3679119554162027,0.013460290431976319,1.926738245235922
9.217510167043656,1.58578710436821,-1.4871849220991136,-0.18884167671203614,2.1822238454757277
9.2275371667929,1.4584037572145463,-1.4067959395051004,-0.38389280408620835,2.0623748494138296
9.237565166782588,1.3132922369241715,-1.3351128762960434,-0.23078960180282593,1.8869358050334133
9.247592208441347,0.9241840088367462,-1.2843274694681168,-0.6034838184714317,1.6934597279465478
9.257619208656251,1.0925411349534988,-1.1671942913532258,-0.48739553779363637,1.6713895582999754
9.26764720864594,0.918153190612793,-1.1731204444169998,-0.6695295810699463,1.6332442311146513
9.277674208395183,1.2746164137125016,-1.4102823418378831,-0.4438004520535469,1.952050749096446
9.287701208610088,1.5839896702766418,-1.7940058690309526,-0.5097137752175331,2.4468936360837423
9.297728208359331,1.6580276995897294,-1.8427739864587784,-0.6110495308041572,2.5530870229727713
9.30775620834902,1.403343451023102,-1.4289881694316864,-1.0114031240344048,2.2437282164316836
9.317783208563924,0.9691871041059494,-0.8781997507810593,-0.37695128202438355,1.361121123947835
9.327810208313167,0.8671882742643356,-0.6465944623947144,-0.46043168753385544,1.1756263184814892
9.337838208768517,1.0093387645483018,-0.4826139771938324,-0.509253599345684,1.22923562470719
9.34786520851776,1.6042555350065233,-0.3799573355913162,-0.1709538745880127,1.6574765837577834
9.357892208732665,2.167900226712227,-0.5793508976697922,-0.5706017088890076,2.3153887720632955
9.367919208481908,2.4125676101446154,-0.7282905900478364,-1.0301180148124696,2.7225048726333454
9.377947208471596,2.4089382433891298,-0.7479729026556016,-1.1056204792857172,2.754059470633438
9.3879742086865,2.206449750065804,-0.6179501223564148,-1.485777497291565,2.7309005153508874
9.398001208435744,1.6650443583726884,-0.3104497289657593,-1.8787536585330964,2.529519135925863
9.408029208425432,1.4668085449934007,-0.16481254398822787,-1.8034953153133393,2.3305119254530084
9.418056208640337,1.3368319576978684,-0.3731570237874985,-1.911172960996628,2.361979664258115
9.42808320838958,1.0003048163652422,-0.6945568335056306,-1.9780358719825746,2.322852735638386
9.438111208379269,0.9563203060626985,-0.9424583119153976,-1.6586817106604577,2.1340105938738394
9.448138208594173,1.0250519871711732,-1.2413165205717087,-0.9281557300686837,1.8582441550848896
9.458165208343416,1.0246608084440232,-1.5602166455984117,-0.36101791173219683,1.9011942789086536
9.468192208558321,1.5353303110599519,-1.7127681630849838,0.41734472483396534,2.3377319272927117
9.47822020854801,1.8790150290727616,-1.9022109335660935,0.609948500096798,2.742469888263139
9.488247208762914,2.037716063261032,-1.9840865707397461,0.5093696665763855,2.8893500535397196
9.498274208512157,2.023933591246605,-1.966960660815239,0.5025237464904786,2.8666655784653234
9.508302208501846,1.443589836359024,-2.007057357430458,-0.21222293794155123,2.4813845786260846
9.51832920871675,0.853546720147133,-1.8975542110204697,-0.4371685400605202,2.1261162526198074
9.528356208465993,0.9014272302389146,-1.615620768070221,-0.0903315880894661,1.85228542979822
9.538383208680898,1.4776761800050737,-1.6696092796325686,-0.0623947611451149,2.2304741975212194
9.548411208670586,1.8199286225438118,-2.034823445677757,0.29861978843808173,2.7462375032543926
9.55843820841983,2.2900956317782404,-2.7208304804563523,1.3932017478346825,3.819485255402845
9.568465208634734,2.2574158358573913,-3.7699630558490753,2.882445474565029,5.255191681783552
9.578493208624423,2.637414979040623,-4.829096124172211,3.7213341021537785,6.642624078481003
9.588520208373666,3.1858273816108706,-5.974900131225586,4.9196952223777775,8.369726922942458
9.59854720858857,3.727033383250237,-7.269146232604981,5.801457681655884,10.019390002535133
9.608574208337814,4.4157026553154,-9.28020250082016,5.996682178974152,11.898772438870086
9.618602208327502,4.763226655125618,-12.392118737697603,4.924992799758911,14.160102014285503
9.628629208542407,5.310917218923569,-15.823545548915863,3.268159686326981,17.007977633457976
9.638656208757311,4.975419187545777,-17.35988275051117,1.2473268735408785,18.101827242926365
9.648684208747,4.305115727484226,-16.01475885629654,-1.4059255814552307,16.64281074196756
9.658711208496243,4.1178606927394865,-11.562354397773744,-4.484750086069107,13.067432771551712
9.668738208711147,4.199510919749737,-5.7338287854194645,-7.712999017238618,10.488233328140923
9.678766208700836,2.364926104992628,-1.0776471072435378,-8.0240977871418,8.43447355010613
9.688793208450079,-0.11839076802134514,1.925021506547928,-7.163798117637635,7.418876440869821
9.698820208664984,-2.435935130417347,5.4743164908885955,-6.9916829860210425,9.207907035750976
9.708847208414227,-4.116097464859486,8.348417696356774,-6.949343297481537,11.616010874621168
9.718875208403915,-5.139172216057777,9.493475013971329,-6.676404626369477,12.692971978311695
9.72890220861882,-5.533744667172432,9.737058323621751,-5.954526093006134,12.684203397587169
9.738929208368063,-5.300981630086899,9.986171929836274,-6.164862134456635,12.877482719523483
9.748957208357751,-5.088687356114388,10.57320197582245,-6.039832291603089,13.197231267978356
9.758984208572656,-5.138798578977585,10.98331983447075,-3.8594815886020664,12.725414081841855
9.7690112083219,-5.352026653289795,11.131533887386322,-1.2250045430660248,12.411924593474083
9.779038208536804,-6.107499779462815,11.475623817443848,1.4655484700202943,13.082023080303815
9.789066208526492,-6.6457915288209914,11.465643789768219,3.1628922629356384,13.624662198577163
9.799093208741397,-6.379011729955674,11.146623212099076,3.651535888910294,13.35188054288301
9.80912020849064,-5.56417533159256,10.841170513629914,3.2915473794937133,12.622412977626496
9.819148208480328,-4.214772152602673,10.588846786022186,3.0105874979496003,11.787774074820817
9.829175208695233,-3.066337483227253,10.489556386470795,3.1917576277256012,11.385101470788006
9.839202208444476,-2.2315772822499276,10.823012570142746,3.614211941957474,11.62669627286745
9.84922920865938,-1.5070216012001039,11.152071647644043,4.497865390777588,12.119018492197487
9.859257208649069,-0.516163254082203,11.343296649456025,5.373946695327759,12.562488068318679
9.869284208398312,0.6289092662930489,11.08630801320076,6.0676942741870885,12.653800458115
9.879311208613217,1.3430244514346124,10.673470029830932,5.950773350000381,12.29383506550845
9.889339208602905,1.7764452186226847,10.642701981067658,4.168491733074188,11.567159824317148
9.899366208352149,2.1437740302085877,10.740090866088869,0.493637148141861,10.96307422844833
9.909393208567053,2.725290151834488,10.591596146821976,-3.16057208776474,11.384126284920496
9.919420208316296,3.259885583817959,10.275120277404787,-3.8711608171463014,11.453856852908892
9.929448208771646,3.7537259227037434,10.051577714681626,-1.86285040140152,10.890127844752978
9.93947520852089,4.1557205370068555,9.972531545162202,-0.15717783451080322,10.804911081199014
9.949502208735794,4.2482848843932155,9.91222804069519,0.31259689964354037,10.788786123163932
9.959530208725482,3.9077977162599566,9.772371997833252,-0.06258516110479832,10.524925384896205
9.969557208474725,3.3278182429075245,9.481987574100495,-0.7865241070836783,10.079736245767947
9.97958420868963,2.8023921221494676,9.111309769749642,-1.7117946016788483,9.68501977721045
9.989611208438873,2.3320227992534637,8.736150659322739,-2.5574072349071506,9.396754250472794
9.999639208428562,1.8696314173936845,8.43919279575348,-3.420079704523087,9.295829272641235
10.009666208643466,1.5404366844892503,8.046171610951424,-3.7344692873954775,9.0033373606847
10.01969320839271,1.5073005133867265,7.329778935313225,-3.632255280017853,8.318106304768829
10.029721208382398,1.8783140940964222,6.056792725324631,-5.831688956022263,8.615184155513953
10.039748208597302,2.797407955527306,4.396596293449402,-10.698566279411317,11.900204648331783
10.049775208346546,-1.31175295740366,2.7229337239265443,-7.91942911863327,8.476580764153095
10.05980220856145,-8.258517340421678,-0.2919713580608368,2.8793069815635683,8.750929358077011
10.069830208551139,-10.18606484413147,-0.7733223366737366,10.638928188085556,14.749262267533622
10.079857208766043,-8.771281900405885,-0.812044352889061,11.47581677556038,14.466830090717176
10.089884208515286,-6.848163077831269,-6.16996149122715,-0.41422172695398335,9.226989865762189
10.099912208504975,1.6060386434197427,-14.740290377140045,-13.57698682308197,20.104479394421194
10.10993920871988,10.808478730916978,-21.38289341926575,1.2897975397109986,23.994060122242914
10.119966208469123,14.10848703145981,-28.483176741600037,17.34335267186165,36.20956566310435
10.129994208458811,13.479490349292757,-32.41839497566223,-6.151701221466065,35.64396752317152
10.140021208673716,9.712339219450952,-25.280820450782777,-20.561118714809417,34.00307366375704
10.150048208422959,6.684714104533196,-16.04968778371811,6.011989020109177,18.39624669850045
10.160075208637863,7.363676998615265,-9.507108966708184,1.34553290694952,12.100385061992146
10.170103208627552,3.844335545897484,-5.014834683537483,3.3230846294760705,7.139353902652642
10.180130208376795,-1.3845931845903396,-1.174799764752388,4.0840249022841455,4.4695091650597725
10.1901572085917,-6.813009032607079,0.4505022382736206,-0.5937470349669457,6.853654491335789
10.200185208581388,-12.262198283672333,-0.552829681634903,0.22163637042045595,12.276654678115143
10.210212208330631,-11.259829984903336,0.18048659026622774,0.22579637199640276,11.263539883171761
10.220239208545536,-8.462520262598991,3.3663782912492755,-0.4630781373381615,9.119275922789784
10.23026620876044,-3.8473614799976352,6.940660182237625,-1.3205424919724464,8.044798729376218
10.240294208750129,0.8334814149141312,9.241247765421868,-1.804445487856865,9.452585627730063
10.250320916995406,5.221009261608124,9.323238008022308,-2.584893533885479,10.993788211783622
10.26034791674465,8.201859574913978,4.312444919943809,-5.197435626983643,10.624547932537936
10.270375916734338,9.090015379786491,-2.6038124924898147,-5.659211297035218,11.019750070001225
10.280402916949242,9.240305778980256,-6.881372339129448,-1.361553985476494,11.601308780226425
10.290429916698486,9.01521896660328,-7.706877567172051,0.5679160827398301,11.874033161829129
10.30045691691339,7.420366923809052,-5.268869306445122,4.541801953911781,10.171076346233754
10.310484916903079,3.76960696041584,-0.9799687850475312,6.8427011936903,7.873552888106724
10.320511916652322,-0.16596093714237214,3.9941309782862664,5.367159832119942,6.692311257546599
10.330538916867226,-2.5558869588375095,7.856251122951508,3.683262296319008,9.045422101633381
10.340566916856915,-3.6256496804952625,9.128311718702317,1.4284496408700944,9.925315048701243
10.35059391707182,-2.3130614483356475,6.346407655477524,0.003468568325042725,6.754787592829737
10.360620916821063,-0.14674581706523895,1.1299703317880632,-1.603413535952568,1.967054206884825
10.370647917035967,1.0198707693815232,-2.0764962592720986,-1.9530132973194123,3.0275789073971833
10.380675917025656,1.4225036072731019,-2.8139891973137856,-1.3672287082672119,3.4367668026815115
10.390702916774899,0.3383801239728928,-2.0895060217380523,0.23738058328628542,2.1299967287535515
10.400729916989803,-0.2745367151498795,-0.4786521962285042,1.6861393582820894,1.774131976056909
10.410757916979492,-1.3086635810136795,0.17109830081462862,2.672845889925957,2.9809361194274664
10.420784916728735,-1.2918253540992737,-0.12615806311368943,2.861651898622513,3.1422571809564133
10.43081191694364,-1.1132274144887924,-1.171031818985939,2.5011833328008652,2.977668359929924
10.440839916933328,-0.7881508755683899,-2.3076887342333796,2.190738281607628,3.2781005651547694
10.450866916682571,-0.5219616454839706,-2.7368828415870667,1.0600411409139634,2.9810499607286367
10.460893916897476,0.4525312221050263,-2.9783781105279923,0.3835972273349762,3.036884507035334
10.470920916646719,1.9170944362878801,-3.181820284724236,-0.43148592352867127,3.7397074088933686
10.480948917102069,2.156776483654976,-3.4571361413598063,-1.2246092712879182,4.254778838866671
10.490975916851312,1.7756467813253403,-3.3186641344428063,-1.2891379737854005,3.978483359865112
10.501002917066216,0.9227105104923249,-2.9050031554698945,-1.6220684927701952,3.452758927973516
10.511030917055905,-0.09115867674350739,-2.437610650062561,-1.5219074428081514,2.8751448398504893
10.521057916805148,-1.4520887643098832,-1.846985443532467,-0.4386318057775498,2.3900449512708963
10.531084917020053,-2.995445548295975,-0.8182324612140656,-0.9516670918464661,3.2477482425665496
10.541111916769296,-4.582104472517967,0.24164291113615038,-2.739705292582512,5.344161092610901
10.551139916758984,-2.5404789608716967,0.27064627021551135,-0.3319785922765732,2.57633315779292
10.561166916973889,-0.36190054893493656,-0.6996629145741463,-0.8286369967460633,1.143302004601642
10.571193916723132,0.7923111695051194,-1.6828883063793183,-1.6520693868398668,2.4878109453903994
10.58122191671282,2.7620744007825855,-2.0549673959612846,-0.7432898676395416,3.5219917406572647
10.591248916927725,2.7166830503940584,-2.134534552395344,-1.7617304080724716,3.878182381270272
10.601275916676968,1.9413188660144807,-1.9363870319724084,-1.3849171203374864,3.0718575988054098
10.611302916891873,1.6457058620452882,-1.2464910140633583,-0.8227377408742905,2.222382735437318
10.621330916881561,0.98362972676754,-0.39347785234451294,-0.8575456309318543,1.3629881763231653
10.631357917096466,0.8378644877672196,0.35106799721717835,-1.1471523749828338,1.4632922503588484
10.641384916845709,1.4901547229290009,0.2977466529607773,-0.80968266248703,1.7218595127213598
10.651412916835397,2.72648064494133,-0.38834575116634373,-0.48560658216476443,2.7964840214688134
10.661439917050302,2.8101443606615066,-1.0230712428689004,-0.8147527831792832,3.099581938494508
10.671466916799545,2.2322464960813524,-1.363879130780697,-0.7694795465469361,2.726754384832023
10.68149391701445,2.018137831091881,-1.2742597335577013,-0.7620442271232606,2.5054599533703734
10.691521917004138,1.853870832324028,-1.0698992541432382,-1.0412189537286758,2.3802643522436493
10.701548916753381,1.5013164728879929,-0.838643336892128,-0.8840522289276124,1.9336034086001932
10.711575916968286,1.6594976896047593,-0.3891216766834259,-0.7411942255496979,1.858686940035
10.721603916957974,1.9727523279190065,-0.18482727080583572,-0.8063164204359055,2.139172512259814
10.731630916707218,1.9073254930973054,-0.24028167933225633,-0.8062977093458176,2.0846442905536473
10.741657916922122,2.0758282148838045,-0.26655409634113314,-0.8974949777126313,2.277193689391247
10.751684916671365,2.050618529319763,-0.3157309341430664,-1.7512767559289932,2.7150861222844442
10.761712916661054,2.183204728960991,-0.5825320753455162,-2.0225881469249725,3.0325878914625677
10.771739916875958,2.200461031794548,-0.8667889094352723,-2.079448226094246,3.1491993730109917
10.781766917090863,2.026833810210228,-1.092821216583252,-1.9789112001657487,3.036182313986967
10.791794917080551,1.7711847710609436,-1.1109589871764183,-1.671346487402916,2.6767002905406363
10.801821916829795,1.8219912278652193,-0.9779509109258652,-1.0829908776283266,2.3342898833745376
10.8118489170447,1.754761696457863,-0.6770140171051026,-0.8839417165517808,2.0781938189141487
10.821875916793942,1.9732546037435532,-0.4139010071754456,-1.2552343556284906,2.375007592090191
10.83190391678363,2.0937066614627837,-0.44757366031408313,-1.2878214731812478,2.4984823218200485
10.841930916998535,1.3533725613355638,-0.3585726061463356,-1.534984740614891,2.0775874849389915
10.851957916747779,1.1326296454668046,-0.1283820515871048,-1.5792294520139696,1.9476389621971306
10.861985916737467,1.124663398861885,-0.09281343877315522,-1.3619974967837334,1.7687620745599508
10.872012916952372,0.6259649008512497,0.035965638756752016,-1.3085975074768068,1.4510523839074203
10.882039916701615,0.30819621205329895,0.1134120100736618,-0.5018589180707932,0.5997579201645756
10.89206691691652,0.6517768496274948,0.3670174473524094,-0.035580891966819767,0.7488530351441296
10.902094916906208,0.039316093325614934,0.34849229872226717,-0.5597068843245506,0.6605031671562327
10.912121916655451,0.047634927034378056,0.17569713592529299,-0.6236380013823509,0.6496637027063268
10.922148916870356,0.34502899289131167,0.0720201551914215,-0.5395214188098908,0.6444495868910358
10.932176916860044,0.7212008410692216,-0.08508575856685639,-1.2386253395676614,1.4358143930497962
10.942203917074949,1.6369625204801561,-0.7008338195085526,-1.1730868229269982,2.1323571535154824
10.952230916824192,2.23078293800354,-1.6530949884653092,-0.5460249844193459,2.8297100277213874
10.962257917039096,2.7511857157945636,-2.535619339942932,-0.15473165184259416,3.7446401915226266
10.972285917028785,3.4695781391859057,-3.383303641676903,-0.20726186782121658,4.850533318878829
10.982312916778028,3.759499463438988,-4.266861196160317,-0.8582861807942391,5.751225595561267
10.992339916992933,3.5893261921405792,-4.964036997556686,-0.9259533762931824,6.19534627617914
11.002367916982621,2.56569449365139,-5.619785860776902,-1.0640356662869455,6.268728200749474
11.012394916731864,1.61576665610075,-6.643215245604515,0.17419410914182665,6.839104786012492
11.022421916946769,1.013333874642849,-8.2950033813715,1.9099697501957418,8.572159067885178
11.032449916936457,1.0114092636108398,-10.758199692964554,2.4534340927004816,11.080665511576706
11.0424769166857,1.8401406928896904,-13.472286579608918,3.0367760074138643,13.932359167490034
11.052503916900605,1.6782546803355218,-13.361376593112947,3.1273645806312564,13.824736252646614
11.062530916649848,-0.24428497552871706,-12.438549138307572,1.7389046323299409,12.561885572464812
11.072558917105198,-1.5930724427103997,-10.86202636241913,0.10440554380416871,10.97872474485031
11.082585916854441,-1.0663438546657562,-8.48491334438324,-1.0049141764640808,8.610499182982059
11.092612917069346,0.7495975515246391,-4.675417848229409,-2.7945094907283785,5.498246251175445
11.102640917059034,2.5319449496269226,-0.2861984020471573,-4.065206515789032,4.79776601860587
11.112667916808277,3.1189571616053584,3.40125868678093,-3.827325410842896,5.995404425959589
11.122694917023182,2.492093251347542,6.0651688617467885,-4.207918338775635,7.791237311282406
11.132721916772425,2.543519513010979,8.382975910305976,-4.990108562707901,10.081912521612585
11.142749916762114,3.1848000258207323,9.083557130098344,-6.856714046001435,11.818142360323028
11.152776916977018,3.5795022851228717,9.153009188175202,-6.0350714886188515,11.533104598535457
11.162803916726261,3.2479429382085803,10.165786700248718,-4.073199659585953,11.42292904782586
11.17283191671595,2.4850181204080584,10.838774324655533,-4.545897928476334,12.01330645141852
11.182858916930854,1.9697141146659851,11.245240012407303,-5.512652006149292,12.67771780609832
11.192885916680098,1.3214476409554483,11.265707606077195,-5.019124785661698,12.40378995901881
11.202912916895002,0.35592674106359484,10.943938837051393,-3.3390279400348666,11.447514520561196
11.21294091688469,-0.8941296127438546,10.49099246263504,-1.3980622458457947,10.621439104881695
11.222967917099595,-2.262704350054264,10.168023844957352,0.07472160536795855,10.417011241507065
11.232994916848838,-2.8468897256255152,9.909602640867234,1.48422447681427,10.416713872778189
11.243022916838527,-3.038027311563492,9.918587472438812,2.4390864872932436,10.656318796222378
11.253050041850656,-3.4134007224440577,10.309553360939026,2.2165180706977847,11.083823679207487
11.26307704206556,-3.8057898232340817,10.787705912590027,3.2682789695262913,11.897070330875993
11.273104041814804,-3.4845376557111742,11.293746174573899,4.322533121109009,12.58471286572944
11.283132041804492,-2.45900298088789,11.67872802257538,4.36291867017746,12.707259468818838
11.293159042019397,-1.635135557949543,11.508784546852112,4.271805016994477,12.384430069323017
11.30318604176864,-0.9799073892831803,11.288356211185455,3.7325081312656403,11.929745235844106
11.313214041758329,-0.4796044518426061,11.057292959690095,3.1551669216156006,11.508641376370047
11.323241041973233,-0.28190888464450836,10.872453117370606,1.4219446134567262,10.968666094489425
11.333268041722476,-0.11510655144229531,10.776324892044068,-1.716735498905182,10.912818539235166
11.343295041937381,0.5143359991908074,10.26405851483345,-4.066188848018647,11.052118822367948
11.35332304192707,0.9626572260260583,9.872469313144684,-3.6899263679981233,10.58337922759321
11.363350041676313,1.115701956152916,9.82093078494072,-2.4087511324882507,10.173374777124021
11.373377041891217,1.0743428456783295,9.750962417721748,-1.1981623148918152,9.882867678700807
11.383405041880906,1.05817734092474,9.629493529200554,-0.05877504229545594,9.687638485170611
11.39343204209581,1.3200177043676378,9.491068300008774,0.271633609123528,9.58627190480642
11.403459041845053,1.6452743375301362,9.345883104801178,-0.027612854652106764,9.489637565475585
11.413486042059958,2.040666860640049,9.129005783200265,-0.571365282163024,9.371740826094138
11.423514042049646,2.518720301985741,8.826258591413499,-1.4028780126571656,9.285195711482482
11.43354104179889,3.1305124291777613,8.351497424840927,-2.2861209869384767,9.207277907898819
11.443568042013794,3.8637196505069733,7.66472557425499,-3.055761916637421,9.1112034637321
11.453596042003483,4.663332238197327,6.893845619559288,-3.46637561917305,9.015960011187085
11.463623041752726,5.339866783618927,5.921926696300507,-4.201154279708862,9.012940160961321
11.47365004196763,5.358003092408181,5.036526099443436,-5.874887015819549,9.41217773617114
11.483677041716874,2.9290749728679657,4.35497464299202,-6.890961188077927,8.66202230621587
11.493705041706562,-3.670403099656105,2.944254344701767,-6.190313894748688,7.7756336510781585
11.503732041921467,-8.231380412578583,0.538981136083603,-2.5808931612968444,8.64332885361104
11.51375904167071,-9.632880236506463,-2.4076243740320207,4.857869102954865,11.053864889655264
11.523787041660398,-9.111220307350159,-7.940513593554497,5.539960842132569,13.295008753320017
11.533814041875303,-1.2954997444152834,-16.444753739833832,2.796690502166748,16.731100469379427
11.543841042090207,10.16522068977356,-33.48779458522797,-3.752282537519932,35.197211851162315
11.553869042079896,11.513796780109406,-42.76057579994202,15.47550056219101,46.90975886408519
11.563896041829139,9.950986894369127,-36.10342488527298,2.0188530917465686,37.504069064896264
11.573923042044044,18.27029305815697,-22.49034203052521,-18.40133734703064,34.325330431623996
11.583950041793287,11.70849268913269,-15.068260703086853,-5.344120048284531,19.816682385256666
11.593978041782975,1.2726599353551866,-10.158527966737747,-0.2808964392542839,10.241789715261534
11.60400504199788,-3.9165211772918704,-5.651802874803543,7.210568826198578,9.963649766283439
11.614032041747123,-8.671572840213775,-0.5509679281711579,9.212450813055039,12.663687897447762
11.624060041736811,-12.988351131677629,5.611084619164467,4.82661076515913,14.949170786419078
11.634087041951716,-14.577775204181671,11.255485503673555,2.2909952259063724,18.559260301859698
11.64411404170096,-9.836802467107773,13.223548364639283,3.095712725222111,16.769268064109237
11.654141041915864,-4.180513608455658,8.23276210963726,2.3877374088764194,9.537104168357908
11.664169041905552,-0.6240598779916764,3.0602098935842514,1.7716937711834908,3.5907149904942752
11.674196041654795,0.9599338853359223,1.313494550585747,1.6104354572296142,2.289157784106838
11.6842230418697,0.3772834038734436,0.312761133313179,0.3730944585800171,0.6159235085404617
11.694251041859388,-0.6107913762331009,0.4438369971513748,0.5845049259066583,0.9548316049074952
11.704278042074293,0.594439052939415,1.505196100473404,1.4830141031742097,2.1950635341040714
11.714305041823536,3.1903139501810074,1.3971646982431412,2.126857158243656,4.080893733768213
11.72433204203844,5.716489452123643,-0.36255719125270847,1.4941472017765045,5.919643167771726
11.734360042028129,8.426219578385354,-2.8286396884918212,0.850414366722107,8.92891838161841
11.744387041777372,9.426718522310258,-4.308170020580292,-0.2725512930750847,10.368106636819038
11.754414041992277,8.401592860221863,-4.214784724116326,-0.7816987654566765,9.431978892018991
11.764442041981965,5.264477462768555,-2.893026888370514,-2.334942898750305,6.4448650779715555
11.774469041731209,1.2194719076156617,-1.0972727018594743,-2.3925379729270935,2.9009234853073695
11.784496041946113,-1.8496239995956423,0.43846340596675876,-0.30231274366378785,1.9247732576159922
11.794523041695356,-3.8894760507345203,1.5015497767925263,0.5890487971901894,4.210659588104255
11.804551041685045,-3.862807484865189,1.8714493167400361,1.6924028956890107,4.6138738356823135
11.81457804189995,-2.5423570865392686,1.4071932578086854,1.2595449230074882,3.1670531781725106
11.824605041649193,-1.0564187908172609,0.2811461153626442,0.39530393779277806,1.1624667750132842
11.834633042104542,0.150585098862648,-0.8943743187189103,0.32134396880865096,0.9622074829646066
11.844660041853786,1.385001320242882,-1.4225375211238862,-0.16583785325288775,1.9923212215030344
11.85468704206869,1.9687686198949814,-1.354001721739769,-2.125721336603165,3.198134103199457
11.864714041817933,1.5803661507368088,-1.07779445707798,-3.359688784182072,3.8660971002629387
11.874742041807622,1.7702036082744599,-0.7708343464136124,-2.1677987775206566,2.902956758923369
11.884769042022526,1.4616934007406235,-0.424134219288826,-2.1757436817884446,2.6552397260102087
11.89479604177177,0.21559327304363252,-0.21438231468200686,-1.9880223315954209,2.0111372472191387
11.904824041761458,-0.5365206277370453,-0.14355382204055786,-0.641512939631939,0.848528688687081
11.914851041976362,-1.1673673689365387,-0.3191047775745392,0.22831184417009354,1.2315440435961118
11.924878041725606,-0.9609015995264054,-0.40340525507926944,0.7222208878397942,1.2679395469146293
11.93490504194051,-0.22867290973663332,-0.5642884701490403,0.9767297199368478,1.1509620858214555
11.944933041930199,0.690329881310463,-0.9047852861881257,1.2644326105713846,1.701170651583495
11.954960041679442,1.5030870097875595,-0.929025503396988,0.9158663445711136,1.9902688527111576
11.964987041894346,1.6506835967302322,-1.0449310585856437,-0.2632112431526184,1.9712730435515817
11.975015041884035,2.071297792196274,-0.9745969480276109,0.41733039915561676,2.3268602057539423
11.98504204209894,2.2732658833265305,-1.0603454884886743,-0.19828200638294222,2.5162245697293955
11.995069041848183,0.9780579149723053,-1.261821536421776,-1.0088323956727983,1.8885268537610742
12.005096042063087,0.24267055928707124,-1.2386601305007936,-0.45574192821979526,1.3419644646466762
12.015124042052776,-0.35433249771595005,-1.1994621509313583,-0.4986639994382859,1.3464496852056118
12.025151041802019,-0.8043453240394592,-1.1705330514907837,-1.041532364487648,1.7612236346391956
12.035178042016923,-1.0314845091104508,-1.1767401632666588,-1.180701944231987,1.9602894647201634
12.045206042006612,-1.1087648195028306,-0.8808719283342362,-1.688494909107685,2.2037036636483114
12.055233041755855,-0.7654122233390809,-0.9004095223546028,-2.0808457106351854,2.3930131740240315
12.06526004197076,0.5215032237768173,-1.5255847567319871,-1.0836194533109667,1.9425770465998429
12.075287041720003,1.117205275297165,-2.2507491329312326,-2.051881235539913,3.2441078729449346
12.085315041709691,1.5752790731191635,-2.313047122657299,-2.01281832665205,3.4471914315782843
12.095342041924596,2.4703018480539325,-2.288622133433819,-1.2638932049274445,3.5968887282766486
12.105369041673839,3.178730615973473,-2.2371005621552467,-2.071439002454281,4.4045211765878935
12.115397041663527,2.97454292178154,-2.235332656502724,-2.1159140941500665,4.2803866802627875
12.125424041878432,2.848247156739235,-2.053643293976784,-1.9025407165288926,3.99369801347313
12.135451042093337,1.9523215717077256,-1.789464628994465,-1.8777371200919153,3.2464811519472434
12.14547804184258,1.1816901236772537,-1.5651929184794426,-1.3705727308988571,2.39263244798237
12.155506041832268,1.017707884311676,-1.5016599968075752,-1.5010197266936303,2.3545216719592315
12.165533042047173,0.7065605825185776,-1.5187005373835565,-2.0554968613386153,2.651555491780437
12.175560041796416,0.7319988942146302,-1.5401454931497576,-1.8672287964820862,2.5287178370891623
12.185588041786104,1.4901553076505663,-1.7277539920806886,-1.5936276358366013,2.7830461260590105
12.195615042001009,2.1823668229579924,-2.11854797244072,-1.6655711925029755,3.4677222868586566
12.205642041750252,2.7974184805154803,-2.466368718445301,-1.8942745077610017,4.182917728238059
12.215669041965157,3.157140356898308,-2.5671469420194626,-1.9051906746625902,4.493053545407304
12.225697041954845,3.573175013065338,-2.3587787809967997,-1.034460741877556,4.404716340260867
12.235724041704088,3.1057415771484376,-1.6285413604974748,-0.9462765437364579,3.632246825878611
12.245751041918993,2.2039594209194187,-0.479633359014988,-1.1153441065549852,2.5162427872060356
12.255778958555311,1.398401969075203,0.5491959294676781,-0.5938180786371231,1.6154764456882547
12.265805958770216,0.6881085240840912,1.3942580473423005,0.2291798633337021,1.5716145371094037
12.275832958519459,0.027704692482948306,1.9953611719608308,0.004623393416404724,1.9955588521316925
12.285860958509147,-0.0035545223951339725,2.0323377943038943,-0.08312840312719345,2.034040283817396
12.295887958724052,1.2893654304742814,1.7060713469982147,0.7370023566484452,2.261927303883968
12.305914958473295,1.7539927875995638,1.3068404191732408,-0.06000149577856064,2.1881322536884844
12.3159419586882,2.497310721874237,0.9109973680973054,0.45724320083856584,2.697322448462797
12.325969958677888,2.8149601274728777,0.7029955351352692,0.4076889252662659,2.929916978596323
12.335996958427131,2.818760232925415,0.564413600564003,0.1458728277683258,2.878411166790542
12.346023958642036,2.9561043119430543,0.6188856768608093,0.3870064464211464,3.0448885322263117
12.356051958631724,2.442619374990463,0.8526807475090027,0.17595558285713198,2.5931475537249913
12.366078958380967,1.895581360459328,1.152483281493187,-0.8654858574271203,2.3812837247267487
12.376105958595872,1.4536031931638718,1.1660687023401262,-1.3675687238574028,2.3114762980022863
12.386132958345115,1.3601237565279007,1.0199350887537002,-1.4040196815133095,2.2048753897713405
12.396160958334804,1.33512807905674,0.5288455724716187,-1.3897682628035546,1.9984244922699943
12.406187958549708,1.233958969116211,-0.41106627702713017,-0.6542201086878777,1.4558963466479562
12.416214958764613,1.6292348402738572,-1.6176403963565826,0.3096580159664154,2.3166904634713545
12.426242958754301,1.9955567613244058,-3.4499911361932756,-0.08145346820354463,3.986391889285611
12.436269958503544,2.0282014739513397,-5.668349325656891,0.8533806592226029,6.0804641143705895
12.446296958718449,1.8097611916065217,-8.226094529628755,1.7547520485520365,8.60366326240926
12.456323958467692,1.4492385390400888,-11.116819953918458,1.5911688816547394,11.323241437010209
12.46635195845738,1.8222072824835778,-13.848850775957109,2.59005925655365,14.206319514480985
12.476378958672285,2.063859841525555,-15.456532194614411,3.6748861598968507,16.020883034864685
12.486405958421528,2.394883875846863,-15.54592559695244,3.587883099317551,16.13332503172055
12.496433958411217,2.8374081730842593,-13.56889895439148,2.8627804112434387,14.15490782937744
12.506460958626121,3.1016549581289294,-10.280359382629396,2.7811322307586672,11.092373461088782
12.516487958375365,2.76542953312397,-7.178285179138184,1.674630868434906,7.872722982629594
12.526514958590269,2.951808947324753,-4.367737360596657,0.09294390477240086,5.272470415478181
12.536542958579957,3.4836775302886966,-1.6343049609661102,-1.901652524471283,4.292230674638165
12.5465699583292,3.508241683244705,1.1085244989395142,-4.467697266340256,5.78765108973139
12.556596958544105,2.855245396792889,3.759212365150452,-3.446814343929291,5.845052010352324
12.566624958533794,1.9128683611750603,6.543381054997444,-2.5044443249702453,7.262722793481774
12.576651958748698,0.6257266268134117,9.144590367078782,-3.047143120765686,9.659200173492783
12.586678958497941,-0.18432150492444635,10.862742061614991,-4.2149595558643345,11.653283810665952
12.596705958712846,-0.2284206023812294,10.55537030696869,-5.448748955726624,11.88094623636352
12.606733958702534,0.1194633118249476,10.119662693738938,-5.856476472616196,11.69273967863096
12.616760958451778,0.11869003582745791,10.132958092689515,-6.343617364168168,11.955434257934028
12.626787958666682,-0.5426236225292087,10.442357661724092,-9.202294199466706,13.929087998308905
12.63681595865637,-1.5955849912762643,10.752440185546876,-11.463721225261688,15.798030438591537
12.646842958405614,-2.1120274499058724,10.443230066299439,-6.7633796203136445,12.620024487111364
12.656869958620518,-2.661953404247761,10.180932158231736,-3.7678738456964496,11.177399020075587
12.666896958369762,-2.8786757746338845,9.982230906486512,-2.097199788093567,10.598582690013709
12.67692495835945,-2.2363959726691247,9.814366700649263,-0.7750127667188644,10.095736994888535
12.686951958574355,-1.468415798395872,9.714253013134003,1.1768644165992737,9.894845446757579
12.696978958323598,-1.216032209917903,9.839820799827576,4.200429224967957,10.767748761103322
12.707006958313286,-0.9370395509898664,10.119180883169175,5.56906009554863,11.588368962638699
12.71703395852819,-1.10163764834404,10.622422667741777,5.335649771690369,11.938116573670355
