Time (s),Linear Acceleration x (m/s^2),Linear Acceleration y (m/s^2),Linear Acceleration z (m/s^2),Absolute acceleration (m/s^2)
0.021033708355389535,-0.20032136902213096,-1.345780536532402,0.07362053811550141,1.3625982118837368
0.031061708345077932,0.48096608564257626,-0.8679826185107231,-0.5221610355377198,1.121327048014493
0.04108970833476633,1.1002129742503166,-0.43136400908231737,-1.6479055845737458,2.027840307497027
0.051117708382662386,1.2745763602852822,-0.05589090317487717,-2.6469643592834475,2.9383820395878772
0.06114570837235078,1.1591423830389977,0.1414377146959305,-3.4279260832071308,3.6213661680680005
0.07117370836203918,0.8325344583392144,0.01188358873128891,-4.027304279208184,4.112473051745367
0.08120170835172758,0.5183314016461372,-0.31532718390226366,-4.25605671107769,4.299083321215074
0.09122970834141597,0.4451404877007008,-0.49267294228076935,-3.6925810039043427,3.751803719844791
0.10125770833110437,0.40442603275179867,-0.18563711017370224,-2.5338651752471923,2.572643441865096
0.11128570837900043,-0.21493692308664322,0.3878747579455376,-1.2935929673910143,1.3674894785850282
0.12131370836868882,0.13717246323823928,-0.0397274449467659,0.14833333611488342,0.20590612704777728
0.13134170835837722,-0.33511766999959947,0.10327527701854707,1.4973988384008408,1.5379118690072604
0.14136970834806561,-0.9108301377296448,0.4507437282800675,2.242646353840828,2.462162487890671
0.151397708337754,-0.5770761846005917,0.39370150834321976,2.271656729578972,2.376645134963639
0.16142520838184282,0.06491768851876259,0.16916170299053193,1.8245716041326523,1.8335461615810156
0.17145320837153122,0.7364668978750706,-0.22184599310159683,1.09083608686924,1.334736867227829
0.18148020835360512,1.319525807350874,-0.49995184868574144,0.404253101348877,1.4678285925881986
0.19150820834329352,1.3589613300561905,-0.8342827758193017,-0.10173979818820954,1.597859390920311
0.20153620833298191,0.9467380352318288,-1.273613323867321,-0.21425893843173982,1.6013465267657983
0.21156420838087797,0.2719982926547527,-1.6488589730858803,-0.26680318772792816,1.6923069831784976
0.22159220837056637,-0.350940235555172,-1.9961385592818262,-0.46765446066856386,2.0800069450284173
0.23162020836025476,-0.7273659990727902,-2.2402380318939685,-0.8980674201250076,2.5207643339355044
0.24164820834994316,-0.7116783580183983,-2.362561637163162,-1.2850694811344148,2.7820113490081093
0.25167620833963156,-0.1351639446616173,-2.582693518996239,-1.8001314121484757,3.1510392263514158
0.26170420832931995,0.2567712660133839,-2.701348434984684,-2.7610745269060137,3.871272063982792
0.271732208377216,-0.2572172623872757,-3.660567790567875,-3.861719318032265,5.3271749887418345
0.2817602083669044,-1.0770258405804634,-5.08498080611229,-5.420017492175102,7.5095675025458375
0.2917882083565928,-1.7544342523813248,-6.140111455321312,-7.796939890980721,10.078257780651539
0.3018162083462812,-2.8873930960893635,-7.064908837080003,-10.25929186463356,12.786830933868329
0.3118442083359696,-5.1042602455616,-8.666769352555276,-11.29000395655632,15.120534150745778
0.32187220838386565,-7.407269745469094,-10.710089972019196,-10.909513939619066,16.987971235248505
0.33190020837355405,-8.07644381582737,-12.183063236474991,-10.064919891357423,17.74707263053845
0.34192820836324245,-8.199279198646545,-13.098191077709199,-9.573671330809594,18.178172945483393
0.35195620835293084,-9.220241643190384,-14.159009313583375,-9.574184716343881,19.420489532543602
0.36198420834261924,-10.366100614070893,-15.332498717308045,-9.5746571713686,20.837841030359503
0.37201220833230764,-10.893766218423844,-16.59881383895874,-9.343978081941605,21.943215117158328
0.3820402083802037,-10.476372084617616,-17.603690593242646,-8.377893510460854,22.13218006050459
0.3920682083698921,-9.235258462429048,-18.284107689857485,-6.592056201696396,21.518684854063384
0.4020962083595805,-6.6516212028265,-18.65226709842682,-4.150157203674317,20.233016022139566
0.4121242083492689,-2.412846522331238,-18.42220021247864,-1.2520432376861572,18.621678261585597
0.4221522083389573,1.854973032474518,-17.259512954950335,0.8812500970065594,17.381263306410734
0.43218020838685334,7.244016653895378,-17.1865104675293,2.82251882314682,18.86315275449536
0.44220820837654173,19.171503356695176,-15.04702829360962,5.17558809041977,24.914781024647954
0.45223620836623013,31.70571528196335,-6.700272960662842,6.35033581495285,33.02230767603904
0.4622642083559185,38.03291483402253,1.46570400595665,5.310286889076234,38.42980673708083
0.4722922083456069,36.6826828122139,4.364664648771286,1.8318379390239716,36.986823951680066
0.4823202083352953,30.443154072761537,4.247574155330658,-2.5003664767742158,30.839574391049993
0.4923482083831914,24.232152729034425,2.7777162873744965,-7.479851818084717,25.51197986979649
0.5023762083728798,18.85975905418396,2.392190063595772,-8.27972519159317,20.735644049089547
0.5124042083625682,16.53288882136345,1.9967990022897721,-5.700843472480774,17.601796366644987
0.5224322083522566,16.182593826055527,2.5972776442766192,-3.146479128599167,16.688994128085124
0.532460208341945,19.013877625465394,4.696830351948738,-4.081253614425659,20.006108786478766
0.5424882083316334,21.202541899681094,7.604700981974602,-11.186314111948015,25.149808815260307
0.5525152083719149,21.102648067474366,10.296670775413514,-17.688483406305313,29.397714702542316
0.5625432083616033,20.102972996234893,10.590191645622253,-16.4398397397995,28.045498980204428
0.5725712083512917,16.015465199947357,9.158472826480866,-14.37033002614975,23.385447080279956
0.5825992083409801,10.754065711498262,6.0522184485197075,-10.654496984481812,16.303299772382186
0.5926272083306685,6.721784867048264,3.6844533741474152,-6.767950388789178,10.22559244886363
0.6026552083785646,2.850781924724579,3.02822854757309,-4.236289029121399,5.936604286705265
0.612683208368253,0.9976285457611085,2.8600199407339097,-2.917382880449295,4.205484472430215
0.6227112083579414,0.3066466999053955,3.2793495029211046,-3.2236512655019762,4.608697521257417
0.6327392083476298,0.02179608106613159,3.509234540462494,-3.2022533798217774,4.750750344703966
0.6427672083373182,0.48501776754856113,4.025928429365158,-2.3884443372488025,4.70616705030158
0.6527952083852142,1.6491989886760712,4.999622567296028,-1.2810284703969956,5.418220839134704
0.6628232083749026,1.1805540096759797,4.976769309639931,0.553939483165741,5.144782743920862
0.672851208364591,-0.7417865484952927,3.806903717815876,2.4210431492328643,4.572112545716289
0.6828792083542794,-2.8948863029479983,2.651022911667824,3.295987755060196,5.125604790333569
0.6929072083439678,-4.537557460069657,1.4351990818977356,3.371444903612137,5.832312135526197
0.7029352083336562,-4.875514830350876,1.652416711449623,4.81116622209549,7.046165358965251
0.7129632083815522,-5.128846617937088,1.9445620241761208,5.0880985414981845,7.481653284147067
0.7229912083712406,-5.623738578557968,1.8569444212317467,4.485380415916443,7.429220393755435
0.733019208360929,-6.035559731125832,1.4878640761971473,4.272441194057465,7.542908890733394
0.7430472083506174,-7.440122911334038,0.9035781285166741,4.1118018078804015,8.548613716701668
0.7530752083403058,-9.392884778380395,-0.7581166523694992,3.215792022943497,9.957024839446625
0.7631032083299942,-11.315382041931153,-4.947158424854279,0.8045336043834687,12.375763473662825
0.7731312083778903,-13.803039010763168,-8.161162369251251,0.032841507978737354,16.035259140861395
0.7831592083675787,-15.657637821435928,-7.24327347278595,-2.5435446560382844,17.438355775877678
0.7931872083572671,-11.056890671253205,-6.530217218399049,-1.196084214448929,12.896867281769456
0.8032152083469555,-5.28407616019249,-6.216253312826157,4.465898662805557,9.30094172556657
0.8132432083366439,-0.939248190522194,-5.113632162809372,6.554627004861832,8.366274931699392
0.8232712083845399,3.6806713950634005,-4.504959525167942,6.189387695789337,8.494146354438907
0.8332992083742283,5.231949402093887,-4.307920636832714,2.9048417723178863,7.373573114950626
0.8433272083639167,4.65632025718689,-6.048244680762291,-2.287800307273865,7.968476159330636
0.8533552083536051,4.002716737389565,-6.776434698700905,-4.253027268648148,8.94595156779875
0.8633832083432935,4.382401592731476,-6.67329566180706,-0.972904179096222,8.042689926359913
0.8734112083329819,6.201568615436554,-7.577554113864899,1.3334739017486572,9.882152209269158
0.883439208380878,5.850225214362145,-5.013577532172203,1.0012210750579835,7.769397555216285
0.8934672083705664,6.741874145865441,-1.5737283915281297,0.764710557460785,6.965218610042514
0.9034952083602548,6.920542836785317,1.157823543548584,1.7110905969142916,7.22234723234936
0.9135232083499432,7.001267157196999,3.599961107969284,1.9881258273124696,8.119735592404698
0.9235512083396316,6.664290949702263,5.680530830025673,0.9349329453706742,8.806548925969533
0.93357920832932,7.299871596693993,6.323508204817772,-2.598256468176842,10.0012908176415
0.943607208377216,5.306320722699166,4.486175637245179,-4.340680539608002,8.192943244481215
0.9536352083669044,1.9359879595041276,2.785456831455231,-2.9268547850847244,4.480323433884982
0.9636632083565928,0.5128350189328194,2.021652007699013,-1.3381288701295853,2.478036615942459
0.9736912083462812,0.6629877161979676,1.4425589722394945,0.1089318734407425,1.591350135347144
0.9837192083359696,0.8604607602953911,1.0017765605449678,1.1485030817985535,1.7501452300212699
0.9937472083838657,0.1805918401479721,0.761578204035759,1.6810826861858368,1.8543607446729862
1.003775208373554,-1.7457134225964548,1.2574542510509492,1.5893673545122147,2.674844880532082
1.0138032083632424,-4.08167607575655,1.9827458041906358,1.296130512803793,4.719249391339685
1.0238312083529308,-5.192963676452637,2.252316479086876,1.116426937803626,5.769420280615408
1.0338592083426192,-5.111218432188035,2.5710119515657426,-0.5705473297834397,5.749798307084833
1.0438862083829008,-4.464300034046174,2.5168345749378207,-5.472344225049019,7.4973983747040185
1.0539142083725892,-4.363491112589836,2.734263873696327,-2.546666484475136,5.744716163902293
1.0639422083622776,-4.655410722792149,2.838877578377724,0.749221283197403,5.503944715756132
1.073970208351966,-4.552870440781117,3.2924653923511507,0.9358544665575028,5.696032056874688
1.0839982083416544,-4.122187047600747,3.9814679557085038,0.278136772736907,5.737758552090661
1.0940262083313428,-3.3525847095251087,4.81765136897564,-0.4334837709367275,5.885362956284
1.1040542083792388,-2.799947108924389,5.298105384707451,-0.26267198368906974,5.998218156357376
1.1140822083689272,-2.3938353238999843,5.370809079408646,-0.07979797527194024,5.8806806954864665
1.1241102083586156,-2.156772244423628,4.942914515733719,0.09093238949775696,5.3937314656577975
1.134138208348304,-2.422619412392378,3.6033238416910174,0.519218716621399,4.3729412986100415
1.1441662083379924,-2.030602340698242,0.08620725452899933,1.0402664422988892,2.2831845803079074
1.1541942083858885,0.9238556145876646,-6.780735910534859,0.44457681611180305,6.857808485984883
1.1642225833493285,2.3427593104541304,-14.353817489147186,1.4616010147333145,14.617006370140794
1.1742505833390169,2.5455411878228187,-18.056953886747362,-0.07798650786280632,18.235664109168926
1.184278583386913,1.3032052052021028,-21.082980372905734,-1.1887132143974304,21.156640667111528
1.1943065833766013,-0.4435367060825229,-20.549966905117035,-1.8450738425552846,20.637397173469566
1.2043345833662897,-1.3201042431592942,-12.730008280277254,-1.7125792980194092,12.912347342011028
1.2143625833559781,-0.7288178627192975,-4.206316201686859,-1.1952065473794937,4.433146755577905
1.2243905833456665,3.260093452334404,20.49721332550049,-1.2875646342337133,20.794753812352717
1.234418583335355,8.605129759311676,39.61290734767914,-1.205140382051468,40.55469208428113
1.244446583383251,4.233764201402664,-6.438804772496224,1.954693787097931,7.950081384031118
1.2544745833729394,2.1648576280474665,-15.309901567697526,3.6937060081958775,15.897268904981283
1.2645025833626278,0.6769196576625109,-2.9038892608881,-0.07563329592347146,2.9827023750088464
1.2745305833523162,-1.42793537825346,-5.028000859022141,-2.013301891386509,5.601176357574873
1.2845585833420046,-3.614006704688072,-5.876654044389725,-2.3775429345667365,7.297178744191529
1.294586583331693,-5.026056075096131,-5.111086285114289,-2.9264443105459215,7.742642894168676
1.304614583379589,-5.314459462165833,-4.807946745157242,-2.1806239141523838,7.490991385273737
1.3146425833692774,-4.51777691423893,-3.814066264629364,-1.3510636420547963,6.064881093862961
1.3246705833589658,-3.776134207248688,-3.488603809475899,-0.6756580477952957,5.185176938947598
1.3346985833486542,-3.0490025353431705,-2.6734212559461596,-0.35890743233263495,4.070922772205023
1.3447265833383426,-2.25256323158741,-1.3631847739219667,-0.14809835113584996,2.637090624487781
1.3547545833862387,-1.7748521447181702,-0.6469306772947312,0.25099633656442166,1.9056806127482298
1.364782583375927,-1.3039412234723569,-0.2576365077495575,0.4918822525441647,1.4172464269716456
1.3748105833656155,-0.5197986142337323,0.2654764544963837,0.16868749380111694,0.6075556088262052
1.3848385833553039,0.01331557184457779,0.6315454834699631,-0.4030411197245121,0.7493124490715779
1.3948665833449923,0.20375763148069384,1.1031912535429,-0.5798889876902104,1.2628615729067674
1.4048945833346806,0.48324160270392896,1.693358915448189,-0.4205323344469071,1.8104790270608202
1.4149225833825767,1.337138059437275,2.7510243326425554,-0.24919780611991885,3.0689041391614174
1.424950583372265,2.313597345650196,3.939360401630402,-0.022142967134714128,4.5685646939412825
1.4349785833619535,3.2614295411109926,4.458604261279106,0.11938611030578614,5.525425563127388
1.445006583351642,3.9432379826903343,4.228187127113342,0.16524450704455376,5.783943111505084
1.4550345833413303,4.129752175211907,3.2319642519950866,0.4821951703727246,5.266209085971846
1.4650625833310187,3.565586496591568,1.8814123874902726,0.9127673202753067,4.133553412917334
1.4750905833789147,2.3640272417664527,0.5941203796863557,1.0059514725208283,2.6369569944235693
1.4851185833686031,1.145479194223881,-0.541611213684082,0.8583496230840684,1.5304343718816231
1.4951465833582915,0.47974884152412417,-1.0810151034593583,0.6767355434596539,1.3626164539710428
1.50517458334798,0.12608234167099,-1.222197294831276,0.662529148310423,1.3959254481293275
1.5152025833376683,-0.10136601492762566,-1.096698505282402,0.9240470378100872,1.437666723742523
1.5252305833855644,-0.2822003683447838,-0.7854810369014741,1.2375930136442186,1.4927337252995678
1.5352585833752528,-0.24653125651180746,-0.4325401765108109,1.2428360657393933,1.3388465748680345
1.5452865833649412,-0.22781183414161207,-0.3014912098646164,0.9955960536003113,1.0648974989852824
1.5553145833546296,-0.4462931200861931,-0.11511881232261659,0.5948906041681766,0.7525454942489638
1.565342583344318,-0.5038460943102837,-0.23597783625125887,-0.12971828654408454,0.571290871463466
1.5753705833340064,-0.39345249004662036,-0.49761208534240725,-0.680132483392954,0.9300552910278893
1.5853985833819024,-0.2764507281035185,-0.6457051008939744,-0.9459010063111782,1.1781718024676888
1.5954265833715908,-0.32791346177458763,-0.5946004360914231,-1.108303474187851,1.2997744065452148
1.6054545833612792,-0.36485061541199687,-0.43001534879207615,-1.1717779237031938,1.3004201914156253
1.6154825833509676,-0.27733036860823634,-0.31739505171775817,-1.1851165920495987,1.2578366702233457
1.625510583340656,-0.04063412882387638,-0.24212384462356568,-1.1132221519947052,1.139973091021141
1.6355385833303444,0.35122638367116454,-0.21139848053455354,-0.935572630763054,1.0214428214990519
1.6455665833782405,0.7172299238294363,-0.12715296685695648,-0.7475052715837955,1.0437196805955462
1.6555945833679289,1.0123008909076452,0.02646683692932129,-0.4852608655393124,1.1229121491966405
1.6656225833576173,1.2962468723952771,0.2077790540456772,-0.28965235233306885,1.3443684668671512
1.6756505833473057,1.5380334788560868,0.40932906925678253,-0.22907929122447968,1.6079721983568902
1.685678583336994,1.760634347498417,0.592900065779686,-0.32387435138225557,1.8858044408357961
1.69570658338489,1.9500866197049618,0.7248997896909715,-0.43520109817385677,2.125492301867516
1.7057345833745785,2.0639384865760806,0.7138742798566818,-0.605470409989357,2.266286164892584
1.7157615833566524,2.0805507186055183,0.5220095926523209,-0.7868658037483692,2.2848070160561806
1.7257905833539553,2.046578834205866,0.25020586609840395,-0.8944023853540422,2.247452675136118
1.7358175833360292,2.01983732432127,-0.021672704815864564,-1.0214654512703418,2.2635379809038474
1.7458455833839253,1.9390963393449785,-0.21870574593544007,-1.2959641595184803,2.34253066560989
1.7558735833736137,1.7349580541253091,-0.29949847877025604,-1.7947053422033787,2.5141093957290965
1.765901583363302,1.3889899984002114,-0.22058679521083832,-2.4311063535511495,2.8085992687021006
1.7759295833529904,1.1442275977134706,-0.10382140696048738,-2.8438260769844055,3.067145649630762
1.7859575833426788,1.284218711256981,-0.12706233501434328,-2.9093306797742846,3.182698154019281
1.7959855833323672,1.6888643069565297,-0.39458531498909,-3.107170051932335,3.558435885293142
1.8060135833802633,2.028010562360287,-0.7342828166484833,-3.371869411468506,4.00268677563797
1.8160415833699517,2.1000693091750144,-0.8917524272203445,-3.2829233211278916,3.997886820208594
1.82606958335964,1.6134454576671124,-0.73451202750206,-3.206403733491898,3.6638421179907037
1.8360975833493285,0.9267056205868721,-0.36947503209114074,-3.446956431269646,3.5884263606262317
1.8461255833390169,0.3880554369091988,-0.07462508976459503,-3.7215972268581394,3.742518115533358
1.856153583386913,0.030154091119766236,-0.10813899099826814,-3.736261458992958,3.7379476990109923
1.8661815833766013,-0.5391578681766988,-0.6475165683031082,-4.6263293033838275,4.702434660512761
1.8762095833662897,-1.5700892306864263,-1.8624340796470642,-5.656226293444634,6.158468703825873
1.8862375833559781,-2.623623736202717,-3.3280825370550158,-4.779826900362969,6.387979342487758
1.8962655833456665,-3.253078547716141,-4.333027119040489,-2.2584525471925736,5.870115157292223
1.906293583335355,-3.5410188353061676,-4.563709716796875,0.43506208062171936,5.7927143711022175
1.916321583383251,-3.736392728984356,-4.203566256165504,3.059746209383011,6.402550020188373
1.9263495833729394,-3.5473279809951785,-3.391279243826866,5.214370332956315,7.160584381429857
1.9363775833626278,-2.403106522858143,-2.2937679755687714,6.391875604391099,7.203635625707223
1.9464055833523162,-1.3445441427826883,-1.4278198957443238,5.405366123914719,5.7501696966384745
1.9564335833420046,-1.3548188701272013,-0.8605002290010453,3.8953109872341156,4.213008723255913
1.966461583331693,-2.3083529779314995,-0.6569054424762726,3.3848584163188935,4.149371606593584
1.976489583379589,-3.39490393280983,-0.585171800851822,3.484331248998642,4.899832956567831
1.9865175833692774,-4.258315490484238,-0.5406107550859451,3.370137466192246,5.457411231164947
1.9965455833589658,-4.637293709814549,-0.3714689326286316,2.8947459697723392,5.479236839972063
2.006573583348654,-4.359840403497219,0.09816656470298768,2.2279493772983554,4.897101535214122
2.0166015833383426,-3.726772305071354,0.6975400829315186,1.7204240687191488,4.163562531939578
2.0266295833862387,-3.011366347074509,1.1609056109189988,1.5861274123191835,3.5960852717735206
2.036657583375927,-2.4101440854370595,1.4683820307254791,1.6792957770824433,3.2840485087238966
2.0466855833656155,-2.0990597873926164,1.6543971633911134,1.6339531047642233,3.132552427949761
2.056713583355304,-2.0627450698614123,1.7054948115348816,1.332664647102356,2.989920540256281
2.0667415833449923,-2.1363173684477808,1.6285770285129548,1.1570376777648927,2.9248677276586905
2.0767695833346806,-2.315074937045574,1.4828866338729858,0.8188440799713135,2.8686286550126683
2.0867975833825767,-2.791632660627365,1.5278645861148834,0.08659390166401863,3.183564293239705
2.096825583372265,-3.315379168689251,1.8165451312065126,-1.0652106642723085,3.9276263830929956
2.1068535833619535,-3.6017410004138948,2.478055840730667,-3.5437541627883915,5.627743113373416
2.116881583351642,-2.609453886151314,3.3074097061157226,-7.2367935883998875,8.373732142191104
2.1269095833413303,0.6622283090651035,4.224088813662529,-6.990227029323578,8.194189805009527
2.1369375833310187,3.3173107963800432,5.052823458909988,0.5601363623142243,6.0703647807258925
2.1469655833789147,2.668316344320774,5.19676319718361,6.440615655183793,8.695273995612212
2.156993583368603,0.03913921505212784,5.616372841000557,2.427088146954775,6.118491042763071
2.16702120838454,-2.464249395132065,5.040385261774063,-11.759817209243774,13.02963197727948
2.1770492083742283,0.7997312861680985,2.8892957800626755,-8.945117282867432,9.434125472931644
2.1870772083639167,4.064131212830544,0.4071381175518036,5.622585507631302,6.949560543839635
2.197105208353605,3.087347113788128,-1.6997703874111176,7.750957971811295,8.51459224224629
2.2071332083432935,2.3852807012200357,-2.4383485686779025,3.3133186098933223,4.755332583179828
2.217161208332982,3.0702942940592766,-2.1194472742080688,3.8309468838572505,5.347421605523221
2.227189208380878,3.7586484012007717,-0.8191387796401978,5.8844752800464635,7.0303254167668126
2.2372172083705664,3.251124992966652,1.341495696902275,7.302820347547532,8.105591246371482
2.2472452083602548,1.7757570013403894,3.1883603954315185,5.995440230369568,7.018850225991401
2.257273208349943,0.5755952310562135,3.050217586755753,3.9081055721640587,4.990834234849772
2.2673012083396316,-0.1945397883653641,1.562266094684601,1.3308201429247857,2.0614566046057488
2.27732920832932,-1.3361612820625306,-0.9039760315418244,0.5567595952749252,1.7065992160480414
2.287357208377216,-3.0150512623786927,-3.9026469039916996,2.1999236726760865,5.400078808462705
2.2973852083669044,-4.3056182956695555,-6.005337227582932,1.9875223946571352,7.651971601767841
2.307413208356593,-3.3464158970117572,-6.315336720943451,3.1755634716153147,7.820881063980407
2.317441208346281,-0.28242811739444734,-5.00446289241314,1.8709982040524484,5.350238196809798
2.3274692083359696,3.1133464658260346,-3.1952080696821215,-0.524296292513609,4.49190020227261
2.3374972083838657,5.823657220602036,-1.8679117512702943,-3.4498762384057047,7.021803457369067
2.347525208373554,5.333006830215455,-1.9151660245656967,-4.8100953045487405,7.432754509037502
2.3575532083632424,2.299849079847336,-2.4802310049533847,-3.3014502239227297,4.7265659002119245
2.367581208352931,-0.7596363437175752,-2.0428727227449417,-1.3305666661262512,2.5535825792478817
2.3776092083426192,-3.215287408232689,-0.08487818241119385,0.13668539017438888,3.2193105347692437
2.3876372083323076,-4.054003835320473,2.446307798624039,-0.033933731317520144,4.735031197418135
2.3976652083802037,-3.701390419006348,3.9841284388303757,0.7654768350720406,5.491768862219245
2.407693208369892,-2.1051701277494432,3.995641021728516,0.978404362499714,4.6210565391311516
2.4177212083595805,0.8290153115987778,2.6864026594161987,-0.631278558075428,2.8814125447893493
2.427749208349269,3.5152045476436617,0.7533891785144806,-0.5693334478139878,3.6398350018753827
2.4377772083389573,5.301595587730408,-0.9589755266904831,0.26689703553915023,5.394236170600376
2.4478052083868533,5.357900181412697,-1.6926490634679796,-0.35901991814374923,5.630368594298706
2.4578332083765417,3.991716370582581,-0.6501881611347199,-1.0903840970993042,4.1887327089781925
2.46786120836623,1.75148257791996,1.8527201002836229,-1.1141325634717942,2.7823648861607526
2.4778892083559185,-0.14634294390678407,4.334674279689789,-0.4988373693823815,4.365736603292488
2.487917208345607,-0.9649139589071274,5.772221018671989,0.2140618872642517,5.856228899904072
2.4979452083352953,-0.023478325009346008,5.200160429477692,0.29728764653205875,5.208704221668901
2.5079732083831914,2.2196434074640274,2.709640079140663,0.15305613219738007,3.5060508259845804
2.5180012083728798,3.3933848261833193,0.8358390122652054,-0.09734795451164246,3.4961641919742945
2.528029208362568,3.032114022374153,0.41088150501251225,0.26163483381271363,3.07099199642453
2.5380572083522566,2.1569431293010712,1.504970982670784,-1.157295832335949,2.8734430506384356
2.548085208341945,-0.6698991250991821,2.645397890210152,-3.3206875634193422,4.298122930906567
2.5581132083316334,-1.6582516479492189,3.355459785461426,-2.430082359910011,4.462533941128173
2.5681412083795294,-0.632970449924469,3.643194251060486,-2.977678491175175,4.747639954571643
2.578169208369218,0.7349651867151261,2.841656759977341,-3.7878412100672723,4.79196494142977
2.588197208358906,1.6856090158224106,1.6425951433181762,-3.5917732518911363,4.294209083413951
2.5982252083485946,2.522956609725952,0.8320073318481446,-4.005440078079701,4.806360002527491
2.608253208338283,2.8485248994827272,0.1215583509206772,-4.885609463453293,5.656681921854544
2.618281208386179,3.919003320336342,-0.5072582370042801,-5.931795626878738,7.127559000308148
2.6283092083758675,5.775856232643128,-1.1409362000226975,-5.922251801490784,8.350767451734335
2.638337208365556,8.496662739515305,-2.0119456297159197,-6.345488473176957,10.793814288249653
2.6483652083552442,13.572155853509903,-3.1917611360549927,-6.387312437295914,15.335857127439251
2.6583932083449326,18.904363954067232,-5.2982884025573735,-6.50828782081604,20.683438951564433
2.668421208334621,22.953885898590087,-8.559039081931115,-9.85458151102066,26.405507088652307
2.678449208382517,26.1321750497818,-12.439273023605347,-13.595966885089876,31.976184915162953
2.6884772083722055,25.54169748544693,-15.307998883724213,-12.662501006126405,32.35818400331422
2.698505208361894,21.1784233045578,-17.213823981285095,-8.717778707742692,28.65032312772187
2.7085332083515823,17.380164402723313,-15.846022245883942,-4.00214224845171,23.857570669696894
2.7185612083412707,13.027500579357147,-11.333057005405427,-1.5690877488255501,17.338281021959308
2.728589208330959,7.449126453995705,-8.190013700723648,0.8925149041414261,11.10686239222285
2.738617208378855,5.42949816763401,-5.713529006838799,1.028513538837433,7.948691978174858
2.7486452083685435,8.154160328507423,-3.913515708446503,-0.739726574420929,9.074862603266583
2.758673208358232,10.53841805934906,-5.733516544103622,-2.7269110000133514,12.303150440318861
2.7687012083479203,9.420647358298302,-9.508292443156243,-5.931496834158898,14.640316817870845
2.7787292083376087,8.834093860387803,-11.257793984413148,-3.948431187272072,14.844839122410626
2.788757208385505,11.042684276103975,-11.207615518569947,-0.9250833106040955,15.760942254997387
2.798785208375193,9.206518812775613,-9.836256337165834,-0.8229967725276948,13.497749852031534
2.8088132083648816,5.096203951835633,-7.839488325119019,-0.32672545373439793,9.356047319274335
2.81884120835457,2.3790782672166824,-6.738158240318299,0.9028861105442048,7.202637933543916
2.8288692083442584,-0.07077528297901153,-6.744613566398621,2.309675325751305,7.129475535487409
2.8388972083339468,-3.406983695626259,-7.867228685617447,4.695633426904679,9.774957717245112
2.848925208381843,-7.498837727308274,-8.8012231528759,6.239483715891838,13.138692982488788
2.858953208371531,-13.184755597114563,-8.919332231283189,4.971701527833939,16.676632864266015
2.8689812083612196,-18.378820888996124,-8.1272005712986,7.489971009492875,21.446027886743043
2.879009208350908,-19.309812226295474,-5.0598722773790366,12.8624629175663,23.746875752063623
2.8890372083405964,-19.234294266700747,-0.0895946927368641,12.788790339231491,23.09803587943842
2.899065208330285,-17.470727248191835,2.1553016696870326,9.887978467941284,20.19018954964363
2.909093208378181,-13.856794803142549,0.9097590740025044,10.142152254581452,17.195978487548764
2.9191212083678693,-12.482771630287171,0.14172583624720575,11.274156832695008,16.821007284784276
2.9291492083575577,-13.29427628517151,0.31590445026755337,12.223572746515275,18.06248344656746
2.939177208347246,-15.246039447784424,0.3522985437512398,12.935121588706972,19.997079877371128
2.9492052083369344,-17.790757055282594,0.43241095304489136,13.788613929748536,22.51274949747489
2.9592332083848305,-19.943119475841524,0.506014680415392,14.011282918453217,24.378271355972398
2.969261208374519,-20.30732382774353,1.4054854322969914,14.275719738006593,24.862802826378008
2.9792892083642073,-19.339838848114013,2.648060419857502,14.620990805625917,24.388828647485994
2.9893172083538957,-17.222480199337006,4.518872097730637,14.65251197576523,23.059274412959034
2.999345208343584,-14.44028143644333,6.418328992724419,14.458786704540254,21.41899129254052
3.0093732083332725,-11.63104631781578,7.953922428488732,13.732130995988847,19.67530284739195
3.0194012083811685,-9.171405113339425,9.555203484892846,12.772540926933289,18.39984747547878
3.029429208370857,-7.686507037281991,10.906676870584489,12.217188756465912,18.09137064748399
3.0394572083605453,-7.62488732457161,11.792241189479828,13.179345753192901,19.25853092698094
3.0494852083502337,-7.88584972858429,11.835576074123383,15.002915729284288,20.672565571988898
3.059513208339922,-7.659532662034035,11.630334126949311,15.156691653728485,20.58296417893814
3.0695412083296105,-7.234638889431954,11.710680717229843,13.139769458770752,19.029807780191177
3.0795692083775066,-6.4145575386285785,13.37150981783867,4.313541857600212,15.445079040982657
3.089597208367195,11.074277951717377,21.57469378709793,-39.53490081310272,46.38011887070586
3.0996252083568834,59.133869547843936,7.764325291514397,-28.86161789417267,66.25777133592031
3.1096532083465718,31.565449934005738,-30.758962190151216,44.713157572746276,62.783420141599585
3.11968120833626,10.21231533408165,-30.673277091979983,-2.667841258049011,32.43853709744402
3.1297092083841562,0.5097970980405808,-23.853213393688204,-10.586133677959443,26.101760640493662
3.1397372083738446,-3.5789888995885852,-15.649028381109238,-3.1228701183199883,16.35400772263596
3.149765208363533,-4.261334992647171,-4.682467251420022,-4.014687449634075,7.496812042357044
3.15979283337947,2.0561505800485613,3.347748477458954,-20.4315069937706,20.805808158124012
3.169820833369158,9.326255171298982,9.52496811747551,-2.818245970308781,13.625217925166103
3.1798488333588466,2.3589059579372407,6.405045872926713,-3.477238576412201,7.660302740099537
3.189876833348535,-8.022482786178589,-4.365703698992729,-2.0815339279174805,9.367624156369754
3.1999048333382234,-6.390814334750176,-6.780592069029808,-0.053549385666847235,9.317821859455329
3.2099328333861195,-6.420539824962616,-5.693477734923363,3.9640540704131126,9.452658093634712
3.219960833375808,-5.076940884590149,-3.0487785869836808,7.3319020593166355,9.424816572511357
3.2299888333654962,-1.9259623235464096,-1.0541600114107132,-0.6676190033555032,2.294841897608442
3.2400168333551846,1.9071670335531237,-1.0576551845669746,-4.82176722407341,5.292009046332198
3.250044833344873,4.4163335698843005,-3.7876222318410875,-1.3170856180787087,5.965299564730478
3.2600728333345614,5.66768274307251,-8.205752651095391,2.161942644864321,10.204459821409651
3.2701008333824575,3.627745907306671,-12.503982989788057,2.4300443530082703,13.24444209978196
3.280128833372146,1.3307192784547806,-12.417887417078019,5.4408797729015355,13.622698499359254
3.2901568333618343,1.5224038714170456,-8.330901777148247,5.150850859880448,9.912260213943567
3.3001848333515227,3.3574852609634402,-4.804008353054524,3.3172646033763886,6.734645349431423
3.310212833341211,6.167120329141617,-2.0075786367058757,2.410026556402445,6.918957518241795
3.3202408333308995,8.692810512185098,0.2702892976999283,2.0769999969005584,8.941584864683206
3.3302688333787955,8.545320929288865,0.990653402209282,1.9024139781296254,8.810396295969559
3.340296833368484,4.956861879229546,-0.332099044919014,1.5189828117191793,5.195005124895787
3.3503248333581723,1.506272572875023,-2.9666637986898423,1.5820016169548035,3.6841118704919915
3.3603528333478607,0.6097622662782669,-4.119563401937485,1.7746321432292462,4.526801507437894
3.370380833337549,0.21610724329948428,-3.727131031751633,1.8468991971015931,4.165242455452864
3.380408833385445,-0.3344355922937393,-2.8215762519836427,1.757590140849352,3.340997278412805
3.3904368333751336,-1.052373687028885,-1.6220550441741943,1.5373170487582684,2.470201743154706
3.400464833364822,-1.8763025057315827,-0.4741811227798462,0.8064080755412579,2.0965812205859153
3.4104928333545104,-2.5667265272140503,0.6053844559192658,0.3866029885411263,2.6653399925191334
3.4205208333441988,-2.9640974557399753,1.687350316643715,0.5619957768917084,3.456712899771393
3.430548833333887,-3.2658412653207782,2.672672227621079,0.6296072045713663,4.266767071052416
3.440576833381783,-3.633132362365723,3.5463988584280015,0.3755900502204895,5.090939354515353
3.4506048333714716,-3.7869609117507936,4.414727339744568,-0.300581967830658,5.824194360664958
3.46063283336116,-3.5219142276048663,5.134247106313706,-1.0794720232486725,6.318989873727669
3.4706608333508484,-2.599478536248207,5.577430384755135,-1.5342438983917237,6.3418390626818315
3.480688833340537,-1.4493967062234878,5.498792350888253,-1.7202461671829226,5.941103854159275
3.490716833330225,-0.44344932675361637,4.957364155054092,-1.5957507598400116,5.226712844488722
3.5007448333781213,0.35299056172370913,4.215475865006447,-1.2605591225624084,4.414051246484705
3.5107728333678097,0.7803834342956544,3.4663867288827896,-0.9071814751625061,3.667126052861536
3.520800833357498,0.9212872982025146,2.7845762407779695,-0.5370374850556254,2.9817854360918274
3.5308288333471864,0.884690452516079,2.2658931291103364,-0.19548528313636782,2.440320340702311
3.540856833336875,0.7289223816990853,1.966896341443062,0.2614477229118347,2.1138505075666427
3.550884833384771,0.4735116165876389,1.8881916493177415,0.7513192641735077,2.0866148643951794
3.5609128333744593,0.07155120849609375,2.0417611670494082,0.9848933100700379,2.26802184092855
3.5709408333641477,-0.5008113893866539,2.320911335349083,0.7207237082719803,2.4813069415041276
3.580968833353836,-1.086647433936596,2.7219753652811054,-0.036688948469236496,2.931091710236644
3.5909968333435245,-2.285531002879143,2.9231646072864534,-0.4388920068740845,3.736464837264211
3.601024833333213,-4.000337797701359,2.8077832549810413,-0.2244763813354075,4.892518671241586
3.611052833381109,-3.7390804016590122,1.98694118142128,-0.6083963567018509,4.277710092484809
3.6210808333707973,-2.7065711680054667,1.409049164056778,-2.628666667342186,4.027509836388169
3.6311088333604857,-1.5753331598639488,1.433943099975586,-3.8535636216402054,4.403160224720797
3.641136833350174,-0.8404770237207413,0.37180865585803985,-3.5526448541879656,3.6695951771226305
3.6511648333398625,-0.6362197476625443,-0.7780620896816254,-2.274185065627098,2.4863776654878595
3.661192833329551,0.13830039113759995,-1.6259247314929963,-1.058607988357544,1.9450987388006273
3.671220833377447,1.2356230866909028,-2.6656175619363784,0.009804026484489442,2.938090794683259
3.6812488333671354,1.8955290278792383,-3.336229462623596,1.1135601210594177,3.995431574439037
3.6912768333568238,2.128333287835121,-3.7416087377071383,1.8227665686607362,4.674603351517719
3.701304833346512,1.709198730289936,-3.9464378714561463,1.9854232442378998,4.736838358192962
3.7113328333362006,1.1855209270119669,-3.7391938376426697,1.5842253130674362,4.230460999277956
3.7213608333840966,0.5611795055866242,-3.0930075109004975,0.0038556540012359623,3.1435064444096685
3.731388833373785,0.11587690383195878,-2.0045184963941574,-1.3516768687963487,2.420444632059795
3.7414168333634734,-0.5013829547166825,-1.228080178499222,-1.1837167686223984,1.7778501569088898
3.751444833353162,-1.2355906346440315,-0.7497083562612534,-0.7919112199544907,1.6479897500160006
3.76147283334285,-1.9258757847547532,-0.5295887535810471,-0.9392540377378464,2.2071837108929357
3.7715008333325386,-2.3712932842969896,-0.5267037373781205,-1.3036484241485595,2.7568002976104573
3.7815288333804347,-2.4848640462756157,-0.4353228664398194,-1.1943370664119721,2.791146064741894
3.791556833370123,-2.4068124881386757,-0.13838195979595186,-0.500089550614357,2.462109964743841
3.8015848333598115,-2.233771742284298,0.22022602200508118,-0.016141841802746058,2.244659496772906
3.8116128333495,-1.8841716885566713,0.646579259634018,0.015827809777110815,1.9920889062764526
3.8216408333391882,-1.5124869936704637,1.3347450864315034,-0.10487624466419221,2.01994068686935
3.8316688333870843,-0.8583870452642441,1.7882761824131013,0.03314902584068477,1.9838999173289062
3.8416968333767727,-0.0662849137187004,2.114109935760498,0.1719402998685837,2.1221258155413056
3.851724833366461,0.32200528889894486,2.4455394744873047,0.06365454375743866,2.4674688707855066
3.8617528333561495,-0.14800472259521485,2.808795992732048,-0.35007513999938966,2.8343946320764317
3.871780833345838,-0.11041531205177307,2.52071069419384,-0.963407131433487,2.700801222943958
3.8818088333355263,0.43873705565929416,1.564514349102974,-1.2942051708698272,2.077296891843794
3.8918368333834223,0.8988948011398316,0.6234541064500809,-1.0820050370693208,1.538649338416349
3.9018648333731107,0.9692479151487351,0.1725706297159195,-0.7588411223888397,1.243005226171263
3.911892833362799,0.5649591457843781,0.22294497728347779,-0.5940969177335501,0.8496084080103311
3.9219208333524875,-0.2603174561262131,0.6130676972866058,-0.4854054014012218,0.8241574989829343
3.931948833342176,-1.3712708884477616,1.098856127858162,-0.6840423703193665,1.8856782874148719
3.9419768333318643,-2.3862984091043473,1.4596240711212158,-1.1505578664690257,3.0246827817779782
3.9520048333797604,-3.00068640768528,1.6543644189834597,-1.3049256022274496,3.666588520057077
3.962032833369449,-2.9136874401569366,1.5787885719537735,-0.9195204158127308,3.439137340810415
3.972060833359137,-2.683636341691017,1.3700172454118729,0.7124655394256115,3.096200641437778
3.9820888333488256,-3.4410074740648273,0.8376352769136429,1.1932239027321339,3.7371043035686737
3.992116833338514,-5.51909680724144,-0.11167070925235749,0.6784385450184346,5.561760402460206
4.00214483338641,-8.035139084458352,-0.3259068435430527,-2.614611715078354,8.456114343945652
4.012172833376098,-9.601370760798455,0.008073835372924805,1.872521549910307,9.782265720578827
4.022200833365787,-9.049624568223953,0.6611715710163116,6.7158218765258795,11.288716319818933
4.032228833355475,-9.020467427372933,-0.00035434126853942875,6.1796719622612,10.934220516114124
4.042256833345164,-7.376312246918679,-2.0471441137790682,4.81235203742981,9.042096743498027
4.052284833334852,-4.340699835419655,-5.838268827795982,4.3585519695281985,8.480803808478571
4.062312833382748,-0.706746523976326,-12.264847072362901,4.041657439470291,12.932940857192033
4.0723408333724365,5.162421914935112,-22.76880982875824,0.23143864274024964,23.347866388415742
4.082368833362125,12.843156580924989,-35.02472352504731,-3.298288049697876,37.45072273036849
4.092396833351813,18.124905549287796,-43.12190098285675,3.1705462682247165,46.88350359332011
4.102424833341502,11.450602412223816,-35.90730459451676,2.945482259988785,37.8037919340129
4.11245283333119,2.1295910239219666,-20.03824198007584,-3.0548392260074615,20.381323369153353
4.122480833379086,-0.3660707831382752,-10.303603234291078,0.8896971309185029,10.348420575755783
4.1325088333687745,-0.7185374343395233,-6.034218379855156,4.052991682291031,7.304438998105829
4.142536833358463,-2.441179790496826,-3.0408825069665912,5.07736890077591,6.4020309391061145
4.152564833348151,-3.752329022884369,0.4381266063451767,3.938065828084946,5.457132075137845
4.162593750050291,-4.285690692365169,6.2978582239151,-4.7049480414390565,8.953585817525944
4.17262175003998,-2.010856585800648,10.837641134262086,-9.149002676010133,14.324882531083736
4.182649750029668,0.5997538796067238,11.821091351509095,-3.16903768658638,12.253191637929737
4.192677750019357,2.4914363166689872,12.210628180503846,1.413241617679596,12.542087041336998
4.202705750009045,4.001773289144039,13.058577361106874,4.38859964132309,14.345746371853254
4.212733749998733,4.840903406739235,14.70446916460991,4.996277375221252,16.267100135441808
4.2227617500466295,5.564455997943878,16.27320344924927,3.0111862528324127,17.459884412646
4.232789750036318,5.946797243356705,16.652773114442827,0.36085740566253666,17.68642043834552
4.242817750026006,4.526557677984238,15.61685583114624,-1.2335730528831483,16.306367251467258
4.252845750015695,1.9454700967669487,14.368246078491211,-2.755002193450928,14.758773199538364
4.262873750005383,-1.0476403659582139,13.438875589370728,-5.243819249868393,14.46369827424023
4.272901750053279,-4.3713544481992725,12.598042470216752,-9.260450606346131,16.235004133838494
4.2829297500429675,-7.722745741009713,11.128717868328096,-12.96679712533951,18.75171967748136
4.292957750032656,-9.456512424945831,9.694369556307793,-9.512393095493318,16.54968430939428
4.302985750022344,-8.747802990674973,8.672538215517998,-1.612955607175827,12.423308820680665
4.313013750012033,-7.258214862942696,7.862527524232865,4.956675353050232,11.792779681716151
4.323041750001721,-6.427333704829216,7.258659836053849,8.462531372308732,12.869079158824242
4.333069750049617,-6.866466032266617,6.778738501667977,9.248480186462404,13.365404490910656
4.3430977500393055,-7.331957607865334,6.735781347155571,8.762882959842683,13.263350650877197
4.353125750028994,-7.298638418912888,6.663434332609177,7.646340174078942,12.49551911417687
4.363153750018682,-7.018297757506371,6.676171907186508,5.649920656085015,11.213803019822553
4.373181750008371,-7.1097008478641515,7.1584566861391075,0.06845277348998935,10.0894020663094
4.383209749998059,-8.122547357082368,8.020146238803864,-6.2030935692787175,12.991416054036316
4.393237750045955,-7.381125090122223,8.6644673037529,-2.205960338115692,11.593975257312497
4.403265750035644,-5.851698127985001,9.373021202087402,0.6803785049915314,11.070628362739743
4.413293750025332,-4.196002005636692,9.89337427854538,0.5197373646497727,10.758969020073604
4.42332175001502,-2.6632655194401744,10.130509278774262,-1.1805043083429336,10.541052693938429
4.433349750004709,-1.7494994947314264,10.21625167965889,-1.7928083592653274,10.51887392629317
4.443377750052605,-1.3396748739480973,10.23394067645073,-1.0493851751089096,10.374462867191681
4.453405750042293,-1.161789417564869,10.32369660615921,-0.28990204671397807,10.392906689828301
4.463433750031982,-1.163507037162781,10.569401285648347,0.044007296171039344,10.633340434910778
4.47346175002167,-1.270105140656233,10.621789999008179,0.01218439143151045,10.697464106541611
4.483489750011358,-1.3118418350815773,10.238865201473237,-0.5886398210003972,10.339332011937579
4.493517750001047,-1.1516655483841898,9.542971694469452,-1.8410660147666933,9.786938559504149
4.503545750048943,-0.7505518171191216,9.009119735956192,-2.379267132282257,9.348180493215501
4.513573750038631,0.12961172103881838,8.799456124305726,-1.781903886795044,8.978998203785736
4.52360175002832,0.9448028992116452,8.675802131295205,-1.4120283204317094,8.840589296955624
4.533629750018008,1.4850252529978754,8.320459234714509,-1.8427552753686907,8.650496453006989
4.5436577500076964,1.3970977476239206,7.703538222312928,-1.2663016730546952,7.930945920016929
4.553685749997385,0.527832542359829,7.145422657728195,0.014253757596015932,7.16490581375325
4.563713750045281,-0.8757165844738484,6.578113515973091,-0.35568495869636535,6.64567293471423
4.573741750034969,-2.268196639716625,5.352875669002533,-6.735084943771363,8.897154776895634
4.583769750024658,-1.9543922169506551,2.241787982583046,-10.733165423870087,11.137598588236667
4.593797750014346,1.4172954922914505,2.165386508703232,12.096561866998673,12.370304533303539
4.6038257500040345,4.370268327891827,-0.2411900442838669,11.143617743253708,11.972369619377567
4.6138537500519305,37.96986079931259,-19.921950216293336,25.31027638435364,49.791610941924894
4.623881750041619,110.90271723747254,-87.8890213394165,-18.20370847463608,142.6718884885342
4.633909750031307,70.91925546169281,-112.04910830497742,12.257602372169496,133.17204017020848
4.643937750020996,15.890797884464265,-69.3708753347397,-7.0421701848506935,71.5152288888548
4.653965750010684,-24.392672832012178,-26.414682104587556,-72.88028529167175,81.26668384258994
4.6639937500003725,-11.388631281852723,-14.45939364552498,-19.89350468158722,27.102149648811537
4.674021750048269,2.0254667311906815,-10.347964890003205,13.91307191491127,17.457275358812215
4.684049750037957,-2.287039584517479,-5.055878044366837,7.469598725438118,9.305232827808624
4.694077750027645,-5.417585050463677,-2.988090335726738,3.6023227983713153,7.159304517698406
4.704105750017334,-4.6117176961898805,-4.332862812280655,-5.186839302778244,8.181988890987363
4.714133750007022,4.12688060760498,-10.935362141132355,16.058954451084137,19.8621073093751
4.724161749996711,1.9180019241571427,-13.112688664197922,10.401535910367967,16.846758877598074
4.734189750044607,-0.17129359781742096,-11.317349045276643,4.354761219620705,12.127476084873958
4.744217750034295,3.1057561951875687,-6.5401142156124115,0.9223987077176571,7.298604995011082
4.754245750023983,2.2198778808116915,-0.3884048080444336,-1.5771805876493454,2.7506753182967585
4.764273750013672,1.546134211421013,-4.7007947641611105,4.3402905303239825,6.582258298039589
4.77430175000336,0.3768980723619461,-5.628408164978028,5.445123682022095,7.8403062785237765
4.784329750051256,-0.5595674282312394,-2.089234710931778,4.439613089561463,4.938439203746968
4.794357750040945,-1.0701293420791627,0.22414424121379853,5.321340465545655,5.432502351578114
4.804385750030633,-2.7987659713625908,2.6796654975414276,5.110310944318772,6.413187669856181
4.8144137500203215,-4.299621976017952,4.956864218115807,3.089681614637375,7.252819072148537
4.82444175001001,-3.878561053276062,6.463102877140045,1.6440627944469453,7.714783024594441
4.834469749999698,-1.213666499555111,7.925293291211129,0.023922704262658957,8.017719901545433
4.844497750047594,2.1826439809799196,9.4328218460083,-2.9512388437986377,10.121851285184208
4.854525750037283,4.7308892136812215,10.449637445211412,-4.30679007768631,12.252537543780353
4.864554750034586,6.068015286326409,11.111818245649339,-3.5696111351251605,13.154293515633823
4.874582750024274,6.7482388401031494,11.41575300693512,-3.2927285170555116,13.663828352458747
4.884610750013962,6.749877229928971,11.507370690107345,-3.3586699068546295,13.757219426972373
4.894638750003651,6.114238695502282,11.26761730670929,-3.0292097103595736,13.172669663563605
4.904666750051547,5.552987853884697,10.825448520183564,-2.781627489924431,12.480523276739593
4.914694750041235,5.460969636440278,10.622719706296921,-3.0974467170238498,12.339308712139163
4.924722750030924,5.353114820122719,10.494465708732605,-2.9250667065382006,12.138602227063883
4.934750750020612,4.803113436698914,10.295843979120255,-1.952716258764267,11.527679849623981
4.9447787500103,3.2273756495118144,9.648678243756295,0.2851073116064072,10.178125152194255
4.954806749999989,0.18781870633363726,7.5870207560062415,3.2815539032220844,8.2684191861728
4.964834750047885,-2.6756411513686182,5.600419297814369,4.752552562952042,7.817321008238744
4.974862750037573,-4.266575267314911,5.851617436408997,3.910289214849472,8.230155094378064
4.984890750027262,-4.342660699188709,6.041626802086831,2.5455046427249908,7.863812704414227
4.99491875001695,-2.0243771025538444,2.427143549323082,1.9484694260358812,3.7129047343773234
5.0049467500066385,-0.12725938618183136,-2.811176394224167,-0.9683030781894922,2.975990343069986
5.014974749996327,1.7754997238516808,-10.002174589633942,-2.6450581669807436,10.497248615595796
5.025002750044223,5.11833507835865,-18.541249523162843,-1.8836086016893387,19.326750094594306
5.035030750033911,7.292560822963715,-22.59456514120102,3.2780976140499116,23.96751429005188
5.0450587500236,4.064318323731422,-19.174994144439697,3.2128508734703067,19.86256515687424
5.055086750013288,-1.205987058877945,-11.164074811935425,-4.391926707029343,12.057362538822066
5.0651147500029765,-3.6683364012837414,-5.658243582844735,-10.644124023914337,12.600388431800717
5.075142750050873,-4.518911274075508,-3.677796319127083,-9.723226734995842,11.33524957855315
5.085170750040561,-3.913147918581963,-3.7695718771219258,-4.06409963786602,6.785226940640496
5.095198750030249,-3.276170956492424,-3.2362946999073032,-1.2402575898170471,4.769186346737919
5.105226750019938,-4.564293561279774,-1.5013685131072998,-3.478336683511734,5.931754311293872
5.115254750009626,-5.631633489131928,0.3992753666639328,-6.237409123778344,8.41308440179523
5.1252827499993145,-4.635009787380696,1.4749981552362443,-5.753331588506699,7.533907329823893
5.135310750047211,-2.283986460864544,1.5150001269578934,-4.266820850372315,5.071250310058349
5.145338750036899,-0.0945617562532425,0.9764785820245744,-3.2201686638593676,3.366294486612876
5.155366750026587,0.8684556582570077,0.6466260373592377,-2.353577975034714,2.5906890487123357
5.165395250020083,1.3544396781921388,0.9071159863471985,-0.5811687970161439,1.7306424891273955
5.175423250009771,2.0771681043505668,1.6721674364805224,2.0669217360019685,3.373860805088817
5.18545124999946,3.2518798685073853,2.8283601915836334,4.385942666530609,6.1490517258055535
5.195479250047356,4.715850175023079,4.130346837043763,6.221881842613221,8.832373493630278
5.205507250037044,4.922031185030938,5.346223876476288,6.9540655088424685,10.058206988578762
5.215535250026733,3.4434416699409485,6.414457551240921,5.790452052354813,9.302251941415985
5.225563250016421,1.209098362326622,7.211856967806816,3.204040288925171,7.983650414875412
5.2355912500061095,-1.866545256972313,7.754924138188363,0.014033322134055198,7.976404987180157
5.2456192500540055,-3.81590024381876,7.608985236883163,0.2936717283725739,8.517276213081699
5.255647250043694,-3.811218085885048,7.219603359103203,1.7593704718351364,8.351253823116439
5.265675250033382,-4.243612082004548,7.34837132692337,1.9001018428802492,8.695814606706001
5.275703250023071,-4.5197760772705085,7.646440161466599,1.5457658368349076,9.015864625973599
5.285731250012759,-7.5635044240951546,6.651527647376061,-4.29619024515152,10.95019040198161
5.2957592500024475,-2.8087237796187403,3.866104145050049,-1.1635374426841736,4.918283228027538
5.305787250050344,4.229625834524632,0.4865029603242874,-4.391392856240273,6.116432869599779
5.315815250040032,7.087951544523239,-2.971308242082596,-8.816497249603271,11.696082827991575
5.32584325002972,6.7530452513694765,-7.732204781770706,-4.678251993656159,11.281695469672519
5.335871250019409,7.675432995557785,-13.657856154441834,-4.266471186876297,16.237366867604102
5.345899250009097,2.0503583282232287,-13.76154366016388,0.7282625234127045,13.932495091968217
5.3559272499987856,-5.7564750516414644,-9.22207006752491,5.019728218317032,11.974191109894555
5.365955250046682,-7.728152661323548,-4.639421219229699,3.723756603598595,9.752688657442375
5.37598325003637,-7.461329008340836,0.5838146620988847,2.028478631973267,7.754159895872808
5.386011250026058,-5.497760902047157,4.344329202175141,1.426342889070511,7.150735989403614
5.396039250015747,-3.1777640712261204,6.321627740263939,2.5564687567949296,7.523077447648587
5.406067250005435,-0.3550686621665955,7.219544302225113,1.7876183706521989,7.446037410981568
5.416095250053331,3.071236280500889,6.146741028428078,0.41654044032096865,6.883925006829228
5.42612325004302,6.168319008350372,4.535362415313721,0.05208584586158395,7.656395010862224
5.436151250032708,7.28312283217907,3.1303431522846226,0.8990667092800141,7.978173186099617
5.4461792500223964,5.435944138169289,1.8273221343755723,1.67909814119339,5.975614229837386
5.456207250012085,1.7836241376399995,0.6227378225326539,2.2327850246429444,2.924798527463821
5.466235250001773,-0.2866544848680496,-0.05935567080974579,-0.5940677547454835,0.6622766692105209
5.476263250049669,-0.4407853353023529,-0.15375604391098024,-1.6995598876476288,1.7625085658111235
5.486291250039358,-0.38667695581913,0.019736106991767883,-0.963995361328125,1.0388434139671303
5.496319250029046,-0.9797103381156922,-0.09741987526416779,0.7812488222122193,1.256850309669067
5.5063472500187345,-2.3153950721025467,-0.7481453955173493,3.566802717447281,4.317737543892621
5.516375250008423,-3.156459740996361,-1.1831361401081086,2.2297760474681856,4.041651944987788
5.526403249998111,-2.757399551868439,-0.9227368229627609,0.22719005584716798,2.916558049237408
5.536431250046007,-1.3860772079229355,-0.21603064477443695,-0.6125554811954499,1.5307199232216482
5.546459250035696,1.1968332427740098,0.674126662015915,-1.2344185602664948,1.8467933694325627
5.556487250025384,4.017569834589958,1.4881467890739442,-0.4149710476398468,4.3043755890974
5.5665152500150725,3.5839058232307437,1.8972694516181947,0.557100487947464,4.093210631704914
5.576543250004761,-0.06037016272544861,1.3092518109083175,0.6561534905433655,1.465715615003964
5.586571250052657,-2.8685323172807693,0.7669143730401993,1.3913671839237214,3.2791062732640506
5.596599250042345,-3.085713694095612,0.6715883857011795,2.4852104938030246,4.018573274216432
5.606627250032034,-2.1175843513011934,0.5478004914522171,2.506987863779068,3.327046289495612
5.616655250021722,-0.7128720670938492,-0.15296550035476686,2.418002597093582,2.525533921350642
5.626683250011411,1.5057346290349962,-1.3919864040613175,2.736471197605133,3.419522998531986
5.636711250001099,3.0043537813425067,-2.694470062851906,2.3731953835487367,4.68170555370254
5.646739250048995,3.11747284591198,-3.6988205677270893,2.0081303215026858,5.237604216183002
5.656767250038683,2.4492425161600115,-3.7388780879974366,0.9189916813373566,4.563172577301942
5.666795250028372,2.1353072619438174,-1.9901612430810929,0.5700555789470673,2.974095196771744
5.67682325001806,2.024808919429779,0.9297552359104156,0.5236882551759482,2.2887868724532767
5.686852250015363,0.8934878808259964,3.2651852077245715,0.12302892565727234,3.387460870692777
5.696879249997437,-0.8212057703733444,3.406601872444153,-0.032605243921279906,3.504337075192062
5.7069082500529476,-1.442558387517929,2.258057860136032,-0.7319580367952585,2.7776901498816624
5.716936250042636,-1.4052110517024994,0.7118254154920578,-0.5918961719423533,1.6827520911671145
5.726964250032324,-0.21224398791790008,-0.32010815978050233,-0.8905473160743714,0.9698408459807308
5.736992250022013,1.4450352680683136,-0.7043643683195114,-1.5294772481918335,2.2189089080121946
5.747020250011701,2.867176932692528,-0.7923988777399064,-0.17416516542434693,2.9797538572262785
5.7570482500013895,3.1862770324945453,0.14979923307895662,0.139340318441391,3.1928383708507133
5.767076250049286,2.1270890003442764,2.060246846973896,-0.6487040647119284,3.031491654190272
5.777104250038974,0.09116393923759461,3.600418360233307,-0.036543928384780884,3.601757722449444
5.787132250028662,-1.1573481649160386,4.100997030436993,0.4146167063713074,4.281301020915225
5.797160250018351,-1.052608160376549,2.801652449369431,0.6374692976474762,3.0600012241488073
5.807188250008039,0.10032886505126953,0.9439376574754715,0.746323403120041,1.207510995563782
5.817216249997728,2.002861980199814,-0.3671943256258965,0.33743821062147616,2.064013645906732
5.827244250045624,3.9263649648427967,-1.2022951269149782,-0.7328351191431284,4.171199194619936
5.837272250035312,4.257412680387497,-1.5861084088683128,-1.1863533512502908,4.69560825557561
5.847300250025,4.190969014763832,-0.9760955893993378,-1.307099450826645,4.497276159711196
5.857328250014689,3.6147247427701954,-0.8676379251480103,-1.8294756639003755,4.143188595750129
5.867356250004377,1.661552985906601,0.2717820918560028,-3.0583393692970278,3.49114072019747
5.877384250052273,-0.1995245397090912,0.09788648307323457,-3.5076347422599796,3.514668304495291
5.887412250041962,-1.401437258720398,-0.2522529762983322,-2.0663311672210694,2.5094585963530656
5.89744025003165,-1.0551581311225893,-0.03414130747318268,-1.0143597686290742,1.464052612020252
5.9074682500213385,0.3295660310983658,0.051158459186553956,-1.7116390657424927,1.743828904501845
5.917496250011027,1.183429085612297,-0.4526721400022507,-1.0129880118370056,1.6222087347603773
5.927524250000715,1.9073553138971329,-1.1768000972270967,-1.114210331439972,2.502863844673319
5.937552250048611,2.983911915421486,-1.7442507416009905,-1.0189474940299987,3.6033865965449703
5.9475802500383,4.1300690943002705,-2.184437906742096,-3.240347989797592,5.685867988890645
5.957608250027988,4.071865909695625,-3.1775588339567187,-3.2192980134487152,6.086119603589188
5.9676362500176765,3.7708933478593827,-4.519359170794488,-1.9170546752214432,6.190261915570518
5.977664250007365,4.6051109272241595,-5.761570900082589,-1.9350412952899934,7.625426591555087
5.987692249997053,6.005585734248162,-7.269347376823426,-2.3053092098236085,9.70695224306951
5.997720250044949,7.107791147232056,-9.437333557605744,-3.0818457609415058,12.209903069411116
6.007748250034638,7.811139854192734,-12.593705005645752,-3.744804825782776,15.285250235903595
6.017776250024326,8.425358868241311,-16.554599533081056,-3.9092495799064637,18.9821934991017
6.0278042500140145,9.38993544280529,-21.45718814134598,-3.9750833809375763,23.756748482032965
6.037832250003703,9.705493884086609,-24.69797701120377,-1.4884227776527406,26.578225718528092
6.047860250051599,12.114526852369309,-25.648961148262025,-0.6930354610830546,28.374482673559893
6.057888250041287,18.100385835170748,-28.329444086551668,-1.5135424160957338,33.652224001994696
6.067916250030976,24.381067278385164,-28.690619580745697,0.6426535852253438,37.656355335996274
6.077944250020664,29.867032592296603,-23.280637664794924,1.9385450930893422,37.91814450928099
6.087972250010353,31.65162619829178,-14.454541625976564,2.643079469203949,34.89620443105535
6.098000250000041,27.96488656282425,-4.895549730062485,3.8209823513031007,28.64613750159196
6.108028250047937,21.563548994064334,2.3368683868646625,3.868914316892624,22.032160517488908
6.118056250037625,20.264842636585236,9.358274524211884,-4.178512691259384,22.709053645343563
6.128084250027314,19.661763153076173,13.947854661941529,-3.600012563467026,24.373913727906487
6.138112250017002,14.702041400671005,16.72669478416443,-4.555387667119503,22.730681831994882
6.148140250006691,8.50799873650074,16.695526785850525,-7.928799866437912,20.346806247649198
6.158168249996379,-0.7955929192900658,10.52255105495453,-5.031496324539185,11.690722991380838
6.168195333331823,-10.134091283082963,2.6428572750091552,2.6060619163513183,10.792407489609703
6.178223333379719,-16.223415577411654,-0.47430625319480896,6.320208621025086,17.41749742163043
6.188251333369408,-20.574766116142275,-0.7302184170484544,8.702085950374604,22.351297939007033
6.198279333359096,-19.1791246175766,-0.1298380082845688,8.498870648145676,20.978238279198763
6.208307333348785,-12.18872451066971,-0.1484672373533249,4.052444382905961,12.84559664609293
6.218335333338473,-8.263779249787332,-2.3093701010942462,1.2071275582909584,8.664894384528251
6.228363333386369,-8.840058605074884,-4.221610178947449,1.2442686335742474,9.875061168248426
6.2383913333760574,-11.530035667419433,-5.276087109446526,0.29296202257275583,12.683242662075894
6.248419333365746,-15.354375489950181,-5.318985207080841,0.7801741039752961,16.268285771772064
6.258447333355434,-17.61024649143219,-6.625577704310418,3.054660301208496,19.06174207570321
6.268475333345123,-17.846153576374054,-8.154728093147279,4.460153188705444,20.121574347237672
6.278503333334811,-15.970001928806306,-4.509072164297104,2.7071883416175844,16.81373135582659
6.288531333382707,-12.447073209285737,2.98625723361969,1.9842245650291443,12.953166055722816
6.2985593333723955,-11.847695013284683,7.997067863345147,1.9163302052021027,14.421972576389416
6.308587333362084,-13.463071367740632,11.087581536769868,2.514561177492142,17.62134424221797
6.318615333351772,-15.03604956150055,13.160234713554383,3.5137953686714174,20.28845292339067
6.328643333341461,-17.172063167095185,12.750604512691499,5.080179072618485,21.98330931101245
6.338671333331149,-19.542727875709534,11.933529800176622,6.873970348834992,23.90771454305912
6.348699333379045,-21.049971671104434,12.260612518787385,6.703174349069596,25.26571734671647
6.3587273333687335,-21.857175114154817,13.942421429157259,4.260897620916367,26.273227205940707
6.368755333358422,-22.257084903717043,15.98284007549286,0.7930365166068077,27.412732665801883
6.37878333334811,-21.495559909343722,16.019307990074157,-1.8406508624553681,26.871273134976256
6.388812333345413,-18.626393169164658,14.875496714115144,-2.446217459142208,23.962614732982843
6.398839333385695,-14.488986403942109,13.156059801578522,-1.1935487155616284,19.60707002723121
6.408868333382998,-10.967928793430328,11.18424185872078,1.370560451745987,15.724540181639979
6.418896333372686,-8.384199147820473,9.546327996253968,3.110657916069031,13.080648540236021
6.4289243333623745,-7.349514457583428,8.274311839342118,3.1359693431854248,11.502778051336286
6.438952333352063,-7.976980338692665,7.458074448108674,2.62344802737236,11.231098314490207
6.448980333341751,-8.34142618060112,8.546516100168228,-5.359499394893646,13.08994125046854
6.45900833333144,0.38341011643409734,13.739686768054963,-9.648853075504304,16.793640506879903
6.469036333379336,23.50218164920807,9.414960941076279,28.684854226112368,38.259833948511606
6.479064333369024,37.494147706031804,-3.5430507427453994,17.235725312232972,41.41780471978382
6.4890923333587125,37.96649280309677,-16.066523087024688,-21.052132802009584,46.29017212526806
6.499120333348401,11.76858101606369,-17.937753717899323,2.2226149624586107,21.568554074091537
6.509148333338089,6.7244003266096115,-21.054464671611786,12.540899970531465,25.41224536383065
6.519176333385985,5.9741850167512895,-24.159860093593597,7.843993604779244,26.094404803103092
6.529204333375674,3.7711155420541767,-15.857763454914094,-8.787755261063577,18.517953902952726
6.539232333365362,9.998855710029602,-8.512632070183754,-0.26097665660083297,13.134311138678079
6.5492603333550505,4.689255868792534,-5.582144994735718,-3.223407436609268,7.971186790412466
6.559288333344739,-6.373420037627221,-7.15714749455452,-4.281260549426079,10.496401055929041
6.569316333334427,-10.330969372987747,-7.577554698586464,-1.2784435625374317,12.875662365030937
6.579344333382323,-10.11931186079979,-7.661177483797074,1.2009221275895834,12.748973563816692
6.589372333372012,-8.43565230667591,-9.3905494004488,1.2986597259342672,12.689726749034417
6.5994003333617,-4.41123479783535,-12.340004843473436,2.091724455356598,13.270645168028501
6.609428333351389,1.359137915968895,-15.376872067451478,2.2321757447719577,15.597373465072316
6.619456333341077,6.029603172540665,-17.46872516155243,0.2002647241204977,18.481141175476544
6.629484333330765,4.894593125581742,-15.818353221416475,0.5164868974685669,16.566354433542273
6.639512333378661,0.8820179826021195,-10.108386923074724,2.4038137435913085,10.427644145352298
6.64954033336835,0.03640827298164368,-5.244961795806885,2.084982615709305,5.644298212322353
6.659568333358038,0.9326285576820375,-2.7991866785287858,0.9909106796979905,3.112418041169378
6.669596333347727,1.8392954778671267,-2.245330810546875,0.6658622074127197,2.9779003984274035
6.679624333337415,2.4852110785245896,-3.419455221891403,1.2082399910688402,4.39645220551296
6.689652333385311,2.251509563326836,-4.928974753618241,1.5106918984651567,5.625502417353179
6.6996803333749995,1.4479682314395905,-5.372662062048913,1.2453236174583435,5.70201197336848
6.709708333364688,0.45912103414535527,-4.302260239720344,1.0811916893720628,4.459732140324178
6.719736333354376,-0.5620133185386658,-2.3025136560201647,0.7241700571775437,2.478275686457565
6.729764333344065,-1.2006228232383729,-0.06075315535068512,-0.049309569597244265,1.203169789855036
6.739792333333753,-1.45019602060318,1.9464784491062166,-0.38981051523238425,2.458413937642312
6.749820333381649,-1.476768692135811,3.5318270123004916,0.08428057869896294,3.829066600469854
6.7598483333713375,-1.5031723791360856,4.7340847170352935,0.47879051942378287,4.990022612268893
6.769876333361026,-1.5491961058974266,5.598878556489945,0.7121762484312057,5.852746763160032
6.779904333350714,-1.4753998589515687,6.274153026938439,0.6046657600253821,6.473594181795933
6.789932333340403,-1.1237947949767113,6.754108275175095,-0.02252466240897775,6.846999393487784
6.799960333330091,-0.24924750745296478,6.783277695178986,-0.25132856804877524,6.792506655057594
6.809988333377987,0.6151069137454033,6.465843467116356,-0.2946452897787094,6.501715473886675
6.8200163333676755,1.301856837272644,5.942045211195946,-0.25135137218981984,6.088177890711794
6.830044333357364,1.7390195301175118,5.4272563451528555,0.13521971248090267,5.700665288611101
6.840072333347052,1.824794675409794,5.018079888224602,0.2682655032724142,5.3463041208160025
6.850100333336741,1.614322393834591,4.818758246898652,0.12634426038712263,5.083545092297538
6.860128333384637,1.3297448399662972,4.583820045590401,0.2797033149003983,4.7809895936029445
6.870156333374325,1.0447588580846787,4.395870069265365,0.5907190543413162,4.556769002107896
6.880184333364014,0.8032130107283593,4.121158522367478,0.752972856760025,4.26568480201043
6.890212333353702,0.41600074231624606,3.8487852770090103,0.41134632211178546,3.8929950581581636
6.90024033334339,0.0966228997707367,3.520992121696472,-0.24515164252370597,3.530838545394111
6.910268333333079,0.015789236426353454,3.0495603597164154,-0.945303055420518,3.1927520345507583
6.920296333380975,0.42299942091107373,2.433059762120247,-1.3149733114242554,2.797831861620317
6.930324333370663,1.1477084451913835,1.6065628463029862,-2.3813633590936663,3.0934075551596245
6.940352333360352,1.4971593949198723,0.9581171554327012,-2.0961695086956027,2.7483452014833314
6.95038033335004,2.028402471989393,-0.004955515265464783,-2.560733131170273,3.266771390008388
6.960408333339728,1.9655532360076906,-0.5175317949056626,-3.911631150841713,4.408185220989909
6.970436333329417,2.5726257830858232,-1.528705415725708,-2.679003592729569,4.01651639081991
6.980464333377313,2.9795671418309215,-2.3533546113967896,-1.397970444560051,4.046037523741524
6.990492333367001,2.897886216938496,-2.4872213512659074,0.24959256626665594,3.8270499115703585
7.000521333364304,2.5350059670209886,-2.053527519106865,1.2598942941427231,3.4972223488040624
7.010548333346378,1.8650998252630235,-1.148598976135254,1.626267963051796,2.7281173827062046
7.020577333343681,1.0106090721488,-0.3999974977970123,1.4886999356746675,1.8432461022422069
7.030605333333369,-0.01025777041912079,-0.07867721021175385,0.9741139680147172,0.9773399346911255
7.040633333381265,-1.320754745900631,0.1307794100046158,-0.004387750625610352,1.327221008444241
7.050661333370954,-2.5833738425374033,0.25218924164772033,-0.707506150379777,2.6903503074385187
7.060689333360642,-2.846999945640564,-0.037844349145889286,-0.45565604723989966,2.883481111196316
7.070717333350331,-2.404909219443798,-0.47396828413009645,-0.048171701431274416,2.4516432858280566
7.080745333340019,-2.1917600825428964,-0.7657665646076203,-0.14050866521894934,2.325930647268102
7.090773333329707,-2.125938560664654,-0.714846671819687,-0.7477771671116352,2.36427393074197
7.100801333377603,-1.8782010966539384,-0.4030123221874237,-2.016307067871094,2.784879258290004
7.110829333367292,-1.1158648011088372,0.1500313675403595,-2.1640363866090775,2.439409180143374
7.12085733335698,-0.6274115020036698,0.5959745317697526,-1.3683262306451798,1.6189958334833114
7.130885333346669,-0.4237021100521088,0.8220927929878236,-1.2258997517824173,1.5356400098217426
7.140913333336357,-0.21788947463035585,0.9522927439212799,-1.0566526794433595,1.4390455789357903
7.150941333384253,-0.07013647466897965,1.040457646250725,-0.6560330379009247,1.2320107895380248
7.1609693333739415,-0.13724993884563447,0.9706477385759354,-0.5338357324898243,1.116232577646189
7.1709977083373815,-0.48989756137132645,0.5816441756486893,-1.1350761935859919,1.366275057574162
7.1810257083852775,-0.7215534281730652,0.14414965331554414,-1.0862221220880748,1.3119820771538058
7.191053708374966,-0.7070128646492958,0.0020488643646240237,0.07628336012363435,0.7111192162053703
7.201081708364654,-0.3994183310866356,0.3336649292707443,1.269084947705269,1.3716573525211644
7.211109708354343,0.24041645765304567,0.8561785519123077,1.9239573132991792,2.1195408769973016
7.221137708344031,0.8767920336127282,1.3564832800626756,2.038697226047516,2.6009801111869684
7.2311657083337195,1.1409639742970468,1.8506852692365647,1.5870074182748795,2.6917331409470044
7.241193708381616,1.2872180405259133,2.233132349252701,0.6310654270648957,2.6536868591397247
7.251221708371304,1.665608029961586,2.4459943878650665,-0.8779857426881791,3.0867454736831847
7.261249708360992,2.0638104325532916,2.693511704206467,-2.701413631439209,4.337274998237788
7.271277708350681,2.33444413125515,2.7880214202404026,-3.583217605948448,5.105109328236747
7.281305708340369,2.1113608673214914,2.628494759202004,-2.732309149503708,4.33962471875975
7.291333708330058,1.458925621211529,2.2410968416929244,-1.2474332928657532,2.950774278426485
7.301361708377954,0.6709343746304512,1.6945938473939897,-0.36431665498763327,1.8586360234827304
7.311389708367642,-0.4305094385147095,0.9899254238605499,0.00856313768774271,1.0795202864155908
7.32141770835733,-1.5841545617580415,0.45716163218021394,-0.4845886550098658,1.7185367607475728
7.331445708347019,-2.808651566505432,0.3099690878391266,-1.4165137195587159,3.160872597107847
7.341473708336707,-4.401005094051361,0.49896513104438783,-1.4686837470531464,4.66635232153791
7.351501708384603,-5.559240866303444,1.0378492033481599,-1.0202607786655427,5.746583509786654
7.361529708374292,-5.72593445956707,1.9386168676614763,-0.28769700687378646,6.052051748176264
7.37155770836398,-5.357165186405182,2.824441387653351,0.1178904290869832,6.057275471694446
7.3815857083536685,-5.041732460260391,2.8325637549161913,1.3999877339601516,5.949995737960414
7.391613708343357,-5.324930071234704,2.783251846432686,2.477734828591347,6.499272342733852
7.401641708333045,-5.97965040922165,2.72268580198288,2.1530810433626177,6.914115631959829
7.411669708380941,-5.948843768835068,1.9669279164075852,1.8609594118595125,6.536108746566247
7.42169770837063,-4.61554586827755,0.3667040365934372,1.630822944045067,4.9089020144480076
7.431725708360318,-2.6220616525411606,-2.82162829220295,1.6586901891231538,4.193810519394077
7.4417537083500065,0.33790416061878203,-8.689232016205787,2.2422680389881133,8.980239318185612
7.451781708339695,4.879158815145493,-18.397169451713562,3.1347063446044925,19.289593527220273
7.461809708329383,12.488740468025208,-33.50149344205857,3.4187377685308458,35.91666005151318
7.471837708377279,18.877298362255097,-48.808991804122925,0.44231145858764653,52.33417347984905
7.481865708366968,11.643637712001802,-44.77080176353455,-2.6263763129711153,46.334618183981995
7.491893708356656,2.903512700200081,-29.9251726269722,-5.858646374344826,30.631194558716334
7.5019217083463445,-0.44910124540328983,-16.744722919464113,-4.439543507695198,17.32907914849973
7.511949708336033,-1.3147417616844177,-10.638978474140167,-0.6037437272071838,10.736895052168336
7.521977708383929,-1.8790518665313722,-7.010362501144409,1.6513355612754823,7.443314278632855
7.532005708373617,-3.145911363959313,-4.349515682458878,3.046839065551758,6.17237987110453
7.542033708363306,-5.482757531404496,-1.3414845871925354,2.734711185693741,6.272069540032725
7.552061708352994,-8.4264476197958,3.0619289749860763,-1.5452635610103609,9.097706744559751
7.562090708350297,-8.244613831043244,7.697607976198197,-4.069245772361755,11.99106279418733
7.5721187083399855,-5.640604872107506,9.453874161243439,-2.01947625875473,11.19242799126013
7.582146708329674,-3.8759564110636715,9.546451372504235,2.3085462284088134,10.558747918041899
7.59217470837757,-2.3488031387329102,10.024164798259736,6.251133123636246,12.04480889913217
7.602202708367258,-0.07291419446468354,11.677343401908875,7.428572906255723,13.840135867447826
7.612230708356947,2.302654866278172,13.727040410041809,6.110659614801407,15.201118997629097
7.622258708346635,4.739881938993931,14.460255525112153,4.6765878760814665,15.919671630088654
7.6322867083363235,5.479264404773712,14.264435781240463,3.0489768075942996,15.581807537888581
7.64231470838422,5.293429366350174,14.440462700128556,0.11188530206680299,15.380503105268081
7.652342708373908,5.657852404117585,15.249096372127534,-3.4931932890415194,16.635763683937597
7.662370708363596,5.303511135578156,16.12810947060585,-8.43313449561596,18.956816791914076
7.672398708353285,2.939147971272469,16.359372696876527,-12.507864371538163,20.801786869621033
7.682426708342973,-0.6796961349248887,15.236557602882385,-12.342583465576173,19.620245692307197
7.6924547083326615,-3.213835544586182,13.215620709657669,-7.269231601953507,15.421514119308059
7.702482708380558,-3.319565482735634,11.441287797689439,-0.7878444814682007,11.939149064766175
7.712510708370246,-2.703316607773304,10.380823903083801,3.1794761359691623,11.188319538156584
7.722538708359934,-2.930007019042969,9.739372651576996,5.802307866811753,11.709273989415081
7.732566708349623,-4.0282129365205765,9.300612791776658,8.345601092576981,13.129240471593679
7.742594708339311,-4.995882103443146,9.234499493837356,9.44220896601677,14.1205569667458
7.752622708387207,-5.546542468070984,8.901652005314828,8.849190201759338,13.722671350752153
7.762650708376896,-5.4804630839824675,8.548315288424492,7.004709997773171,12.335928503283
7.772678708366584,-4.901900975704193,8.281586945056915,4.312847793102264,10.545803506163669
7.782706708356272,-4.3648000118136405,8.288397781848907,0.5515859788656235,9.383670072278084
7.792734708345961,-6.1960769104957585,8.48934670329094,-10.890494116544724,15.134835269402526
7.802762708335649,-6.695796332359314,8.89247889339924,-8.5069175863266,14.009907787510244
7.812790708383545,-5.779724750518799,9.542981050014497,-1.5806146574020385,11.268187441105582
7.822818708373234,-4.843270359635353,10.38681846857071,0.863942484855652,11.493026681109834
7.832846708362922,-3.9174172630906106,10.87613920211792,0.6240569543838501,11.576960267674819
7.8428747083526105,-2.7352105379104614,10.92721580028534,-0.3991566681861878,11.27141286079343
7.852902708342299,-1.4595967353880406,10.791118347644806,-0.7916112577915192,10.918118253906854
7.862930708331987,-0.3409167923033238,10.442018523216248,-0.08700423002243042,10.447944526772117
7.872958708379883,0.36232936911284924,9.97170124053955,1.1068100953102111,10.039478910251285
7.882986708369572,0.48436887279152874,9.53933589577675,1.366676146388054,9.648903887307108
7.89301470835926,0.45039157971739774,9.220639253854753,0.14905311922542752,9.232835840474923
7.9030427083489485,0.12312620870769024,8.868501216173172,-1.169639596939087,8.946146135139063
7.913070708338637,-0.35913313485682014,8.651076010465623,-1.0182534295320511,8.718195501028848
7.923098708386533,-0.5712142778187991,8.660847877264024,0.11043870091438295,8.680366836197216
7.933126708376221,-0.5019733042269945,8.684629672765732,1.07269568502903,8.765012594624123
7.94315470836591,-0.37496790647506717,8.687388389110566,1.699617190361023,8.860023507187217
7.953182708355598,-0.38044857479631905,8.685019097328187,1.969590153694153,8.913673945828892
7.9632107083452865,-0.5549859154969454,8.670165415406228,1.094559009075165,8.75658821238351
7.973238708334975,-1.6811053441464903,7.806681936979294,-8.707664194107057,11.814982596712142
7.983266708382871,-3.5291776388883593,4.66215227007866,-18.050919560194018,18.974363113549405
7.993294708372559,-0.16005115628242494,5.26588781118393,9.589716675281526,10.941565551820059
8.003322708362248,1.1314523085951806,5.104049745798111,6.705985690355301,8.503043702901754
8.013350708351936,7.991859748363495,0.292408145070076,14.7709847509861,16.796943628966545
8.023378708341625,47.219498734474186,-39.464163537025456,29.031610486507418,68.04363064866826
8.033406708331313,73.89754644870759,-112.23576078414918,9.298007857203483,134.70028329609508
8.043434708379209,58.42847548484802,-114.37790928840637,-2.2348454372584823,128.45694770933505
8.053462708368897,19.127507736682894,-61.54512094974518,-5.160220438241959,64.65517256884307
8.063490708358586,-9.502254023551941,-24.349772980213167,-36.521203765869146,44.911052094380544
8.073518708348274,-24.690197875499727,-13.739685598611832,-69.78575165748596,75.28901623663532
8.083546708337963,-1.0232644933462143,-9.596323444247247,-8.829609630703926,13.080462533892751
8.093575708335266,-2.0422543796896937,0.058724171519279486,-2.8344284319877624,3.4940286226278925
8.103603708383162,-8.393834774494172,7.3646973377466205,12.459861069917679,16.731508209954352
8.11363170837285,1.927232631146908,-10.518777261972428,18.78316052913666,21.614023692150955
8.123659708362538,11.689965201616287,-20.188152894973754,17.40576351284981,29.10631215374237
8.133687708352227,9.545537452697754,-21.996448774337768,11.659650896787644,26.662867493536435
8.143715708341915,1.9552788010239601,-18.792875093221664,4.191312246322632,19.353613817717324
8.153743708331604,-2.7241087219119073,-11.919083669185639,-3.6378574973344806,12.756148753160454
8.1637717083795,-4.206615871489048,-7.249559814333916,-11.39797045469284,14.14798448818487
8.173799458367284,-3.6663369458913806,-5.7958484476804735,-7.414516199827195,10.099947341782936
8.183827458356973,-3.0530146023631097,-3.5153185683488846,1.0848666644096374,4.780721543738782
8.193855458346661,-1.6213694581389428,-1.734238554239273,5.401681208610535,5.9003883060568025
8.20388345833635,-0.4476236540079117,-1.1873566603660584,7.929215018749238,8.030107943739083
8.213911458384246,0.8085961036384106,0.087804713845253,9.403956481218339,9.439064298289374
8.223939458373934,1.5152167662978173,2.559222795367241,9.229487260580063,9.696851976719405
8.233967458363622,2.1772845692932608,5.710996577739716,7.47608971953392,9.656498718539659
8.24399545835331,2.4194572381675243,9.611569474339486,4.5470287799835205,10.904655510990445
8.254023458343,4.222018314599991,14.5972663128376,0.2879215582273901,15.198306526728999
8.264051458332688,8.384434790611268,18.838662300109863,-3.5234105300903322,20.919090940553435
8.274079458380584,11.940919511318208,19.91899386405945,-5.069174612760544,23.77074686640859
8.284107458370272,13.233011498451233,18.283373279571535,-5.800647257566452,23.303258149988515
8.29413545835996,12.177827639579773,15.460065082311631,-7.200460159778595,20.956138119443267
8.304163458349649,8.227719470858574,12.704941266775132,-5.670328023433686,16.16364810853937
8.314191458339337,4.174958753585815,10.290959215164184,-2.0633830010890963,11.295648346664255
8.324219458387233,1.4252469746768475,8.927904249429703,1.0767074596881867,9.104839492245794
8.334247458376922,-0.27884172767400744,9.329913189411164,1.4296091437339784,9.442924077577263
8.34427545836661,-1.5803736059367657,9.962343356609345,0.6313232892751695,10.106653006059977
8.354303458356299,-1.8447425977885723,8.571329929232597,0.4409864795207977,8.778681056000062
8.364331458345987,-1.759169035255909,6.736246200799942,1.7563644182682039,7.180285825937117
8.374359458335675,-2.3557930465042594,6.139454813003541,3.173075773715973,7.301443428844284
8.384387458383571,-4.136356020569801,5.854853285551071,2.7720631992816926,7.685901541461747
8.39441545837326,-5.901743862032891,3.3749789607524874,2.8379238975048064,7.36714840671706
8.404443458362948,-1.7859220933914186,0.5774587386846542,3.6975388580560686,4.1466576812393665
8.414471458352637,4.4962027350068094,-4.97303235411644,3.198519932627678,7.4281504823736695
8.424499458342325,10.996472561359406,-14.687763669490815,3.795420078635216,18.73654247658441
8.434527458332013,18.817799434661865,-26.86100007534027,1.618653718829155,32.83660975910988
8.44455545837991,26.980171008110048,-29.37970458984375,-14.247074228525163,42.356531886905636
8.454583458369598,9.227975755333901,-14.65277626991272,-18.68330528855324,25.474011962437896
8.464611458359286,-2.922776936888695,-4.799646037817001,-9.974583917856217,11.448648454970428
8.474639458348975,-4.697094353735447,-2.1464321744441985,-3.2082830286026,6.0797159834158485
8.484667458338663,-8.156199837327003,-0.5305184608697892,1.4458877921104432,8.300339579264858
8.494695458386559,-11.3422909283638,1.204118288755417,3.8043633949756623,12.02375337396729
8.504723458376247,-11.692473657131195,3.789406217336655,1.8686426532268525,12.432431985261585
8.514751458365936,-9.891199114322664,4.69603922367096,0.12309967696666718,10.950057435461373
8.524779458355624,-7.834464397430421,3.1718928819894794,-0.43496384739875793,8.463387643134649
8.534807458345313,-4.814769568741322,2.689767732024193,-0.05301200827583671,5.515402680252595
8.544835458335001,-1.7581457725167275,2.4271944200992586,0.3144012773036957,3.0135025258906976
8.554863458382897,0.8786736676096917,2.1559783387184144,0.3439706468582153,2.353428523893118
8.564891458372585,3.05475210249424,1.8124047178030014,0.3050153450109065,3.565018321060872
8.574919458362274,3.7208499526977543,1.8932372117042542,0.18125082135200501,4.178746626742683
8.584948458359577,2.557939039170742,2.050487551689148,0.20172307452186944,3.2845461675154533
8.594976458349265,0.6922135618329048,2.0118392103910447,0.7240946280956269,2.2474362402722803
8.605004458338954,-1.3233400923013687,1.6439844417572023,1.6062359869480134,2.6521515587158278
8.61503245838685,-2.8375648784637453,0.9287208634614945,2.518178265094757,3.9058313656013457
8.625060458376538,-3.822078704237938,0.3171465450525284,2.526588900089264,4.592659253905322
8.635088458366226,-4.445760559737683,-0.11477148771286011,1.1939722001552582,4.604728989164783
8.645116458355915,-4.135954901576042,-1.2564900451898575,-0.6498700726032257,4.37118076642884
8.655144458345603,-2.6847847348451617,-2.6728470593690874,-2.7629450511932374,4.688928004474881
8.665172458335292,-0.8868352112174035,-3.233320806026459,-3.8603463917970657,5.113033775675575
8.675200458383188,0.554220441877842,-2.759522091150284,-2.9554149252176285,4.081249790191826
8.685228458372876,1.377856607437134,-2.1321678918600084,-1.6037234383821488,3.0027583346904865
8.695256458362564,1.906110441684723,-1.4905774766206743,-0.9547006273269654,2.6012557578075417
8.705284458352253,2.3675832259655,-0.6500612765550614,-0.9052822995185853,2.616785439613125
8.715312458341941,2.530991561114788,0.2878981876373291,-1.333269249200821,2.8751366123618634
8.72534045833163,2.1289817440509795,1.0675127130746842,-2.0225665122270584,3.1245674829423593
8.735368458379526,1.167624061703682,1.6985442262887955,-2.685571185350418,3.385364238854197
8.745396458369214,-0.05894051849842072,1.9972737962007523,-2.654490310549736,3.3224833198247152
8.755424458358902,-0.9800769585371018,2.1933052092790604,-2.366793851852417,3.3723658939789436
8.76545245834859,-1.5334635874629021,2.503369022011757,-1.6954539728164675,3.3901225948897244
8.77548045833828,-1.9027471232414246,3.0054401940107347,-0.7697742462158204,3.639460092502174
8.785508458386175,-1.7533361452817917,3.7032416474819185,-0.05993980765342713,4.097777338818904
8.795536458375864,-1.0117469403147699,4.197927786111832,1.3126952362060547,4.513246985464472
8.805564458365552,-0.5682505434751511,3.9463191729784013,3.202559773921967,5.1139742667244485
8.81559245835524,-1.008406426012516,2.7541093236207965,3.0433611416816713,4.226588307982729
8.825620458344929,-1.013556653559208,3.836811933517456,-1.0105754506587983,4.095080663995562
8.835648458334617,-1.915153453052044,4.183878681063653,-0.6758504211902618,4.650744817598484
8.845676458382513,-1.5183745551109316,3.5349330532550813,1.195048087835312,4.0285671041751865
8.855704458372202,0.03297478795051575,2.778974023461342,2.3968859624862673,3.6699926807661374
8.86573245836189,1.9994396048784258,1.421363400220871,3.344416733980179,4.147668735515227
8.875760458351579,5.415813928842545,0.6128425794839859,1.1225274109840393,5.56477172285477
8.885788458341267,7.25043514251709,-0.061502768397331244,0.11408855119720102,7.2515935175574775
8.895816458330955,2.894636042118073,-1.574117816090584,2.411023360490799,4.082866439169314
8.905844458378851,-1.6109260386228563,-2.755253039002419,-0.6731197714805603,3.26183878166951
8.91587245836854,-3.124138671755791,-2.980160341858864,-2.1595989346504214,4.827573475576691
8.925900458358228,-3.6962507164478304,-2.7511190575361253,2.1313334941864013,5.076761555462338
8.935928458347917,-1.476535972952843,-1.2905395513772966,2.3214393389225005,3.0388700889294116
8.945956458337605,2.4558305740356445,0.0934244728088379,0.31677056908607487,2.477937758283482
8.955984458385501,4.179081625342369,0.3867137932777405,0.993603322505951,4.31294775666021
8.96601245837519,3.4830413532257083,0.3750474286079407,0.9126568078994751,3.620107745770982
8.976040458364878,0.8097060513496399,0.28904190301895144,2.3139385306835174,2.468497647370732
8.986068458354566,-0.4308895075321198,1.1467132490873337,0.5355733788013458,1.3369576984386575
8.996096458344255,-0.861386666893959,2.064167697429657,-0.6069105426594615,2.3175667584356527
9.006124458333943,-0.8171150583028793,2.345982441902161,-0.6498408365249634,2.567801345321325
9.016152458381839,0.08228318810462952,2.080434651374817,-1.6560098254680635,2.6603284390714776
9.026180458371527,-0.09277601659297943,1.1587111508846284,-2.1915106987953186,2.480713216672493
9.036208458361216,-1.0768015998601914,0.0029873424768447876,-2.98006854057312,3.1686462592391327
9.046236458350904,-3.2038099086284637,-0.7865458148717881,0.3900455733016133,3.321925315050059
9.056264458340593,-3.0244629406929016,0.23660816609859467,1.650770720243454,3.453752086456465
9.066293458337896,-0.7398066812753678,1.4020471233129501,2.3951832532882693,2.872273120453967
9.076321458385792,2.137356126308441,1.9982719159126283,2.1063448333740236,3.605283680610278
9.08634945837548,4.23517571926117,1.9069775837659837,1.4262142503261568,4.85874098567095
9.096377458365168,4.089650800824166,1.2688995909690857,1.527526617050171,4.546282812412795
9.106405458354857,2.2784120178222658,0.44496141672134404,0.9665600232034922,2.5146352148537825
9.116433458344545,-0.500504702925682,-0.38650504767894744,-0.18335932731628418,0.6584160937020835
9.126461458334234,-2.5147874647378923,-0.4671714806556702,1.2668413710594177,2.854346202647561
9.13648945838213,-2.1534406471252443,0.2993458664417267,1.7908594822883608,2.8167520753074937
9.146517458371818,-0.4249282711744309,0.7243215000629425,2.1530757808685306,2.3110475956283016
9.156545458361506,2.06707902610302,0.9551917934417725,1.0088645553588869,2.490585223089747
9.166573208349291,3.892472748756409,0.6043278640508652,0.11049242220818997,3.9406553823501222
9.17660120833898,4.29437702357769,0.15988217175006866,-0.615600711107254,4.341221091466231
9.186629208386876,4.2514034968614585,0.5990221005678177,-0.8459962105751038,4.375953468491405
9.196657208376564,3.1307846170663836,0.624284411072731,-0.049794961586594584,3.1928079933762596
9.206685208366252,1.5777015745639802,0.2880209791660309,0.5959786248207093,1.7109321623210563
9.21671320835594,1.1903135973215104,0.11735595703125,0.2595660158246756,1.223925405075935
9.22674120834563,1.5006838041543962,0.11404409408569337,0.8095715653896333,1.708936527473902
9.236769208335318,2.063097656965256,-0.06981166183948517,-0.5376690208911896,2.1331510931789173
9.246797208383214,2.7436094784736635,-0.8349110591411592,-0.5327877287194133,2.9169045597894923
9.256825208372902,3.1485075277090075,-1.443442486524582,-0.6427645361423493,3.522750645854294
9.26685320836259,3.281324107646942,-1.6906861531734467,-0.5583926860615611,3.7332706786147285
9.276881208352279,3.231993488073349,-1.7122512692213059,-0.6105183112621307,3.708142247040271
9.286909208341967,3.063392533063889,-1.4961960661411287,-0.6981774294376374,3.4800040521447566
9.296937208331656,2.6149438369274143,-1.272056502699852,-1.2300308096408845,3.157377837543593
9.306965208379552,1.741914194226265,-1.5188008171319962,-1.800402138233185,2.9295850971634843
9.31699320836924,0.7135123372077943,-1.9397828024625778,-3.304555095434189,3.897684127124383
9.327021208358929,0.3355500715970993,-2.1051075625419617,-1.2511743414402008,2.471742084663871
9.337049208348617,1.3378587287664414,-2.1882304108142856,-3.1751024186611176,4.081604301979394
9.347077208338305,2.647847873568535,-2.604294887781143,-4.362032232284546,5.72894191099663
9.357105208386201,3.279241329431534,-3.787511719465256,-3.8150462579727176,6.297082393633594
9.36713320837589,3.8992338842153553,-5.329204385876656,-3.925934609770775,7.682278752457252
9.377161208365578,4.4567553716897965,-7.30668184876442,-3.3064788293838503,9.175133259594265
9.387189208355267,5.391533950567246,-9.808369796276093,-3.5763102900981907,11.750010710279485
9.397217208344955,6.265849395990372,-12.559056744575502,-3.474082834124565,14.458908205845256
9.407245208334643,7.3606446325778965,-15.570515477657318,-2.9618813610076904,17.475490918533552
9.41727320838254,9.505990394353868,-19.443676042556763,-2.2787429702281954,21.762652893197746
9.427301208372228,11.151648309230804,-22.758743262290956,0.4475938332080841,25.347978127084815
9.437329208361916,15.340795916318894,-25.105628514289858,2.6665829372406007,29.54222853822733
9.447357208351605,26.86204087972641,-31.538765580654147,-1.529317034482956,41.45602230276691
9.457385208341293,31.606960487365725,-31.494214475154877,3.400899667739868,44.74876104661431
9.467413208330981,33.72605926752091,-25.33799920320511,5.512704631090164,42.5423458413802
9.477441208378877,31.302743890285495,-15.268760558366777,4.224395792484284,35.083362778689015
9.487469208368566,21.686883144378662,-4.468722283244134,3.097753111124039,22.358140658386077
9.497497208358254,15.38228308081627,2.9231295239925386,-4.07079879283905,16.178093886616654
9.507525208347943,13.813078680038453,9.535126485228538,-9.779346556663514,19.42563766741175
9.517553208337631,13.725080423355104,11.53777971982956,-1.4749835371971132,17.99093577126766
9.527582208334934,11.42526057958603,11.647591599225999,-1.150366881787777,16.35623163618432
9.53761020838283,5.790356158018112,9.960086331367494,-4.190278458595276,12.259281289111506
9.547638208372518,-4.134532274007798,4.858585971593857,-3.1938252031803134,7.13447504702697
9.557666208362207,-12.767409410476684,-0.7404194694757462,0.032977126836776734,12.788903453244213
9.567694208351895,-18.887649103403092,-4.402100862264634,4.68719472527504,19.952232332435408
9.577722208341584,-22.86567246437073,-3.7665178763866427,7.326274698972703,24.304319268924804
9.587750208331272,-18.728450471162798,-1.247760152220726,10.884334659576417,21.697476890872
9.597778208379168,-12.294128758907318,0.08546699702739716,8.105350695848465,14.72581462775028
9.607806208368856,-8.424457812309265,0.11728520572185518,-0.5339630556106567,8.442177550585921
9.617834208358545,-12.218549988269807,-1.4706735545396805,-1.0606160683929922,12.352358113510304
9.627862208348233,-18.418046350479127,-3.2481025671958923,0.518955591917038,18.70946061653847
9.637890208337922,-18.93034898042679,-3.582505415081978,-0.43349268794059753,19.27123175825394
9.647918208385818,-19.38517114162445,-5.146729742288589,4.436448576450348,20.54156184913201
9.657946208375506,-19.99060354471207,-5.869012902975083,2.0879787290096283,20.938700955645253
9.667974208365194,-16.89178273200989,-3.2786519300937655,-0.16454876147210598,17.20781678886189
9.678002208354883,-12.290689426660538,1.7861317160725594,-0.3234970597922802,12.424007543360545
9.688030208344571,-12.169928051233292,5.605623319745064,0.7771956785023213,13.421408074332115
9.69805820833426,-14.057560122013093,8.406848337650299,1.924918741732836,16.492283277901233
9.708086208382156,-16.918502168655397,10.198802418708802,2.376134194135666,19.89716814311018
9.718114208371844,-19.100395367145538,10.72897297024727,4.81778410077095,22.43093862991945
9.728142208361533,-20.05942293405533,12.336528089046478,6.3949816453456885,24.402175394489852
9.738170208351221,-21.641576578617098,14.79526706814766,4.567232956588269,26.610475029689134
9.74819820834091,-23.299061071872714,15.944192318916322,1.935875108242035,28.29860646689437
9.758226208330598,-22.723519635200503,17.63419668674469,3.3657286655902863,28.95947801408921
9.768254208378494,-20.96756335258484,19.58381626009941,4.120875224769116,28.98527531130434
9.778282208368182,-18.533289123773574,19.028675758838656,3.6577330604195595,26.813286221977418
9.78831020835787,-15.121041179895402,17.30256951212883,4.569879698753357,23.428798487059055
9.798338208347559,-12.166785757541657,15.102775647640229,5.128460701704025,20.060548773694997
9.808366208337247,-9.8498160302639,13.22577030658722,2.6343753039836884,16.699694885682405
9.818394208385143,-8.284856708049775,10.72828884601593,2.0057727241516115,13.702487236170583
9.828422208374832,-7.569511853456498,8.143841162323952,4.109478124380112,11.85358464902238
9.83845020836452,-6.55716001868248,8.551313740611077,-4.040690310001374,11.508626867802729
9.848478208354209,2.2869477832317355,12.157584578990937,-6.143406946063042,13.812256943145911
9.858506208343897,29.15362082719803,7.838183811306954,30.26533088922501,42.747643053508185
9.868534208333585,45.91888150691986,-9.30184129178524,11.214507046937943,48.175025672748
9.878562208381481,37.88241218090057,-23.82385335445404,-8.021865904927255,45.464309891329144
9.88859020837117,12.838710358142853,-26.908266627788546,-1.2346337378025056,29.83976570013517
9.898618208360858,6.155026533007622,-32.075579738616945,2.6501107460260394,32.768128633728914
9.908646208350547,3.5062162077426913,-23.407894127368927,7.558729003071785,24.84667872604765
9.918674208340235,8.242038132548332,-9.700154791474343,2.167568689584732,12.912108641930317
9.928702208329923,14.681787815093994,0.7288688796758652,-1.0630403240025044,14.738256274799193
9.93873020837782,4.5522333866357805,2.1569834750890733,-7.430452201366425,8.977027706039452
9.948758208367508,-11.909012424945832,-6.657233945131302,-18.914905314445498,23.322027866207545
9.958786208357196,-11.555627760887146,-9.087088848352433,-2.635779805183411,14.935027682178884
9.968814208346885,-9.666209365725518,-7.34449403822422,1.5302479112148286,12.235965627988998
9.978842208336573,-8.16707331955433,-6.825124463438988,-0.6252104638516903,10.661814980223543
9.98887020838447,-3.993834816813469,-7.4216591584682465,4.3847246915102005,9.500397456359723
9.998898208374158,2.803225350379944,-8.962123324871063,4.7847058171033865,10.53902920630898
10.008926208363846,9.769063643217088,-10.873234305381775,2.3856873750686645,14.810581790615755
10.018954208353534,11.819306781291962,-12.19858993291855,2.0241214330494404,17.10551597343752
10.028983208350837,7.689982622265816,-10.616536860466004,0.9601198267936707,13.144143856569203
10.039011208340526,3.5363925182819367,-6.767431156039239,0.24714557960629466,7.639717104226437
10.049039208330214,1.6119376069307327,-4.8093138241767885,0.9967549717426301,5.1692710106696085
10.05906720837811,0.8035998040437698,-5.09535552084446,1.8438567446172238,5.477976654160706
10.069095208367798,0.33481332242488865,-6.346254458427429,2.9638723379373553,7.012245349927045
10.079123208357487,0.308917173743248,-6.971524125337601,4.003023131489754,8.044984315810675
10.089151208347175,0.8834979128837586,-6.499731005430222,4.469215203523636,7.937314170450086
10.099179208336864,0.9508531594276429,-4.878624379634857,3.892761601209641,6.313373935718791
10.10920720838476,0.5349290156364441,-2.825721927881241,2.8047438722848894,4.017143469506446
10.119235208374448,-0.19478654086589814,-1.351599685549736,1.6958040748536587,2.177272368531535
10.129263208364137,-0.511552432179451,-0.5037066382169724,0.9532493484020234,1.193352667270425
10.139291208353825,-0.5232877939939499,-0.2529505491256714,0.08982258796691894,0.5881174992763845
10.149319208343513,-0.6272916340827942,-0.46305971860885625,-0.5149349002540112,0.9343859206387818
10.159347208333202,-1.0708777856826783,-0.8806854021549225,-0.5836988872289658,1.5043571385777204
10.169374958379194,-1.629412595629692,-1.1566348046064376,-0.25382653512060643,2.014253556023917
10.179402958368883,-2.045616236329079,-1.1378506243228912,0.196209606975317,2.3489887269790266
10.189430958358571,-2.147563025951386,-0.7861604833602905,0.27184392616152764,2.303035904240677
10.19945895834826,-1.8519435900449754,-0.186685808300972,0.0819602756202221,1.8631328826762203
10.209486958337948,-1.3092412859201432,0.5480700480937958,-0.3979669059813023,1.4740662063257866
10.219514958385844,-0.8678747373819352,1.2769272333383561,-0.7074288940429688,1.6982948386996204
10.229542958375532,-0.6482492244243622,1.907602066397667,-0.7275953561067582,2.1420942329691184
10.23957095836522,-0.6175668373703956,2.4693820810317995,-0.6355263409763575,2.6235720670138662
10.249598958354909,-0.6066059392690659,3.0416666185855865,-0.3866997599601746,3.1255788725494735
10.259626958344597,-0.6001210847496987,3.668408614397049,-0.9075469992309809,3.826357097077688
10.269654958334286,-0.5903313839435578,4.155099270343781,-1.2133633214235306,4.368705945592594
10.279682958382182,-0.267310141324997,4.4901745480299,-0.5376484825462103,4.530142169315987
10.28971095837187,0.26150210201740265,4.821195366382599,0.38827616930007935,4.8438689591931485
10.299738958361559,0.7099320870637894,5.0632964068651205,1.0518999894708396,5.219910694625411
10.309766958351247,1.1501227605342865,5.167613072991371,1.1543016924709082,5.418433319114626
10.319794958340935,1.5399007871747017,5.117107747793198,0.8917541813850404,5.417685082845268
10.329822958330624,1.809311540722847,4.729723863601685,0.6284230703115463,5.102823888065894
10.33985095837852,1.9321752825379372,4.185186118483544,0.5508719607442618,4.642471764688735
10.349878958368208,1.8751190292835236,3.647993060946465,0.5598562075942755,4.139729909049211
10.359906958357897,1.6071417206525804,3.206696094274521,0.553216182589531,3.6293046849192114
10.369934958347585,1.2207353447377682,2.840234132409096,0.27906699165701865,3.1040301375189943
10.379962958337273,0.709040240496397,2.5528352969884875,-0.42131187792867425,2.682761602281737
10.38999095838517,0.24369718417525293,2.30181432902813,-1.5608452212810517,2.791769211036267
10.400018958374858,-0.00015919044613838196,1.966372430920601,-2.5874940830469133,3.2498840275045167
10.410046958364546,0.37301493644714356,1.563648376464844,-2.7382317942380907,3.1752243616806295
10.420074958354235,1.5807444655895233,1.240968611240387,-1.521622098684311,2.520732030736359
10.430102958343923,2.747318952083588,1.077844158411026,-0.2629007560014725,2.9628746618452464
10.440130958333611,3.3650556510686878,0.8309115636348725,0.428191602230072,3.4924721344044842
10.450158958381508,3.5765935876965527,0.5239888751506806,0.7381390553712845,3.6893678724001195
10.460186958371196,3.3324135696887973,0.17669174730777742,0.6177793105691671,3.3937960235671243
10.470214958360884,2.8070348113775254,-0.26687393903732304,0.30376109898090364,2.836007217352707
10.480242958350573,2.1670485797524455,-0.5820985043048859,-0.13988469421863556,2.2482228411342406
10.490270958340261,1.5267172162234783,-0.8037185025215149,-0.8103411320596934,1.9061693628626966
10.500299958337564,1.0808598598837853,-1.0158408683538438,-1.2822400134801866,1.9606963453568114
10.51032795838546,0.7484517896175384,-1.215161340236664,-1.528273891210556,2.0910328191454375
10.520355958375148,0.6539534756541252,-1.2950448310375213,-1.3536602443456651,1.9842359536706007
10.530383958364837,0.7465906208753587,-0.9155833393335343,-0.6588280069828034,1.3526805791572274
10.540411958354525,0.9222813248634338,-0.1984252631664276,-0.048307356834411626,0.9446211028655056
10.550439958344214,1.0290310174226762,0.37399376034736637,0.44015559017658235,1.180047927484476
10.560467958333902,1.0272382611036301,0.6104072141647339,0.8607516592741014,1.4726536697820978
10.570495958381798,0.7821362833678723,0.5041083419322968,0.8947380155324937,1.2908983316300564
10.580523958371487,0.1841188806295395,0.2430792796611786,0.3264418637752533,0.44671197524795897
10.590551958361175,-0.38021212801337245,0.00580277681350708,-0.3643529442697764,0.5266383982442405
10.600579958350863,-0.7068789634108543,-0.10171231627464294,-0.6230079638957977,0.947714190709596
10.610607958340552,-0.8551813092827797,0.17416282653808596,-0.5789948022365571,1.0473312479398744
10.62063595833024,-1.0314561501145363,0.693455218076706,-0.4724357289075852,1.3296531303446602
10.630663958378136,-1.267889776825905,1.153626412153244,-0.36789803802967075,1.7532105838670067
10.640691958367825,-0.6925702419877052,3.74150641143322,-2.0072497308254245,4.302043148177566
10.650719958357513,-1.7363163623213769,1.8321577817201615,-1.589111831188202,2.982762655526752
10.660747958347201,-2.422474547624588,-0.8983515948057175,0.7896477627754211,2.7016591404237427
10.67077595833689,-0.26555042177438737,-0.8699803197383881,-0.027927398309111597,0.9100344624314942
10.680803958384786,1.1369209170341492,-0.8431030082702637,-0.35912597201764584,1.460268234921844
10.690831958374474,1.303361618220806,-1.0360985469818116,-0.01366969384253025,1.6650641331308318
10.700859958364163,0.603180932700634,-0.9833870673179627,0.42692677639424803,1.2300991155773644
10.710887958353851,-0.5874143542349339,-0.8208397346735001,0.6689015170186758,1.2108933615517066
10.72091595834354,-1.6700057208538057,-0.3989789128303528,0.5499597951024771,1.8029306855220162
10.730943958333228,-2.4237553802132608,-0.010492243766784669,-0.06636589765548706,2.4246865081209177
10.740971958381124,-2.8163307148218157,0.21071669518947603,-0.8675350872427225,2.9544436614153895
10.750999958370812,-2.6412077754735948,0.0801226419210434,-1.1723836221545936,2.890827132235151
10.7610279583605,-2.198525311052799,0.06505904495716096,-1.077495664358139,2.449233171705204
10.771055958350189,-1.7986172756552696,0.25514793276786807,-1.0855817788839341,2.1162732268131417
10.781083958339877,-1.471565839648247,0.40912149310112,-1.0631348296254874,1.8609519291211565
10.791111958329566,-1.177585963010788,0.397575581073761,-0.7882806837558747,1.471788530777711
10.801139958377462,-0.8359024545550346,0.3560252666473389,-0.5672910153865814,1.0711237090834929
10.81116795836715,-0.38769203245639805,0.36850673317909244,-0.8493243726342917,1.0037201872928196
10.821195958356839,0.19755051970481874,0.3096088993549347,-1.2180663100630045,1.272230094796504
10.831223958346527,0.6224138867855072,0.442526051402092,-0.9225427684932948,1.1976282863778067
10.841251958336215,0.7162874257564545,0.9617681568861008,-0.3054954562336207,1.2374947020800873
10.851279958384112,0.4565035280585289,1.5545395839214327,0.38001061834394934,1.6641504917412535
10.8613079583738,0.10582700192928315,2.0124531680345537,0.9745729744434357,2.2385172749802886
10.871335958363488,-0.22751252979040146,2.2380738312006,1.1132724380493164,2.5100023797671644
10.881363958353177,-0.4332497361302376,2.188111127614975,0.7152670866250992,2.3424650788984147
10.891391958342865,-0.5173645645380021,1.9053462105989458,0.08438522558659316,1.976140465953941
10.901419958332554,-0.5482100889086724,1.6620008826255799,-0.5272592959553004,1.8277810592630452
10.91144795838045,-0.5694948309659958,1.5513142597675325,-1.0307145038992167,1.9476325843452311
10.921475958370138,-0.37881537437438967,1.6279993236064911,-1.7979176563024521,2.454870828448964
10.931503958359826,-0.03268739730119705,1.7971569335460664,-1.735969330072403,2.4988859567189246
10.941531958349515,-0.19977655470371247,1.9854296761751176,-0.0400662910938263,1.9958574544611478
10.951559958339203,-0.444130235016346,2.2447174376249315,1.0282609391212465,2.508650752766439
10.961588958336506,-0.49609239399433136,2.540128712654114,0.919914956688881,2.746744448937465
10.971615958376788,-0.8092616629600525,2.584652336239815,-0.10596737165004015,2.7104540620016455
10.98164495837409,-2.2997151786088943,2.1976040822267535,-1.6414151751995087,3.5794409315309377
10.991672958363779,-3.820183621644974,1.6941313326358796,-0.8925967651605606,4.273243833492097
11.001700958353467,-4.832756481170654,1.3447350543737413,1.4066009348630906,5.209834331599828
11.011728958343156,-5.22828085899353,1.2509527319669724,1.5555306869745256,5.596380901641096
11.021756958332844,-4.836712122559548,0.9816516137123108,0.7000947314500809,4.984732357932834
11.03178495838074,-4.349865345954895,0.364467476606369,0.1570357471704483,4.3679314664189155
11.041812958370429,-4.010198249816895,-0.6235195952653885,0.03878808975219727,4.058567629647316
11.051840958360117,-3.135575825572014,-1.8502151530981066,0.8096037981659174,3.729690359891843
11.061868958349805,-1.8509191578626634,-3.5353651624917988,1.2656076085567476,4.186462848269458
11.071896958339494,0.07873802125453949,-6.468806836009026,1.4729416894912721,6.634848813517124
11.08192495838739,2.445015563964844,-11.228309984207154,2.173567932844162,11.695188915454287
11.091952958377078,5.662712025046349,-18.36095881462097,2.727611496448517,19.406982778020136
11.101980958366767,11.210024571418764,-29.193445043563845,1.4625821775197982,31.30592645218144
11.112008958356455,12.778623200654984,-35.30151668071747,-0.5297338010743261,37.546916101902326
11.122036958346143,8.948274194598199,-32.08415409564972,-1.718265130519867,33.352915766899145
11.132064958335832,3.969734348058701,-25.624697542190553,-4.00588241994381,26.2379688406957
11.142092958383728,0.2799646854400635,-17.393214218616485,-2.952930443286896,17.644321445798553
11.152120958373416,-1.4131533247232437,-12.117988404035568,-0.7235391426086426,12.221544672029133
11.162148958363105,-2.3614857494831085,-8.662655251622201,1.195287823677063,9.057975708451648
11.172177000029478,-3.2693665516376496,-6.101628005504608,3.5530851495265963,7.78094056308822
11.182205000019167,-5.790847908854484,-3.748376305103302,4.680294426083565,8.33603025084321
11.192233000008855,-9.76629440188408,-0.5476063638925552,0.3314085252955556,9.78724734972436
11.202260999998543,-11.289451979398727,3.8728202569484713,-7.06274653673172,13.868411999212316
11.21228900004644,-6.482412137389184,7.179107297658921,-6.060860048532486,11.414695494763205
11.222317000036128,-2.3137490808963777,8.143883846998214,-1.3647845721244813,8.575483417922063
11.232345000025816,-0.7052318027615547,8.379916062355042,2.8292349350452426,8.872706206418806
11.242373000015505,0.3163402140140534,9.04088765859604,6.865831024646759,11.356819820942771
11.252401000005193,1.3877272921800614,10.800172176361084,9.3394371342659,14.345542585117174
11.26242900005309,3.1917196208238603,13.058957430124284,8.38005405664444,15.84136197717965
11.272457000042778,5.390008996725083,14.433344299793244,4.778099048137665,16.13083553864974
11.282485000032466,6.265958154201508,14.815853945016862,2.281791708469391,16.247410043176597
11.292513000022154,5.416106289625168,14.841440191268921,0.5149888408184051,15.807206198367163
11.302541000011843,4.368021242916584,14.979179542064667,-1.7047194707393647,15.695907039922767
11.312569000001531,3.373824428021908,15.274993690252305,-5.160094138383865,16.47224013379324
11.322597000049427,1.7882194644212723,15.311862723827362,-8.788069256544114,17.744887437909682
11.332625000039116,-0.5236397963762284,14.61362565279007,-10.831146047115327,18.197416796077814
11.342653000028804,-2.608738771677017,13.329195857048035,-10.309724099636078,17.051785571752134
11.352681000018492,-3.383139042556286,11.719738054275513,-5.954452418088914,13.573996958942756
11.36270900000818,-2.7709054505825046,10.273125207424163,0.06715527176856995,10.640466548700198
11.37273699999787,-2.391598617732525,9.271082013845444,3.501539604663849,10.19477735209642
11.382765000045765,-3.103606173992157,8.545717370510102,5.017912073135376,10.38465686643512
11.392793000035454,-4.107284833788872,8.220982893705369,5.814120411872864,10.874665264192046
11.402821000025142,-4.940534698963165,8.070813531875611,6.364196639657021,11.403942872804445
11.41284900001483,-5.601344912052155,7.974337981939316,6.357095196247101,11.635196191217428
11.422877000004519,-5.842527939677239,7.994593906402589,5.447889415025712,11.301688525726929
11.432905000052415,-5.69665920495987,8.176175095438957,3.4107101261615753,10.53255471637491
11.442933000042103,-7.065805215239525,8.504106245040894,-4.63246478676796,11.987708553651725
11.452961000031792,-8.042621766328812,9.011948618888855,-7.001805685758591,13.961528055583317
11.46298900002148,-7.090150097608567,9.601315212249757,-2.8733451604843143,12.276465070323622
11.473017000011168,-6.288508526086807,10.115982456207275,-1.1478528714179994,11.966453390682739
11.483046000008471,-5.639752348065376,10.525198674201967,-0.6985387873649598,11.961378269931316
11.49307399999816,-4.917853349447251,10.67723446726799,-0.6985352790355682,11.776101603321127
11.503102000046056,-3.784656231701374,10.567942990064621,-0.43743955850601196,11.233716891606177
11.513130000035744,-2.032634248137474,10.350798450708389,0.1329411256313324,10.549327177444669
11.523158000025433,-0.8522600403428078,10.17116964697838,1.0329106450080872,10.25894456386964
11.533186000015121,-0.3114215362071991,9.986878273487092,2.091664813756943,10.20831928947028
11.54321400000481,-0.16605171516537667,9.873180334568024,2.4771015751361847,10.180535118772111
11.553242000052705,-0.35448335587978363,9.818941562175752,1.364113311767578,9.919580483990222
11.563270000042394,-0.7694355462491512,9.515608479380608,-1.1895107746124267,9.620487080995998
11.573298000032082,-1.2421899484097958,8.982027831673623,-2.285017032623291,9.35099795082153
11.58332600002177,-1.382650008648634,8.656323301792145,-1.079572595357895,8.832277800217422
11.593354000011459,-1.1848664774000646,8.54871289908886,0.3553832423686981,8.637748436327096
11.603382000001147,-0.9070921589434148,8.456672462224962,1.5191300153732301,8.639784796033897
11.613410000049043,-0.8884287236630917,8.38756129682064,2.346886421442032,8.754905252491437
11.623438000038732,-0.9773736445605755,8.345782356262207,1.5081922137737276,8.53709471265646
11.63346600002842,-0.5700276584923267,7.29854954123497,-7.750290219783784,10.661179832841373
11.643494000018109,0.3446609106659889,3.960266536474228,-17.54358238577843,17.9883235769722
11.653522000007797,0.30744279831647875,5.123494076728821,10.25812943816185,11.470568085260414
11.663549999997485,0.9367748183012009,4.978587208986283,7.631464272737503,9.15986487912098
11.673578000045381,13.45514839053154,-1.2657830250263216,20.307241966724398,24.393181448363002
11.68360600003507,59.23885279655457,-47.146684527397156,30.468753182888033,81.61125206181755
11.693634000024758,72.79522467613221,-119.9107505607605,17.182181189060213,141.32572372398164
11.703662000014447,61.152024335861206,-125.72857109069825,-2.2436972446739674,139.82945986525257
11.713690000004135,13.007277399301529,-56.24050352096558,-13.975826572179795,59.39282136765157
11.723718000052031,-11.305680341720581,-15.818615176677705,-36.99260629177094,41.791146363254455
11.73374600004172,-34.467472178936006,-7.24143569290638,-93.52247214317322,99.93446765291161
11.743774000031408,-0.9129231485724449,-9.648744902014732,-6.350124145746231,11.586879801126098
11.753802000021096,3.314583070278168,-6.697054653167725,1.7177030669152737,7.667301075566308
11.763830000010785,1.7215840101242066,-6.508718760609627,-0.5585663118213415,6.755684105501733
11.773858000000473,4.92811872124672,-15.408921825885773,2.232522484660149,16.331117004402195
11.78388600004837,6.618327741622925,-23.264036250114444,7.278409391641617,25.25852109713693
11.793914000038058,5.377763757705689,-24.17695969104767,6.960354773998261,25.7272668878013
11.803942000027746,6.828112390637398,-13.698405425548554,9.038442353010177,17.77534444646748
11.813970000017434,13.471376752853395,-11.530989933013917,21.98414623260498,28.244369457099708
11.823998000007123,8.264046467542649,-9.29727637052536,19.506237741708755,23.134976178152773
11.834025999996811,0.9770279279351235,-5.1106383883953095,10.58992267370224,11.79913855092387
11.844054000044707,-2.1446525743603706,-1.9035417598485949,7.234971596002579,7.782532999683467
11.854082000034396,-3.4056060916185382,1.7272686731815339,5.2357407367229465,6.480323370234215
11.864110000024084,-4.636883527636528,4.0321060127019885,5.407439546585083,8.18528986637045
11.874138000013772,-5.580595482587815,5.08567077755928,6.00260423898697,9.645638954880297
11.884167000011075,-5.512972433567048,6.821023811101914,6.275125418901443,10.784082246896695
11.894195000000764,-3.634555574655533,15.243651444911958,4.657224236726761,16.348352858633227
11.90422300004866,-2.0135343182086944,20.423571152687074,-6.777777804136276,21.612839957805594
11.914251000038348,0.43302914991974834,20.116318681240084,-21.448889772892,29.409329540463176
11.924279000028037,2.1226628042757514,19.538109744787217,-13.634799413681032,23.919681955062064
11.934307000017725,2.3797509893774986,17.67019448518753,-3.256454730033875,18.124665109307674
11.944335000007413,1.8745059487223625,14.59875501394272,2.3949107730388643,14.912176840412362
11.954362999997102,1.1453989411890508,12.820551245212556,2.1783649885654452,13.054644651962226
11.964391000044998,0.758107150644064,12.945524954795838,-0.023723327913321556,12.967725537016378
11.974419000034686,0.09167323172092438,13.100134692192078,-2.0777507793903354,13.264199230871261
11.984447000024375,-1.3064957258105279,12.933727612495423,-4.317658882141114,13.697825347781295
11.994475000014063,-1.6836952221393586,12.197277817726135,-3.4722982639074327,12.793172827621126
12.004503000003751,-0.8490575203299523,11.34150740146637,-1.3344591575860978,11.451264997964666
12.014531000051647,-0.44013278603553774,10.692010381221772,-0.6569580674171448,10.721212467059965
12.024559000041336,-0.4595686385035515,9.737689822912216,-0.6175636214017869,9.768069985786498
12.034587000031024,-0.5736103937029838,8.158696013689042,-0.30848857283592224,8.18465116710052
12.044615000020713,0.3477053000405431,6.892326512932778,1.18802441239357,7.002604211362761
12.054643000010401,2.1043611654639247,7.002050099372864,2.737805532217026,7.807215934062436
12.06467100000009,4.87507950514555,4.272249405384064,2.188992887735367,6.841798376585698
12.074699000047985,10.452797280550003,-6.361461312174797,2.250713757276535,12.441658789396376
12.084727000037674,20.454975378513335,-24.674758887290956,3.9177584481239323,32.289295054853355
12.094755000027362,31.959000291824342,-46.265312662124636,7.974171921014786,56.79299493073841
12.10478300001705,34.1977377820015,-50.009359688758856,-0.003687838912010193,60.584002339613946
12.114811000006739,12.527023358345032,-26.818324756622317,-14.568354170322419,32.990692629954495
12.124838999996427,-3.5059165379405024,-13.515698647499086,-21.24024006843567,25.41875997891702
12.134867000044324,-10.828084444999696,-7.841301546692849,-25.292795548439027,28.608721211360514
12.144895000034012,-10.807076568603517,-5.85238342165947,-10.570431565046311,16.21040774148205
12.1549230000237,-9.364686580896379,-4.416667445898057,4.353378937840462,11.23192834122927
12.164951000013389,-10.184058079719543,-2.5706868463754655,11.170282216072083,15.332927790214267
12.174979958334006,-9.519827245473863,1.357224122285843,10.143259717226028,13.976941217336549
12.185007958381902,-8.28889830350876,4.876862028837205,7.5618432301282885,12.234013706517644
12.19503595837159,-8.53212610244751,7.84849128305912,5.941020779013634,13.026577414846653
12.20506395836128,-8.713871013522148,11.03698207139969,3.15700353205204,14.412258413797913
12.215091958350968,-9.323567206263542,11.384250547885895,-0.49120119810104373,14.723156747238995
12.225119958340656,-7.970194060206413,10.703426485061646,-0.786889631152153,13.368116066599791
12.235147958330344,-4.578104099929333,10.376153147220611,0.1520626993943006,11.342253495179566
12.24517595837824,-2.2500460052490237,10.041535706520081,0.5694813823699951,10.306282327586455
12.255203958367929,-0.7935104334354401,9.626428418755532,0.8896819281578064,9.699964785641525
12.265231958357617,0.05124905448406935,8.624160107374191,1.1159586489200592,8.696213413279908
12.275259958347306,0.3424234735965729,6.864044115543366,0.7148308843374253,6.90965546526005
12.285287958336994,0.6417082366347313,5.466764227151871,-0.6606318730115891,5.543801497877702
12.29531595838489,1.1509472179412843,3.5121657496690752,-3.0190250301361083,4.772263601711839
12.305343958374579,1.2497046437859536,0.045556826591491704,-4.272175730466843,4.451440507649088
12.315372958371881,0.8046011397242546,-4.024874761104584,-3.994076306819916,5.727097465673381
12.32540095836157,0.46913581620901823,-8.44337998688221,-3.207773151397705,9.044366346392714
12.335428958351258,0.43375902861356735,-12.7701482462883,-1.7525181198120119,12.897137391194736
12.345456958340947,0.341984713152051,-13.75611276626587,0.03495229801163077,13.760407466546507
12.355484958330635,0.5080041955411434,-10.048454132080078,0.1641641243174672,10.06262632551351
12.365512958378531,0.9016540291160345,-4.066616864204407,-1.0587272715568543,4.2978199292188926
12.37554095836822,1.783001409173012,0.5019518887996673,-2.7731765091419223,3.3348999497194933
12.385568958357908,2.4891985872387887,3.7270064860582353,-4.09541206240654,6.0711684966517545
12.395596958347596,3.3874838161468506,5.770827042460442,-4.477328799962998,8.051333090962494
12.405624958337285,4.737409443855286,6.414612502455712,-4.294288730621338,9.057108672050468
12.41565295838518,3.9671031010150912,5.49471976518631,-1.4943729043006897,6.9399569659415565
12.425680958374869,-0.015669953227043152,3.5457562494277957,3.030352256298065,4.6642971308699
12.435708958364557,-4.4794764822721485,2.689409297704697,4.772061213254929,7.076100631623453
12.445736958354246,-6.9010499739646916,3.2420846128463747,3.183703672885895,8.262661342252896
12.455764958343934,-7.43591934800148,4.586096951365471,-0.527738256007433,8.75235336718989
12.465792958333623,-5.734501215219498,5.629679349660874,-1.7844369006156922,8.231768268095921
12.475820958381519,-2.4725927871465685,5.952901736497879,1.2729179437458515,6.570469866528486
12.485848958371207,1.288139561712742,5.76724152982235,2.327326461821795,6.351127998525387
12.495876958360896,4.938294045925141,4.604950713515282,0.4791629505157471,6.769188746893645
12.505904958350584,7.947111006975175,2.3266018456220627,-0.3421545016765595,8.28774512206158
12.515932958340272,7.277771460413933,-0.44113850712776187,2.842292937040329,7.825547249390026
12.52596095832996,2.8746642923355106,-3.2471073710918428,4.478408195972443,6.2340629642939085
12.535988958377857,-1.1776818573474885,-5.124910857081414,1.3021586997807026,5.417311429996521
12.546016958367545,-2.730408219695091,-5.627237552404404,0.3873489470779896,6.266655465571029
12.556044958357234,-1.955516490340233,-4.637239623069763,2.3691083259880545,5.562437444684362
12.566072958346922,-0.3917842063307762,-2.65988144338131,1.323158243894577,2.996533312940248
12.57610095833661,-0.06504384219646454,-0.9055810922384262,0.7063318102061749,1.150309715744656
12.586128958384506,-0.025945850014686585,-0.05854817032814026,1.735091224461794,1.7362726262272539
12.596156958374195,-0.192331879734993,0.6066667503118516,0.4556023259460926,0.7826937953656129
12.606184958363883,-0.8286024981737137,1.4396172380447387,-2.6526724112033846,3.1298164184525037
12.616212958353572,-1.0175003081560134,2.042777997851372,-1.0027985076606274,2.4927602517229017
12.62624095834326,-0.5777452522516251,2.207047335505486,0.5075581991672516,2.3371912294895902
12.636268958332948,-0.8194106751680375,1.9401049840450288,0.1371660313010216,2.1105107732107347
12.646296958380844,-1.6508952659368517,1.2978450626134872,0.5892657288908959,2.1810756715181236
12.656324958370533,-2.0604576390981677,0.323756822347641,1.1585310566425324,2.3858957168618873
12.666352958360221,-1.7706146675348282,-0.6315045529603959,2.4124372172355653,3.058386441966165
12.67638095834991,-0.7315094822645187,-1.0844450801610948,1.9442638161778452,2.3433499613644875
12.686408958339598,0.3207039910554886,-1.1955070942640305,1.1910006451606752,1.7177225617333227
12.696436958329286,2.0107691699266437,-0.9734532326459885,0.8892737925052643,2.4044982280952305
12.706465958384797,2.3712886065244674,-0.649877673983574,-0.7539914417266846,2.5717413829489417
12.716493958374485,0.6973629122972489,-0.303055340051651,-0.8809192907810212,1.1636908384324676
12.726521958364174,-0.4104230833053589,-0.0010951834917068482,-0.6003023484349251,0.7271940705707414
12.736549958353862,-0.1526801562309265,-0.20429762184619904,0.4685581478476525,0.5334749162923551
12.74657795834355,1.5190218418836594,-0.901259999871254,1.3790655192732812,2.2408745279323523
12.756605958333239,3.8433292400836945,-1.7352431058883668,2.001227391064167,4.667671727420525
12.766633958381135,5.945513194799424,-2.2477959966659546,2.4709830486774447,6.819638642847055
