Time (s),Linear Acceleration x (m/s^2),Linear Acceleration y (m/s^2),Linear Acceleration z (m/s^2),Absolute acceleration (m/s^2)
0.00503054162254557,-1.0615023601055147,-1.3434691321849823,-2.4348870170116426,2.976637592192792
0.015058541612233967,-1.209628412425518,-1.476243904531002,-0.7783602976799011,2.061150580335256
0.025086541660130024,-0.9583814495801927,-1.687466091513634,1.140761952996254,2.2510829940967434
0.03511354164220393,-0.23191665261983874,-1.9019931247830393,2.572007147669792,3.207270482536333
0.045141541631892323,0.6102518244087697,-1.7431643289327623,3.365597687959671,3.839046361280015
0.05516954162158072,1.8909896881878376,-1.453363164961338,3.5033615970611574,4.238118564866028
0.06519754161126912,3.144303672015667,-2.0324139542877675,3.611468428373337,5.201928130277486
0.07522554165916517,3.4247984075546265,-3.109161613583565,3.9669101428985596,6.093644734770951
0.08525254164123908,2.542776624262333,-2.9828190708160403,3.5365866458415987,5.279239308239772
0.09528054163092747,-0.32604776144027714,-2.179228914678097,0.6219349998235703,2.289573966770857
0.10530854162061587,-1.5758117544651031,-1.5127830089628698,0.43685776054859166,2.2276758787284723
0.11533654166851193,-1.6780544131994248,-1.481996395289898,-1.4139374363422395,2.647904643902492
0.12536454165820032,-0.4233715596422553,-1.4605882769823075,-2.7098184192180637,3.1073585981514182
0.13539254164788872,0.4881246855854988,-1.8451780691742898,-3.029941197037697,3.580990292244023
0.14541954162996262,0.5177377630770207,-2.3783760166168215,-2.251784967184067,3.3159101927178676
0.15544754161965102,0.3427595423161984,-2.0306554041802882,0.21591486990451814,2.0706676955565095
0.16547554166754708,0.10548212584108115,-1.0942930338531733,1.607432327270508,1.9474194231253363
0.17550354165723547,0.38286924898624425,-0.26420417346060276,2.5204048848152163,2.5629735641425753
0.18553154164692387,1.6748622719943524,0.7835589109361172,2.28094678580761,2.936298083768667
0.19555854162899777,1.75182917162776,0.9686098377406598,1.1001249736547472,2.284159675240076
0.20558654161868617,-0.3937219735980034,-0.2038821040838957,-1.5315021389722825,1.5943913279167885
0.21561454166658223,-5.556259371042252,-2.5015224713087085,-3.5621968656778336,7.058249030928439
0.22564254165627062,-6.230378431677819,-4.42528390288353,-2.2351092928647995,7.962189810227261
0.23567054164595902,-1.2293519479036332,-3.8677419501543047,-1.0354442435503006,4.188421992385598
0.24569854163564742,4.101583213806153,-2.709467293918133,0.3968242138624192,4.931700247713357
0.2557255416177213,3.2867357057332995,-3.305283950865269,-2.0472540414333347,5.0910492735147255
0.2657535416656174,2.636592275798321,-4.331337273716927,-2.890627775788307,5.836765400943214
0.2757815416553058,0.5193137338757515,-4.687590581774712,-4.1053763025999075,6.252783924180001
0.28580954164499417,-2.131178542971611,-3.997218015789986,-3.6356045651435855,5.808381392597383
0.29583754163468257,-3.5508895200490955,-3.4900042176246644,-2.812164573669434,5.718147900503609
0.30586454161675647,-3.42152221262455,-3.931703472733498,-2.822169159650803,5.927035111644941
0.3158925416646525,-4.004722917079926,-4.603300336897373,-2.859294885993004,6.738230248316717
0.3259205416543409,-5.98938543856144,-4.907716616392136,-3.0998955309391025,8.340729741527387
0.3359485416440293,-7.931825800538063,-5.3564494872093205,-3.3987116396427157,10.156606345061777
0.3459765416337177,-8.380316596627235,-5.4885626471042634,-3.5339156377315524,10.622739097120744
0.3560045416234061,-6.3941273671388625,-4.964056878089905,-2.510364046096802,8.47517864826703
0.3660315416636877,-2.873873748779297,-3.55443965703249,0.06689273178577423,4.571396530271004
0.3760595416533761,0.16126503825187685,-1.412866811156273,2.384865256547928,2.776649299158734
0.38608754164306447,2.236551800966263,0.5557760936021805,3.845461719632149,4.483149212526991
0.39611554163275287,3.043303838968277,2.873037304580212,4.514948031306267,6.156362345994989
0.40614354162244126,3.303554636836052,4.449143173992634,3.4786755296587946,6.542899331480894
0.41617154161212966,3.9332512307167056,5.110235515236854,1.1117650258541107,6.5437751900439665
0.4261985416524112,8.025511643886567,6.480348654985428,-4.588556874990464,11.289756863252308
0.4362265416420996,2.010247013568878,8.542814812660218,-4.523352234363556,9.873271667238333
0.446254541631788,5.248588823676109,9.309344438910484,-2.4310988983511925,10.960010053638442
0.4562825416214764,9.212902802824974,11.02038533449173,-3.991552356183529,14.908352061416277
0.4663105416111648,11.979422256946565,12.206191313266755,-4.7312479403615,17.7449252198895
0.4763375416514464,12.775234154462815,11.495551128387453,-3.0093268382549287,17.447359441077744
0.48636554164113477,11.430659898519517,10.218278324604034,0.15600839138031006,15.332890668522877
0.49639354163082317,8.915078966617585,7.104672242403031,1.2830100917816163,11.471752941404066
0.5064215416205116,4.717869218587875,2.590337291657925,0.510314576625824,5.406344256091122
0.5164495416684076,0.6311484575271606,-1.8169711008667946,-0.8905063855648041,2.119607034229623
0.5264765416504815,-2.050501585006714,-3.9711935207247735,-2.647530369758606,5.194646454567973
0.5365045416401699,-5.133883409500123,-1.993521637916565,-3.399146672487259,6.471868778356322
0.5465325416298583,-2.8868171453475955,-0.9492334806919098,-2.0893908315896987,3.6878600134319646
0.5565605416195467,3.463053815960884,-2.3253290529549124,-2.9456091445684436,5.106516441697086
0.5665885416674428,3.2634088236093524,1.250793980062008,-1.1534218326956034,3.680313119112234
0.5766165416571312,5.9183692502975465,3.8066350382566454,8.252674217820168,10.84546894527039
0.5866429582820274,13.958282586336136,1.5062719881534576,8.330051007270814,16.32459058739434
0.5966709583299235,8.404260360002517,1.3271159318089485,2.6042931336164474,8.898043134362327
0.6066989583196118,0.35675382971763614,2.472530221939087,1.2729867947101594,2.8037785884279085
0.6167269583093002,-4.087427104711533,0.04593601852655411,-0.11242441534996034,4.0892309427685
0.6267549582989886,-8.184933639764786,-2.4074080270528793,-0.672993471622467,8.558134861575759
0.6367819582810625,-11.351595017910004,-3.264413375258446,0.1847778618335724,11.813096418527584
0.6468099583289586,-10.759262716770174,-3.097613362669945,1.5397566533088685,11.301672146389711
0.656837958318647,-8.077684594988824,-2.6286298298835757,0.8520773879438639,8.537254773855514
0.6668659583083354,-5.39445989727974,-1.0002671018242837,-0.34452262401580813,5.497219997126733
0.6768939582980238,-2.7193458724021915,0.3032056134939194,-1.3925003743171693,3.0701519360250753
0.6869219582877122,0.1306227046251297,1.5268509712815286,-2.483876159191132,2.91855734116447
0.6969489583279938,1.9248145151138307,3.0006688660383225,-2.5821608376502994,4.401872232664131
0.7069769583176821,3.0566957169771194,3.614376541078091,-2.1731003017723562,5.208595915258257
0.7170049583073705,3.6766145968437196,4.0034531942009925,-2.242935791015625,5.88012698285516
0.7270329582970589,4.427362003326416,4.539781448543072,-2.6040364408493044,6.85508247173624
0.7370609582867473,5.757949719429017,5.033993085622788,-2.5544333410263063,8.063510466993737
0.7470879583270289,6.567928835749626,5.846242675781251,-2.0056720058619977,9.018811607451164
0.7571159583167173,6.346254458427429,6.18265872001648,-1.7224094907939436,9.025902112990309
0.7671439583064057,4.845509258508683,5.488215322494507,-1.5681811380386352,7.487233099220098
0.7771719582960941,0.17096849262714386,2.998470020592213,0.33445737317204477,3.0219057603324773
0.7871999582857825,-1.8087028455734253,-0.18380430042743684,2.815658869743347,3.351585427108402
0.7972279583336785,-0.9690093487501145,-0.510792586505413,2.07021854236722,2.3421556305154163
0.8072549583157524,-1.4005484819412233,0.4087346997857094,1.8873666071891786,2.385529881391044
0.8172829583054408,-3.071261131167412,0.7826977622509003,2.6555106496810916,4.134851573324246
0.8273109582951292,-5.32481605052948,0.5486033141613007,3.245065523386002,6.25979886412923
0.8373389582848176,-6.523636177182198,0.17166898906230926,3.8330966126918793,7.568350471290028
0.8473669583327137,-6.844293390512467,-0.15147767633199694,4.504009060263634,8.194717512933346
0.8573939583147876,-6.92237652361393,-0.5394910132884979,5.542568700313568,8.884279097698133
0.867421958304476,-6.01287428855896,-0.16109488427639007,5.1119189286232,7.893815547919118
0.8774499582941644,-5.396844391822815,0.7065632137656213,3.0519343292713166,6.240149366383863
0.8874779582838528,-5.870494587421417,0.8735284101963043,2.565488086938858,6.465870993809684
0.8975059583317488,-6.407090059518814,0.47569292038679123,1.986218319386244,6.724741630542874
0.9075339583214372,-5.170846583247185,-0.5532822561264038,3.567269909977913,6.306281808883681
0.9175609583035111,-4.8320852208137515,-0.9946201533079148,3.2564716869592667,5.911254069868785
0.9275889582931995,-4.14474677503109,-0.926803561449051,2.307970862388611,4.833696326030432
0.9376169582828879,-3.189805827140808,-0.30568600237369536,1.606012477129698,3.5843522739268994
0.947644958330784,-1.4039053684473037,1.6650075209140778,2.38368411898613,3.2288001343165056
0.9576729583204724,0.9625581157207489,3.926629258990288,1.8568359553813936,4.44890719490704
0.9676999583025463,2.426562336087227,5.179174187779426,0.28858706273138524,5.726720923098463
0.9777279582922347,3.023016924262047,5.388142565488816,-0.5089375938847661,6.199171646669932
0.9877559582819231,3.623056440353394,3.5338402086496354,-1.0467287850379945,5.168191728223927
0.9977839583298191,4.7855492779612545,0.2599110746383667,-1.9007602393627168,5.155766203587723
1.0078119583195075,5.299014042019844,-2.7024620372056964,-2.016660239696503,6.2809051419707185
1.017839958309196,6.474252932667732,-4.907528336048126,-2.059019808769226,8.380891836682782
1.0278669582912698,7.225872159004211,-7.083157997131348,-2.803417139053345,10.499690630020295
1.0378949582809582,6.0455555462837225,-8.895970850586892,-3.9396749818325043,11.454609473926665
1.0479229583288543,3.635289984941483,-9.458692851662637,-5.544499450922013,11.550916755737799
1.0579509583185427,3.736197139620781,-6.540368569493294,-6.554477316141129,9.9848266373901
1.067978958308231,1.9827993062138558,-3.283095229268074,-6.151460316181184,7.249184188218481
1.078005958290305,-2.218878591656685,-2.5986043775081638,-4.221607840061188,5.431218985695848
1.0880339582799934,-5.158590819239617,-2.3247897934913637,-1.3952310240268708,5.827724807733457
1.0980619583278894,-6.555826853513718,-2.067129312157631,2.8147081124782565,7.4279520114822875
1.1080899583175778,-6.80375230550766,-1.4654169076681138,7.051971287727357,9.908016511437161
1.1181179583072662,-7.109342998266221,-0.798909752368927,8.16151437163353,10.853171494904508
1.1281459582969546,-9.739869664907456,-1.3448689556121827,5.863272106647492,11.447781155915955
1.1381729582790285,-11.143994303941728,-1.9031499963998795,2.159803733378649,11.509793270159065
1.1482009583269246,-11.322993947267532,-2.0144470685720446,0.37596792653203015,11.506934465952105
1.158228958316613,-10.671173243522645,-1.4903792560100557,0.6787295901775361,10.79610311995033
1.1682569583063014,-8.238409350514413,-0.0392529433965683,2.411955406665802,8.5843146671096
1.1782849582959898,-3.7193808397650723,-0.32021867215633393,2.9783003425598147,4.775626321196102
1.1883119582780637,-0.09777582451701165,0.17458967328071595,0.7398623760044575,0.766445041280332
1.1983399583259597,3.0113672241568565,2.0800920045375824,-3.3274165391921997,4.946394255551931
1.2083679583156481,6.747640085220337,-4.465889891982079,-6.015074011087418,10.082456774310481
1.2183959583053365,8.545504531860352,-7.79780235528946,-9.462033950686456,14.945282056894973
1.228423958295025,7.282022970914841,-7.521506212949753,-9.28357809841633,13.992345642163379
1.2384509583353065,3.5667612022161483,-4.639455717802048,-5.9994256925582885,8.380897533773396
1.248478958324995,1.3610955637693405,-3.531884899735451,-5.0659913885593415,6.32384857722331
1.2585069583146833,1.8954220238327981,1.4251021099090577,-1.6033585721254349,2.862568668679545
1.2685349583043717,3.789471121430397,8.1992563945055,1.459849773645401,9.149811919630196
1.27856295829406,3.8135221812129023,7.042603463530541,3.57793289244175,8.77170557838963
1.2885909582837485,-0.608962074816227,3.242529585957527,4.038019886612893,5.2144450835209275
1.29861795832403,-5.9830856484174735,0.23159476339817048,3.0368338948488236,6.713665922254046
1.3086459583137184,-7.58535780787468,-2.722429693937302,1.2521625208854676,8.155806979730894
1.3186739583034068,-6.3830767142772675,-2.779296789765358,-2.300046131014824,7.332010037550751
1.3287019582930952,-4.4580747959017755,-0.7767026120424271,-4.605719622373581,6.456806569297645
1.3387299582827836,-2.1419730877876284,-0.12923516035079957,-3.5429250276088715,4.142109147129598
1.3487569583230652,-0.17494964249432088,-1.7274628007411958,-3.363182787895203,3.7849350813650764
1.3587849583127536,2.27350211083889,-4.093510547876358,-3.6673169392347336,5.947676351850519
1.368812958302442,3.049644559621811,-4.201560076475143,-3.321792687177658,6.1634199656398305
1.3788409582921304,2.5239275398850443,-2.548783761262894,-2.2413851094245913,4.2296945630882
1.3888689582818188,0.4267588882148266,-1.3946001094579696,-0.9744817578792573,1.7540374313024174
1.3988969583297148,-2.278589773178101,-0.8926540678739548,-0.1373218595981598,2.4510528212274916
1.4089239583117887,-2.391110959947109,-0.9786531615257263,-0.31605486989021303,2.602895371336467
1.4189519583014771,0.055608921200037006,-1.009650421142578,-2.4264974319934844,2.628759424614849
1.4289799582911655,2.738576779961586,-1.0575104659795762,-3.0160160529613496,4.20885780196025
1.439007958280854,5.08065211236477,-0.6757837629318237,-1.4972286844253542,5.339607037468672
1.44903595832875,6.710759357213974,-0.2457105267047882,-0.1458161280490458,6.716839074785674
1.4590629583108239,8.704454072713853,-1.248981635570526,-0.20644530415534973,8.796027256300711
1.4690909583005123,9.879422821998597,-2.37087871670723,-0.8374341326951981,10.194378701606341
1.4791189582902007,9.693390147686005,-3.7241249781847,-0.21220071852207184,10.386334702547217
1.489146958279889,7.74968912601471,-5.046362285614014,-0.1745323705673218,9.249535956787993
1.4991749583277851,8.074087387919427,-6.631734237670899,0.6609341009706259,10.46936578942019
1.509201958309859,7.277272692918777,-7.328945707082749,0.3732049709558487,10.334961295274121
1.5192299582995474,5.772057881355286,-7.518655695319176,0.9158447098731995,9.522899095499955
1.5292579582892358,1.5271091258525848,-8.639471041560174,1.077890059053898,8.83936474751587
1.5392859582789242,-4.4773135972023015,-8.388386338949203,-2.089938861876726,9.73546130727994
1.5493139583268203,-8.151836645007133,-6.8117442798614505,-4.5780178534984595,11.567650940794202
1.5593419583165087,-11.936290855407716,-5.600243881344795,-5.067626270055771,14.125105554592825
1.5693689582985826,-13.53980203986168,-4.047079854905606,-4.026041865348816,14.694016051854804
1.579396958288271,-14.056617550849916,-3.1609761303663255,-2.317229343652725,14.592800241855324
1.5894258333137259,-14.641152005195618,-2.6624349224567414,-0.4445756466686726,14.887899088225032
1.5994538333034143,-13.948238239288331,-2.5656982943415643,1.3224934154748917,14.24377571262293
1.6094818332931027,-12.581860885620118,-2.123431859314442,1.7606036496162416,12.880679773105575
1.6195088333333842,-13.124039279222488,-1.159169280230999,1.2708513915538788,13.23628133888897
1.6295368333230726,-16.24105545759201,-1.1353667271137238,0.13506717324256898,16.2812525047339
1.639564833312761,-16.60938794374466,-1.986834762096405,-0.3831668722629547,16.73218745680567
1.6495928333024494,-16.342960731983187,-2.3287917740643027,2.668767457008362,16.72237890832763
1.6596208332921378,-16.835072926282884,-2.533251509964466,4.269897655248642,17.551896468253737
1.6696478333324194,-16.625170748233796,-2.6446491542458537,3.3734809041023257,17.16889178040694
1.6796758333221078,-15.513742522001268,-3.3194578939676287,1.9113495469093325,15.979620297092318
1.6897038333117962,-13.538149616718293,-3.6931873601675034,2.0027076137065887,14.175047291206793
1.6997318333014846,-9.457162635326386,-4.166107823252678,3.6106346154212954,10.946737497175091
1.709759833291173,-2.2422054737806323,-5.168865546584129,5.488300691843033,7.865500677604764
1.7197878332808614,5.942022991776467,-5.208631290793419,1.6759266114234925,8.077512436704131
1.729814833321143,19.495299940109255,-3.2424564957618713,-3.3858922040462494,20.05104760103954
1.7398428333108313,41.032325963974,0.9873225358128548,-8.63350161910057,41.94238822492767
1.7498708333005197,55.688966073989874,4.427973329722882,-12.897175498008728,57.33415235289669
1.7598988332902081,34.306306543350225,-1.3338022229075432,-7.734129685163499,35.19259096746181
1.7699268332798965,8.526350222826004,-3.992995156645775,-2.4843568003177645,9.737283355975977
1.779953833320178,-2.395775576233864,-2.5216363084316256,0.16461432337760926,3.48216716415804
1.7899818333098665,-11.540993349552155,-0.667298575937748,0.5154460930824281,11.571754385516897
1.8000098332995549,-12.286105209589005,1.2381771504878998,1.6699484181404114,12.460746028883266
1.8100378332892433,-6.8695200330019,3.0189870232343674,3.283099907040596,8.190441571117024
1.8200658332789317,-0.021358709335327148,3.050825112462044,3.320263055562973,4.509117077591785
1.8300928333192132,3.426122217178345,1.5274260449409485,1.7069343960285188,4.121282422032279
1.8401208333089016,3.3816570657491685,0.3255311964824796,-0.7035346484184265,3.4693711349090095
1.85014883329859,2.2307770907878877,0.5077807222679258,-1.2429022854566574,2.6036539289783485
1.8601768332882784,1.0702053558826448,0.8374981597065926,-0.0874170251749456,1.3617578373419645
1.8702048332779668,-0.2244477117061615,0.8329911258816719,0.7674336057901383,1.1546451101458841
1.8802318333182484,-1.3692378115653991,0.6040679918602109,1.241874344944954,1.9447267705369025
1.8902598333079368,-1.9177019619941713,0.16871848404407502,1.1970823341608048,2.2669479166170325
1.9002878332976252,-1.7539910334348678,-0.3724722782894969,0.8258952373266221,1.9741638955524643
1.9103158332873136,-1.1832998621463777,-0.7535189867019654,0.623395049571991,1.5351256674640217
1.9203438333352096,-0.32518120408058165,-0.9475012430548668,0.5757227003574371,1.155403846620165
1.930371833324898,0.9931449007987977,-1.0299545851349832,0.761733228340745,1.620919724286691
1.940398833306972,1.7729903912544251,-0.895634101331234,0.7130327193439007,2.110467016990051
1.9504268332966603,1.6156815791130066,-0.3970253946259618,0.19042174056172373,1.6746093778375766
1.9604548332863487,0.2864129948616028,0.6210479772090912,-1.2739597713947297,1.4459275544622587
1.9704828333342448,-1.0402144020795823,1.6088233798742295,-1.9719008271396161,2.7493183777070316
1.9805108333239332,-1.3965460628271105,1.827412473857403,-0.8582424728572369,2.4548640282964027
1.990537833306007,-2.7245130568742755,0.6574165622144937,-1.2001212783157826,3.04884552183587
2.0005658332956955,-2.4658041697740556,0.2695432660728693,-2.8920773005485536,3.8101121884150024
2.010593833285384,-1.2897121703624725,0.8051509972661735,-2.847258392572403,3.2277710521122436
2.02062183333328,-0.7056203502416611,0.39014442779123787,-2.433432229757309,2.563533727110557
2.0306498333229683,-0.4463512998819351,-0.34748774707317354,-1.5743487811088563,1.6728871156928744
2.0406768333050422,-0.29912074863910676,-0.4366619519144297,-0.31357331156730656,0.6152033031798728
2.0507048332947306,-0.27475306212902073,-0.3513844046741724,0.48857462882995606,0.6615628563740753
2.060732833284419,-0.16934355139732363,-0.5261100257188082,0.6673146557807923,0.86647437779864
2.070760833332315,0.1493571835756302,-0.5101201567053795,0.4850078272819519,0.7195573188339656
2.0807888333220035,0.534082338809967,-0.16767219789326193,0.1693598870560527,0.5848424419608418
2.090816833311692,1.2614689493179323,0.24164641946554186,-0.004063230156898499,1.2844116987839655
2.100843833293766,-1.8146857166290284,2.635278406441212,10.491639164686204,10.968694949335138
2.110871833283454,-11.369803247451783,6.390909059643746,33.213868904113774,35.683010412156335
2.1208998333313502,5.616078726053238,-1.5435093963146211,-6.857779408693314,8.997327377173585
2.1309278333210386,3.092992308139801,-3.419558717608452,-9.66221513271332,10.705997595377005
2.140955833310727,-0.7276473963260651,0.06880126297473908,-2.9022116947174075,2.9928309454630924
2.150982833292801,0.7547667825222015,1.3818704286217691,-9.916809918880464,10.041033699012477
2.1610108332824893,-0.018880659341812135,-0.6801665434241295,-11.069431779384614,11.090324743872053
2.1710388333303854,0.5434051394462586,-0.6588652829825878,-4.9060372960567475,4.979818727322927
2.181066833320074,0.16077913463115692,-0.32993908345699313,-0.6321120786666871,0.7309414538261626
2.191094833309762,-0.7063594383001328,-0.6293593557178975,1.8530412586033345,2.080576545285358
2.201121833291836,-1.1810206174850464,-0.8981162443757058,2.858287410736084,3.2204393193644667
2.2111498332815245,-1.359441386461258,-0.6112568145990372,2.3740034687519076,2.8031425661681135
2.2211778333294205,-1.2249378848075867,0.15013837158679963,1.317367161512375,1.805123428048839
2.231205833319109,-1.1313730788230896,0.6112265552580357,0.4097961156070233,1.3496428422752613
2.2412338333087973,-0.8921102768182755,0.9830413506925106,-0.20819376781582832,1.343717116112423
2.2512608332908712,-0.5607818949222565,1.1946852681040765,-0.5894145405292511,1.4453922388351248
2.2612888332805596,-0.26245929121971134,1.2441255229711534,-0.801480188369751,1.5030314996050518
2.2713168333284557,0.07037357926368713,1.2300139988958836,-0.714259465187788,1.4240974200343774
2.281344833318144,0.24390490651130678,1.264463746994734,-0.5914635510742665,1.4171052547830147
2.2913728333078325,-0.23734199166297915,1.50954102024436,-0.6923628851026297,1.6776208384121156
2.3013998332899064,-0.4585064917802811,1.422868619710207,-0.7400796000659466,1.6680830693926672
2.311427833279595,-1.5461950224637986,1.1750302912294865,-0.21334026776254178,1.953696317918338
2.321455833327491,-1.089878312945366,3.2897709953784946,-3.274226757287979,4.767702675000068
2.3314838333171792,-2.886218975186348,2.6931550240516664,0.10625099815428257,3.9490040808929594
2.3415118333068676,-2.0271524834632872,-3.6320839565992356,-0.7177036944776773,4.22095719618949
2.351539833296556,0.093533815741539,-2.3997351644933227,-1.2937327158451082,2.7278602923245403
2.36156683327863,4.439089763760567,-1.4317935173213483,-2.0584023427963256,5.098290969707073
2.371594833326526,4.4003069365024565,-1.6362686021625996,-0.8193388275057077,4.765647090177074
2.3816228333162144,4.02301417708397,-2.5765972119569778,-0.7126095271110535,4.830249331019313
2.391650833305903,3.3408206963539127,-3.1375881448388103,-1.3165099596977234,4.768515572565847
2.401678833295591,1.317941358089447,-2.634475876092911,-1.6822860431671143,3.392273411167359
2.411705833277665,-0.3059058576822281,-1.1768458516895772,-0.38303816042840483,1.2748579468896297
2.421733833325561,-1.2794929915666582,-0.014462795555591584,-0.4749190413951874,1.3648661413498406
2.4317618333152495,-3.0627212727069857,0.7158652567863465,0.7890583634376527,3.2427361534785075
2.441789833304938,-3.7180561530590057,1.157797231078148,1.3234868574142458,4.1129130123721795
2.4518178332946263,-3.6080413752794267,1.4845652233064175,0.9629755338281394,4.0186090064511975
2.461844833334908,-3.034147099256516,1.8426835007965565,0.5347629912570119,3.5899167902407894
2.4718728333245963,-1.6829099410772324,2.2159121529757977,0.049096767492592334,2.7829594017988533
2.4819008333142847,-0.2515700215101242,2.4814323154091835,-0.44790022730827334,2.534049807186589
2.491928833303973,0.5790000647306442,2.001752178668976,-0.5663870358467102,2.1594089779704317
2.5019568332936615,0.8343994277715684,1.6148457196354866,-0.7265340864658356,1.95749862888517
2.511983833333943,0.6283230829238892,1.8473137646913529,-0.6378376722335816,2.052850442159261
2.5220118333236314,0.36807403922080995,1.8703833693265917,-0.2153283941745758,1.9183792023319104
2.53203983331332,-0.05989829242229462,1.402423684000969,-0.13349310278892518,1.410035603583885
2.5420678333030082,-0.3549107873439789,1.1078204941749574,-0.149776428937912,1.172885711803398
2.5520958332926966,-0.49530477404594425,0.9112276022136212,-0.11980594038963319,1.0440383257243642
2.562122833332978,-0.5649322485923768,1.0441539636254311,0.006376973390579224,1.187201167049612
2.5721508333226666,-0.8316190767288208,1.2015775273740292,-0.02999271253589541,1.4616013156380379
2.582178833312355,-0.9373817592859268,1.38929186090827,-0.08359587888233364,1.6780359675507712
2.5922065833001398,-1.0143509978055953,1.4402260793745518,-0.2131216549873352,1.774423835019227
2.602234583289828,-1.042162694334984,1.383098928630352,-0.4079017639160156,1.7791710364233615
2.6122615833301097,-1.0440028131008148,1.2634349294006826,-0.5814114564657211,1.7390367955571593
2.622289583319798,-0.9564489448070527,1.1941609190404416,-0.7640591776371003,1.7101465760330365
2.6323175833094865,-0.6799025416374207,1.2687076561152935,-1.0565532767772674,1.7855507300212357
2.642345583299175,-0.39074603319168094,1.4056764900684358,-1.3619498419761658,1.9958748029986886
2.6523735832888633,-0.22285785377025605,1.5276847842335701,-1.5458050131797791,2.1847195613482278
2.662400583329145,-0.11118948340415954,1.6568224422633648,-1.4907382750511171,2.231529590014348
2.6724285833188333,-0.10455523252487184,1.7096366867423058,-1.373299287557602,2.1953907011076086
2.6824565833085217,-0.009683573842048645,1.7754507534205914,-1.1329798936843873,2.106172497426834
2.69248458329821,0.1940188014507294,1.8365553264319898,-0.7158991706371308,1.98067927360313
2.7025125832878985,0.5529711842536926,1.8607585600018501,-0.304172158241272,1.9648715609637806
2.71253958332818,1.0424088621139527,1.8273002073168756,0.10531069278717041,2.106355294220165
2.7225675833178684,1.4901225632429125,1.5048462907969953,0.25771306972950697,2.1334112680682336
2.732595583307557,1.6910404944419861,0.9178690159320831,0.20424031913280488,1.9348942069814044
2.742623583297245,1.597352312207222,0.23864109680056572,0.27677499275654555,1.6386239284873516
2.7526515832869336,1.1148891931772233,-0.49315065979957584,0.4485270488262177,1.2989811391443962
2.762678583327215,0.2942120110988617,-1.1173119869828225,0.6764392358064651,1.3388490667243915
2.7727065833169036,-0.685584865808487,-1.5575601093471052,1.0565521804243327,2.003078284145285
2.782734583306592,-1.7122454220056536,-1.9045762784779072,1.2859483176469804,2.8658084830251953
2.7927625832962804,-2.5857253003120424,-2.1538737796247007,1.2415871004760266,3.587016324927594
2.8027905832859688,-3.142142248749733,-2.3307855284214023,1.0407873561233283,4.048315379456355
2.812818583333865,-3.308002613782883,-2.487998738586903,0.6834108710289002,4.195243668089481
2.8228455833159387,-3.0063190305233003,-2.6750105291604998,0.28835938677191736,4.034449972467817
2.832873583305627,-2.214817115664482,-2.931986009180546,0.055122871398925785,3.674914331630339
2.8429015832953155,-1.0457394361495973,-3.1801099741458896,-0.11967905580997468,3.349775140569918
2.852929583285004,0.46233174026012425,-3.3615990695357323,-0.1897902412712574,3.398546642027627
2.8629575833329,2.1890361571311954,-3.256865204572678,-0.20069866061210634,3.929291311465139
2.872984583314974,4.075081293582916,-2.5560132586956024,0.0667705249786377,4.810815900753536
2.8830125833046623,5.4973439955711365,-1.5517434453964234,0.33995010137557985,5.722260462212295
2.8930405832943507,5.728863914608955,-0.6829159042239189,0.4075509309768677,5.783800968713457
2.903068583284039,4.3990299046039585,-0.11105419345200063,0.23909937232732775,4.40692246872242
2.913096583331935,2.3111540865898133,0.177584178596735,0.0286636358499527,2.31814386017538
2.923123583314009,0.6041752517223359,0.2412113866209984,0.0695847898721695,0.6542573735243087
2.9331515833036974,-0.49224200248718264,0.2024291440844536,0.04146260619163514,0.5338528777664859
2.943179583293386,-1.2605135142803192,-0.003876777067780495,-0.09539936989545823,1.2641243565647347
2.953207583283074,-1.7735745280981066,-0.27460136342793706,-0.31477696090936663,1.8221023710632287
2.9632355833309703,-2.1171738767623904,-0.558740339577198,-0.4982061624526978,2.2456236042181636
2.973262583313044,-2.154518873691559,-0.8424770638346673,-0.6553550532460213,2.40441457032595
2.9832905833027326,-1.8293329918384553,-1.1921668723225594,-0.9983445373177529,2.4009191701688306
2.993318583292421,-1.1663189631700517,-1.557424892485142,-1.3938618984818458,2.3934751328605515
3.0033465832821093,-0.4250504779815674,-1.7467551040649414,-1.6400089198350907,2.4334030820125023
3.0133745833300054,0.15515703678131104,-1.7670966902375222,-1.7336886236071587,2.4803992949394353
3.0234015833120793,0.5916674727201462,-1.7552765437960625,-1.8445717129111292,2.614098496145008
3.0334295833017677,0.9758938604593278,-1.7728599983453752,-1.9117524200677873,2.783917871678404
3.043457583291456,1.2828247350454332,-1.7860641807317734,-1.77781551361084,2.8277716596240268
3.0534855832811445,1.3718725669384004,-1.7462048810720445,-1.5812625288963318,2.72610656649545
3.0635135833290406,0.986067430973053,-1.5799200081825258,-1.2778814989328384,2.258640594693212
3.0735405833111145,0.07688854694366455,-1.2932587990164757,-0.8530210554599762,1.5511528264302963
3.083568583300803,-1.143021901845932,-0.9069446629285813,-0.4767468810081482,1.5350359208387037
3.0935965832904913,-2.458622034788132,-0.35730054438114167,-0.09859311908483506,2.4864043500789794
3.1036245832801796,-3.9115013426542284,0.2801792599819601,0.1260130521655083,3.923547178335688
3.1136525833280757,-5.49334333062172,0.669540690779686,0.10810624659061432,5.535051277562637
3.123680583317764,-6.859078075289727,0.9685398173332215,0.22398461222648622,6.93074242251105
3.133707583299838,-7.729347832202912,1.1597013768553734,0.3952179837226868,7.825849631146635
3.1437355832895264,-8.207055995464325,1.2505545365810395,0.7122353053092957,8.332282633935275
3.153763583279215,-8.430951730012895,1.2038268050551415,1.402836497426033,8.63122797108773
3.163791583327111,-8.606847086548806,0.9329633107781411,1.9228077507019044,8.86822569382687
3.1738195833167993,-8.477840552330017,0.6741690543293953,1.8070673793554306,8.694468175689483
3.183846583298873,-7.502306295633317,0.8955545791983605,1.600237913131714,7.723171572381815
3.1938745832885616,-5.650291954278946,1.487456232905388,1.412900140285492,6.011207201537578
3.20390258327825,-3.2217082357406617,1.7268964979052543,0.8857221937179566,3.761127394168029
3.213930583326146,-0.21041731774806977,1.4096201446652412,0.44387149572372436,1.4927579524391636
3.2239585833158344,4.294742474555969,1.1736332452297211,1.1729900515079499,4.604143088349905
3.2339855832979083,8.941828808784486,1.1696761420369148,2.9139704453945163,9.477112876793822
3.2440135832875967,10.453058066368104,0.43660691499710086,4.183668766021729,11.267658713365096
3.254041583277285,7.447309139370919,-1.04799880027771,3.4429920190572743,8.271330542665625
3.264069583325181,3.980088597536087,-1.987770901322365,0.9500403964519502,4.549166424222276
3.2740975833148696,1.8728801304101945,-2.436799056529999,-1.253263551592827,3.3190870965586106
3.2841245832969435,-0.42364656150341035,-2.7259286677837373,-1.8610096979141237,3.3276899805494655
3.294152583286632,-2.9705744165182115,-2.9113152247667315,-1.642330849170685,4.471836235839678
3.304180583334528,-4.653242867588997,-2.6459609770774843,-0.7909973001480103,5.411049381203811
3.3142085833242163,-4.627251994013786,-1.3971667447686196,0.4225700891017914,4.85202034301129
3.3242365833139047,-2.329426635503769,1.324470651447773,1.2202367234230043,2.9443893455062984
3.3342635832959786,-0.4903972059488297,3.130403963327408,0.8931417256593704,3.2920541513365422
3.344291583285667,0.6764643788337708,4.00970503717661,0.34712521970272064,4.081156019946321
3.354319583333563,1.7005340337753296,4.055548377335072,-0.38825570404529575,4.414751536910886
3.3643475833232515,2.62887658238411,3.3640201091766357,-0.7378876250982285,4.332678331889577
3.37437558331294,3.3169219565391543,2.529101156294346,-0.33750128746032715,4.184761766645541
3.3844025832950138,3.1963652336597446,1.6032787576317789,0.45444910883903505,3.6046882631021795
3.394430583284702,2.324442468881607,0.7830988812446594,1.3824139273166658,2.8155541045034362
3.404458583332598,0.9508601760864258,0.11649290800094605,1.8631918787956239,2.0950392954051225
3.4144865833222866,-0.42718471169471744,-0.6713194137811661,1.2796643149852753,1.506883304132049
3.424514583311975,-1.268895497918129,-1.4507667088508607,-0.7292594736814499,2.0607375398388315
3.434541583294049,-1.2911435687541963,-1.9843453100323678,-2.643944857120514,3.5489607538090344
3.4445695832837373,-0.6803235411643982,-2.6107084062695503,-3.489107254743576,4.410499737935965
3.4545975833316334,0.6634929156303406,-2.8712354850769044,-3.52263460457325,4.592730192074578
3.4646255833213218,2.230889357328415,-1.9377921178936959,-2.883968381881714,4.129065178040371
3.47465358331101,3.2805581223964695,0.22252353921532633,-2.2702142214775085,3.9956790325706963
3.484680583293084,3.650216172337532,2.461183115243912,-2.360427403450012,4.995309595862298
3.4947085832827725,3.2369998741149906,3.688810719251633,-2.458519708514214,5.489062931379001
3.5047365833306685,1.9331406578421593,3.801108250021935,-2.63472204387188,5.012705554872703
3.514764583320357,0.7543522149324418,3.2949335020780564,-2.4251344460248947,4.160157584585747
3.5247925833100453,0.5811594414710999,2.100836317688227,-1.8656570649147035,2.8691350288884934
3.534819583292119,1.5918313711881638,0.04260252088308335,-1.4863873618841172,2.1783226296059106
3.5448475832818076,3.0580703973770142,-1.7302356965839865,-1.224203474521637,3.720777374162277
3.5548755833297037,4.218321997225285,-2.301126404106617,-0.6773905777931214,4.852657127268963
3.564903583319392,4.897094564437866,-1.950756564438343,0.31467960476875306,5.280720556931942
3.5749315833090805,5.292939369678497,-1.0392187674343587,1.9587149173021317,5.738618905707391
3.5849587916163728,5.656023395061493,0.18563535600900652,3.4551770317554475,6.630483349775785
3.5949857916566543,5.57232108771801,0.9790503336489201,4.496512345075607,7.226889035391523
3.6050137916463427,4.832780747115613,1.0152896220982075,4.895059148669243,6.953286045849266
3.615041791636031,3.807491362988949,0.05440176352858544,4.6620195382833485,6.019499664128752
3.6250697916257195,3.3973901689052584,-0.9427158817648889,4.345091094374657,5.59560450817602
3.635096791666001,3.3558907252550125,-1.517980306595564,3.860018947720528,5.3353550067288
3.6451247916556895,3.260213027894497,-1.6961904296278953,3.2948305910825733,4.935783583662052
3.655152791645378,3.1040511471033096,-1.0277966701984407,2.8214873743057254,4.318829763080618
3.6651807916350663,3.072084711492062,-0.5038003398478031,2.777990521788597,4.172379488512678
3.6752087916247547,3.0144536769390107,-0.29501717269420624,3.130788125395775,4.356122173299871
3.685236791614443,3.1093653890490534,-0.4834147533774376,3.9489779019355775,5.049383072849064
3.6952637916547246,3.8269400793313983,-0.6892618873715401,4.710770698785782,6.108347804170508
3.705291791644413,3.5305751234292986,-0.46729368746280675,5.24191539645195,6.337270793968047
3.7153197916341014,3.340504361987114,-0.14121391251683235,5.945043078660965,6.820736614814994
3.72534779162379,3.9597920349240305,0.2937904268503189,6.594906134605408,7.697990172701751
3.735375791613478,4.277425360679627,0.6809320170432329,7.292114095687866,8.481448232026738
3.7454027916537598,4.176941544413567,1.030201556906104,8.172710620164871,9.235873255640499
3.755430791643448,3.919000104367733,1.2170505025237799,8.541366457343102,9.476007318610172
3.7654587916331366,3.400528954267502,0.8828248983621598,8.386044529080392,9.092234038656228
3.775486791622825,2.7203013074398044,0.32081874266266824,7.683279374241829,8.156944637028763
3.7855147916125134,1.602312066704035,-0.19934444546699526,7.0070681798458105,7.19069862002654
3.795541791652795,0.8968495181947947,-0.8787884192168713,6.6530198568105705,6.7704712804317895
3.8055697916424833,0.013715448305010796,-1.4301698917150498,7.999957557320595,8.12680102817962
3.8155977916321717,-0.09680884122848511,-1.3683578056097032,13.766838898658753,13.835014575255666
3.82562579162186,4.892727863788605,-2.2444458344578746,26.65419809103012,27.192326103678266
3.8356537916115485,10.461485073566438,-3.8345744964480404,36.54908562898636,38.20971462636486
3.84568079165183,12.762373788356781,-4.212348189353943,34.017128984928135,36.575772395936184
3.8557087916415185,16.127521240711214,-2.517772468328476,28.36866720914841,32.72945766118462
3.865736791631207,16.66454005122185,-1.1226559035480024,18.380075701475146,24.83534646805849
3.8757647916208953,12.658213827610016,-1.1869447240233422,10.793464250564575,16.67747239876594
3.8857927916105837,5.748228138685227,-1.9787123948335648,3.8640330612659457,7.203345123926583
3.8958197916508652,-0.025823058485984804,-1.8674245320260525,-0.30722323536872864,1.8927037088548015
3.9058477916405536,-2.8933455616235735,-1.4735990627110005,-2.3357948380708695,3.999860030319572
3.915875791630242,-5.088849323987961,-1.4688938082754612,-3.3815833908319477,6.2840387245300455
3.9259037916199304,-6.53930379152298,-1.4004989267885686,-2.9832541036605837,7.32282024692471
3.9359317916678265,-8.129044783115388,-1.605937486588955,-1.1258129614591599,8.362287911864588
3.9459587916499004,-10.51171733379364,-2.1936345537006856,0.9574546658992767,10.780767750861697
3.9559867916395888,-13.444775429964066,-3.1815448808670044,4.131978794932365,14.42073031967893
3.966014791629277,-18.054681658744812,-4.465890476703644,9.291544929742814,20.79058716655107
3.9760427916189656,-22.627162199020386,-5.896147491931916,14.033214654922485,27.270572747533617
3.9860707916668616,-22.11869066476822,-5.715179091095925,12.266794195175171,25.93017525189115
3.9960977916489355,-20.146455230712892,-5.579888554215431,8.994450241327286,22.7577448308108
4.006125791638624,-19.509404593706133,-5.727990925312042,6.05107414841652,21.21419915978479
4.016153791628312,-19.343948271274567,-5.314343102574349,1.30270117521286,20.102925351438948
4.026181791618001,-19.515762856006624,-4.511750189065934,-1.912778606414795,20.121620501778242
4.036209791665897,-20.49002826690674,-3.994491459131241,-3.2656716960668564,21.12964344285539
4.046236791647971,-22.218371658325196,-3.712847745716572,-6.172056548595429,23.35670266902845
4.056264791637659,-33.938198590278624,-1.7778929892182351,-24.448364052772522,41.86507771270944
4.0662927916273475,-41.058984589576724,0.7294617873430252,-38.79706405878067,56.49411039752218
4.076320791617036,-18.616029564142227,4.485392695069313,-41.0352636051178,45.28319957228623
4.086348791664932,-7.595371749401093,3.1976448968052864,-27.364962236881258,28.578939153222645
4.096375791647006,-6.612902694940567,-1.7606290850043298,-14.767318546772003,16.275871524731073
4.106403791636694,-5.55030222773552,-2.5266608208417893,-13.14488226413727,14.490610734569241
4.116431791626383,-4.551434072256089,-1.6637939313054086,-8.639607281684876,9.905885944310317
4.126459791616071,-3.3189550334215165,-1.0834555850923062,-5.280332188010216,6.330185347561199
4.136487791663967,-1.9182176864147187,-0.3910879491269589,-2.377170905470848,3.0795211300206495
4.146514791646041,-1.3943948721885682,0.43855886176228526,0.2101138472557068,1.476759548343805
4.156542791635729,-1.6394154274463655,0.9276074074208737,2.0778396570682527,2.8045598739439916
4.166570791625418,-0.8637071344256402,1.0878744721412659,2.470248638391495,2.834005860380219
4.176598791615106,0.6190631398558617,0.8133137834072114,0.5395933395624161,1.155802514925656
4.186626791663002,2.927558205127716,0.7762857055664063,-2.128609861135483,3.7019179464165015
4.196653791645076,5.373563117980957,0.962517331391573,-3.9006734687089923,6.7094615063836995
4.2066817916347645,5.9455272281169895,1.2242370960116387,-4.644670849442482,7.643364297689353
4.216709791624453,5.149991903901101,0.8548352272063494,-5.601953022480012,7.6573518622297065
4.226737791614141,4.150561830997467,0.04640759646892548,-5.894217910766602,7.209099940876453
4.236765791662037,5.170092877149582,2.002259132266045,-5.0883271676301955,7.5252890546436255
4.246792791644111,6.333359593749047,3.3611652061343196,-3.4382540202140808,7.951758673034497
4.2568207916338,5.985741453766823,2.1732209005951884,1.156974527835846,6.47229324831526
4.266848791623488,2.371431863307953,-0.6284160536527634,5.404169198870659,5.934950762122891
4.2768767916131765,-1.4605262964963914,-2.5946522444486617,9.439649639725685,9.898097931075101
4.2869047916610725,-4.450681576430798,-3.638112143576145,6.865467327833176,8.95427652541296
4.296931791643146,-6.047566403746605,-3.706746176183224,4.424662343859673,8.360063604993886
4.306959791632835,-7.523053386211395,-3.4320931014418603,6.181455947756768,10.324049251277769
4.316987791622523,-8.604895870685578,-4.082680627405644,12.820596853494644,15.97123093974199
4.327015791612212,-10.970365912914277,-5.723351159691811,19.203982300758362,22.84510041492962
4.337043791660108,-16.896230124235153,-4.418749054670334,17.272387354373933,24.563047460337614
4.347070791642182,-18.9368230175972,0.061937810378149154,11.930474045276643,22.381762960883425
4.35709879163187,-15.449837132692338,2.6144368833303453,13.5459427857399,20.712926244212234
4.367126791621558,-7.5962938553094865,3.1872672584652904,16.063664968013764,18.052802694254712
4.377154791611247,-2.0306592048704624,3.4394278487563135,15.135548121929169,15.653691503423696
4.387181791651528,-0.44064354032278064,3.4619846525788307,12.882061614990235,13.346423337985515
4.397209791641217,-0.7915399217605591,3.3070799231529238,9.909869273900986,10.477061710788417
4.407237791630905,-1.4235394415259361,3.0406687912344936,6.462587152719498,7.282661872286981
4.4172657916205935,-1.900842392742634,2.7563368204236034,3.9663072949647904,5.190586482061671
4.42729379166849,-2.676146350800991,2.2477635446190836,2.396657336354256,4.237707709519934
4.437321791658178,-3.5044450861215592,1.386898741722107,1.661541291475296,4.118900696145672
4.447348791640252,-4.203863879442215,0.5153540359809995,1.4828351783752443,4.487411443751062
4.45737679162994,-4.536601732671261,-0.21249841488897803,1.2684633886814118,4.715390781857994
4.467404791619629,-4.2081004795432095,-0.6406269402801991,1.1289909231662751,4.403763507176151
4.477432791667525,-3.3634859660267833,-0.8204750876873732,0.6988644772768021,3.531944049779683
4.487459791649599,-2.2794884902238848,-0.6166505786776543,0.03320750713348389,2.3616579878925466
4.497487791639287,-1.5390994262695312,-0.3484038595855236,-0.8848258155584335,1.809179100364565
4.507515791628975,-1.0605168119072914,-0.0349531842302531,-1.7893082159757614,2.0802743869942257
4.517543791618664,-0.9456269180774689,0.3731207710504532,-3.073295377492905,3.2370625349692017
4.52757179166656,-1.2573817455768586,0.6886015905439854,-3.8524438798427583,4.110535835137256
4.537598791648634,-1.5291480499505998,1.1822678285837174,-4.024750215411187,4.464825335175406
4.547626791638322,-1.621254560351372,1.6052488307654857,-4.095193376541138,4.687845875175557
4.557654791628011,-1.4349061363935471,1.832027096450329,-4.579345756173134,5.136699957849297
4.567682791617699,-1.409708145260811,1.8838857597112657,-5.814036211967468,6.272106479048852
4.577710791665595,-1.7209712219238282,1.6833525753021241,-6.259178307652474,6.706171107752438
4.587738916627131,-2.595003662109375,1.2743854486942292,-6.096729792952538,6.74745999962058
4.59776691661682,-3.2716715240478518,0.8088938730955124,-5.650862057805061,6.579542982269962
4.607794916664716,-3.5844349962472917,0.3002458260208368,-4.46719060510397,5.735339022298022
4.617822916654404,-3.6886201000213625,-0.06101043283939362,-3.757303249239922,5.26564034301107
4.627850916644093,-3.6497986811399463,-0.20066964380443097,-3.3425117111206055,4.953148822494019
4.6378779166261666,-3.501752443313599,-0.06427632205188274,-2.512904076576233,4.310578675526377
4.647905916615855,-3.47661877155304,0.037048543095588686,-1.898718976378441,3.9614876534605115
4.657933916663751,-3.4651289927959446,0.00732012927532196,-1.3497186362743379,3.718724635962429
4.667961916653439,-3.660404945611954,0.016339824870228767,-0.7539622056484223,3.737283821612091
4.677989916643128,-3.863870508670807,0.1558934935927391,-0.18628995180130006,3.8714986807775977
4.688016916625202,-3.935073223114014,0.29937042474746706,0.2958889925479889,3.957521221471018
4.69804491661489,-3.9779455929994585,0.3860141008347273,0.6639932911098003,4.0514127310786145
4.708072916662786,-4.130830401778221,0.38336333870887757,0.9603607320785523,4.2582883877726845
4.7181009166524746,-4.345613250732422,0.377608874514699,1.3104290015995503,4.554576506689361
4.728128916642163,-4.54427591085434,0.39415057450532914,1.7270920872688293,4.877360485678758
4.738155916624237,-4.67333390057087,0.4369567246735096,2.175899071544409,5.1735401510967485
4.748183916613925,-4.601519567370415,0.4144497683644295,2.661226887702942,5.331780142431159
4.758211916661821,-4.168770645260811,0.2804961973428726,3.005071234703064,5.14662801600736
4.76823991665151,-3.5410860782861713,0.08712424412369729,3.2923235973715785,4.835935888486942
4.778267916641198,-2.8632464343309403,-0.12324381083250047,3.4588736414909365,4.491901161915535
4.788294916623272,-2.194971081018448,-0.32383122816681864,3.5264882120490078,4.1663993832281525
4.79832291661296,-1.7258659261465072,-0.4559300623834133,3.4368831405043605,3.872809204995981
4.8083509166608565,-1.2343010312318803,-0.5514874532818794,3.1018683815002444,3.3836703301264976
4.818378916650545,-0.8519475066661835,-0.6176166117936374,2.532509790658951,2.7424205864640134
4.828406916640233,-0.6726976025104523,-0.6582812923192978,1.883869972229004,2.10590180124976
4.838433916622307,-0.5448032087087632,-0.792994635924697,1.3053382694721223,1.6215915103913137
4.8484619166119955,-0.05294069051742554,-1.0540172662585974,0.6535456323623657,1.2413206708436113
4.858489916659892,0.9744969606399536,-1.4706913885474207,-0.4783817259594798,1.8279569366853308
4.86851791664958,0.9844202703237535,-1.6787335672974588,-0.18955562174320223,1.9552905135375651
4.878545916639268,0.3717987155914307,-1.821722840666771,-0.07251599907875061,1.8606899159303347
4.888572916621342,1.151361785531044,-1.782596197128296,0.3989764277637005,2.1592742653744983
4.898600916611031,1.70540768802166,-1.4219092378020288,1.7810664193332195,2.8464783246999414
4.908628916658927,1.364525540471077,-0.83769959628582,3.155637037754059,3.5386036339579663
4.918656916648615,0.9671563661098481,-0.22829722613096237,4.25881835103035,4.37321904402681
4.928683916630689,1.230298027396202,0.319717273414135,5.0095458769798284,5.168307485502382
4.9387119166203775,2.059456595778465,0.8060228902101517,4.9813856863975525,5.450251161743335
4.9487399166682735,2.961991288661957,1.0487373036146164,4.090270605683327,5.157863506706941
4.958767916657962,3.487588732838631,0.9021315273642541,2.3799582731723787,4.3175592461631815
4.96879591664765,3.5147081190347675,0.41508799195289614,0.323233350366354,3.5538642351476315
4.978822916629724,3.1355296325683595,-0.4375082632899285,-1.1767404556274415,3.3775253747487257
4.988850916619413,2.2743236446380615,-1.467621600329876,-1.586029617637396,3.1371884148609257
4.998878916667309,1.3126233154535294,-2.240557436048985,-0.986056175082922,2.7776580734362857
5.008906916656997,0.37731147050857544,-2.5593704375624657,0.17668590009212495,2.5930597543707696
5.0189349166466855,-0.48860094130039217,-2.64746838927269,1.2397547292709352,2.9639182749845534
5.028961916628759,-1.2575957536697389,-2.5838764107227328,1.8651204366981984,3.4258777895492463
5.038989916618448,-1.799781163930893,-2.229735409319401,1.970381866693497,3.4775475459305722
5.049017916666344,-1.9658660620450974,-1.646034183204174,1.576430389881134,3.009848946428727
5.059045916656032,-1.7432970607280731,-0.989289831519127,1.0723986464738846,2.2732834996210443
5.069073916645721,-1.2391249841451646,-0.33260336726903916,0.6452740149199963,1.436117780887915
5.0791009166277945,-0.6466821706295014,0.2787250757217407,0.38208382174372674,0.8011701095800228
5.089128916617483,-0.2352475190162659,0.6702122434973717,0.16693676434457302,0.7296531572102763
5.099156916665379,-0.045087295174598696,0.7385518687963486,0.05060882091522217,0.7416555668524099
5.109184916655067,-0.051360772848129274,0.4118097504973412,0.18232203125953675,0.4532841522432072
5.119212916644756,0.03863313853740692,-0.10769109427928925,0.7952820666879415,0.8034696364989562
5.12923991662683,-0.00841531276702881,-0.46204201072454454,1.5365892165899278,1.6045747279898792
5.139267916616518,-0.2006279093027115,-0.5559602808952332,2.0342165046930316,2.1183437350651615
5.149295916664414,-0.41014767944812774,-0.4403082025051117,2.0650389325618743,2.150924969669154
5.1593239166541025,-0.5482893186807632,-0.1435970914363861,1.700103093981743,1.792091468596037
5.169351916643791,-0.5188789933919907,0.11169117450714112,1.1968624057620765,1.30927076900573
5.179378916625865,-0.38182259738445284,0.29965927720069885,0.8545354112237692,0.9827588449468321
5.189406916615553,-0.2486762344837189,0.333339239358902,0.6622011926025153,0.7819624911577067
5.199434916663449,-0.23431956589221956,0.18202148437500001,0.5789432736486196,0.6505480718878329
5.209462916653138,-0.305587769150734,-0.17609240770339968,0.5681587421894074,0.6687277301200782
5.219489916635212,-0.31877148628234864,-0.6010849982500076,0.6743534608930349,0.9579514736176793
5.2295179166249,-0.24495799005031588,-0.9179403519630432,0.8400272997468711,1.2681737936779587
5.239545916614588,-0.21226445317268372,-1.143680883049965,1.020151362642646,1.5471816192794863
5.249573916662484,-0.19113144636154175,-1.281095713376999,1.1827665960788727,1.7540451184109205
5.259601916652173,-0.21149612903594972,-1.293472807109356,1.2615981727838517,1.8191845604281336
5.269628916634247,-0.3145088660717011,-1.2026330959796907,1.269486066699028,1.7767490154567054
5.279656916623935,-0.48393486320972445,-1.0025203263759614,1.2474976122379304,1.6719719642285025
5.2896849166136235,-0.771582790017128,-0.6803776279091835,1.2662876397371292,1.6314834062781554
5.29971291666152,-1.226856940984726,-0.3551993474364281,1.350205124616623,1.8586011967613316
5.309740916651208,-1.705099539756775,-0.06235324591398239,1.343163176625967,2.1714832918534586
5.319767916633282,-2.1466379964351656,0.1840890598297119,1.2731252275407314,2.502556955333646
5.32979591662297,-2.4837188690900804,0.35517888218164445,1.2635084581375122,2.8091751605777353
5.339823916612659,-2.791684116125107,0.49684259176254275,1.2870177733898163,3.1139633129238726
5.349851916660555,-3.012467377781868,0.6029558148980141,1.3028445781767368,3.3370525036031142
5.359879916650243,-3.177275243997574,0.6371889236569405,1.3370184838771821,3.5055250857439564
5.369906916632317,-3.2995282441377642,0.5890005576610565,1.3226414962112905,3.6032192298398824
5.379934916622005,-3.3213711029291155,0.5433607006072998,1.351043761521578,3.6265777393961103
5.389962916611694,-3.207376710176468,0.5667673972249031,1.4624254721403123,3.5703191601178075
5.39999091665959,-3.0598280704021454,0.6613437715172767,1.5306180399656297,3.484639865009559
5.410018916649278,-2.9785722380876543,0.7785982793569565,1.5872803370654585,3.4637503845627715
5.420045916631352,-3.097615116834641,0.8663711258769036,1.5510610753297807,3.570939484113232
5.4300739166210406,-3.3927544963359835,0.9401208874583245,1.403075648546219,3.7898854377127096
5.440101916610729,-3.7481634664535526,0.9283954659104348,0.9792048463225366,3.9836528015681423
5.450129916658625,-4.064797210693359,0.8573728457093239,0.36279809653759004,4.170046404954208
5.460156916640699,-4.327942380309105,0.7598982989788056,-0.39836466282606126,4.412167843209849
5.470184916630387,-4.394116489291191,0.7049780336022378,-1.2185819613933564,4.614130009650324
5.480212916620076,-4.2021313494443895,0.6803714883327484,-2.1504076963663104,4.769178807793948
5.490240916667972,-3.6930990672111514,0.5413054043054581,-3.204106362462044,4.9191757279991455
5.50026891665766,-2.76696968972683,0.2928969357535243,-4.193203528225422,5.0323817132609205
5.510295916639734,-1.3065808027982713,0.119622922539711,-4.8382505249977115,5.012996227854011
5.5203239166294225,0.5235941880941392,-0.0008333013206720353,-5.013219682574272,5.0404883844670385
5.530351916619111,2.50320997774601,-0.22886762201786043,-4.540782199501992,5.190100535096545
5.540379916667007,4.4958095097541815,-0.6154273411631584,-3.2664499604701995,5.591131308107784
5.550407916656695,7.081735954284668,-1.0725840032100677,-2.336909609735012,7.534093647826669
5.560434916638769,9.989658039808274,-1.865859963297844,-2.6206787860393526,10.494887253064734
5.570462916628458,12.632175006866456,-2.714359659254551,-2.513128317296505,13.162652001138966
5.580490916618146,14.644534034729004,-3.212590672373772,-0.009621154814958573,14.992771874779496
5.590518416662235,16.659110326766967,-3.603539019227028,3.9419898945093155,17.494305778478296
5.600546416651923,18.999836121797564,-4.094964458048344,7.931084958314896,20.992013128422236
5.610573416633997,21.903550550937652,-3.438636720478535,10.562873454093934,24.559398299634843
5.6206014166236855,23.869779725074768,-0.5524663137272,11.280218056440354,26.406721162466134
5.630629416613374,22.775868587493896,2.5961666733026507,12.535992987155915,26.127215532551126
5.64065741666127,18.922635333538057,4.045009940564633,15.40637828707695,24.734282389223377
5.650685416650958,13.592277292013168,4.065990042686463,16.24576714396477,21.568663081102816
5.660712416633032,7.6580661803483965,3.6329402813315395,13.111777667999268,15.612909604726516
5.670740416622721,3.0081076937913895,2.853718104064465,9.03496325969696,9.940974802250842
5.680768416612409,-0.29537502229213713,1.8993191930651665,5.622041716575623,5.941549702212074
5.690796416660305,-3.061733093261719,0.9250593370199204,2.806215616464615,4.254972432046016
5.700823416642379,-5.468395015597344,0.19243683725595476,0.6685741460323334,5.512473797823063
5.710851416632067,-7.403304748535157,-0.2728962787985802,-0.658604058623314,7.437550193760067
5.720879416621756,-8.872152217626573,-0.5856884023547173,-1.4796607249975204,9.013740163688386
5.730907416611444,-9.807162930965424,-0.7425832316279412,-1.9358715999126435,10.023945004924242
5.74093541665934,-10.181693465709687,-0.7447209736704826,-2.0402255420386792,10.410764209254143
5.750962416641414,-10.316647202968598,-0.6107414190843702,-1.802128821015358,10.490656932672959
5.760990416631103,-10.43024106144905,-0.5464518311619759,-1.417177963256836,10.540252918372447
5.771018416620791,-10.477962527275086,-0.48309871137142185,-1.076300493478775,10.544169281653831
5.781046416668687,-10.611442766189576,-0.427864779420197,-0.8351122033596039,10.65284930156179
5.791074416658375,-10.778752655982972,-0.3943502934649587,-0.651196221113205,10.80560398548864
5.801101416640449,-10.870670886039735,-0.31437909442931417,-0.3476660506054759,10.880771636715371
5.811129416630138,-10.872846050262451,-0.27101292718201875,-0.013122248277068139,10.876231030683718
5.821157416619826,-10.988740203380585,-0.21281935393810272,0.20338136315345764,10.992682443957051
5.831185416667722,-11.149726914167404,-0.20168099284172059,0.2466589450836182,11.154278377312105
5.841213416657411,-11.37347295999527,-0.2230979185178876,0.07196643389761448,11.375888493678133
5.8512404166394845,-11.96827044725418,-0.228662147205323,-0.6813033152371646,11.989827274966704
5.861268416629173,-12.56924961090088,-0.18379436016082765,-1.4401341319084169,12.652817965411755
5.871296416618861,-12.696071040630342,-0.12699595084413887,-1.6928309118747713,12.809060244079657
5.881324416666757,-12.430261294841767,-0.08625871002674103,-1.4997581899166108,12.520707290377757
5.891351416648831,-12.062593052387237,-0.0451814353466034,-1.3185950767993928,12.134532767525927
5.90137941663852,-11.808157310485841,0.07451486974954606,-1.281171727180481,11.877690538548334
5.911407416628208,-11.443108620643617,0.2556853101588786,-1.2993770331144334,11.519483085445483
5.921435416617896,-10.97746677160263,0.46680807620286946,-1.3009288841485978,11.064135866088241
5.9314634166657925,-10.621490621566773,0.6387732267379761,-1.3770941305160522,10.729421349892542
5.941490416647866,-10.426195957660676,0.7905702341347933,-1.768021573573351,10.604549199624685
5.951518416637555,-10.43455396771431,0.9111262992024423,-2.655682557821274,10.805679871537789
5.961546416627243,-10.607737970352174,0.9644935441017152,-3.8649575060606005,11.331030366560638
5.971574416616932,-10.67301160812378,0.9787528565526009,-4.31328750371933,11.553163334390117
5.981602416664828,-10.472625188827514,1.136502402573824,-3.689303347170353,11.161472808019692
5.9916294166469015,-10.257920107841493,1.72347675383091,-3.1364184093475345,10.864272525040436
6.00165741663659,-10.399178313016892,2.3662813434004786,-2.5488872569799423,10.965355590715731
6.011685416626278,-10.7869492828846,2.839343309104443,-1.9003754925727845,11.315103723397854
6.021713416615967,-11.220847767591478,2.376545545756817,0.15931089878082277,11.470866284504828
6.031741416663863,-11.554313306808472,1.2496324306726456,2.772918062210083,11.947920814242579
6.041768416645937,-12.108697178363801,0.08472997376695275,4.554995611310005,12.937376532544123
6.051796416635625,-12.87707043170929,-1.0952884492278099,5.591253787279129,14.081218647687308
6.0618244166253135,-13.606070873737336,-1.9282526779174807,5.509995616078377,14.805518386745609
6.071852416615002,-14.075203510522844,-2.3150351759791374,4.761674219369889,15.038094397232223
6.081880416662898,-14.19563393354416,-2.4323779767751694,4.045509585142136,14.95990084193636
6.091907416644972,-14.085190554857254,-2.4161484450101853,3.4666749966144565,14.705380029333378
6.10193541663466,-13.576680428981781,-2.135863916873932,2.676844800710678,14.001916448443504
6.111963416624349,-12.621149497032166,-1.3088015753030777,1.731928904056549,12.80648093422458
6.121991416614037,-11.74839876651764,-0.6774303388595582,0.6105592417716981,11.783741682030943
6.132018416654319,-11.102724655866623,-0.8789490714669228,-0.4281208509206772,11.145686776381895
6.142046416644007,-10.527759754657746,-1.2477774015069008,-0.3865603038668633,10.60849201178133
6.152074416633695,-10.052184655666352,-1.5792139568924906,0.7205646640062332,10.200958117170785
6.162102416623384,-9.582431629300117,-1.2503852596879006,1.2574586364626885,9.74513527100936
6.172130416613072,-9.083199865221978,-1.0242430248856544,1.9759495854377747,9.3518966167183
6.182157416653354,-5.384924257993698,-1.4239449459314346,5.352973902225495,7.72524161895794
6.192185416643042,2.0220765155553817,-2.793773910999298,9.749439218044282,10.341447247212589
6.2022134166327305,7.482553816437721,-4.532895767390729,16.478481649160386,18.65679804027559
6.212241416622419,19.168983206748962,-5.409152780771255,31.593261630535128,37.34759739851805
6.222269416612107,88.88926943778992,-19.439038031101227,54.37600420475006,105.99966157508999
6.232296416652389,175.47533466339112,-37.65239675045014,13.815695893764497,180.00047085858247
6.242324416642077,114.35482915878296,-33.07017942667007,-22.921606929302218,121.22732275963214
6.252352416631766,19.002217108011248,-19.1100467813015,0.8074186205863954,26.961640673972287
6.262380416621454,4.521264778375626,-14.176515877246857,7.714691201448441,16.761023177232296
6.2724084166111425,-2.5487521862983704,-11.312431536912918,6.493399640321732,13.29027779519424
6.282435416651424,-5.733911231160164,-6.588281239271164,8.678846776485443,12.31282132836617
6.292463416641112,-7.592457497119904,-1.969105711877346,9.226038572788239,12.10960676061352
6.302491416630801,-7.683889823555947,-1.1545394548773766,1.8378862988948823,7.984544459208723
6.312519416620489,-4.567146125435829,-2.64999935656786,-4.003269299268723,6.6262723610911936
6.322546416660771,1.2481817364692689,-4.6484946361184125,-5.8958422672748565,7.611006245553988
6.332574416650459,8.631425857543945,-5.198068295717239,-6.63916020154953,12.066477303797416
6.342602416640148,15.247418221235277,-4.625565364658833,-7.020596297979355,17.41173138246712
6.352630416629836,18.99721773862839,-4.27795511841774,-6.19138627409935,20.433512811045475
6.362658416619524,18.175668736696245,-4.417931906282902,-5.061856237649918,19.37770484152613
6.372685416659806,13.926190727949143,-4.1357268601655965,-3.709047932624817,14.993333899424114
6.382713416649494,8.228348046541214,-3.4326702216267586,-2.157587346285582,9.173010388215713
6.392741416639183,3.419551116228104,-1.948811780512333,-0.4154740543663502,3.9577538935881464
6.402769416628871,-0.060898166298866276,0.04013689622282982,1.4375158949196338,1.4393649659636578
6.4127974166185595,-3.21013191819191,1.8296659907698631,2.22976537629962,4.315608671244292
6.422824416658841,-5.626243525743485,2.983844672441483,1.5604758234322071,6.556907047971957
6.4328524166485295,-7.5400956809520725,3.643494797945023,0.40639683678746225,8.384107323353835
6.442880416638218,-8.899234181642532,3.718139183521271,-0.7337447997182608,9.672606134794524
6.452908416627906,-9.719939430356026,3.5501937013864517,-2.4614626121520997,10.63672393353219
6.462936416617595,-10.732892943620682,3.728541087806225,-2.172054673433304,11.567836058963893
6.472963416657876,-11.104322115182876,3.0104547661542895,-0.8190300945192576,11.534280117654886
6.482991416647565,-12.50064890742302,2.4633027309179307,-0.02909227330237627,12.74107255340656
6.493019416637253,-15.045453053712846,1.220923771262169,-2.053662589788437,15.23397001701811
6.503047416626941,-16.436240193843844,-0.6137571571022272,-3.663205761909485,16.850690371961292
6.513074416667223,-16.29575966835022,-2.1003075832128526,-4.000662025809288,16.91059939084016
6.523102416656911,-15.943103567361833,-3.1385409486293794,-4.030724315643311,16.74155695132825
6.5331304166466,-15.423488409519196,-4.071793404221535,-4.0385473054647445,16.455192511292946
6.543158416636288,-14.206364743709566,-4.215898326337338,-3.9219134795665744,15.328927009759493
6.553186416625977,-12.847656598091126,-4.120293719172478,-3.430905239582062,13.921573587698994
6.563213416666258,-11.42907881140709,-3.9813168051838876,-2.519472838640213,12.362138543360526
6.5732414166559465,-10.220580958127975,-3.8289971297979357,-1.8657120287418367,11.07259569910511
6.583269416645635,-9.586366220712662,-3.6566253054142,-1.4973023593425752,10.368762717755148
6.593297541665379,-9.31933966934681,-3.438090298175812,-1.3653669548034668,10.026703530689488
6.603325541655067,-9.267952584028244,-3.0931598308682444,-1.3454514844715595,9.862698542293554
6.613352541637141,-9.264396307468415,-2.6577860936522484,-1.3675305707752705,9.73462920318235
6.62338054162683,-8.721255462169648,-1.9333268916606905,-1.0181171894073486,8.990807100467066
6.633408541616518,-5.35213307261467,-0.7302903378009796,2.240021538734436,5.84776443595802
6.643436541664414,3.022637439966202,1.781145795285702,8.551423083543778,9.243140926725868
6.653463541646488,13.690773639678955,4.1029040998220445,15.355541424751282,20.977696664613045
6.663491541636176,23.07567872285843,3.7523901262879376,17.296108338832855,29.081312622525964
6.673519541625865,31.653366329669954,1.9685402861237526,15.319602098464967,35.220746149303366
6.683547541615553,31.609332118034363,-0.8968973922729493,13.239824674129487,34.281879459594286
6.693575541663449,21.941260414123537,-2.4438721409440043,6.5096531456708915,23.016667953433437
6.703602541645523,10.949036439657212,-2.9154951068758965,-1.7858297073841096,11.470427124520445
6.713630541635212,4.818347187638283,-3.1225672325491907,-5.809409894943237,8.167994801043648
6.7236585416249,-1.29540911257267,-2.6828764960169793,-6.578159708976746,7.221363875240029
6.733686541614588,-5.1706390070915225,-2.126921769976616,-5.94061907529831,8.157834207377288
6.743714541662484,-7.621631594896317,-1.7995937606692316,-5.1170253020524985,9.354771713601934
6.753741541644558,-8.87393620312214,-1.4562116360664368,-4.126316936016083,9.89412894208228
6.763769541634247,-9.414534679055214,-1.242080751657486,-3.2321905392408374,10.031115765393661
6.773797541623935,-9.447158049345017,-1.1988224655389785,-2.4239498001337054,9.82657128131443
6.7838255416136235,-8.760941099524498,-1.3570986995100975,-1.9371511168777944,9.074599731071912
6.793852541653905,-7.0612888258695605,-1.4942685315012934,-1.8252623064815998,7.444878831387914
6.8038805416435935,-4.339364916086197,-1.5642424535751343,-1.683625055551529,4.9103498506936765
6.813908541633282,-1.4251272529363632,-1.508590701520443,-1.0770980536937713,2.338156070292742
6.82393654162297,0.9230215823650361,-1.4460819196701051,-0.23589772939682008,1.7316955559921632
6.833964541612659,2.3221983075141908,-1.6257653948664665,0.21015711665153505,2.8425136960525585
6.84399154165294,2.784536479711533,-1.8664028772711754,0.4460104072093964,3.3817197386048283
6.854019541642629,3.191226115822792,-2.01013796299696,0.733635822236538,3.842238966053474
6.864047541632317,4.110800179839134,-1.9989206644892694,1.056682500243187,4.69158180657738
6.874075541622005,5.19078968167305,-1.8183270701766014,1.2007526314258576,5.629601916243861
6.884103541611694,5.5296878689527516,-1.734461333155632,1.450251861512661,5.974030005454958
6.894130541651975,4.894524128437043,-1.752069346010685,1.631388662159443,5.4486275706920075
6.904158541641664,3.8699703240394596,-1.5060275745391847,1.3493523082137109,4.3664105413829475
6.914186541631352,2.7873103988170627,-0.9924280321598054,0.6307786211371422,3.025209798882383
6.9242145416210406,1.9532635581493378,-0.20708001941442492,-0.07211254119873048,1.9655332306102151
6.934242541610729,1.098718718290329,0.6110056766867638,-0.441551320552826,1.3324707604847987
6.9442695416510105,-0.09498918771743775,1.0697136050462723,-0.448697495162487,1.163889850788897
6.954297541640699,-1.269573774933815,1.3239642825722695,-0.1547246351838112,1.8408255496541666
6.964325541630387,-2.2059299325942994,1.6256195068359376,0.3978866529464722,2.7689491575530876
6.974353541620076,-2.988519521355629,1.8862541744112968,0.9900175175070763,3.670059730437448
6.984380541660357,-3.7512373477220535,2.0254418805241587,1.3939057525992393,4.485216794922547
6.994408541650046,-4.616313607692719,1.9620431524515154,1.56666261613369,5.254940190852956
7.004436541639734,-5.414976607561112,1.8457356011867525,1.7288474214076996,5.976422422857199
7.0144645416294225,-6.117385082244874,1.6652753233909607,1.98538202136755,6.6435896861513415
7.024492541619111,-6.765556538701058,1.3983598691225052,2.1825399005413058,7.245111870729658
7.034519541659392,-7.134296575784684,1.2050515043735506,2.3330039620399474,7.6021868068563085
7.044547541649081,-6.9061165863275535,1.3414807865023615,2.3842150461673737,7.428223097812452
7.054575541638769,-5.924188984036446,1.6099097925424577,2.2525448128581047,6.539249405905607
7.064603541628458,-4.30778527379036,1.7025644794106485,1.9129651325941086,5.011504302118949
7.074630541668739,-2.3791963809728625,1.254772133231163,1.3168935370445252,2.9948684634683858
7.084658541658428,-0.2458660626411438,0.29362641245126725,0.5115419071912766,0.6390162076665576
7.094686541648116,2.597184673547745,-0.8536078235507012,-0.39975659251213075,2.7629368212456797
7.104714541637804,5.486138976216316,-2.259575797319412,-1.5308069050312043,6.127542201460769
7.114742541627493,6.2762732273340225,-3.4839938646554947,-1.8995440185070038,7.4255024309034265
7.124769541667774,4.66101557135582,-3.6251301553845408,-1.3547811555862428,6.058223071118409
7.134797541657463,2.053944425582886,-2.7341700258851054,-0.9004934298992158,3.5362779657605006
7.144825541647151,-0.5467626106739044,-1.4541864529252053,-0.4631088352203369,1.6211345982247345
7.1548535416368395,-2.663433626890183,-0.45812174499034886,-0.18461413979530336,2.70884414440823
7.164881541626528,-4.119390324354172,0.047272545844316484,-0.48567733347415926,4.148191631328516
7.1749085416668095,-4.958105581998825,0.32160548552870755,-1.2511252248287201,5.123627170157171
7.184936541656498,-5.153562213778496,0.43552474156022075,-2.031720913052559,5.556687426905686
7.194964541646186,-4.492826260328293,0.45274069860577587,-2.635123162865639,5.22822494056449
7.204992541635875,-2.661589415073395,0.3283594581484795,-2.9023333168029786,3.9516347035133292
7.215019541617949,-0.5544283103942871,0.1301721766591072,-2.493501845598221,2.557711281779976
7.225047541665845,1.0217588353157043,0.1804007823765278,-1.5783020836114885,1.888802008406422
7.235075541655533,1.419319213628769,0.5047455422580243,-0.6668883937597275,1.6474147086682707
7.245103541645221,0.19771424174308777,0.9605174374580384,-0.45628805816173557,1.0816115111582385
7.25513154163491,-1.1329173284769058,1.3799889408051969,-0.9934875476360322,2.0432544279202616
7.265158541616984,-1.4334250366687775,1.8088880561292173,-1.4800214982032776,2.7417598309297073
7.27518654166488,-0.4421377962827683,2.2765113803744317,-1.6067271530628204,2.821269579509452
7.285214541654568,1.1794845539331438,2.4272957231104377,-1.726059468984604,3.2034714968091262
7.295242541644257,2.176971012353897,1.9706846062839032,-2.22028894007206,3.6813697971651536
7.305270541633945,2.3027621626853945,1.4561689513921738,-2.7564043557643894,3.875681432389793
7.315297541616019,1.195051011443138,1.2883883607387543,-2.7687951904535293,3.279377729801335
7.325325541663915,-0.014089450836181641,0.6950968238711357,-2.747020744085312,2.833633899362377
7.335353541653603,-0.1716666501760483,-0.32316230669617657,-3.1562264370918274,3.1773681935603926
7.345381541643292,0.28161593914031985,-1.6264897187054157,-3.4890096062421803,3.8597881256206956
7.355408541625366,0.7763646429777146,-2.8817932176589967,-4.407232378721237,5.322703396607795
7.365436541615054,1.32077024102211,-3.274825512170792,-5.394207297563553,6.447200053808023
7.37546454166295,1.2728832989931107,-3.0176731538772583,-6.8951103723049165,7.633421919608136
7.3854925416526385,0.4286237114667893,-2.4332185140252114,-8.51972766637802,8.870740111866299
7.395520541642327,1.431770859360695,-1.4703684760630131,-5.952798825502396,6.296647132086809
7.405547541624401,2.9750951912999155,-0.18889167040586471,-1.4102764946222306,3.297840392094282
7.415575541614089,4.056115557253361,1.4341734802722932,1.2635417872667314,4.483911778065921
7.425603541661985,3.942104792296887,3.1359447848796846,1.596448917388916,5.284220759307508
7.435631541651674,3.7212469786405564,4.492407307326794,3.206297898888588,6.656556820713094
7.445659541641362,4.147020172476768,5.496661040782929,5.322418692111969,8.702827106310512
7.455686541623436,4.5105532640218735,5.300537241697311,7.373834196925164,10.139734540999655
7.465714541613124,4.427943216562271,3.368560179769993,9.45421856224537,10.969782469882288
7.47574254166102,3.981266226768494,1.4954271572828293,9.838486465215684,10.718330050776505
7.485770541650709,3.185342647433281,1.3144333210587502,8.433899311423302,9.11069702779613
7.495797541632783,3.0106699436903,1.4970123374462128,6.694688284993172,7.491597338454007
7.505825541622471,3.3450505721569064,1.283757658302784,4.47909992158413,5.73582889938963
7.5158535416121595,3.851312443614006,0.8038863176107407,3.251693927049637,5.104150678143165
7.5258815416600555,3.9205522477626804,0.49141959160566334,3.542285926938057,5.306600864078086
7.535909541649744,3.7021096265316014,0.47804262399673464,3.7979396438598636,5.325268629432512
7.545936541631818,3.5716661390662194,0.7297597029805184,4.152094386219979,5.525326779940339
7.555964541621506,3.4215116876363756,0.9160496547818184,4.571252624988556,5.782926573986823
7.565992541611195,3.5550425049662593,0.9117028346657754,5.060585052967072,6.251323887719154
7.576020541659091,3.4132951802015308,1.199266853928566,5.173441577553749,6.312948814181891
7.586047541641165,2.818497108221054,1.3318843361735344,4.573593265414238,5.534943287102166
7.596075041627046,3.300720199048519,1.1801815420389177,4.880546944141388,6.008936742764405
7.606103041616734,4.195605272054673,0.6085121315717698,5.250293871760369,6.7482572826625
7.61613104166463,4.138386758565903,-0.06442491441965104,4.4160616743564605,6.05243721527052
7.626159041654319,3.2681456530094146,-0.09165042757987976,2.5950399148464203,4.174135595522267
7.6361860416363925,3.8402220296859744,0.6766491508483887,2.7745476812124252,4.785736531188335
7.646214041626081,4.428688151836395,1.2181551146507263,3.5187140464782716,5.786063356933561
7.656242041615769,3.5200054040551185,1.6483344778418543,3.5627938663959506,5.272660118938829
7.666270041663665,2.590146964788437,1.9924191454052926,3.65203699529171,4.900609101444392
7.676298041653354,3.0016047129034997,2.366807300448418,4.442964128851891,5.861001441754222
7.686325041635428,3.2593482246994974,2.917215650081635,5.4801783245801925,7.011836597363885
7.696353041625116,2.7509146973490717,4.010314024686814,7.024846639037133,8.543923018770837
7.706381041614804,2.2456915837526323,5.882674337625504,11.263323111534119,12.903931012165001
7.7164090416627005,4.9182456976175315,6.305541465282441,18.433501710891726,20.093356594605535
7.726436041644774,9.923211450576783,3.875880689620972,27.30417224407196,29.30887917589113
7.736464041634463,11.908232406377794,1.7731011959910394,30.2837121963501,32.58915634512337
7.746492041624151,19.497291501760483,1.9347713001072409,31.42381399869919,37.031659456648484
7.75652004161384,29.03329448461533,3.288884265124798,30.82737929105759,42.474418916502046
7.766548041661736,31.823550710678102,5.093276835680008,22.011333446502686,39.02792140062167
7.7765750416438095,27.79254572868347,4.32250534683466,10.173860535621644,29.910150262956815
7.786603041633498,16.535622979402543,1.324327979385853,1.3317197370529175,16.64193947146744
7.796631041623186,4.756312322616577,-0.579363249912858,-2.0928877589106563,5.2286085966557065
7.806659041612875,-3.1455581921339038,-1.3308771532773973,-3.2189097583293917,4.69330910653503
7.816686041653156,-7.5165489435195925,-1.3581324872374536,-3.814251036643982,8.537654411122237
7.826714041642845,-9.512750945091248,-1.0391586872935297,-4.042338055372238,10.38810754057844
7.836742041632533,-10.320788201093674,-1.047358530163765,-3.8963225555419925,11.08137890514382
7.8467700416222215,-11.551047052145005,-1.3980607840418817,-3.0644321680068973,12.032123938401693
7.85679804161191,-13.714223313331605,-1.8321270838379862,-1.2375614386796951,13.891298321386945
7.866825041652191,-17.212586710453035,-2.6127581477165225,3.3154285776615144,17.722632791346157
7.87685304164188,-21.556887845993042,-3.73327148526907,10.380571303367615,24.215552650553835
7.886881041631568,-24.489741289615633,-3.985753380060196,15.47836803674698,29.244034186821022
7.896909041621257,-24.957581691741943,-3.0464031556248665,16.195893902778625,29.907665161236437
7.906936041661538,-23.088596391677857,-1.5321850937604904,11.78446673154831,25.96737435025556
7.916964041651227,-19.697880234718323,0.05365236975252628,5.316900089979172,20.402911333555007
7.926992041640915,-16.90456825375557,0.7542874570190907,0.2702439817786217,16.923546000273838
7.937020041630603,-13.637159349918367,2.033519224226475,-4.355690342187882,14.459576547305712
7.947048041620292,-12.371094489097596,4.735144524872303,-5.862027819156647,14.485473505625404
7.957075041660573,-15.89128437280655,9.102997952699662,-3.995377897024155,18.744613500531003
7.967103041650262,-25.670020480155944,10.691154348850251,-12.627950978279115,30.54039748713801
7.97713104163995,-27.354584598541262,2.121233013868332,-43.19598286628723,51.172901655490044
7.9871590416296385,-17.27406433582306,-0.6725682328641415,-63.313225407600406,65.63086284835535
7.997187041619327,-8.980384179353715,-0.8282743231952191,-32.319233214855196,33.55392933710522
8.007214041659608,-4.307422161698342,-0.947551529109478,-19.932295110225677,20.41440981122242
8.017242041649297,-3.3288748347759247,-0.2075995445251465,-13.250159043073655,13.6634995481845
8.027270041638985,-4.601659900546074,0.3759449762105942,-9.691888582706452,10.735423269020526
8.037298041628674,-5.187689487934112,0.5223836682736874,-7.750776708126068,9.341281844550604
8.047325041610748,-5.490853001475334,0.3576497693359852,-6.646112540960313,8.628336569028049
8.057353041658644,-6.0177836108207705,0.027053605020046237,-5.456705846786499,8.123428474638132
8.067381041648332,-6.134860655665398,-0.5691444365680218,-4.327174056172371,7.52893591196783
8.07740904163802,-5.748891212940216,-0.9200403794646264,-2.3568114852905273,6.2809859779547335
8.087437041627709,-5.2285615253448485,-0.7425135035812855,0.2051343584060669,5.285003503529176
8.09746404166799,-4.446823583543301,-0.3937497478723526,1.761173753142357,4.799063641572589
8.107492041657679,-2.6434957909584047,0.17366055071353914,1.159405215382576,2.891789832810339
8.117520041647367,0.9098554068803788,0.05211520984768868,-0.5944361293315887,1.0880749828856693
8.127548041637056,5.700755179524422,-0.9012906977534294,-3.1475538468360904,6.5740421171045185
8.13757504161913,7.68984930574894,-1.4433372366428376,-5.973228996992112,9.843600427400261
8.147603041667026,8.336579423546791,-2.0204781791567803,-4.993612799048424,9.9255759200347
8.157631041656714,11.021932507753373,-2.928037092089653,-7.461394497156143,13.628235588670874
8.167659041646402,20.224503865242006,-1.8413960900902748,-8.184844177365303,21.89550114437985
8.17768704163609,38.80066360473633,2.144679033011198,21.65851479291916,44.488002959872745
8.187714041618165,30.05476329803467,1.4413266715407371,49.59827236175537,58.01167848585191
8.19774204166606,3.4694734740257265,-1.3826785138249398,-1.659658488035202,4.086993070274108
8.207770041655749,-3.6813294991850856,3.1314839440584183,-11.251363216638566,12.245470705783152
8.217798041645437,-9.121423113942146,2.4304881566762924,-9.861453158855438,13.651223048049639
8.227825041627511,-10.786897827386857,0.2639950624108315,-7.197072867751122,12.97014710769234
8.2378530416172,-9.112804902791977,0.5723121656477451,-0.347578963637352,9.137371916873096
8.247881041665096,-2.4954919454455378,2.761996048092842,19.966810054779053,20.31082484743271
8.257909041654784,-1.4704734335839749,3.1215004080533983,33.58552728652954,33.76231182888065
8.267937041644473,-11.868180148601532,-0.6113038846850396,21.752540359497072,24.7871015766394
8.277964041626547,-14.212983791828156,0.4092980790138245,11.669361952543259,18.394304595817655
8.287992041616235,-12.246887934207917,2.308578241914511,8.423821050524712,15.042491770426595
8.298020041664131,-9.389360661506654,3.3979108634591104,9.459293360710145,13.75442193448482
8.30804804165382,-5.062749692201614,4.82613041639328,10.711517862081529,12.792950564729606
8.318076041643508,-0.2721393567323685,5.87692769408226,8.384979751110077,10.243057374508831
8.328103041625582,2.692722914814949,5.997187378406525,6.086206558942795,8.958734476800077
8.33813104161527,4.172056780457497,5.541386978030205,5.012136778235436,8.557718300071837
8.348159041663166,3.7292079627513885,4.784890589118004,5.148323693275452,7.956595178216609
8.358187041652855,1.981895034313202,3.758438486158848,6.762878513932228,7.986882594321862
8.368214041634928,0.5756145268678665,2.537088160514832,7.796686121821404,8.219273866952502
8.378242041624617,0.5245466995239259,1.8844973784685135,7.1106328940391546,7.374793540379811
8.388270041614305,1.1129169273376465,1.6760700143873692,6.110239199995995,6.432947836058586
8.398298041662201,1.6490194791555406,1.1332663341611624,5.2424854999780655,5.611346722869454
8.40832604165189,2.228590816855431,0.6437679183483124,4.360226612091065,4.938889578686084
8.418353041633964,2.421817320585251,0.26857752531766893,3.383604773283005,4.1696659678175685
8.428381041623652,2.383056128025055,-0.08554045267403126,2.303544812500477,3.315507861785175
8.43840904161334,2.0285686790943145,-0.3801582605391741,1.251171125471592,2.4135120414185782
8.448437041661236,1.1336008679866791,-0.7390760716795922,0.2576844549179077,1.3775651149531296
8.45846404164331,0.21703227281570436,-1.1017517421394587,-0.6840736529231072,1.3148827595548
8.468492041632999,-0.22810105204582215,-1.3644220447540283,-1.6176877588033678,2.1285185672522187
8.478520041622687,-0.5978684449195862,-1.594844149053097,-2.4098077243566514,2.9509570999200316
8.488548041612376,-0.9712652045488358,-1.79755074352026,-3.185643194317818,3.7845564250782364
8.498576041660272,-1.4195308828353883,-2.017657482326031,-3.8697940304875376,4.589260886211048
8.508603041642345,-2.3313532930612566,-2.252939061373472,-4.391675861477852,5.458732404470582
8.518631041632034,-3.3051298767328263,-2.3921498639881613,-4.855840703845025,6.3423539332781385
8.528659041621722,-4.1949264103174215,-2.3970914921164512,-5.011124625205994,6.960950022726897
8.53868704161141,-4.90459537267685,-2.323639353811741,-4.599531514048577,7.114073781244598
8.548714041651692,-5.615057802200318,-2.214781009107828,-3.990721174478531,7.236019937285044
8.55874204164138,-6.246537796854973,-2.137903864234686,-3.3113051211833957,7.386109191301112
8.568770041631069,-6.791466720700265,-2.0331878332793716,-2.7465599834918977,7.602727453137689
8.578798041620757,-7.254411833882332,-1.877951859086752,-2.389478855878115,7.8652910590332255
8.588826041668653,-7.596206731796265,-1.6851960562169552,-2.16647292137146,8.076871137953846
8.598853416624479,-7.782061066031456,-1.5203567612171174,-2.105318647027016,8.203921362515667
8.608881416614167,-7.805479749441147,-1.3749676443636418,-1.9776394307613374,8.16866622283496
8.618909416662063,-7.716634815931321,-1.2994635719060899,-1.7722267448902131,8.02345599429937
8.628937416651752,-7.571097033619881,-1.2432184736430645,-1.4707302725315095,7.812179593444826
8.638964416633826,-7.321251940727234,-1.2172315469384194,-1.1193178743124008,7.505681522834527
8.648992416623514,-6.948824649453163,-1.19914581656456,-0.6569457882642746,7.082068374913527
8.659020416613203,-6.551616858243943,-1.1769106096029283,-0.1675443631410599,6.658593932193381
8.669048416661099,-6.138285954594612,-1.1640154525637627,0.26636873960494994,6.2533541991174175
8.679076416650787,-5.612373930215836,-1.1074626445770264,0.7813423776626587,5.773708561473416
8.689103416632861,-5.139894347190857,-1.0345604369044303,1.2930415749549866,5.400072750663132
8.69913141662255,-4.481029502749443,-0.9903236192464829,1.7499956309795381,4.91150190713552
8.709159416612238,-3.720494441986084,-0.9457407926023007,2.170896924734116,4.41013582528491
8.719187416660134,-2.9328335630893707,-0.9059252008795738,2.487696729898453,3.951056592649572
8.729214416642208,-2.1142929536104202,-0.8278752507269382,2.7269764888286594,3.5485226355593604
8.739242416631896,-1.2778440767526626,-0.7693376053869725,2.8456568402051925,3.212869229794612
8.749270416621584,-0.4057230913639069,-0.6704022780060769,2.803983734250069,2.911421512450676
8.759298416611273,0.48493649125099186,-0.6175501728057862,2.7004143422842026,2.812253409010913
8.769326416659169,1.3393860214948654,-0.6055190880596638,2.3764429271221164,2.7942958444748087
8.779353416641243,2.1251184886693957,-0.6106184448301792,1.8185343539714813,2.862874547133666
8.789381416630931,2.750442534685135,-0.4796788211166859,1.0658579510450363,2.9884911041927174
8.79940941662062,2.6030143475532532,-0.4369020532071591,0.6886137235164642,2.727774909680036
8.809437416668516,0.7192975723743439,-0.420290259718895,1.1667592585086823,1.4336527010939333
8.81946441665059,-1.634403778910637,-0.1753685224056244,1.7269190096855165,2.384172623192647
8.829492416640278,-2.709972200989723,0.23672452569007874,1.5738839274644854,3.1427851419292585
8.839520416629966,-3.952403785586357,0.6672748947143555,0.9191320145130157,4.112366122992477
8.849548416619655,-4.107271969914437,1.2558477285504341,1.2542043685913087,4.474356395096799
8.85957641666755,-1.3269039702415466,2.300938269942999,2.193539536446333,3.4447941544139113
8.869603416649625,2.909951069355011,3.1079336982965473,2.9694266080856324,5.190815107461888
8.879631416639313,6.188874894976617,3.0834274327754976,2.9129968839883804,7.5030159299437935
8.889659416629001,7.73788125872612,2.4518426267802718,2.108504648655653,8.386425370445039
8.89968741661869,7.591610235571862,0.9421877320110799,1.0230798675119877,7.717963209714075
8.909714416658971,5.166248917579651,-1.416389904767275,-0.17393880508840084,5.359714819711506
8.91974241664866,2.638033322095871,-2.726787039041519,-0.7348540896177292,3.8645307474259916
8.929770416638348,0.9752033042907715,-2.8000163984298707,-0.3636313247680664,2.9871961864812966
8.939798416628037,-0.11839851558208467,-2.392361679375172,0.317214372754097,2.416203131302625
8.949826416617725,-0.8986585736274719,-1.8691007825732233,0.9025376164913178,2.2617911301779894
8.959853416658007,-1.0588184881210327,-1.2433431655168534,1.2055794348567725,2.029881915721689
8.969881416647695,-0.8133728402853012,-0.629156018793583,1.1166228926181794,1.5179787078931506
8.979909416637383,-0.533525099158287,-0.16900477834045888,0.9340212913602591,1.08885601401106
8.989937416627072,-0.47709479033946994,0.06845971249043942,0.938232456073165,1.054792070899483
8.999964416667353,-0.5962224537134171,0.01569451153278351,1.282713053226471,1.4145954576916597
9.009992416657042,-0.6593390536308289,-0.11124013490974903,1.7480356442928315,1.8715584332250466
9.02002041664673,-0.6711890208721161,-0.1209441740065813,2.064326741695404,2.174066947323418
9.030048416636419,-0.6750815123319627,0.04969702072441578,2.0510300271213056,2.159844673654686
9.040076416626107,-0.6564101833105087,0.26231281846761706,1.7605580413341524,1.8971681423617959
9.050103416666389,-0.5925644356012345,0.4669196849316359,1.2668758696317672,1.474490105620012
9.060131416656077,-0.4979892307519913,0.5501062678545714,0.7663576450198889,1.0667306220214527
9.070159416645765,-0.41223864376544955,0.48095366030931475,0.35049672424793243,0.7239510180164374
9.080187416635454,-0.3603013354539871,0.3048255115002394,0.08909983556717635,0.4802857748147524
9.090214416617528,-0.37826515138149264,0.013886260092258454,0.10707362830638886,0.3933727428886096
9.100242416665424,-0.45822757959365845,-0.26989475682377817,0.27522544406354427,0.5988027551048877
9.110270416655112,-0.5073956465721131,-0.5124618203938007,0.43513217411935334,0.8422633011567677
9.1202984166448,-0.41402204453945163,-0.5511653447896242,0.5526904813572765,0.8835520691190932
9.130326416634489,-0.22896994829177858,-0.4013642844557762,0.6246574634313584,0.7769925821254253
9.140353416616563,-0.07148513495922089,-0.18316125288605692,0.7119084459543229,0.7385606302125962
9.150381416664459,-0.00877257764339447,0.05634420856833458,0.7655314334481955,0.7676522673417635
9.160409416654147,0.06874045193195344,0.27406338304281236,0.7580856621265412,0.8090301964565457
9.170437416643836,0.09242693781852723,0.4414307948201895,0.6294188511371613,0.7743203313983937
9.18046441662591,0.10589892268180848,0.5560137829184533,0.4276162362098694,0.7093811063812959
9.190492416615598,0.15550553083419802,0.6476093928515911,0.2660722126811743,0.7171989390613237
9.200520416663494,0.1317763602733612,0.6089636828005314,0.21253802977502348,0.6583116208890206
9.210548416653182,0.1498968815803528,0.37072136610746387,0.30905341386795043,0.5053883843338045
9.22057641664287,0.3919534832239151,0.10504698336124421,0.5176434767246246,0.6577363991145803
9.230603416624945,0.5863429981470109,-0.0770836977660656,0.6774361860752106,0.8992551329525137
9.240631416614633,0.6716187912225724,-0.15844551086425782,0.8513171768188477,1.0958639131676515
9.250659416662529,0.7208833372592927,-0.17717268079519272,1.03907068669796,1.2770007191514108
9.260687416652218,0.717538145184517,-0.12377006024122239,1.1670660911500454,1.3755810694827109
9.270714416634291,0.5536722654104234,-0.11328410223126412,1.198978513106704,1.3254945266558502
9.28074241662398,0.28575459837913514,-0.1322391673922539,1.146552450656891,1.1890018544959213
9.290770416613668,-0.04622399389743805,-0.12522864818572998,1.1397626638412477,1.1475529625358267
9.300798416661564,-0.5012841367721558,-0.12999310567975045,1.1741945048421623,1.2833225348700157
9.310826416651253,-1.022322506904602,-0.1614164811372757,1.2282462394237519,1.6061716636664458
9.320853416633327,-1.5155298846960068,-0.1690747256577015,1.323357049226761,2.019081715533346
9.330881416623015,-2.002983602285385,-0.2018201565742493,1.4445531651377679,2.4777829875784794
9.340909416612703,-2.4072109758853912,-0.21443888649344445,1.5567346286773682,2.874729799926753
9.3509374166606,-2.8405826264619827,-0.20480822995305062,1.7081294207274915,3.320927910504682
9.360964416642673,-3.315045585036278,-0.20236233964562417,1.8246591661870482,3.7894404362815606
9.370992416632362,-3.8358143985271456,-0.17397586181759836,1.893310740441084,4.2811640076400845
9.38102041662205,-4.370113669037819,-0.13115465506911278,1.8492484621703627,4.747084884294459
9.391048416611739,-4.927695382833481,-0.13355084404349327,1.6506091909110547,5.198512125124187
9.40107541665202,-5.382114086151123,-0.05553553864359856,1.2926058112084866,5.535437292172022
9.411103416641708,-5.736055405139924,0.008874611556529998,0.7610390907526017,5.786327926000976
9.421131416631397,-5.959572824835778,0.04200464308261872,-0.0013366734981536865,5.95972100280354
9.431159416621085,-6.042999143600464,0.03490129932761193,-0.9486145529150963,6.117101136997246
9.441187416610774,-5.860881764888764,-0.05916972935199738,-1.9476455533504486,6.176306284533095
9.451214416651055,-5.563588271141053,-0.3032924446463585,-3.00306914806366,6.329607023015698
9.461242416640744,-5.237570915222168,-0.8214305958151817,-3.687293366789818,6.457788296970927
9.471270416630432,-4.404707551002502,-1.1661622577905655,-4.091617804169655,6.123946380950095
9.48129841662012,-3.298797342181206,-1.293142585605383,-4.272931775450707,5.550876292005101
9.491325416660402,-1.8020416975021363,-1.1889080728590489,-4.3627648884058,4.867707279279668
9.50135341665009,0.10231574892997743,-0.9264052198827267,-4.371383684277535,4.469640976529647
9.511381416639779,2.247194318175316,-0.7785748904943467,-4.042387756705284,4.690091677068635
9.521409416629467,4.553798686265946,-0.7674064162373543,-3.5964422535896303,5.853237733607322
9.531437416619156,7.152405987381935,-0.7893295280635357,-2.9628075599670414,7.781913720262376
9.541464416659437,9.807710230350494,-0.9379002611339092,-1.4502159011363984,9.95861250487565
9.551492416649126,12.45184570670128,-1.1438463592529298,1.1519061613082886,12.55721839427551
9.561520416638814,15.368571360111238,-1.1478059475123883,3.6064667201042178,15.827730296766983
9.571548416628502,18.45841552734375,-0.8987272784113884,4.852751035094261,19.10680525649576
9.581575416610576,21.989890537261964,0.07527807757258416,5.07663449048996,22.568410896200877
9.591603583307005,24.542319452762605,1.883319749236107,4.37724084019661,25.00065148695925
9.601631583296694,23.88068829059601,3.3142129415273667,3.6904701590538025,24.390384389124815
9.611659583286382,21.29374443054199,3.7985021460056307,4.756329279541969,22.14666653566346
9.621686583326664,18.770413599014283,3.8109830278158188,7.702253589034081,20.644048262541652
9.631714583316352,16.372061154842378,3.5170303407311443,9.845904242992402,19.425645915585353
9.64174258330604,13.891929552555085,2.9200313767790798,10.089588124752046,17.41585709810646
9.651770583295729,10.09962896347046,2.153050199300051,8.473745162487031,13.358236688996408
9.661798583285417,5.8433933275938035,1.5429977649450304,6.150634689331055,8.623015410237631
9.671825583325699,2.1252769482135774,0.946477834135294,4.196094684004784,4.79789881033882
9.681853583315387,-1.0490799504518509,0.27113962903618816,2.7731776785850526,2.977347792562421
9.691881583305076,-3.770524388551712,-0.40631461031734945,1.5993339335918428,4.1158006217938885
9.701909583294764,-5.9786920505762104,-0.7836936892569065,0.5980030039697886,6.059417631007221
9.711936583335046,-7.749643517732621,-0.9130022321641446,-0.016690219268202782,7.8032574154189716
9.721964583324734,-9.162975182533264,-0.9695135249197484,-0.3776424960047007,9.221859060163059
9.731992583314423,-9.904181102514267,-0.9966272100806237,-0.7887613248825074,9.985400018772618
9.742020583304111,-10.158665961027145,-1.0308220195770263,-0.8260782551765442,10.244193156488798
9.7520485832938,-10.274813883304596,-1.0144243803620339,-0.748962836265564,10.351898496900398
9.76207558333408,-10.262038886547089,-0.9503714219480753,-0.8536835449934006,10.341248645287122
9.77210358332377,-10.246571831703186,-0.9411400571465492,-0.906514892578125,10.329557016633624
9.782131583313458,-10.468236268758774,-0.975175603106618,-1.0882153648138047,10.569728034139187
9.792159583303146,-10.955667182207108,-1.013909386843443,-1.3947340106964112,11.090533738851903
9.80218658328522,-11.322358939647675,-1.1061449745297431,-1.3723046761751176,11.45873417036756
9.812214583333116,-11.372988810539246,-1.1702492422610522,-1.4345172965526582,11.522681877400426
9.822242583322804,-11.499393918514253,-1.1230327565968037,-1.623036206960678,11.667540854638448
9.832270583312493,-11.51200285434723,-1.0713268518447876,-1.9127446925640108,11.718896842319
9.842298583302181,-11.00980655193329,-1.0396972158551216,-2.4300016683340075,11.322619781647537
9.852325583284255,-11.434071164131165,-1.1084536014497282,-3.513514702320099,12.012969588590583
9.862353583332151,-12.564258427619935,-1.2344339092075824,-5.3309872019290925,13.704154167964976
9.87238158332184,-13.227470676898957,-1.3421526315808296,-5.8617863291502,14.530240643681482
9.882409583311528,-12.935640821456909,-1.3700853654742242,-4.879226642847061,13.892976283097067
9.892436583293602,-12.515955748558046,-1.3095678529143333,-3.90627568602562,13.176612083403107
9.90246458328329,-12.208579316139222,-1.2290195336937906,-3.2027790445089344,12.68139154590729
9.912492583331186,-11.957013387680055,-1.129312885478139,-2.5408748173713684,12.276056434540328
9.922520583320875,-11.80215806722641,-1.0172439808398486,-1.9303104592859746,12.0021589236929
9.932547583302949,-11.566169121265412,-0.8616772735118866,-1.5571427643299103,11.70228394177416
9.942575583292637,-11.597980313301086,-0.7359549010545016,-1.2504400773346425,11.688386430603257
9.952603583282325,-11.822444397211076,-0.6611490592360497,-1.0975954681634903,11.891678830821546
9.962631583330221,-11.967016804218293,-0.5506656271219253,-0.8840475511550904,12.012254738309537
9.97265958331991,-12.167288618087769,-0.44061722785234453,-0.5567017078399659,12.187984765696108
9.982686583301984,-12.30335566520691,-0.3263196935132146,-0.25242152228951453,12.310270581586273
9.992714583291672,-12.418758652210236,-0.13663280177861453,-0.0024665748327970505,12.419510500352253
10.00274258328136,-12.686996161937714,0.04634034435264767,0.37002050422132016,12.692475495902334
10.012770583329257,-12.951086826324463,0.3362327340245247,0.9193284809589386,12.988027844531553
10.02279758331133,-13.085058231353761,0.7048879864811898,1.7151497340202333,13.215799431041392
10.032825583301019,-12.564113416671754,0.8803190740942956,2.4394782507419586,12.82898911664705
10.042853583290707,-12.003683524131775,0.8010635742545128,3.13417892575264,12.43194266943594
10.052881583280396,-12.101348397731782,0.7299611395597458,3.8037681484222414,12.706066599680032
10.062909583328292,-12.277258372306825,0.6353824263811112,4.614130257368088,13.131069339550823
10.072936583310366,-12.171746535301208,0.6159743481874467,5.298356230258942,13.289221830489762
10.082964583300054,-12.00820108294487,0.5550378826260567,5.2539548134803775,13.119032032954337
10.092992583289742,-11.429448355436326,0.30212941518053416,4.324661507606507,12.22400380597441
10.10302058327943,-10.813979791402817,0.08349822124466301,2.960177482366562,11.212126542673765
10.113047583319712,-10.404149615764618,-0.09473424911499025,1.8544000053405763,10.568543096613533
10.1230755833094,-10.092450921535493,-0.28633228501304986,1.298968312740326,10.179728407897082
10.13310358329909,-9.74310668349266,-0.3575581142306328,1.0650831949710846,9.807669339001052
10.143131583288778,-9.355225201249123,-0.26811588764190675,1.1217397910356521,9.426050331612144
10.15315858332906,-9.029372736811638,-0.1382623933721334,1.634904300570488,9.17723273006205
10.163186583318748,-8.715462040901185,-0.036326708891429006,2.418010783195496,9.044742913085923
10.173214583308436,-8.348997155427933,0.1134608343243599,2.9832318842411043,8.866696077876021
10.183242583298124,-7.290293857455254,0.46060096442699433,3.213086516261101,7.980254553424959
10.193270583287813,-4.771153140664101,0.6282628566026688,6.0190635663270955,7.7063443164798775
10.203297583328094,6.1446664363145835,1.172983034849167,12.570256501436234,14.04080351424073
10.213325583317783,36.34118670701981,3.314979803860188,21.147213206291198,42.17671832619047
10.223353583307471,81.67983964920045,4.679246897399426,32.83199660539627,88.15572334081702
10.23338158329716,169.3756315612793,9.817672716379166,17.21490337729454,170.53106509559413
10.243408583279233,178.4654417037964,-1.9342165455222131,-74.42907706260682,193.3735829646014
10.25343658332713,41.564174666404725,-11.781139665842057,-13.755560789108277,45.338629447175954
10.263464583316818,14.206034960746766,-6.838512248396873,5.11299890935421,16.57466249805681
10.273492583306506,6.536748558282852,-4.785470048189164,8.12600364625454,11.474394997352611
10.283520583296195,1.5392105233669282,-3.0707553470134736,6.924233599305153,7.729406081595256
10.293547583278269,-0.7367380625009537,-2.9058059781789782,2.8817335760593417,4.158230363862265
10.303575583326165,-0.8317582404613495,-2.2853038385510445,0.6359911215305328,2.5137462305764204
10.313603583315853,0.5461346197128296,-0.3769411224871874,1.937928650379181,2.0483932939333824
10.323631583305541,1.3425245144963265,0.9018363891541958,4.376077244281769,4.665375975497258
10.333658583287615,0.6565788754820824,1.0576010978221895,5.606889826655388,5.743416181167416
10.343686583277304,-0.8811201426386833,0.5441705034300686,5.73042687535286,5.823253937132854
10.3537145833252,-2.4283021751046183,-0.01470450483262539,4.164884585738182,4.821113075691101
10.363742583314888,-3.6739985525608065,0.057526113577187066,0.4878881657123566,3.706697921358627
10.373769583296962,-4.835266690850258,0.5508624955639243,-3.215353481769562,5.832816770085664
10.38379758328665,-5.823823281526566,0.5327331303432584,-5.07993232011795,7.746382031606441
10.393825583334547,-6.22902012348175,0.29054277364164594,-4.785967646241188,7.8606992763318075
10.403853583324235,-6.238607218265534,0.9669998069107533,-2.20273033618927,6.686353982876524
10.413881583313923,-7.294088115692139,1.4782720112800598,0.4123152422904968,7.453791883185388
10.423908583295997,-8.485012747049332,1.5855119928717614,3.1191819870471957,9.178158086754092
10.433936583285686,-8.3059967315197,1.6189580664038659,5.534245773553849,10.111304723273289
10.443964583333582,-7.1427709454298025,1.3182685098052025,6.806906878352166,9.954445735116456
10.45399258332327,-5.743696546554566,0.827793535888195,7.781983298063278,9.707448491148275
10.464019583305344,-4.078158975541592,0.2511042542383075,8.774656913280488,9.679309785416937
10.474047583295032,-2.447753084152937,-0.16559018712490797,9.581778495311738,9.890874299285718
10.48407558328472,-1.3179958833754064,-0.3744397567212582,10.012802488803864,10.106113593256552
10.494103583332617,-0.5214711371809244,-0.4857392043247819,10.277660307884217,10.302338381444745
10.50413058331469,0.2524259077012539,-0.5369094310328365,10.444553875923157,10.461390741343727
10.51415858330438,1.070358406752348,-0.6232925040274859,10.679622470140458,10.75120908406172
10.524186583294068,1.9409059064090253,-0.6760701303184032,10.764494805336,10.9589477128394
10.534214583283756,2.9145639377832415,-0.6804513759166002,10.780185223817826,11.18794397922306
10.544242583331652,3.96877248108387,-0.6919285831600428,10.658055599927902,11.394036569274165
10.554269583313726,4.963156406879425,-0.650807381272316,10.31188639998436,11.46261195770184
10.564297583303414,5.817634588479996,-0.5509382170066238,9.606571859121322,11.244315364151744
10.574325583293103,6.655965684056282,-0.6436235652118921,8.823619158267975,11.07124137263679
10.584353583282791,6.848015143275261,-1.2364471055567265,7.2069651871919636,10.018206429135098
10.594379916612525,6.4647845363616945,-2.1089348575472835,3.670613014698029,7.727512228306716
10.60440791666042,6.744203091859818,-1.8894144482910633,-1.6485154491662979,7.195259931913684
10.614435916650109,6.671825087070466,-0.7468530877679587,-6.339477535486222,9.233634980337149
10.624463916639797,0.7341021376848221,1.2474882566928864,-9.838342623710632,9.944250523828405
10.634490916621871,-12.285077269077302,1.91072740316391,-19.62602029323578,23.232620929781124
10.64451891661156,-23.39988344192505,0.7518174469470978,-24.31596905708313,33.75479411512143
10.654546916659456,-29.458847823143007,0.2485578831844032,-23.28323850631714,37.54989602422941
10.664574916649144,-23.438938164711,0.19444011161103847,-10.248150579929352,25.58214650014841
10.674602916638833,-10.016806662082672,-0.3172079408168793,1.9762705975770951,10.214826579933153
10.684629916620906,-2.2919091457128524,-0.41751115120947363,5.650469709634781,6.1118713200693815
10.694657916610595,2.2149410766363147,-0.3003570875711739,6.234143453836442,6.622742857459953
10.704685916658491,5.368878328800202,-0.18442914851009848,5.47586951136589,7.670985303452688
10.71471391664818,7.0307815629243855,-0.1322292271256447,4.470731971263886,8.332875752880561
10.724740916630253,7.899833344817162,-0.25382587730884554,3.577093816995621,8.675678338174198
10.734768916619942,8.500201474428177,-0.42131728660315276,2.6313490775227546,8.908138488463313
10.744796916667838,8.874275341629982,-0.6362258872389793,1.6882174587249756,9.055806115780017
10.754824916657526,8.784900065660477,-1.0794451991468668,0.9190346583724023,8.898555826924522
10.7648519166396,7.998671754598618,-1.7141343650221825,0.4459893572330475,8.192430223439738
10.774879916629288,6.512428234219551,-2.246909266412258,0.42353487968444825,6.902152168103698
10.784907916618977,4.570497164726258,-2.5802341800928117,0.6370626237988473,5.287050363249008
10.794935916666873,2.5158668607473373,-2.724727357327938,0.5657631379365922,3.7515081182140353
10.804963916656561,0.46205750584602356,-2.8542540013790134,0.18035912096500398,2.8970316628597668
10.814990916638635,-1.0386163580417633,-2.800374832749367,-0.5294542676210404,3.0333389135719924
10.825018916628323,-1.8173181331157686,-2.165896970629692,-1.8206644946336747,3.3628223393979577
10.835046916618012,-2.3524178874492647,-1.352595466375351,-3.5132194179296494,4.439154772179988
10.845074916665908,-2.429649081230164,-0.5639779829978944,-5.041627795100212,5.624880145172516
10.855101916647982,-1.3889967226982118,0.20855671545490623,-5.576509448289872,5.750675214798164
10.86512991663767,0.23875467896461489,0.6858251863718033,-5.195011371374131,5.245522198189227
10.875157916627359,1.754576924443245,0.8338620686531067,-4.084394153952599,4.522846641018167
10.885185916617047,3.201379221081734,0.9027382490783931,-2.624169573783875,4.236747716762949
10.895212916657329,4.582197443246842,0.9134137299656868,-1.0267201977968217,4.783828217604774
10.905240916647017,5.72824703335762,0.8372978925704957,0.6353151834011078,5.823873901307733
10.915268916636705,6.549189679026604,0.7123910605162382,1.9589774572849274,6.872916349929087
10.925296916626394,6.998305542469025,0.6802880193293095,2.7812111681699756,7.561362828019104
10.935324916616082,7.190568425059319,0.608303312882781,3.194785315990448,7.8918287114706445
10.945351916656364,7.1339866733551025,0.48225221727043394,3.5860353791713715,7.999123876859216
10.955379916646052,6.681822071671486,0.39107325799763204,4.0048977488279345,7.799928875904201
10.96540791663574,6.029743505716324,0.38764817833900456,4.441734459400177,7.499138808071279
10.975435916625429,5.31004247546196,0.39898000918328763,4.955361483693123,7.274018392402331
10.98546291666571,4.573663432002068,0.39464013263583186,5.410311114192009,7.095463647702618
10.995490916655399,4.093453245162964,-0.07455463081598282,5.925753114223481,7.202532043249831
11.005518916645087,3.412655494809151,-0.8886489444226027,6.367144805788994,7.278492113793918
11.015546916634776,1.7018174976110458,-1.4156519861519337,6.092657207250595,6.482339484023778
11.02557391661685,-0.4540345412492752,-1.4039600399136545,5.08234955906868,5.292213922252897
11.035601916664746,-1.9966031205654144,-0.913081973567605,3.5849127137660983,4.203777096472585
11.045629916654434,-2.658604411482811,0.05421026721596718,1.8489889919757845,3.238807876715616
11.055657916644122,-2.8843010884523395,1.293174452930689,-0.03873137176036835,3.1611695705416336
11.06568591663381,-2.9739447516202926,2.4282738161087036,-1.9053052800893784,4.286146208661748
11.075712916615885,-3.020541797876358,3.1030813863873483,-3.3911383259296417,5.5002369029752405
11.08574091666378,-3.156948568224907,3.1682503589987756,-4.3185932672023775,6.217264865456423
11.09576891665347,-2.8591834965348246,2.638927361369133,-4.788704727888107,6.170134589807395
11.105796916643158,-2.418063408136368,1.9821583051979543,-4.547084328532219,5.518329283706853
11.115823916625232,-3.254348855316639,2.074351792931557,-4.971930738687515,6.293950834193485
11.12585191661492,-4.736017806529999,2.410225361734629,-6.343865286111832,8.275486555269895
11.135879916662816,-5.317507030963898,2.463406518995762,-6.793228486776353,8.971744867958018
11.145907916652504,-4.747801992595196,1.2967840853333474,-6.615813438892364,8.245741942547898
11.155934916634578,-2.943887139558792,-0.5275348459929228,-4.452685709595681,5.363876819300944
11.165962916624267,-1.0816384166479112,-1.6784917849302292,-0.8884364712238312,2.1855424269154606
11.175990916613955,-0.550511114448309,-1.9733601459860803,1.5870968806743622,2.591541869533196
11.186018916661851,-1.0198258920013905,-1.8087829524278642,2.5830987310409546,3.314232893641526
11.196045916643925,-1.8277513200044633,-1.5010695742070677,2.281445553302765,3.2861647200152957
11.206073916633613,-2.483963575065136,-0.5529615728929639,1.6135116773843765,3.013181288340012
11.216101916623302,-2.2736716800928116,0.3741821868717671,1.820667418241501,2.9367371461665375
11.22612991661299,-1.449634541720152,1.355785999596119,3.2147640824317936,3.7781350011536876
11.236157916660886,-2.1170857299864294,2.532130306363106,3.6884680724143983,4.949599236073066
11.24618491664296,-3.5481483453512195,2.4466858211159708,1.3939282643795015,4.529753215585213
11.256212916632649,-4.347118324041367,1.4021399478614331,-0.9494112360477448,4.665277682168425
11.266240916622337,-4.224781123995781,0.39078740224242214,-2.347764673233032,4.849070972908464
11.276268916612025,-3.129434787333012,-0.6361419796943665,-3.5023453509807587,4.739668940341299
11.286295916652307,-2.113427711874247,-0.8914977809786797,-4.586039063930512,5.127679717250734
11.296323916641995,-1.8580103686451912,-0.29218236945569515,-3.823506009578705,4.261076304444484
11.306351916631684,-2.157982471883297,0.7425586733222008,-3.0201564663648606,3.7854493542520222
11.316379916621372,-2.9724551734328273,1.1236402823030949,-3.3774803996086122,4.637394860460139
11.326406916661654,-3.836929170191288,0.7533212046325207,-4.515453815460205,5.973176830964233
11.336434916651342,-4.182308703660965,0.3569373591989279,-5.512688258886338,6.9288413324865115
11.34646291664103,-4.114858147501946,0.11335225883871318,-5.594456307291985,6.945707140590225
11.356490916630719,-4.282083545029163,0.02831806540489197,-5.195584398508072,6.7328403101112
11.366518916620407,-4.108690796792508,0.0469250750541687,-4.823869882822037,6.336660214396365
11.376545916660689,-3.619493147134781,-0.20360746767371893,-4.18426518201828,5.536267854475488
11.386573916650377,-3.2565789833664898,-0.1273876229301095,-3.8132675349712373,5.016228022592845
11.396601916640066,-2.9946821942925457,0.06070224802941084,-3.638048701286316,4.712452075157867
11.406629916629754,-2.5420778819918635,0.07200955711305142,-3.4127683460712435,4.256093645395236
11.416656916611828,-2.570072596371174,-0.5040109127014876,-3.1865530210733417,4.124732755809992
11.426684916659724,-2.8370447686314586,-1.0838159197568893,-2.8990506899356845,4.198568192843147
11.436712916649412,-3.389774755239487,-1.3465728342533112,-2.902606381773949,4.661432730043712
11.4467409166391,-3.85508535951376,-1.1359074483811855,-2.9065520828962326,4.959840105387836
11.456767916621175,-3.663351065218449,-0.730103373080492,-2.7111509996652603,4.615574905188582
11.466795916610863,-3.382030118107796,-0.023502006232738498,-1.968962162733078,3.913501253655059
11.47682391665876,-3.2428634619712833,0.25710002571344376,-1.703444777727127,3.6720550059845305
11.486851916648448,-3.317590293288231,0.28979531675577164,-1.950902452468872,3.8595863844177565
11.496878916630521,-3.77370264261961,0.15594136767089367,-1.9273329108953476,4.240254885556483
11.50690691662021,-3.7377583461999895,0.09283792398869992,-1.4856131905317307,4.0232453177254905
11.516934916668106,-3.1803894710540774,0.24891765139997007,-0.8133745944499969,3.2921748762279943
11.526962916657794,-2.7680859231948856,0.4205140618979931,-0.6685238599777222,2.878551008025243
11.536990916647483,-1.5902752809226515,0.6819299174845219,-2.0152557384967804,2.6561738597121742
11.547017916629557,0.585847300440073,1.6648677724599839,-10.323952714204788,10.473729106881905
11.557045916619245,-1.5736395138502122,2.463697417974472,-26.183644580841065,26.34633541543667
11.567073916667141,-5.66882178068161,2.873788379430771,-29.17879893779755,29.862962135114742
11.57710191665683,-11.064171624183656,3.1972195118665696,-29.46091305971146,31.63200127479019
11.587128916638903,-18.95811389923096,3.301629441082478,-26.81639751434326,33.00651473921038
11.597157416632399,-27.819517765045166,1.6427360612154007,-20.92127679347992,34.84715157822634
11.607185416622087,-27.430883746147156,0.25424159606918695,-12.739499480724335,30.245873584725366
11.617213416611776,-41.08726172447205,0.9204186943173409,-6.801138600111008,41.656520892244885
11.627240416652057,-36.40404895305634,0.5989086645841599,-1.56944881439209,36.44278586148475
11.637268416641746,-26.44163542985916,-0.9142896428704262,2.684801691770554,26.593310622800942
11.647296416631434,-16.59381213068962,-2.5386365032196045,2.2912022173404694,16.94251704809079
11.657324416621123,-7.015501034259796,-3.1960880756378174,1.3921752691268923,7.833925307845554
11.667351416661404,-1.0240708243846894,-2.8113275447487833,0.4964451272785664,3.0329426934279176
11.677379416651092,4.3101931571960455,-2.3416303592920307,-0.4935202038288117,4.92996551544582
11.68740741664078,8.461769480109215,-1.5229602339863777,-0.9978334906697274,8.655438884534611
11.69743541663047,9.850109560489654,-0.7894278343766928,-0.7059375616908073,9.906876525946226
11.707463416620158,9.900327787399293,-0.5569431978464127,-0.24994917333126068,9.919130537140186
11.71749041666044,9.786173765659333,-0.6494216642528773,-0.06674859791994095,9.807925409840973
11.727518416650128,10.248009077310563,-1.0865030808001757,-0.4632720456272364,10.315851878613206
11.737546416639816,11.743619252443315,-1.8777616783976556,-3.0915585708618165,12.28805584558783
11.747574416629504,15.29679795742035,-2.7162336918711665,-9.181890925168991,18.046525266119684
11.757601416611578,20.280071125030517,-3.0070753678679467,-14.940847535133363,25.368340745354935
11.767629416659474,22.636028916835787,-2.499251705110073,-13.018032767772675,26.23176016496271
11.777657416649163,23.543619697093966,-1.741359293460846,-10.774682993888856,25.950494296816608
11.787685416638851,25.754290552139285,-1.4667886644601822,-7.396666989326477,26.835529310620867
11.797712416620925,27.220037827491762,-1.0039063357561828,-3.118487922549248,27.416477785888898
11.807740416610613,28.179893360137942,0.19641374789178373,-0.3268459063768387,28.182473212896394
11.81776841665851,27.316776502132416,1.5292439442873003,4.154979402422905,27.673249164909272
11.827796416648198,26.38576411485672,3.423518452048302,12.886266932487489,29.563235647873462
11.837824416637886,25.73327332019806,4.069660924673081,43.72833209037781,50.90118390784436
11.84785141661996,30.986905367374423,2.0695488899946213,81.45147079467773,87.17117316791678
11.857879416667856,28.592150130271914,1.0591494405269624,39.600043473243716,48.854849193218975
11.867907416657545,19.596490684747696,0.39577580809593205,10.923292318582535,22.438747753047213
11.877935416647233,14.003955187797548,0.2533537146449089,8.245308480262757,16.253001597897512
11.887962416629307,10.398412327766419,0.060432764478027826,6.466672602295876,12.245345466851933
11.897990416618995,7.9513876605033875,-0.1554760754853487,6.2651810592412955,10.124289221606114
11.908018416666891,6.815257287025452,-0.202325209826231,6.004658365845681,9.085405300227684
11.91804641665658,6.379144461750984,-0.15865696080029013,5.201682459712028,8.232627557880559
11.928073416638654,1.3822069358825684,-15.551991498470308,-12.200451686382294,19.8147913674064
11.938101416628342,-19.94123667240143,-49.138770089149475,-52.12887245178223,74.36189204823395
11.94812941661803,0.6330219054222107,-5.124801514148713,2.1289197635650634,5.585392255863793
11.958157416665927,7.908001320362091,2.3019910611212255,13.01209433555603,15.399683331995497
11.968184416648,5.626120149493218,2.332907190620899,9.791202955842019,11.530973038693386
11.978212416637689,5.379698016643524,3.210664307177067,8.747277910709382,10.759385990419869
11.988240416627377,5.58871843457222,3.392840158045292,7.7163266676664355,10.113695433475954
11.998268416617066,5.250055890083313,3.3952766928076747,6.802457731962204,9.23928686992962
12.008296416664962,4.6472196507453924,4.01698482066393,6.515481650233269,8.954569708603813
12.018323416647036,2.552476277947426,4.926348184347153,6.053762113451958,8.211703678845891
12.028351416636724,0.6236453104019165,4.880897192358971,5.291752969622612,7.2259767759849405
12.038379416626412,-4.6534510284662245,12.898873529434205,6.082783598899842,15.001193322989899
12.0484074166161,-15.784401948451997,20.199742076396944,9.266986039280892,27.259016032782313
12.058434416656382,-22.22989768981934,3.4409343838691715,2.4887369495630267,22.63188441862605
12.06846241664607,-33.8562720823288,-7.957383980154992,-9.736562479734422,36.11603200854263
12.07849041663576,-35.628371357917786,-13.319820431470871,-10.739354116916656,39.52381799362076
12.088518416625448,-18.27919135093689,-11.656516789197923,2.609067969918251,21.835989919687005
12.09854541666573,-5.280618116855622,-7.179286807179452,5.800791099071503,10.633732370662331
12.108573416655418,0.067316654920578,-2.838076509833336,4.192356559038163,5.063108069734219
12.118601416645106,3.2949109902977947,0.9787532220035792,1.2826861560344696,3.668743664859956
12.128629416634794,5.866940649747849,3.732025735974312,-1.5126629948616028,7.115979062480579
12.138656416616868,8.0374113124609,5.399118958711624,-3.7624774503707887,10.387815107160042
12.148684416664764,8.862889058589936,6.263620437383652,-7.958975007534027,13.45841842933391
12.158712416654453,8.71708756685257,6.567063447833061,-13.688343536853791,17.50670405184733
12.168740416644141,7.405136096477509,6.345261016488076,-19.279301455020907,21.60531977472883
12.178767416626215,5.78662680387497,5.540354944467545,-21.768150086402894,23.19553708932329
12.188795416615903,5.076689454317093,4.352914084196091,-21.601778090000153,22.613214134429846
12.1988234166638,3.7181777751445773,2.5995124500989917,-17.801784904003146,18.37078813535753
12.208851416653488,1.9860582518577576,0.46697998434305193,-14.96329850435257,15.101748237072064
12.218879416643176,0.6042378169298173,-1.3627528108656408,-11.321000046730042,11.418723248287959
12.22890641662525,0.20755685985088348,-2.209288280904293,-7.816254413723946,8.125138006106189
12.238934416614939,-0.010516217350959778,-2.403576931357384,-5.559370089769364,6.056722583279093
12.248962416662835,-0.29200468719005584,-2.489633912444115,-4.637396913170814,5.271526712975944
12.258990416652523,-0.7013670855760574,-2.488299577832222,-4.698643573522568,5.3629098452961514
12.269017416634597,-1.4577459454536439,-2.241242729723454,-5.019239975810051,5.68691147722509
12.279045416624285,-2.8657905578613283,-1.63118883356452,-5.154752122163773,6.1192321391841835
12.289073416613974,-4.0668758958578115,-1.0940130253136158,-4.797705346941949,6.383911077696845
12.29910141666187,-4.861205524206162,-0.6641638836264611,-3.8471609205007553,6.234827981677963
12.309128416643944,-5.134749382138253,-0.35819268330931664,-2.5754599285125734,5.755601363812429
12.319156416633632,-4.798346786499024,-0.22634644880890847,-1.3051055502891542,4.977817302371539
12.32918441662332,-4.139911712408066,-0.11044907972216607,-0.0678990375995636,4.141941364270131
12.339212416613009,-3.404588676095009,-0.014471566379070282,0.639382506608963,3.464136756738306
12.34923941665329,-2.613115412592888,0.024312284141778946,1.0016300877928734,2.7986114556084143
12.359267416642979,-1.900578390955925,0.06391006708145142,1.1015630963444711,2.1976632981580657
12.369295416632667,-1.310030660033226,0.07764912351965905,1.0967765656113626,1.7103007196059754
12.379323416622356,-0.6422470575571061,0.24032173275947571,1.2778005149960519,1.4501758425451214
12.389350416662637,0.013345685005187988,0.3476926919817925,1.5966673108935356,1.6341403908605276
12.399378416652326,0.5117816430330276,0.41001728653907776,1.8687405940890314,1.9804610658638757
12.409406416642014,1.1534322845935823,0.5939996346831322,2.1054920169711115,2.473123174181898
12.419434416631702,1.878961234688759,0.8115531867742539,2.0877905948460103,2.923693462788808
12.42946241662139,2.8042135298252107,0.9332729208469391,2.040392918586731,3.59135282698036
12.439489416661672,3.757764594554901,1.0474523779749871,1.897301026582718,4.33793757650887
12.44951741665136,4.455034536123276,1.036730046272278,1.4495598435401917,4.798266942021788
12.459545416641049,4.859805700778962,0.9574698686599732,1.0064730441570282,5.054448336597195
12.469573416630737,5.368518140316009,0.927971542775631,0.7004882490634918,5.492977516263787
12.479600416612811,5.92236055970192,0.9775927689671516,0.29116736590862274,6.009560770640386
12.489628416660707,6.392742161750793,0.9976934498548509,-0.17370981350541115,6.472458548790989
12.499656416650396,6.62649513244629,1.0174248790740967,-0.8153433519601823,6.753545432325082
12.509684416640084,6.799554589390755,1.022147090435028,-1.4045789676904679,7.017946235549835
12.519711416622158,6.793284620046616,1.0038037902116776,-1.7738625034689903,7.092455580362735
12.529739416611847,6.689701194763184,0.9683784341812134,-2.0107940205931665,7.0521735273783825
12.539767416659743,6.75466726899147,0.9445469373464584,-2.2854070419073107,7.19310671259886
12.549795416649431,6.74862884938717,0.9483903121948243,-2.548532915711403,7.275881771545649
12.559822416631505,6.6300829839706426,0.9655855116248131,-2.7520060801506046,7.243196339999538
12.569850416621193,6.4832202225923545,0.9867237809300423,-2.9839914375543595,7.204857609549343
12.579878416610882,6.287634367346764,0.8995219150185585,-3.0157608219981196,7.031237369662439
12.589906416658778,5.902685263752938,0.7974643206596375,-3.1248879924416544,6.72625955720988
12.599934416648466,5.344622324109078,0.7342032945156097,-3.359322163760662,6.355240960418127
12.609962416638155,4.617802893519402,0.658954014480114,-3.477972986698151,5.8184723126261995
12.619990416627843,3.7925409096479417,0.6677999746799469,-3.6729615488648415,5.321651049906917
12.630018416617531,2.752814165353775,0.5161778721213341,-4.021019107103348,4.900308162180243
12.640046416665427,1.5063094103336334,0.3762756362557411,-4.8650755038857465,5.106810262052867
12.650073416647501,0.5731195199489594,0.41533152848482136,-5.194612591266632,5.242610631741203
12.66010141663719,-0.1429077047109604,0.3497693306207657,-4.956235642433167,4.970616957685793
12.670129416626878,-0.6687016153335572,0.19455762237310412,-4.318856391906738,4.374646848910992
12.680157416616566,-0.8068631350994111,0.05409317672252655,-3.3568525922298433,3.452884810779329
12.690184416656848,-1.0083236879110338,-0.06625626236200333,-2.274412083774805,2.4887862259996423
12.700212416646536,-1.7380392444133759,-0.22881792068481446,-1.5340136642754079,2.3294497157335687
12.710240416636225,-2.923706644177437,-0.2656138640642166,-1.012165016233921,3.105332395425364
12.720268416625913,-4.351248797178268,-0.3816518586874008,-0.19101742565631868,4.372128988615185
