Time (s),Linear Acceleration x (m/s^2),Linear Acceleration y (m/s^2),Linear Acceleration z (m/s^2),Absolute acceleration (m/s^2)
0.006291166879236698,-0.7397556643188,0.7036609482765198,-0.22317652702331545,1.0450765212343778
0.016319166868925095,-1.042881901860237,0.7080200475454331,-0.6315472376346588,1.4098748037743745
0.02634616708382964,-0.6944033440947533,0.8342666959762574,-0.6664457595348359,1.2737138119322886
0.0363731668330729,0.13433641746640207,0.7331548887491226,-0.5780487227439881,0.943240525963766
0.04640016704797745,0.7142016508430243,0.6737565332651139,-0.14235631227493287,0.9921175252100146
0.056428167037665844,0.5755492573231459,0.5013905560970306,0.34499390959739684,0.837657588163452
0.0664551667869091,0.5859042377024889,0.18247259706258775,0.826122694015503,1.0291057914538877
0.07648216700181365,1.3246089380979538,0.09049911081790925,0.664454197883606,1.484681214615773
0.08650916675105691,1.7004723456501962,-0.001563253104686737,0.9631492692232132,1.9542940303052045
0.0965371667407453,2.131890002936125,-0.017536676824092864,-1.293749088048935,2.4938021618565642
0.10656416695564985,0.8508323695510627,-1.0641359460353852,-1.4440693080425264,1.9853556858031562
0.11659116670489311,0.09676816653460264,-1.4434600281715393,-1.188482249379158,1.872279623366337
0.1266191666945815,0.38216955654323104,-0.9541822716593743,-2.250506765842438,2.474125720451587
0.13664616690948606,0.8915925789624453,-0.690540965795517,-4.087093813419342,4.239825467161753
0.14667316665872931,1.091989815607667,-1.2897419911623003,-4.870524231791497,5.155374133234785
0.15670016687363386,0.9228965981304647,-2.7696892297267914,-5.257964833974839,6.0140760516825384
0.16672816686332226,2.0647125117480756,-2.7570513501763347,-5.290143231153489,6.312684477288348
0.1767551670782268,2.677555822134018,-2.4724457296729088,-4.740528348684311,5.979540290984013
0.18678216682747006,1.5289147460460664,-3.5608464512228966,-4.365643472671509,5.837469544275427
0.1968091670423746,1.2793674226105214,-4.1687004786729815,-4.954296121001244,6.599992025562865
0.206837167032063,2.194516021460295,-3.974120636880398,-4.917135896086693,6.692365861599982
0.21686416678130627,2.488674676716328,-4.391042315661908,-4.558724965453148,6.801229857541092
0.2268911669962108,1.6420665550231934,-4.567047599852085,-3.1096282213926316,5.764034526763517
0.23691816674545407,1.2252178933471443,-2.0579316419363023,-2.631932337284088,3.558554391477295
0.24694616673514247,0.7124275325238705,-1.495822429060936,-1.968048827648163,2.5725967263423
0.256973166950047,1.0308823189884424,-0.8642257824540138,0.638967354297638,1.4892561359683445
0.2670001666992903,0.8672657498717309,-0.280907256603241,3.2264000415802006,3.3527177030017987
0.27702816668897867,-0.5124710297584534,-1.048566272556782,4.304655259251595,4.460064426136435
0.2870551669038832,-1.0297097329795362,-0.9829844865202905,3.558125449419022,3.832338365637312
0.2970821666531265,-0.6611055705696345,0.6955394580960275,2.4706918573379517,2.6505007012115227
0.307109166868031,-1.7892719632387162,2.3970800900459293,4.783035852313042,5.641357911091857
0.3171371668577194,-3.493092716932297,4.265185676515102,9.369318160414696,10.870953425312413
0.32716416707262397,-3.8635986131429676,4.784293588399887,13.149919055700304,14.516791331246532
0.3371911668218672,-0.6765457282215357,2.451855929195881,10.901382801532746,11.194170742197107
0.3472181670367718,2.430823202133179,0.46722015872597694,11.455212357044221,11.719602649481233
0.35724616702646017,1.9548925924301148,-0.6151506216824055,13.881693416833878,14.03215690670053
0.36727316677570343,0.07395752046257258,-1.2572377578914167,14.148365042209626,14.204307440432293
0.377300166990608,-0.9537413915991784,-0.8939595318585635,13.095613625049591,13.160694605651893
0.3873281669802964,-0.9880512450635434,-0.7395670185238123,10.69987605571747,10.770819478826848
0.39735516672953963,-1.3914367657899858,0.06624895334243774,10.444363256692887,10.536850052779887
0.4073821669444442,-1.5406815366446973,0.57826068431139,10.06873227596283,10.202325943695083
0.41740916669368744,-1.3806390050053596,0.8620542727410794,9.13602770447731,9.279887060103173
0.42743716668337584,2.2694435584545136,0.849558334350586,10.55420788049698,10.828823916438006
0.4374641668982804,0.23433688826858998,2.0064004227519034,7.681864932775498,7.943022427201646
0.44749116664752364,-0.9207682116329671,2.234955657273531,3.8304361295700073,4.529357772603969
0.4575181668624282,-0.4377376934140921,1.3216727587580681,2.000953449010849,2.437672634827545
0.4675461668521166,-0.12808062762022018,-0.17644265592098238,1.264586684703827,1.2832443809073375
0.47757316706702113,-1.793600803166628,-2.1118271827697757,1.1020528006553652,2.9818347148085915
0.4876001668162644,-3.9367700850963594,-2.148350207358599,-0.33958523511886596,4.4976533268225625
0.49762716703116894,-2.203097979873419,-0.5104857538640499,-2.414725232720375,3.3083431447413307
0.5076551670208573,2.463421137034893,0.07069502994418145,-3.853674134016037,4.574302768382669
0.5176821667701006,2.757758278548718,0.9602747780084611,-4.459642142057419,5.330644089357089
0.5277091669850051,1.6812317901849747,0.845605616569519,-5.414348616600037,5.732081657930322
0.5377371669746935,2.57806077003479,-0.22651660278439523,-5.523533089756966,6.099764331428674
0.5477641667239368,2.6338744899630546,-0.7599335284531117,-5.341716842651367,6.004059678551724
0.5577911669388413,1.3187662540376186,-0.9386187377572061,-5.1573289901018144,5.405385451547553
0.5678181666880846,-0.04495090886950493,-1.2720508016645908,-5.785372576117516,5.923737812455608
0.577846166677773,-1.2764408911764622,-1.4666607566177845,-6.611801079511642,6.8917565713467654
0.5878731668926775,-1.4634472730755808,-1.4350596258044244,-7.2715605479478835,7.554910115491674
0.5979001666419208,-1.131558581739664,-1.3140747405588629,-7.799577569961548,7.990033011041369
0.6079271668568254,-0.6733885241299868,-1.4067583711445333,-8.366872678399087,8.510991695199586
0.6179551668465137,-0.6115990228950977,-2.0136158868670466,-9.005698530077934,9.24831380951671
0.6279821670614183,-0.8051645920425654,-2.270877295732498,-9.081374949216842,9.395559838605447
0.6380091668106616,-0.2835032924450934,-2.078902388513088,-8.626476189494133,8.877967149393033
0.64803716680035,0.44297519065439706,-2.2266489565372467,-8.2039101934433,8.512246181664777
0.6580641670152545,0.9973528495430947,-2.5007959547638894,-8.782798576354981,9.186198557982417
0.6680911667644978,1.378943020105362,-2.989733403325081,-9.241090475320817,9.81008373301269
0.6781181669794023,1.1740272744745017,-3.122763991355896,-8.050186309218407,8.714097463308894
0.6881461669690907,1.0097921430319547,-2.9406650313735008,-6.4163596504926685,7.129997346657457
0.698173166718334,0.8862213997542858,-3.2029424741864205,-5.688149167299271,6.587812217403989
0.7082001669332385,0.1419969277828932,-4.373431963920593,-5.989143948554993,7.4173388426749804
0.7182275420054793,-0.790377056747675,-5.077053735852242,-6.430456702709198,8.231156901309923
0.7282555419951677,-1.4858815777301788,-4.622394711971284,-6.259185909032822,7.921602437646883
0.738282541744411,-1.1722908706963062,-3.625389187037945,-6.259533818364144,7.32799264916757
0.7483095419593155,-0.20457189280539753,-1.9805294170975687,-5.653880975246429,5.9942235955600065
0.7583375419490039,1.6794796720147134,0.24221272230148316,-2.480865427851677,3.0056633615002575
0.7683645416982472,3.4010850244760515,1.2420351433753969,0.8271512192487717,3.7140557051018415
0.7783915419131517,2.834087539315224,4.132583397030831,4.295006183981895,6.5998011965785315
0.788418541662395,2.3843227811157703,6.59017983019352,7.995636464953423,10.632293628306641
0.7984465416520834,2.449261227250099,8.374463533759117,11.557952613830567,14.48160172981997
0.8084735418669879,2.8579438868165017,9.646566814184188,13.008478417396546,16.44520006860918
0.8185005420818925,2.2871734857559205,9.149074012041092,13.840238996744157,16.74780383568987
0.8285275418311357,-0.5110796847939492,6.458628587722779,15.413502534627915,16.71978307464963
0.8385555418208241,-3.7639220049977307,4.741191422939301,16.70926774263382,17.77204640618751
0.8485825420357287,-4.847830603122712,4.980391659736633,16.589182305336,17.98629289766572
0.858609541784972,-3.47861705750227,6.019463515877724,15.086134471893311,16.611025584104567
0.8686365419998765,-2.065574829876423,7.019025735855103,12.427833530902863,14.421663147163326
0.8786645419895649,-1.4455645872652532,7.665723109245301,8.537832984924316,11.564928008510666
0.8886915417388082,-1.452729911506176,7.421876090168953,4.789831486344338,8.951935799657074
0.8987185419537127,-1.6192382942140102,6.437238303422928,1.8970414102077484,6.9035306720943455
0.9087465419434011,-1.3009497879445553,4.50602810382843,0.18538597226142883,4.693732798312654
0.9187735416926444,-0.5863166856765747,2.099694210290909,-0.7218773639202118,2.2964298293595475
0.9288005419075489,-0.725019657611847,0.019375333786010744,-0.696274745464325,1.005399138976322
0.9388275416567922,-0.8622377291321754,-1.8531557178497315,0.5072231537103653,2.1059238694212223
0.9488555416464806,0.06318727813661099,-3.1557802945375446,1.962424390912056,3.7167258964788266
0.9588825418613851,0.7616774605214596,-3.9845751661062243,2.2593430781364443,4.6434494670384785
0.9689095420762897,1.3045823706686497,-4.444928208589554,0.9866077136993409,4.73631889995866
0.9789365418255329,0.8881452067941428,-4.801083868145943,-1.3575375330448152,5.067752595672762
0.9889645418152213,-0.4569846808165312,-5.29609920501709,-3.345742297768593,6.281042374555477
0.9989915420301259,-2.028401741087437,-5.353700711131096,-5.724011895060539,8.095729559613927
1.0090185417793691,-2.4169533142447475,-5.820466395020485,-7.3729653006792075,9.699490177520728
1.0190455419942737,-2.3209395481646062,-6.682952923178673,-8.291525457501411,10.899450195860839
1.029073541983962,-2.3335854676365853,-6.8387151467800145,-7.756110538244248,10.60051398164384
1.0391005417332053,-1.915140735358,-7.013667347431183,-6.85693974852562,9.993843925715497
1.0491275419481099,-1.518156161606312,-7.209216949939728,-6.3520689296722415,9.727609513628153
1.0591555419377983,-1.699567489027977,-7.137088036537171,-6.447118928432465,9.766877585410551
1.0691825416870415,-0.7787304264307022,-7.862869001626969,-7.692561829090119,11.027539957223894
1.079209541901946,-0.7719806930422783,-7.915026749968529,-8.464482003450394,11.614260985094274
1.0892365416511893,-1.2058426326513292,-7.770771262049675,-8.838403843045235,11.830313814712328
1.0992645416408777,-1.0321866135299207,-8.415641965270042,-8.670923214554787,12.127380108064136
1.1092915418557823,-1.5292784428596498,-8.702225698828698,-7.821682968735695,11.800260553587785
1.1193185420706868,-1.0903756186366083,-8.520601825118066,-7.252099844813348,11.241998337086883
1.12934554181993,-1.0740166441351175,-8.27442118227482,-6.7713125377893455,10.745707568046912
1.1393735418096185,-0.9532937872409821,-7.667069138288499,-5.462238482236862,9.461964249188297
1.149400542024523,-0.09219019867479801,-7.34214462697506,-3.733913217186928,8.237578204158893
1.1594275417737663,0.768477845415473,-6.30163844883442,-3.265689237713814,7.139042760485646
1.1694555417634547,1.55422500371933,-5.01660522043705,-3.8179464769363407,6.49296993683578
1.1794825419783592,1.541541223526001,-3.9447538733482364,-4.637774058580399,6.280635372601028
1.1895095417276025,0.19749263226985933,-2.0933447188138965,-4.940123639702797,5.368977279439476
1.199536541942507,-1.799514238536358,1.1340750771760941,-5.053212883472443,5.482639712862677
1.2095645419321954,-3.459902459084988,4.907632416486741,-5.513063065409661,8.151665187243523
1.2195915416814387,-3.3207694244384767,8.617187887430191,-4.3730483865737915,10.217973813279945
1.2296185418963432,-0.50546167999506,11.643700861930848,-1.1140238052606584,11.707788446617919
1.2396455416455865,2.815678457915783,14.284054359197617,5.8197547888755805,15.679024201700937
1.2496735416352749,3.5702964287996295,13.954670176506044,13.175252702236175,19.520940553476112
1.2597005418501794,1.488451136648655,9.63350179553032,20.101862025260925,22.340651300114413
1.269727542065084,-2.473202359378338,6.650520172119141,25.96190880775452,26.914064304975565
1.2797545418143272,-4.77301313996315,7.483161342144013,28.341547822952272,29.69886683204445
1.2897825418040156,-5.0185400640964515,9.82289661884308,25.132132773399356,27.446295562410494
1.2998095420189202,-4.8288286140561105,11.771858965158463,18.60225469350815,22.53748275565962
1.3098365417681634,-4.763713143467903,13.308396141529084,11.876486703157425,18.462321283722428
1.319863541983068,-3.94899485886097,13.282605242729188,6.734956889748574,15.407199834371562
1.3298915419727564,-0.8081594628095627,10.737963649034501,1.6760423862934113,10.897986195897253
1.3399185417219996,0.6180281095951796,9.974638881683351,-0.584868330359459,10.01086662223089
1.3499455419369042,3.2696662214398384,7.606157523393631,-1.8138244217634203,8.475512285595935
1.3599735419265926,4.988467833995819,5.103245168924332,-2.3412169611454012,7.510607128862179
1.3700005416758358,5.56405721783638,2.6705683994293214,-1.7604288178682328,6.417926294541607
1.3800275418907404,4.756025809049606,0.5664624649286271,-1.058387548327446,4.9051855645809725
1.3900545416399837,3.339422627091408,-0.9463332617282868,-0.08520621120929718,3.471966333795883
1.4000825420953333,1.795148707330227,-2.429385956525803,0.3825371271371842,3.0448004303784093
1.4101095418445766,-0.1428360763192177,-3.8610585826635364,0.594640781879425,3.9091908603868655
1.4201365420594811,-1.209293951690197,-5.571031776666642,-0.6629280745983124,5.739186401426129
1.4301635418087244,-2.2177100256085396,-6.402263767719269,-1.8200686633586884,7.0156873539572615
1.4401915417984128,-2.2026503755152227,-7.323200817704201,-2.8564426141977313,8.163345104881062
1.4502185420133173,-1.888902086019516,-7.975023275613785,-3.677267146110535,8.982830344663894
1.4602455417625606,-1.6865755605697632,-8.607230663895608,-4.685414248108864,9.943946072832334
1.470273541752249,-1.4554899434745312,-9.151243913769722,-5.801209759712219,10.932417428045968
1.4803005419671535,-1.0826926696300507,-9.711265085935594,-6.593750724792481,11.78806352234682
1.4903275417163968,-0.7802461709082127,-10.212891869544983,-6.93013110101223,12.36683716652936
1.5003545419313014,-0.6279377514123917,-10.506203409433365,-6.89224757552147,12.580846257001937
1.5103825419209898,-0.4331114494800568,-10.702220789194108,-6.855191431045532,12.716869304377134
1.520409541670233,-0.24068104416131975,-10.83364397764206,-6.9662896978855136,12.882350769723066
1.5304365418851376,-0.065265451669693,-10.766261833906174,-7.228365411758423,12.96788031951683
1.5404635416343808,0.15171032242476942,-10.781802563667299,-7.548339670300484,13.162359755076784
1.5504915420897305,-0.05473264284431935,-10.581771655082703,-7.571659535765648,13.011799074227026
1.5605185418389738,-0.6923796227574349,-10.657003101110458,-7.168964132666588,12.862548401251894
1.5705455420538783,-1.5533923602104187,-10.904416337013245,-6.692926518917084,12.888544869895322
1.5805725418031216,-2.2099376142024996,-10.62674843788147,-6.520479265451431,12.662079468707553
1.59060054179281,-2.3348054891824725,-9.924858026504516,-6.785069282054901,12.24709307063814
1.6006275420077145,-1.9181457656621934,-8.790127476453781,-7.007872171998025,11.404205216046398
1.6106545417569578,-1.2540026396512987,-6.969789841175079,-7.116143894791604,10.03942214381782
1.6206825417466462,-0.9340380290150643,-4.511334452033043,-7.209679464697838,8.55593615926582
1.6307095419615507,-1.400801666378975,-2.0673789882659914,-6.7290570491552355,7.177500258477153
1.640736541710794,-2.5162270492315293,1.0274107539653778,-5.889429041147232,6.4863199004795105
1.6507635419256985,-2.911345922648907,4.279844938516617,-4.541947549581528,6.88638477883863
1.660791541915387,-1.9605383715033533,7.4229677653312685,-1.0347209429740907,7.746922523241942
1.6708185416646302,-1.7634521207213403,10.40578917503357,5.018667533397675,11.686626354431903
1.6808455418795347,-2.055861435234547,12.029384375810624,10.858006986379625,16.334900379804896
1.6908725420944393,-1.8990626464784146,11.989188276529314,16.47406115412712,20.46318072478562
1.7009005420841277,-3.067934942543507,9.475836887955666,21.90192970275879,24.060304117849558
1.710927541833371,-7.254886043071747,7.580870069861413,23.98619077205658,26.180915000579528
1.7209545420482755,-9.582871339917183,8.452123328447342,22.514954130649567,25.88808551017135
1.7309815417975187,-8.733708862066269,10.515698118209839,19.23316692352295,23.596022701056086
1.7410095417872071,-6.718347873687745,12.2851883661747,15.37766027212143,20.797463470073954
1.7510365420021117,-4.5388818544149405,13.300174956321717,12.582308782339096,18.862942417640788
1.761063541751355,-2.297539429664612,12.87830302476883,10.319690093994142,16.66209410202434
1.7710915417410433,-0.07384302467107773,10.874814223051072,8.062153805494308,13.537553736241005
1.7811185419559479,1.6519185286760332,8.42496885895729,6.026939181089402,10.489658287681916
1.7911455417051911,2.9697061049938203,5.627065059542656,3.9151289552450184,7.470692757071549
1.8011725419200957,3.552605093121529,2.866033802032471,2.1441774880886078,5.043079396806251
1.811200541909784,3.242052453160286,0.42969550609588625,1.0694031178951264,3.4408088243268393
1.8212275416590273,2.37944020986557,-1.708919525742531,0.40678085267543795,2.9576362724129113
1.8312545418739319,1.2442795971035958,-3.468856008052826,-0.32652781784534457,3.6997046012079555
1.8412815420888364,0.027088103592395784,-4.67660717189312,-1.0877160125970842,4.8015116921255645
1.8513095420785248,-0.7948307347297668,-5.634740699529648,-2.259143688082695,6.122563911566037
1.861336541827768,-0.8975405859947205,-6.1089990055561065,-4.335281805396081,7.544542152151551
1.8713635420426726,-0.7879052925109864,-6.276648618578911,-6.4622836822271355,9.04313126193878
1.881390541791916,-0.6257278693467379,-6.488264030814171,-8.155605760216714,10.440450699855548
1.8914185417816043,-0.6706905457377434,-7.048799757957459,-9.003685918450357,11.454333850295459
1.9014455419965088,-0.8943515145778657,-7.856610726714135,-9.326919999718667,12.22774032370247
1.911472541745752,-1.0874183893203735,-8.575148745775223,-8.814241978526116,12.34530341553477
1.9215005417354405,-1.0826631411910057,-9.133504046201706,-8.050880373716355,12.223327306063913
1.931527541950345,-0.8360870072990656,-9.403007478117944,-7.692637258172035,12.177530911606542
1.9415545416995883,-0.4221797874569893,-9.506261705160142,-7.860440068244935,12.342356559685102
1.9515815419144928,-0.1376320543885231,-9.527312850952148,-8.230734879970552,12.591013835536716
1.9616095419041812,-0.12491143673658371,-9.361161879301072,-8.289260830879211,12.50435123146561
1.9716365416534245,-0.21063454180955887,-9.16912996172905,-8.129522500634193,12.25587398978948
1.981663541868329,0.19189450800418856,-8.845420501828194,-7.781942952275276,11.782908107459361
1.9916905420832336,0.5708315044641495,-8.448616168498994,-6.909979256987572,10.929445415990234
2.001718542072922,0.8034922152757645,-7.977665632367135,-5.404320641756058,9.66930350546362
2.0117455418221653,1.031884166300297,-7.737880674004555,-4.218688910007477,8.873382578093572
2.02177254203707,1.3150724217295648,-7.49071945309639,-3.37247167468071,8.319486678630723
2.031799541786313,1.274467894434929,-6.707763243913651,-2.318107595443726,7.21054637142001
2.0418275417760015,0.9045721551775933,-5.38742978990078,-1.9940730303525926,5.815408650766734
2.051854541990906,0.618281367123127,-3.5494206994771957,-2.4820728778839114,4.375082276019018
2.0618815417401493,-0.036216776669025424,-1.1608295971155167,-3.0979033845663073,3.308450149021298
2.0719095417298377,-1.0016683139652014,1.7728459650278092,-3.168174052834511,3.7661185663718983
2.081936541944742,-1.6350957968831064,5.019377385377884,-2.517734461426735,5.848647229922787
2.0919635416939855,-0.7052297562360764,7.626243293881417,-0.8961337459087372,7.711030506819986
2.10199054190889,0.38622299261391163,10.137161071300508,1.6687503236532213,10.280852611928976
2.1120185418985784,-0.10885352075099945,11.829627116918564,3.714758323431015,12.399651455416596
2.1220455416478217,-2.1292508621513844,10.32573611497879,6.844652994275093,12.569956649176985
2.132072541862726,-5.071800012588501,6.719318511486054,11.774946295022964,14.474866385468534
2.1420995420776308,-7.763574509024621,5.330262147188187,16.313462698459627,18.83650309715043
2.152127542067319,-7.911312598586083,7.027163890600205,18.393123178482057,21.219728547667998
2.1621545418165624,-5.484557304382324,9.153924277424812,17.374637614488602,20.390015466808332
2.172181542031467,-3.2470453906059267,10.260695196390152,14.73339884877205,18.2454983850504
2.18220854178071,-1.138939668238163,10.482067272663118,12.325911884307862,16.22032742136371
2.1922365417703986,1.2790100115537644,10.14205168247223,11.164645500183106,15.137581976139764
2.202263541985303,3.223895094394684,9.132836294174195,10.76314526796341,14.47920903969311
2.2122905417345464,4.317437272667885,7.73672994196415,10.130665984153747,13.45836721451738
2.222318541724235,4.518570089042187,6.3059320592880255,8.796327863931657,11.728496863440077
2.2323455419391394,4.024172802865506,4.894508925676346,6.952603120207787,9.406852529830097
2.2423725416883826,3.1435645839571955,3.4025672936439517,5.190414875149727,6.9570014415307595
2.252399541903287,1.805758772492409,1.826740336418152,3.6520206230878833,4.46486277869652
2.2624275418929756,0.3466507181525231,0.3782096028327942,2.1840461432933806,2.2434943236178
2.272454541642219,-0.8590723389387132,-1.032943389415741,0.5294057357311249,1.4440386983361369
2.2824815418571234,-1.90481732994318,-2.4478345066308975,-1.3172718518972397,3.3697815899707178
2.292508542072028,-2.678539908528328,-3.8037044137716296,-3.333028112053871,5.722920557256244
2.3025365420617163,-3.0796726432442667,-5.034411746263504,-4.96715005517006,7.713771119954169
2.3125635418109596,-3.261122562289238,-6.057711322903633,-5.947869037985802,9.094390190163217
2.322590542025864,-3.213236789703369,-6.976700665354729,-6.4751650983095175,10.046243372078443
2.3326175417751074,-2.7283365511894226,-8.090204653143884,-7.097191314697266,11.102493243579184
2.342645541764796,-2.6284818953275684,-8.795567725896836,-7.316074815988541,11.738648960082443
2.3526725419797003,-2.5074711361527444,-9.194933724403382,-7.446348441839219,12.09472293242351
2.3626995417289436,-2.2980753269791605,-9.501426057815552,-7.69511530816555,12.440781605131189
2.372727541718632,-1.9793465253710747,-9.67288864016533,-7.998410968780518,12.706579608141858
2.3827545419335365,-1.6420322026312353,-9.703433910012246,-8.26512761771679,12.851662691558564
2.39278154168278,-1.3427809149026873,-9.59929616868496,-8.526097623109818,12.909062250928823
2.4028085418976843,-1.1234995105862617,-9.440404515266419,-8.694130228757858,12.88298835661786
2.4128365418873727,-0.9500743103027344,-9.334468755126,-8.668809446096422,12.774318195044748
2.422863541636616,-0.9304520047456026,-9.29973804831505,-8.512580614686012,12.641791701414077
2.4328905418515205,-1.0524027038365602,-9.261656886935235,-8.052221140265464,12.31763390566936
2.442917542066425,-1.1917354208976032,-9.094147022366524,-7.093042715191841,11.59461074540133
2.4529455420561135,-1.0272172111272813,-8.711708128452301,-5.995327963829041,10.625111345677675
2.4629725418053567,-0.6525568681955338,-7.910595145225526,-5.285019316077233,9.53597269234787
2.4729995420202613,-0.3858753025531769,-6.531165636777878,-4.602294323444367,7.9991335383125675
2.4830265417695045,-0.46746237963438037,-4.53930753171444,-3.806705204844475,5.942628918285483
2.493054541759193,-0.2597143158316612,-2.284290808439255,-2.4120559787750246,3.332183978731114
2.5030815419740975,-0.3452643433213234,0.23167837858200074,-0.31504330158233645,0.5216652372387761
2.5131085417233407,-0.10987561404705048,2.646394840478897,2.407340199351311,3.5792129215357322
2.523136541713029,0.7568492683768273,5.318312777280807,4.8981663590669635,7.269752766987757
2.5331635419279337,1.7413853135704995,8.557331694960595,6.173855152130128,10.694710654682526
2.543190541677177,2.0527781984210014,12.664969700574876,6.343270039558411,14.31266679005529
2.5532175418920815,1.713419250547886,14.750960376262666,5.736913776397706,15.919761845833031
2.56324554188177,-0.1887363537400961,12.63649960756302,4.786318479180336,13.513903519239236
2.573272541631013,-4.656879251003265,10.25490294456482,5.149373853206635,12.384086960327641
2.5832995418459177,-9.094259873628618,9.011932246685028,7.497154898643494,14.836705060160332
2.5933265420608222,-10.733364229202271,8.439865810275078,11.688386453390121,17.973725836786393
2.6033545420505106,-9.897036974430085,8.472338322401047,16.401741621494295,20.946335854767533
2.613381541799754,-8.098404203653336,8.52840259552002,19.923278703689576,23.135575112408883
2.6234085420146585,-5.083402642607689,7.573504917025566,21.303855435848238,23.174408635100093
2.6334355417639017,-1.816894356161356,6.2576551079750065,19.70780646800995,20.757094891442573
2.64346354175359,0.5512249132990837,5.196767874956131,15.525215928554536,16.38116524791387
2.6534905419684947,2.513603403568268,4.165900831818581,10.12023455142975,11.229072944234053
2.663517541717738,3.558563990592957,2.942251088619232,4.977334150671959,6.789261697053022
2.6735455417074263,3.3120705217123034,1.4478050941228868,1.0012713611125947,3.7507992574847377
2.683572541922331,2.5267888748645784,-0.4783069181442261,-0.9354170948266983,2.7365022688421163
2.693599541671574,1.6677627289295198,-2.4980322682857516,0.02618792474269867,3.003711627437898
2.7036265418864787,0.7941664910316467,-3.8121027696132663,1.9121512001752854,4.338104442484348
2.7136541670188308,-0.2060982719063759,-5.022882791161537,2.713824931383133,5.712851633783795
2.723681166768074,-0.8724919912219048,-6.047225511074067,2.0021661615371706,6.429529375851382
2.7337081669829786,-1.121802063882351,-6.964413911104202,0.16405708372592928,7.056090682696268
2.743735166732222,-0.9022946646809579,-7.62462536931038,-2.1287987262010577,7.967485908422958
2.7537631667219102,-0.4704356887936592,-7.949691967964172,-4.302938516736031,9.051750769967947
2.763790166936815,-0.2579124963283539,-8.069086264371872,-6.196228938102722,10.176931023202366
2.773817166686058,-0.6680829799175263,-8.530260840654373,-7.7676552808284764,11.556303623539815
2.7838441669009626,-1.3781980848312378,-9.191404929757118,-8.635581473708154,12.686789268086999
2.793872166890651,-2.019002926647663,-9.559917510151864,-8.931807265877724,13.238035226328194
2.8038991666398942,-1.6021996539831163,-9.95758840084076,-9.179343878030778,13.637483804680508
2.813926166854799,-1.427189565896988,-9.915231170654298,-8.800098148584366,13.333806907602863
2.8239531670697033,-1.3509892362356186,-9.718899795413018,-8.184648880362511,12.777740897534391
2.8339811670593917,-1.2311563986539842,-9.794441143870355,-7.4779292535781865,12.384112778887614
2.844008166808635,-1.123936078324914,-9.762213630080224,-6.612282890081406,11.844253133311016
2.8540351670235395,-1.255223830640316,-9.5436523103714,-5.616868100166321,11.144778756930561
2.864063167013228,-1.4700479024648667,-9.219262234568596,-4.803503445982933,10.499022923151184
2.874090166762471,-1.4987703028321266,-8.557408293485642,-4.436268482208252,9.754795085920701
2.8841171669773757,-1.4276819014549256,-7.937977656126023,-5.096764115095139,9.540795004915443
2.894144166726619,-1.624583087861538,-7.0338045734167105,-6.22871022105217,9.534700205262006
2.9041721667163074,-1.8971621552109719,-5.605705180764199,-7.112983474731446,9.252982693629875
2.914199166931212,-1.9760625828802587,-3.730214853286743,-7.6543385803699495,8.74117985663722
2.924226166680455,-1.5923365706205368,-1.40383695602417,-8.097048234343529,8.370691970352297
2.9342531668953598,-0.3869938749074936,1.6523050296306612,-7.931940990686417,8.111446483204467
2.944281166885048,1.4582467594742776,5.133486968278885,-6.671840874552727,8.543572597008751
2.9543081666342914,2.115342528820038,8.342435994744301,-4.492790007591248,9.708556761586753
2.964335166849196,1.6924628296494484,10.202242920398712,-1.891915740966797,10.513302821068581
2.9743621670641005,1.4373689836263657,10.812834906578065,1.357895382642746,10.992147569160753
2.984390167053789,1.5443844321370126,9.908778183460235,5.98555609703064,11.678865105563355
2.994417166803032,1.8638476440310479,8.1187729793787,11.384669208526612,14.106703928218801
3.0044441670179367,1.5343541184067726,7.665920745134354,17.56150877952576,19.223089607155075
3.01447116676718,-0.4861459878087044,8.999458966255188,21.979253282547,23.755297818910343
3.0244991667568684,-2.4034532627463343,10.806571369171143,22.898814482688906,25.43450956979117
3.034526166971773,-2.6043554064631462,10.557026238441468,18.338960419893265,21.320200265586795
3.044553166721016,-2.6817479833960536,10.598424525260926,13.437862851619721,17.323236784245676
3.0545811667107046,-1.3656458669900895,10.924215009212494,10.302701593637467,15.078100753379738
3.064608166925609,0.26217281419783833,10.593719855546953,8.84562164604664,13.803646520659786
3.0746351666748524,1.0477298283576966,9.146914635300638,8.94796780049801,12.838610240109972
3.084662166889757,1.1395641508698464,7.031892533898354,9.616103405356407,11.967270522752889
3.0946901668794453,1.1942069658637047,4.672880741357804,9.655855700969697,10.793400484472864
3.10471716709435,1.3125426238775253,2.483014279603958,8.580669686794282,9.028622282833785
3.114744166843593,1.1204218286275864,0.4569698435068131,6.2730718767642974,6.388708577090597
3.1247711670584977,0.596362202167511,-1.4381507563591005,3.497292771935463,3.828182624539008
3.134799167048186,-0.028921187426894906,-2.933995404839516,0.778554425239563,3.0356733130825657
3.1448261667974293,-0.7042228657007218,-4.1337434846162795,-1.916492173075676,4.610499679063388
3.154853167012334,-1.1247034522891046,-5.191104261875153,-4.127316809892655,6.726608756459074
3.164880166761577,-1.109164184331894,-6.06100096642971,-5.6631815564632415,8.368847187297181
3.1749081667512655,-0.9704223284125328,-6.775057094693184,-6.673290984034539,9.559075828208014
3.18493516696617,-0.7580561336874962,-7.5470977216959,-7.363900946974755,10.571677741943535
3.1949621667154133,-0.6210737049579621,-8.38518849670887,-7.683854155540467,11.390291188373785
3.2049901667051017,-0.6303754556179046,-9.180006367564202,-7.4283033496141435,11.825801485626819
3.2150171669200063,-0.7884350502490998,-9.705615506172181,-6.789603213071824,11.870944106222826
3.2250441666692495,-0.8543325859308243,-10.155230137109758,-6.296920330524445,11.979557126789688
3.235071166884154,-0.7379998916387558,-10.410530097484589,-6.159749913811684,12.11884069337469
3.2450991668738425,-0.6661036974191666,-10.313673309087754,-6.2923992633819585,12.099993378184736
3.255126167088747,-0.5490938955545426,-10.165487322807312,-6.56850537121296,12.115440537922877
3.2651531668379903,-0.3756499841809273,-10.026513040065765,-6.461783745288849,11.934266874178034
3.275180167052895,-0.2650694882869721,-9.787510439157487,-6.045750843286514,11.507246659793866
3.2852081670425832,-0.1182584747672081,-9.55890945017338,-5.586860189437867,11.072476765376114
3.2952351667918265,0.08976148456335069,-9.38022263288498,-5.191958540081978,10.721616820635255
3.305262167006731,0.2912749546766281,-9.062818225622177,-4.8765439403057105,10.295639664033688
3.3152891667559743,0.5898255997896195,-8.527645381093025,-4.752650796175003,9.78040487782726
3.3253171667456627,0.9739970237016679,-7.723459686040878,-4.648663913011551,9.067004792113778
3.3353441669605672,1.3569156816601753,-6.597595269083977,-4.524322287440301,8.114121989618077
3.3453711667098105,1.392507683336735,-5.132395877838135,-3.8481613790988924,6.564214430881278
3.355398166924715,1.1571721637248993,-3.1338035345077517,-3.1297929292917255,4.577704205127011
3.3654261669144034,0.401463723666966,-0.6106703388690948,-2.6219230735301973,2.7218692084126817
3.3754531666636467,-1.183796290755272,2.052581439614296,-2.3960638439655306,3.3698050638892916
3.3854801668785512,-3.011717180013657,4.368633154034614,-2.6076061660051346,5.912275866695315
3.3955081668682396,-3.837239949703217,6.3315568971633915,-3.63426321387291,8.247477934576455
3.405535167083144,-4.001013151109219,8.164321035146713,-4.663414683938027,10.218203399553996
3.4155621668323874,-4.10946116745472,9.621531960368157,-3.867510985136032,11.154335012512046
3.425589167047292,-3.7413254401087763,9.75775980591774,-1.2758776581287385,10.528022429559172
3.4356171670369804,-4.087541417777539,9.004467691183091,2.532428514361382,10.207919838241166
3.4456441667862236,-6.249690030813217,9.048355722427369,6.676673013567925,12.865042918348015
3.455671167001128,-7.3559779697656635,8.76896114051342,9.670618751049043,14.984190281882219
3.4656981667503715,-6.17305408358574,8.273026621341705,11.213687267303467,15.241271217493212
3.47572616674006,-3.727863395512104,7.803948948383332,11.73405437707901,14.576920690215044
3.4857531669549644,-1.555698794424534,7.5958208155632025,12.0850767660141,14.358473910606621
3.4957801667042077,0.1531417939066887,7.208274378776551,12.887512389421463,14.767215293218255
3.505807166919112,2.254044623672962,6.57272589147091,13.161001868247986,14.882654769426994
3.5158351669088006,4.192120331525802,5.910470831394196,12.262495322227478,14.243466216142908
3.525862166658044,5.454831814169884,4.928744373321534,10.435922216176987,12.765429241530619
3.5358891668729484,5.609873076081276,3.266476272940636,8.202506861686707,10.460480963485535
3.545917166862637,4.667565622329712,0.8723028337955475,5.690628386735916,7.411500017440904
3.5559441670775414,3.051758035719395,-1.5638085901737213,3.242720789909363,4.719529906313703
3.5659711668267846,1.4589080795645715,-3.5353522986173633,1.0959541547298433,3.9784725924941933
3.575998167041689,0.326794450879097,-5.030352609157562,-0.7032317626476288,5.089771792288939
3.5860261670313776,-0.26245636761188507,-5.836477240920067,-2.0409016263484956,6.18858864177527
3.596053166780621,-0.11613184243440629,-6.133665484786034,-3.221616434454918,6.929224439634837
3.6060801669955254,0.549892917573452,-6.364246340990067,-4.650706930160522,7.901587730313826
3.6161071667447686,1.1848391416668893,-6.456402552723885,-5.753291242718697,8.728650401865634
3.626135166734457,1.3528466042876244,-6.671802867650986,-6.462311164140702,9.386405756289573
3.6361621669493616,1.0237027421593667,-7.085213878154755,-6.864476809501649,9.918128093127619
3.646189166698605,0.3594587516784668,-7.559194441437722,-7.094718527197839,10.373314907867469
3.6562161669135094,-0.3943435326218605,-7.993227996826172,-7.095509070754051,10.695487347667681
3.6662441669031978,-0.9938307791948319,-8.20520769059658,-6.804096706509591,10.705552991556996
3.676271166652441,-1.0144313970208167,-8.31261344075203,-6.442379175424576,10.565645399812409
3.6862981668673456,-0.585059241950512,-8.167413627505303,-5.857914887666703,10.067974300250187
3.69632516708225,-0.009364900588989259,-7.921630595326424,-5.184935449361801,9.467622436716802
3.7063531670719385,0.9071244648098946,-7.56867628633976,-4.683303403258324,8.946567290812128
3.716380292084068,2.0585292273759843,-7.003764503002167,-4.402176876068116,8.524636123710103
3.7264072918333113,2.5833913841843605,-6.351248565316201,-4.279640870690346,8.082548816084708
3.7364352918229997,2.004503878355026,-5.7636098241806035,-4.374476861357689,7.508214289315757
3.7464622920379043,0.9902747949957849,-4.834906502366066,-4.53218386888504,6.700571294867878
3.7564892917871475,-0.25602267622947694,-3.6474112629890443,-5.167907772660255,6.330594543867528
3.766516292002052,-1.6857765385508539,-1.926387416124344,-5.763581172823907,6.306479124730449
3.7765442919917405,-2.555368018448353,0.17787463903427125,-5.752007194161416,6.296596847393433
3.7865712917409837,-2.4134420612454415,2.7331973415613176,-4.310579073429108,5.645897824012709
3.7965982919558883,-1.2855033445358277,5.316993645429611,0.027169087529182435,5.470253964275227
3.8066252917051315,0.2402287620306015,7.442196334004403,7.259690115451813,10.399379630745484
3.81665329169482,0.6829485024511814,9.254073632955551,14.334034019708634,17.075386635134443
3.8266802919097245,-0.4555378603935242,9.430523305535317,17.71690672159195,20.075633697098745
3.8367072916589677,-4.034436712861061,8.268369314074517,16.572096741199495,18.95460369154906
3.8467342918738723,-7.461867536902428,8.056450431346894,13.479485671520234,17.386270291806323
3.8567622918635607,-8.209270336031913,8.848249384760857,10.891229696273804,16.25738358168284
3.8667892920784652,-7.202785012722016,10.859048960208893,8.80329716026783,15.725682724501546
3.8768162918277085,-5.430934828519821,11.943571808338167,7.509301319718361,15.117326713506055
3.886844291817397,-3.470913350880146,12.288732948303224,6.88361708521843,14.50670124942064
3.8968712920323014,-1.5070214550197125,11.476238944530488,6.6290819406509405,13.338661902668964
3.9068982917815447,-0.04781297475099564,9.3468350315094,6.591747468709946,11.437514847118226
3.9169252919964492,1.1168962499499322,6.888993015289307,6.89968231022358,9.813831972265945
3.9269532919861376,2.593001283109188,4.715683529376984,6.867168867588044,8.724639537506047
3.936980291735381,3.691783151328564,2.2699727314710616,6.388111166954041,7.71945615438151
3.9470072919502854,3.6743540632724763,-0.0753928291797638,5.635166376829147,6.727678794021339
3.9570342916995287,3.0446115687489512,-1.9232445377111436,4.674505682587624,5.900807786476331
3.967062291689217,2.7401549434661865,-3.527595967054367,3.1164718025922777,5.446538250791338
3.9770892919041216,2.39881320476532,-4.859276527762414,1.0211893165111543,5.514499141787558
3.987116291653365,1.4077706703543664,-5.906796441078186,-1.3881120389699937,6.2288777070494294
3.9971432918682694,0.07414589216932654,-6.83322811961174,-3.706906682252884,7.774294906865141
4.007171291857958,-1.0998785135149955,-7.607702357769013,-5.491363463401795,9.446795255327613
4.017198292072862,-1.9056730699539186,-8.140917554497719,-6.412163688540459,10.53669642949409
4.027225291822106,-2.192998230457306,-8.54553318321705,-7.29847703576088,11.450028194977579
4.03725229203701,-1.6240916293859482,-8.662514333724976,-7.98950098156929,11.895753617872591
4.047280292026699,-0.6245302864909172,-8.569706742167472,-8.291983879208566,11.940976022861355
4.057307291775942,0.12714390367269518,-8.537863975167275,-8.330570824742317,11.929362811849934
4.067334291990846,0.5730709880590439,-8.665884668827058,-8.09303061246872,11.871104074395213
4.077362291980535,0.8835660329461098,-8.852245956659317,-7.802792369127274,11.833280025735814
4.087389291729778,1.252765953540802,-8.909437572956085,-7.507775781154633,11.718114079528526
4.097416291944683,1.65366012185812,-9.024610179662705,-7.030747649073601,11.5589615968931
4.107443291693926,1.5545047929883005,-9.295737383365632,-6.184618121981621,11.272831053762333
4.117471291683614,1.2638651382923127,-9.809588356018066,-5.381120059490204,11.25974386462515
4.127498291898519,0.11816696584224702,-10.352995834350587,-3.8180581587553024,11.035218814393074
4.137525291647762,-1.4991839933395386,-11.040769897699356,-2.5564617401361467,11.431607463896302
4.147552291862667,-2.780773796439171,-11.611104973554612,-2.273092221021652,12.153905127947004
4.157580291852355,-4.1614867687225345,-11.634466938972473,-1.842431339621544,12.49293185451341
4.1676072920672596,-4.9528044962883,-11.797459244728088,-2.2478568077087404,12.99088823897105
4.177634291816503,-4.924578232169152,-11.23794970393181,-3.4080356097221376,12.734115243313507
4.187661292031407,-4.849989687502385,-9.855161554813385,-4.505774919390679,11.872178269574684
4.197689292021096,-6.053614178895951,-7.982590157389641,-5.543726449012756,11.44992983337748
4.207716291770339,-8.045693893432617,-6.145786762833596,-7.363086429834366,12.51874302533008
4.217743291985244,-10.905054852962495,-3.237546004056931,-8.375041823387146,14.125977878291817
4.227770291734487,-14.591893891096117,1.481145917773247,-8.627135170698166,17.01601074906342
4.237798291724175,-14.02124891281128,4.789750210046768,-8.971731469631196,17.32134791847405
4.24782529193908,-6.479183889627457,8.444436578750611,-8.960213039517402,13.913078405647221
4.257852291688323,8.29862339258194,13.892563390731812,-5.985346766710282,17.2538356227008
4.267880291678011,24.183796255588533,19.371095724105835,6.80083337545395,31.722967791254614
4.277907291892916,33.87191455364228,23.56251088142395,27.592107853889466,49.63691096741551
4.287934291642159,32.764087042808534,25.092572851181032,42.266836910247804,59.07290507870802
4.297961291857064,24.25175493478775,24.64451241016388,39.07081666231156,52.17306128656518
4.307989291846752,16.493774456977846,22.58182990550995,24.259817075729373,37.020566746970374
4.318016292061657,12.121345875263215,21.808402318954467,12.59557260632515,27.949631246482443
4.3280432918109,9.993572165966034,20.672077817916872,5.6444038081169134,23.644567669878562
4.3380702920258045,7.801504227519036,17.354657678604127,2.4858887708187103,19.18924840462526
4.348098292015493,4.994478771686555,12.495946576595307,1.3314341005682946,13.522803548455022
4.358125291764736,2.4390499421954157,7.057199283242226,1.0820491835474968,7.544790042110772
4.368152291979641,0.3966694088280201,1.91171148955822,1.4861876794695854,2.453719881693114
4.378179291728884,-1.3044360440969467,-2.2180477023124694,1.9009037885069848,3.1991755525499257
4.388207291718572,-2.655664723813534,-5.3633281517028815,1.5794089615345002,6.189699237921964
4.398234291933477,-3.589644573032856,-7.718985396623612,0.5186208388209343,8.52861367916569
4.40826129168272,-4.031222498416901,-9.334581606388092,-1.1818649554252625,10.236306627437644
4.418288291897625,-4.383203830718994,-10.610888450145723,-3.0210183459520343,11.871393404720623
4.428316291887313,-4.641782324910164,-11.834017206430437,-4.7135294151306155,13.557561209201365
4.438343291636556,-4.922237591743469,-13.154525492191315,-6.037328513860703,15.28788080207846
4.448370291851461,-5.609718124866486,-14.420800852775574,-6.968903403282166,16.970387423984935
4.458398291841149,-6.166772419810296,-15.519857540130616,-7.386710350513459,18.260847459689945
4.468425292056054,-6.5481482899189,-16.51790357708931,-7.271899101734162,19.19895573083572
4.478452291805297,-7.036884301900864,-17.038465983867646,-6.456899566054345,19.532501523559816
4.488479292020202,-7.650361889004707,-17.136638395786285,-5.304382955431938,19.502022743257925
4.49850729200989,-7.918940291404724,-17.52236517906189,-4.403666746616364,19.72650951441964
4.508534291759133,-7.882369465827942,-17.893052923679353,-4.009113591313362,19.959110278603614
4.518561291974038,-7.72311996281147,-17.705291812419894,-3.851911783218384,19.696729792242586
4.528588291723281,-7.407965564131737,-17.31105849981308,-4.251540321707726,19.303530643134145
4.5386162917129695,-6.9057254076004035,-16.875340361595153,-5.0579421114921574,18.922181008754407
4.548643291927874,-6.101295883655548,-16.135799728631973,-5.8555385792255406,18.21749643598786
4.558670291677117,-5.085324622392655,-15.194719605445863,-6.473587519526482,17.28141677572192
4.568697291892022,-4.33548908919096,-14.29392796754837,-6.99748810172081,16.49477741946461
4.57872529188171,-4.2397055572271345,-13.650218521356583,-7.2031095331907276,16.00588503769511
4.5887522916309536,-4.676287036836148,-13.359713644981385,-6.900040744543076,15.746751138032828
4.598779291845858,-5.517313406467438,-13.248684375286103,-6.4307970106601715,15.726523299618744
4.6088072918355465,-6.499991206526756,-13.454196463823319,-6.046804511547089,16.119216264227838
4.618834292050451,-7.461630139946938,-13.72896297454834,-5.5271250343322755,16.574361521549672
4.628861291799694,-9.39703805565834,-13.048727141618729,-5.845774898529053,17.1098418578367
4.638888292014599,-10.73940791130066,-9.861759552955627,-8.166443574428559,16.71167210125738
4.648916292004287,-6.872797982096673,-6.501665264368057,-9.59997386097908,13.478371616930728
4.6589432917535305,6.468327364325524,-3.0244103157520295,-6.3357978826761245,9.546132801309279
4.668970291968435,27.013537559509277,4.613430345654488,4.417221469581127,27.758364442894553
4.678997291717678,48.31684803485871,11.815379791259765,23.308002634048464,54.930719915400246
4.689025291707367,60.97825444221497,17.590043191909793,45.82145753860474,78.27747508239467
4.699052291922271,55.70300874710083,23.26319892883301,56.50898895263672,82.68777080276907
4.7090792916715145,39.37513149261475,23.7546550655365,48.2645832824707,66.66449292369867
4.71910654194653,23.52949516296387,21.590184230804443,35.33072703123093,47.623875002979005
4.729134541936219,13.396780314445497,19.949219291210177,26.84290177345276,36.0275790019471
4.739161541685462,9.24138400554657,17.937346751689912,21.054015605449678,29.162015704385922
4.7491885419003665,8.721364805102349,15.851819175481797,16.6626245033741,24.596451585061885
4.75921554164961,9.193062030673028,13.491775349378587,11.88671816110611,20.194911740819062
4.769243541639298,8.80319892704487,10.510428607463837,6.461816489696503,15.156533020721849
4.779270541854203,7.123125470280647,7.038988130092621,1.7471035981178284,10.165561536063906
4.789297542069107,4.627100551128388,3.4224332088232043,-1.5167019590735435,5.951763890794565
4.7993245418183506,2.023056508898735,-0.16032246708869935,-3.6912981247901917,4.212379704837935
4.809352541808039,-0.6545227020978928,-3.5273363506793975,-5.221374712586403,6.335081340253061
4.8193795420229435,-3.407244481444359,-6.543022035956383,-6.375627361536027,9.750337254295909
4.829406541772187,-5.560244833230972,-9.271050438880922,-6.62857264816761,12.680957148329995
4.839434541761875,-7.687454870939255,-11.61150375366211,-6.209171749949456,15.247222554760828
4.84946154197678,-9.38021035373211,-13.105113011598588,-5.835567998886109,17.14019215751846
4.859488541726023,-9.949381248950958,-14.305905404090883,-6.094169297218323,18.46044463416123
4.8695155419409275,-9.977306381464006,-15.504063041210175,-7.079918639659882,19.749629398032386
4.879543541930616,-10.383969705104828,-16.508689534664153,-8.931457017660142,21.450747806236855
4.889570541679859,-11.354064881801605,-17.175805385112763,-11.111052260398866,23.39612280487397
4.899597541894764,-12.707542108297348,-17.953983249664308,-12.83637965798378,25.467622262144467
4.909624541644007,-13.930964394807816,-18.37482139348984,-13.608539568185806,26.774954330323958
4.919652541633695,-14.10478925228119,-18.35004557132721,-12.892403000593186,26.49308036923522
4.9296795418486,-13.131333096027374,-18.179180574417114,-10.934040670394898,24.94930381028573
4.9397065420635045,-11.75518036723137,-17.955922186374664,-8.325603615045548,23.019884504144308
4.949733541812748,-10.366063191890717,-17.901446017026903,-5.696219494342804,21.456093589619964
4.959761541802436,-9.566600292921066,-17.640533899068835,-3.019841301441193,20.29353884601215
4.969788542017341,-9.289408357143403,-17.206748850345612,-0.8674345882236958,19.573394094777804
4.979815541766584,-9.204692727327346,-16.820561306476595,0.26780598521232607,19.176271037799975
4.989843541756272,-9.269385151863098,-16.44173306822777,0.5667820152640343,18.883149346262698
4.999870541971177,-9.976190732717514,-15.793406660556794,-0.15849813580513,18.681038438489768
5.00989754172042,-10.574336335659028,-15.30571379184723,-1.8091146357357504,18.691023497465693
5.019924541935325,-10.910516152381897,-14.929871141910553,-3.480387009680271,18.816309647818592
5.029952541925013,-11.288211200237274,-14.203782613277436,-4.83626217931509,18.776596722874945
5.039979541674256,-11.31677134037018,-13.157613991498948,-5.650115368366242,18.251463590500382
5.050006541889161,-9.155587225556374,-11.883324437141418,-5.330328805446625,15.920131353016767
5.060033541638404,-2.577976570129395,-8.781666555404664,-1.9411130440235138,9.355829762032183
5.070061542093754,10.142725281715393,-3.6695792269706726,4.446875916123391,11.666850185751144
5.080088541842997,29.39167500972748,5.646050384044647,14.052087128162384,33.063720260643336
5.090115542057902,46.887423663139344,15.541391665935517,27.451061317920686,56.511291970375005
5.100142541807145,57.54220131397248,16.8516451048851,35.90649300098419,69.88819009266487
5.110170541796833,51.77654730319977,17.257910817861557,33.00104428768158,63.77864266755187
5.120197542011738,40.31987782001496,17.719596440792085,24.038139774799347,50.17478260319875
5.130224541760981,30.477720472812653,16.842945617437362,15.039242141246797,37.930924935649934
5.140251541975886,21.43122884273529,15.542662850618363,9.556463559865952,28.14601097791172
5.150279541965574,14.506710484027863,13.80697652578354,6.735503604412079,21.12922759250772
5.160306541714817,10.425739874839783,12.113567909002304,5.638423275947571,16.947754909207948
5.170333541929722,8.593077478408814,10.14670138835907,5.134126653671265,14.25327282101912
5.18036154191941,6.191984444260598,8.135983089208603,4.495400789380073,11.16886388326998
5.1903885416686535,3.4763574010133746,6.127321840524674,2.9047023162245753,7.620133152565745
5.200415541883558,1.534785350561142,4.208574688732624,0.43594033241271973,4.500856691382443
5.210442541632801,-0.18005331158638002,2.5954185220599175,-2.298808860182762,3.47176304999631
5.220470542088151,-2.2528859978914264,1.0986725252866745,-4.979549660682679,5.574808647883803
5.230497541837394,-4.805497346520424,-0.41237312972545626,-7.118947634696961,8.598969227244151
5.240524542052299,-7.6671755576133735,-1.6199640798568726,-8.450468566417694,11.52476826852948
5.250551541801542,-10.056581761837005,-2.429623938202858,-9.128906965255737,13.797639348594952
5.26057954179123,-11.669346749782562,-3.0462900120019913,-9.59411495089531,15.411053763285523
5.270606542006135,-12.802641223669053,-3.3968460854887965,-9.606500523090363,16.362488745011444
5.280633541755378,-13.3750929915905,-3.500596156418324,-9.373705911040307,16.703701640375886
5.290660541970283,-13.275952280759812,-3.6391596722602846,-9.347681123614311,16.639517254716033
5.300688541959971,-13.431473014354706,-3.788536151647568,-9.280064506530762,16.759387541108154
5.3107155417092144,-13.669592685699463,-3.732592331171036,-8.845247424244882,16.70414354882512
5.320742541924119,-13.429033555984498,-3.5814201718568803,-8.536408603191376,16.310603438738273
5.330769541673362,-12.986453125476837,-3.2223014357686046,-8.124268777370453,15.653591744073303
5.340797541663051,-12.329628374576568,-2.9616097578406335,-7.447947070598603,14.70587582496666
5.350824541877955,-11.816213604211807,-2.691952251791954,-6.603724320530891,13.801401587080173
5.36085154209286,-11.004145277738571,-2.629954224228859,-5.616408509016037,12.63138618898429
5.370878541842103,-10.259040434360506,-2.463913180232048,-5.170321503281594,11.749510766021752
5.380906541831791,-9.918737161159516,-1.9656833365559578,-5.271144458055496,11.403079485361385
5.390933542046696,-9.32985588669777,-1.4260288935899734,-5.638921458721161,10.994416969058816
5.400960541795939,-8.021837838292122,-0.7826457220315933,-6.528195251226426,10.372065843803963
5.410988541785628,-7.287259152531624,0.22995608121156694,-7.4265129321813586,10.407214809318537
5.421015542000532,-7.778864977955819,0.5360768240690231,-8.252471319437028,11.353475308675412
5.431042541749775,-8.659070323705674,-0.09552479267120362,-8.951908823847772,12.454930567746203
5.44106954196468,-9.505693940520286,-0.978812498152256,-9.186993205547333,13.255834012092789
5.451097541954368,-10.521178128719331,-1.7693064992129803,-8.587959995269776,13.695937046611792
5.461124541703612,-11.349898155927658,-2.7263955679535865,-7.366482492685319,13.802843375838412
5.471151541918516,-10.612967720031738,-4.769817636609078,-6.027537351250649,13.104100527455685
5.481178541667759,-7.57857503771782,-7.928409272432328,-2.8843630689382556,11.340812294847556
5.491206541657448,-2.5694805657863617,-11.645183715820313,3.757867213189602,12.503363553265409
5.501233541872352,4.66483380317688,-14.748048462867738,13.818039457798005,20.741355363900876
5.511260542087257,11.444172813892365,-15.3543263733387,23.959312291145327,30.67202430942348
5.5212875418365,22.808818817138672,-13.537847900390625,30.893499605655673,40.71761117123421
5.531315541826189,39.062038822174074,-11.293543860912324,36.10004519462586,54.3746289452849
5.541342542041093,50.446001687049865,-6.739119522571564,39.321889085769655,64.31505095561158
5.551369541790336,51.38012011528016,-1.4631123737990857,36.07917531251908,62.79939754576048
5.561397541780025,44.80793392181397,-1.0829451962560417,26.978671782016754,52.31417058275442
5.571424541994929,32.86939071893692,-2.4938266584277153,15.81708554506302,36.562223848888934
5.581451541744173,21.137686922550202,-3.476240749061108,5.142529687285424,22.030244432729173
5.591478541959077,12.448474202156067,-2.587997235953808,-1.9765559417009355,12.867362318895157
5.6015065419487655,6.736223981380463,-0.9143850986659527,-4.8716369569301605,8.363352215237342
5.611533541698009,4.688010996580124,-0.12741653010249138,-5.29165356695652,7.070734017687498
5.621560541912913,5.316323554515839,1.0916582053899766,-5.7632502204179765,7.916442817127087
5.631587541662157,6.4811701887846,2.55076158195734,-7.113642455935478,9.955694885585208
5.641615541651845,6.100485459566117,4.069441654086114,-8.685589785575868,11.367310506082282
5.6516425418667495,4.7589774835109715,5.443025116324425,-10.330058376789093,12.608905391562484
5.661669542081654,2.6596580797433855,6.326401407122613,-12.005252916812898,13.828348905846708
5.671696541830897,-0.49090415954589844,6.740906431674958,-13.787989447116853,15.355437454148351
5.681724541820586,-4.392116741538048,6.312958073616028,-14.996627633571626,16.853574383214283
5.69175154203549,-8.684642536640167,4.9572191441059115,-14.568538942337037,17.670296108053783
5.7017785417847335,-12.547986795902252,3.7315240448713305,-12.488920562267305,18.092799151546817
5.711805541999638,-15.517411065101625,3.187350288927555,-10.387195029258729,18.94315360766317
5.721833708696067,-17.16372971534729,3.0657261568307876,-9.218300952315332,19.722306332111106
5.731860708445311,-17.648889570236207,3.4169616767764093,-8.688640862703323,19.966256789994187
5.741887708660215,-17.382733669281006,3.773669313490391,-8.482310163974763,19.70658761994588
5.7519157086499035,-16.548813128471377,4.101347863376141,-8.576125230789184,19.084920597992163
5.761942708399147,-15.65206893324852,4.289647210836411,-8.69659658432007,18.412472056598144
5.771969708614051,-14.863621019124986,4.330003231465817,-8.702460756897926,17.759757346597585
5.781996708363295,-14.353204700946808,4.207198838889599,-8.451428094506264,17.179686961462522
5.792024708352983,-14.105011446475983,3.928840383589268,-7.738185313940049,16.560997754296622
5.8020517085678875,-14.165095095634461,3.594504486322403,-6.721336970329285,16.085606990078883
5.812078708317131,-14.467263997793198,2.9770972779393197,-5.855784162282944,15.88883393894595
5.822105708532035,-14.979059089422227,2.0121343486011027,-5.299627414941788,16.015834245471748
5.832133708521724,-15.867674485445024,0.8734759314358235,-4.22521674156189,16.443798535983575
5.842160708736628,-16.156978343725207,0.081122954338789,-2.9247556346654893,16.419766309416026
5.8521877084858716,-15.484906393289567,-0.1634763090312481,-1.2687754838168621,15.537658824317429
5.862214708700776,-14.285845946073533,-0.09141975492238999,0.052332726269960404,14.286234307219468
5.8722427086904645,-12.019613678455354,0.348902627080679,1.0710988104343415,12.072286390084056
5.882269708439708,-7.945875490307809,1.0381516505777837,2.754795786738396,8.473700253354691
5.892296708654612,-2.6391203194856647,0.5100700168311596,5.929459079504014,6.510269768473871
5.902323708403856,5.946582065820694,-2.5527844262123107,12.40973289012909,13.995714236744195
5.912351708393544,16.58116460323334,-6.542384689450264,23.203968973159792,29.26024595131821
5.9223787086084485,30.56421950340271,-9.99683491230011,35.06085464000702,47.57490672827081
5.932405708357692,43.01054660797119,-10.493710248470308,41.27473281383514,60.52791623002391
5.94243370834738,47.81469383239747,-8.837957700490952,38.634532513618474,62.104601642289104
5.952460708562285,47.4467636346817,-12.764089361429216,26.92260166168213,56.026278092208784
5.962487708311528,39.60901544094086,-15.793946943283082,15.13853487968445,45.24928842038685
5.9725147085264325,29.680055007934573,-14.332470474243165,6.994154019355774,33.693375693384375
5.982542708516121,21.4823779463768,-11.358360246419908,2.7785348975658417,24.458641947079148
5.9925697087310255,18.208062311410906,-9.5240664768219,1.4527611941099168,20.599803166007597
6.002596708480269,16.225954438447953,-8.044475333690643,-0.6194350227713585,18.12122734751655
6.012623708695173,12.90723270893097,-6.530454030632973,-3.105553589165211,14.794862254981789
6.022651708684862,10.215284550189972,-5.693791145682336,-5.303525753617287,12.841288154670556
6.032678708434105,7.485554022789002,-5.246060487627983,-6.727754289507867,11.349773013057824
6.0427057086490095,5.102205533981324,-4.439053803384304,-7.443858112692833,10.057272174015836
6.052732708398253,3.4477972608804706,-3.960546033382416,-7.999793250560761,9.56921746468297
6.062760708387941,1.1979120540618897,-3.698275899589062,-7.975116246342659,8.872131483551554
6.072787708602846,-1.557333968281746,-2.81560566008091,-7.458341081142426,8.122793608389948
6.082814708352089,-3.553547079563141,-2.0958721777796745,-6.796710503697396,7.950827045240838
6.0928417085669935,-5.268776335716248,-1.8182104182243348,-7.04349165558815,8.982019143994458
6.102869708556682,-7.24367693066597,-1.5705568617582322,-8.586632677316667,11.343181434987303
6.112896708305925,-9.29094266653061,-1.1357297661155463,-9.506755794882775,13.341285675598773
6.12292370852083,-11.261482408046723,-1.3932495488226415,-10.183306127786636,15.246699774844954
6.132951708510518,-13.937100462913515,-1.7767644765973092,-10.903332263231277,17.78432781302297
6.142978708725423,-16.618107311725616,-1.5918616305291653,-11.415357735157013,20.223894439409744
6.153005708474666,-18.037399628162383,-1.6809306585788728,-12.091730897426606,21.780341349959695
6.16303270868957,-18.410332703590395,-1.816268119364977,-12.248499426841736,22.1870439299077
6.173060708679259,-18.029816958904266,-1.6209771099686623,-11.919448535442353,21.67429629196051
6.183087708428502,-17.160560524463655,-1.415739840567112,-11.268373936414719,20.578275145911036
6.193114708643407,-16.356009378433228,-1.2343500016629696,-10.258503659963608,19.346306108802473
6.20314170839265,-15.648564112186433,-1.0761755092442036,-9.046526713371277,18.107328849823386
6.213169708382338,-14.425616619586945,-0.9720330901443959,-8.151095802783967,16.59769941798565
6.223196708597243,-13.154899713993073,-0.7896322676539421,-7.336430143117905,15.083040570395093
6.233223708346486,-12.153043631315231,-0.4211810830235482,-6.492234874963761,13.784882178714634
6.243250708561391,-11.05813378930092,-0.3353009071201086,-5.7574860352277755,12.471703774795053
6.253278708551079,-9.913453617095948,-0.17497332371771337,-4.79278842329979,11.012629075422547
6.263305708300322,-8.844004306197167,0.07892191618680955,-3.7289793366193775,9.59832942390617
6.273332708515227,-8.223894807100297,0.3675173112004996,-2.8854184913635255,8.723139036068716
6.283359708730131,-7.780103418231011,0.021546258777379992,-2.678848056793213,8.228408129828146
6.29338770871982,-7.138681402802468,-1.248167264610529,-2.1627950227260593,7.562828571473226
6.303414708469063,-5.9241334354877475,-2.2616562366485597,-0.6517710024118424,6.374578522053056
6.313441708683968,-3.196286296248436,-2.7455320429801944,1.4768002671003342,4.464877525254659
6.323469708673656,1.8774585002660753,-3.313150502443314,3.5346085327863697,5.195697657880791
6.333496708422899,10.784950704574586,-3.505304334461689,5.672355253100395,12.679823906295995
6.343523708637804,19.526729893684386,-3.229038890004158,8.126140471100808,21.395187109490987
6.353550708387047,22.618976097106934,-2.8398809605836868,10.050879557132722,24.913915457506253
6.3635787083767354,23.0803448009491,-4.444405467510224,9.596159137487412,25.387818462449978
6.37360570859164,21.982995500564577,-7.711623167395592,8.778245934247972,24.895357493635153
6.383632708340883,19.915466823577884,-10.141709035634994,9.27311333656311,24.196502059538616
6.393659708555788,17.282593084573747,-10.061163640022277,11.327698616981507,22.98329379082614
6.403687708545476,14.598794775009155,-7.5181165820360185,12.67648169875145,20.744639646971454
6.413714708760381,12.884954817295075,-5.445399085879326,12.101615030765535,18.496581257115633
6.423741708509624,12.132132818698883,-4.937397083044052,10.115835106372833,16.54982346085684
6.4337687087245286,11.471819618940353,-4.268297564685345,7.515526850223542,14.363291868740767
6.443796708714217,11.168583015203476,-2.990999033153057,5.112557444572449,12.642055426546241
6.45382370846346,11.574032456874848,-1.126206405982375,3.378164816200733,12.109441180627812
6.463850708678365,11.426553983688356,1.0341534706950188,1.785780590772629,11.611400503878722
6.473877708427608,9.990043956041337,2.2629414546489715,-0.1276113885641098,10.243933177119915
6.483905708417296,7.5463703280687335,2.638697858154774,-1.6297607973217965,8.158832745648962
6.493932708632201,4.889496692419052,2.5129464688897136,-2.091663059592247,5.881932693897894
6.503959708381444,2.269237736463547,2.386325891017914,-2.3146486750245097,4.025119830703846
6.513987708371133,-0.5764191037416458,2.262441663891077,-2.63869522690773,3.523295866965218
6.524014708586037,-3.147070282101631,2.303516745865345,-2.9766224840283395,4.90617184486972
6.53404170833528,-5.345376614928246,2.3136340369284154,-3.3437396264076233,6.716140878619509
6.544068708550185,-7.141534844040871,2.2278545062243937,-4.237556705474853,8.597775436801609
6.554096708539873,-8.533376237154007,2.2179896686971188,-5.85179168343544,10.582128995698172
6.564123708754778,-9.36289031624794,2.25684280872345,-7.95634843826294,12.492419101536152
6.574150708504021,-10.588015311956406,1.881370726078749,-10.527750399112701,15.049224316262517
6.584177708718926,-13.200905606746675,1.8206061686575414,-12.742446477413178,18.437691229905365
6.594205708708614,-15.208827767372131,1.837378614395857,-13.903331623077394,20.68784745814539
6.604232708457857,-15.9637734746933,1.4553178891539575,-14.6289441883564,21.7017515831294
6.614259708672762,-16.010785088539123,1.2396766689419747,-14.888864618539811,21.89886588442681
6.624286708422005,-15.69442031621933,1.248192553818226,-14.656364121437074,21.510040050490684
6.634314708411694,-14.828078134059906,1.323720599859953,-13.603009271621705,20.16596138596187
6.644341708626598,-13.766679854393006,1.4878168599307537,-11.796366984844209,18.1903641322313
6.654368708375841,-12.720442235469818,1.607787984162569,-9.631404983997346,16.036165215964534
6.664395708590746,-11.878847808837891,1.6209135214984418,-7.531053546667099,14.15807732117876
6.674423708580434,-11.18146677017212,1.6351684485375881,-5.942724072933197,12.767730589050503
6.684450708329678,-10.246259590387345,1.9727597831189634,-4.727717683911324,11.455519685036732
6.694477708544582,-9.26987222492695,2.5157440692186355,-3.9551160165667536,10.387610023137357
6.704504708759487,-8.415746045708657,3.0172290578484535,-3.7613732036948204,9.69929796793868
6.714532708749175,-7.640253222584724,3.3327585554122927,-4.1671752324700355,9.319125404886544
6.724559291731566,-6.886778674721718,3.552377636432648,-4.401287806928158,8.911702516682382
6.734586291946471,-5.352982088327408,3.782787753939629,-3.978149953186512,7.66743617380331
6.744614291936159,-1.6296605175733567,3.4888306814432144,-2.4153412368893625,4.545503956321589
6.754641291685402,4.2660250443220145,2.665474597513676,1.075070531666279,5.14387997107539
6.764668291900307,9.96809000015259,1.4787760412693025,6.354842848777771,11.913589906658537
6.77469529164955,16.369272032976152,-0.3048573788255453,12.747475082874299,20.749557245866736
6.784723291639239,24.368549559116364,-2.6463612189888956,19.594666353464127,31.381210697168104
6.794750291854143,31.078107898235324,-4.574122438430787,26.382615973949434,41.02211369791913
6.804777292069048,35.32988269329071,-6.706166954040528,31.216782803535462,47.61996235761065
6.814804291818291,36.13715396404267,-9.661733322143554,30.883884444236756,48.50832202595873
6.824832291807979,31.69826592922211,-11.001119928359985,27.53427889108658,43.40439167469092
6.834859292022884,24.21670204639435,-10.413101702928543,22.536312839984895,34.68092763322575
6.844886291772127,16.877527220249178,-10.287475444078446,16.58264160990715,25.80052477848838
6.854913291987032,11.81818762421608,-10.484551169872285,11.772344284057617,19.702371986571272
6.86494129197672,8.5256386166811,-9.793024948239326,7.9079674065113075,15.202822105172679
6.874968291725963,6.260417917370797,-8.274746287465096,4.839018556773663,11.449033112663033
6.884995291940868,4.676538174748421,-6.31253707408905,2.316315423846245,8.190448751709276
6.895023291930556,3.4944761681556704,-3.986929255127907,0.35317796498537063,5.313351414140977
6.9050502916798,2.591299450993538,-1.8872663274407389,-1.137611765563488,3.401583096818236
6.915077291894704,1.9964317971467973,-0.5524554598331451,-2.092367064356804,2.944307539603048
6.925104291643947,1.3852626907825472,0.3592052748799324,-2.550116341710091,2.9242220347012857
6.935132291633636,0.25953392922878266,0.8510797798633576,-2.9755591678619386,3.1057441964141903
6.94515929184854,-0.9895991492271424,0.8612901878356934,-3.38931370228529,3.6343602788265157
6.955186292063445,-2.7032543349266054,0.7068953356146813,-3.702180377840996,4.638256629907855
6.965213291812688,-4.670214411020279,0.33232131220400335,-4.143159840703011,6.251968775118817
6.9752412918023765,-6.321651713848114,-0.28520824916660786,-4.849198559224606,7.972411856105872
6.985268292017281,-7.846538897752763,-0.853549059033394,-5.838596271872521,9.817633375516099
6.995295291766524,-9.635688654184342,-1.4057191747426987,-6.907238667011262,11.938697091461517
7.005322291981429,-11.793083188533783,-1.9209272861480713,-8.207724916934968,14.495982927777662
7.015350291971117,-14.063641226291658,-2.164776790291071,-10.05789387702942,17.42508227628263
7.0253772917203605,-15.969683840274811,-2.3609374268352985,-12.172041234970093,20.217898390227862
7.035404291935265,-16.86173739910126,-2.573488247394562,-13.88710443019867,21.995288116571047
7.045431291684508,-17.381596970558167,-2.460517702102661,-14.967225494384767,23.06928476587514
7.055459291674197,-17.906859369277957,-2.2454337215423585,-15.43222414970398,23.745549630944407
7.065486291889101,-18.311706547737124,-2.337335871756077,-15.2197106051445,23.925328139279184
7.0755132916383445,-18.58525099039078,-2.6499645656347277,-14.306625781059266,23.60324994178155
7.085540291853249,-18.624151346683504,-2.8133995056152346,-12.823769552707672,22.786471769524155
7.0955682918429375,-18.287478024959565,-2.6554407754540446,-10.850680425167084,21.42943032174274
7.105595292057842,-17.721588002443315,-2.496285120248795,-8.87477995634079,19.97618181743915
7.115622291807085,-16.938022513389587,-2.517190670371056,-7.190229871273041,18.572352062591392
7.125650291796774,-15.829329614639283,-2.3568790206313133,-5.854779610633851,17.04115603636919
7.135677292011678,-13.98100603580475,-1.9305637899041177,-4.589156799316407,14.841023093062345
7.1457042917609215,-11.770456802845002,-0.5324656567722559,-3.609727712273598,12.32303968913669
7.155731291975826,-10.131615571975708,1.5158163982629778,-3.1935386896133426,10.730611483676077
7.165759291965514,-9.271455650925637,2.7514008933305742,-4.0193339395523076,10.47306746280851
7.175786291714758,-8.865163625478745,2.986477088928223,-5.600808722376824,10.903175218891832
7.185813291929662,-7.4844512379169466,2.2573304665088654,-6.474195045232773,10.150258748007472
7.1958402916789055,-3.8015865522623065,-0.40718255639076234,-6.143101136684418,7.23571347719794
7.205868291668594,2.9850959765911105,-4.520357875227928,-3.115899360179901,6.249260926890884
7.215895291883498,12.91140294313431,-10.018233382701874,2.7714276069402697,16.57558858836603
7.225922291632742,25.236564044952395,-16.0357468521595,10.919400411844254,31.831786743060967
7.235949291847646,38.2590734410286,-17.355931202173235,21.567115795612338,47.22420493986046
7.245977291837335,48.07181227684021,-15.257567818164826,30.77689910888672,59.08392361771733
7.256004292052239,50.08553721427918,-15.07341911673546,30.705336205959323,60.651353434467616
7.266031291801482,40.59959926128388,-12.096088242530824,23.669650583267213,48.52726212843557
7.276058292016387,28.27628354072571,-9.0421804779768,15.397580566406251,33.44240909340701
7.286086292006075,18.61883388876915,-9.192094316482544,9.84227429151535,22.978814950517208
7.296113291755319,10.025369324684144,-9.179176062941552,7.365583190917969,15.460178492925957
7.306140291970223,3.1971639633178714,-8.209781382679939,5.484809904098511,10.378126393710653
7.316168291959912,-0.918755453824997,-6.5698636794090275,3.6994374489784243,7.595594630366677
7.326195291709155,-1.5333995604515076,-4.160605593323708,1.887142074108124,4.819051599958078
7.336222291924059,0.763461007475853,-1.0314739841222764,-0.28713571071624755,1.315012625880699
7.346249291673303,3.7425840532779695,2.390596989691258,-2.798335031569004,5.249054039717801
7.356277291662991,5.944712126255036,5.482098550200463,-5.119599831104279,9.570961770313192
7.366304291877896,7.453770897388458,7.93952541410923,-6.668722554445267,12.769754300698526
7.3763312920928,7.654509903788567,9.792101088166238,-7.70928252696991,14.625655632097565
7.386358291842043,6.26148152589798,10.720430188179016,-8.11560788154602,14.832291313407836
7.396386291831732,3.3568198478221896,10.614041268825531,-7.748985121250153,13.563660345069863
7.406413292046636,-0.29597611606121066,9.631804933547974,-7.258669191598893,12.064308789659883
7.41644029179588,-4.043354886174202,8.400912244319915,-7.091414850354195,11.71376155861716
7.426467292010784,-7.237496423721314,7.284913249611855,-6.707746871709824,12.265609794571247
7.4364952920004725,-9.73080940425396,6.57804978132248,-5.867396732568741,13.129574821936634
7.446522291749716,-11.634547630548477,5.969543496966362,-5.19512831568718,14.070803329807765
7.45654929196462,-12.727552449703218,5.397641367316246,-5.127994093894959,14.745217771098925
7.466576291713864,-13.30504217863083,5.034242177009583,-5.711346825957299,15.329293011691703
7.476604291703552,-13.378903037309648,4.691064412593842,-6.533514463305473,15.610507456423687
7.4866312919184566,-13.796388387680054,4.318901415467263,-7.240201345682144,16.168294823705303
7.4966582916677,-14.433036736249925,3.982321356832981,-8.279899438619614,17.109300614948623
7.506685291882604,-14.838855721950532,3.50479065656662,-9.454627282619477,17.94060126463083
7.516713291872293,-15.04833573102951,3.255349898636341,-10.492430877685548,18.63171535203724
7.526740292087197,-14.717400866746903,3.4374719551205635,-10.830811586380005,18.59367046428505
7.536767291836441,-14.128960472345353,3.681796106994152,-10.397447537183762,17.92456587733894
7.546795291826129,-13.473344925642014,3.6785137724876407,-9.539612469077111,16.913506233772942
7.5568222920410335,-12.966310636997223,3.4855600413680077,-8.318437267541885,15.794642728188517
7.566849291790277,-12.73208755016327,3.0960466012358667,-6.934122995138169,14.824763730115588
7.576876292005181,-12.912374750375749,2.4572982251644135,-5.63640364766121,14.301635652641483
7.58690429199487,-13.551415779590608,1.6981603565812111,-4.191696408390999,14.286179930552441
7.596931291744113,-14.268825870752336,1.2230410480499267,-2.603941131234169,14.55595172257724
7.6069582919590175,-15.320783236026765,1.4579997146129609,-1.0496708115935327,15.42575673819089
7.616985291708261,-15.5697132396698,1.5661596094071866,0.6768540957570076,15.6629166426509
7.627013291697949,-12.267685310840607,-0.8698260994255543,3.747519688010216,12.856772695396012
7.637040291912854,-3.451283955574036,-5.904199692606927,12.52365068435669,14.269294355922801
7.647067291662097,10.443556340932847,-10.672115814685823,26.091106545925143,30.061732581458504
7.6570942918770015,26.226156177520753,-13.94100289463997,35.862610816955566,46.56489755346283
7.66712229186669,35.632298347949984,-14.661970431804658,36.19833922863007,52.86732285080654
7.6771492920815945,39.152214581966405,-16.568853875398638,30.88130465269089,52.545958954699486
7.687176291830838,41.13965745449067,-17.816967784166337,25.808262691497806,51.72989638157232
7.697203292045742,39.66167780399323,-14.626280196905137,24.514788422584534,48.86667177156874
7.707231292035431,34.901969418525695,-11.472179807424546,23.571314449310304,43.65048961574025
7.717258291784674,26.481801123619082,-10.515424468517304,19.901028878688813,34.75501248646606
7.727285666856915,16.77459751367569,-10.761504539251328,12.896827003955842,23.73868674682966
7.737313666846603,9.150499563217164,-10.923735537528993,4.219306960701942,14.861433025752907
7.747340667061508,3.9232372891902925,-9.722382981777193,-2.6745141005516055,10.819868175985016
7.757367666810751,0.3256957590579987,-7.8252111786603935,-7.198329434394837,10.637478759752005
7.7673946670256555,-1.7226487880945207,-6.0513706022501,-9.843715045452118,11.682693649538221
7.777422667015344,-2.6206682610511782,-4.621070902347565,-10.663651385307313,11.91367530556255
7.787449666764587,-3.0573096746206283,-3.4200358504056934,-10.515710982084276,11.472748804158353
7.797476666979492,-2.9231646072864534,-2.5778450077772144,-9.781429919600487,10.529318471651889
7.807503666728735,-2.6738305610418323,-2.1932686641812325,-9.220571426153183,9.847778161962887
7.817531666718423,-2.5525657403469086,-1.8734850248694421,-8.938935606479646,9.483148621317312
7.827558666933328,-2.8149221205711368,-1.271857112646103,-9.13638321518898,9.64442353459532
7.837585666682571,-3.6673350656032566,-0.492922326028347,-9.845745198726654,10.518128037875817
7.847612666897476,-4.50223326086998,0.431447331905365,-10.853178355693817,11.757879551857679
7.857640666887164,-5.379399223923683,1.2191481180489063,-11.985740758180619,13.194022876530305
7.867667666636407,-6.378628152608872,1.9698945012688638,-12.857346603870392,14.48719238318596
7.877694666851312,-7.062048963904381,2.4925850021839144,-13.279828984737398,15.245962528668587
7.8877216670662165,-7.538579497933388,2.849406074881554,-13.199158458709718,15.46502763800834
7.897749667055905,-7.830803455710411,3.19251864284277,-12.897148600816728,15.422389570958634
7.907776666805148,-7.996971384286881,3.3946302831172943,-12.190417864322663,14.969347139636964
7.917803667020053,-8.112829284667969,3.3237708002328876,-11.321984717845917,14.319664426437633
7.927831667009741,-8.504112676978112,3.0599602174758913,-10.661377987861634,13.976704531302632
7.937858666758984,-8.943507544398308,2.5030930334329606,-10.042236202955246,13.67838842432379
7.947885666973889,-9.22254252254963,1.866992276608944,-9.355943824052812,13.269311797526857
7.957912666723132,-9.386053476333618,1.1509318690001966,-8.89340509235859,12.981344235650804
7.9679406667128205,-9.620418650507927,0.5565250488370658,-8.33900660276413,12.743673185623038
7.977967666927725,-10.027360886335373,-0.25556162327528004,-7.653687200546265,12.617139368807232
7.987994666676968,-10.154034966230393,-0.9417835432291032,-6.789033694267273,12.25081061969464
7.998021666891873,-9.883423486948013,-1.4452426980435849,-5.508537905216217,11.406786406863581
8.008049666881561,-9.23746987938881,-1.5343606965243817,-4.25308544844389,10.284641381760448
8.018076666630805,-7.381354885697365,-1.703421242684126,-3.262307208180428,8.247950787873426
8.028103666845709,-4.27894037425518,-2.494721574783325,-2.4803017562627794,5.539391957989674
8.038130667060614,-0.12193198800086975,-5.116539398431779,-1.3838983891904355,5.301793807477461
8.048158667050302,4.655249632000923,-8.235532520413399,0.9107051534950734,9.503932286566117
8.058185666799545,10.962154083251953,-9.417560613155365,4.657760426402092,15.184004815501412
8.06821266701445,20.017318303585053,-8.815285706520081,10.350937614440918,24.198020655678974
8.078239666763693,29.877676863670352,-8.688152035474777,18.479792947769166,36.18925680300504
8.088267666753381,34.61812685966492,-8.011866581439973,23.621153776645663,42.66806322216407
8.098294666968286,34.1188307762146,-5.209042350053788,23.28294848442078,41.63321301399658
8.10832166671753,30.58569749593735,-2.8428995856642723,19.113357474803927,36.17854893893343
8.118348666932434,25.597409756183627,-1.5390272131562235,13.85957106113434,29.149334486183943
8.128376666922122,19.752666306495666,-0.6316124340891839,9.865046857595445,22.088139577275832
8.138403666671365,14.444816536903382,0.4648360296338797,7.478427436351777,16.272543570076014
8.14843066688627,9.732667649388313,1.3282448829710485,5.8058910405635835,11.410408617463492
8.158458666875958,5.788344131112099,1.4730644810199738,4.395887318551541,7.41610895704916
8.168485667090863,2.646937462091446,1.1313009387999773,2.992291267812252,4.1520990804385045
8.178512666840106,-0.04983640372753143,0.5534768222272396,1.5254499784111977,1.623520217463885
8.18853966705501,-2.5152295142412187,-0.3324879578500986,0.12752689629793168,2.5403131422532987
8.1985676670447,-4.775376584529877,-1.3307169395685197,-0.6947518381476403,5.005767594878968
8.208594666793942,-6.784785692095757,-2.1294980531930925,-1.2643279454112053,7.222645221784619
8.218621667008847,-8.182194803953172,-2.642863706946373,-2.289309765994549,8.897976151238584
8.22864866675809,-9.167400355339051,-2.8140880152583123,-3.8067902818322183,10.317556536435516
8.238676666747779,-9.674484345316888,-2.6046100527048113,-5.5192324626445775,11.438599907818361
8.248703666962683,-10.122878662347794,-2.1880184492468837,-7.674395114779473,12.890168250438473
8.258730666711926,-10.989348313808442,-1.766773339211941,-10.259728066921234,15.137677642278087
8.268757666926831,-11.944287507534028,-1.5011039265990258,-12.884032126665115,17.632855721692483
8.27878566691652,-12.96590016245842,-1.213994382172823,-15.211008778810502,20.024063959442312
8.288812666665763,-13.998657610416412,-0.9614889523386956,-16.853630819320678,21.930156125597794
8.298839666880667,-14.682468430995941,-0.9094327993690968,-17.148477838039398,22.59363271821265
8.308866667095572,-14.728842698335649,-0.7562556298077107,-16.3023553276062,21.9835738458846
8.31889466708526,-14.216735365390779,-0.42336662605404857,-15.010404843091965,20.67866188376627
8.328921666834503,-13.70332644224167,-0.19650591462850572,-13.806863089799881,19.453771833184483
8.338948667049408,-12.862966947555543,-0.14217680275440217,-12.675280680656433,18.05931541533538
8.348975666798651,-11.87844084262848,0.020569481402635575,-11.521282385587693,16.548043019156157
8.35900366678834,-10.907360994815827,0.28657869033515454,-10.397316559553147,15.071723287552157
8.369030667003244,-9.969093382358551,0.5007848941907287,-9.217520349025726,13.586621719954449
8.379057666752487,-9.186348257660866,0.7524881225824357,-8.216665894389154,12.347826979095325
8.389084666967392,-8.330385468006135,1.0337030889093877,-7.3151720058918,11.134433330770438
8.39911266695708,-7.533649710416794,1.3759352123737336,-6.361785832643509,9.955972812756002
8.409139666706324,-6.985400737524033,1.7030243629217148,-5.5269466942548755,9.068806713434856
8.419166666921228,-6.354864483475685,1.9158156502246857,-4.732368559241295,8.151684757734566
8.429194666910917,-5.701273827552796,1.9034943974018097,-3.831344494521618,7.127903956520437
8.43922166666016,-4.608745556473732,1.3566651284694673,-3.1321739155054096,5.735118944895034
8.449248666875064,-2.5150131672620772,-0.17695677235722543,-2.568873040080071,3.5994046211609687
8.459275667089969,0.9886869835853577,-2.5283363404870034,-0.7556843568384648,2.8179860626533784
8.469303667079657,6.28062823355198,-5.085162069797516,3.7394464373588563,8.904415979842444
8.4793306668289,12.66002412557602,-7.032977192401886,9.462148556113243,17.299457631583945
8.489357667043805,19.25059864282608,-7.856314272880555,15.58306360244751,25.983438827440995
8.499384666793048,26.007928733825686,-8.553608188033104,21.08304586172104,34.555338124023265
8.509412666782737,31.046675605773927,-10.4179513835907,25.284141669273378,41.372908976199675
8.519439666997641,31.22363574028015,-11.718890208005906,26.817499129772187,42.795164167512304
8.529466666746885,28.74570736885071,-10.216942820549011,24.736521856784822,39.27591025431695
8.53949366696179,26.292028570175173,-7.499615991711617,20.740286757946016,34.31726243685348
8.549521666951478,22.90864716053009,-5.04054313659668,15.928750991821289,28.353805705707355
8.55954866670072,18.59192149400711,-3.8449117890000344,11.108391777276994,21.996346500771217
8.569575666915625,14.910907452106477,-3.4787068122625353,6.952672702074051,16.81595135081961
8.579603666905314,12.530737509727478,-3.1266617453098298,4.114565201997757,13.55452112797667
8.589630666654557,10.207542836666107,-2.341209359765053,2.3479780966043475,10.73257625972249
8.599657666869462,8.257642012238502,-1.7632059529423714,0.2960725951194763,8.448976613552588
8.609684667084366,6.9245376545190815,-1.3550371174514295,-1.5368690058588983,7.221309691440564
8.619712667074054,5.734106528162957,-0.8600551097095013,-2.8247241005301476,6.4497084207097535
8.629739666823298,4.029865944385529,-0.2225697322189808,-4.423890511393547,5.988335667964527
8.639766667038202,2.0594560110569002,0.4222489307820797,-6.361185323596001,6.699576997255735
8.649793666787446,0.33886778175830845,0.904861884713173,-8.330500658154488,8.386348884910097
8.659821666777134,-1.343060411810875,1.3558636213839055,-9.79892654299736,9.983042563498568
8.669848666992038,-2.923624198436737,1.8999850447475912,-10.687979310750961,11.242349548514758
8.679875666741282,-4.343777225017548,2.364536534249783,-11.2004842543602,12.24378540871057
8.689902666956186,-5.77758057653904,2.758749673962593,-11.731647663116455,13.364980133673813
8.699930666945875,-7.286902472376823,3.1114124992489818,-12.286596375703812,14.61985929760859
8.709957666695118,-8.71899551331997,3.3372018545866013,-12.561704363822937,15.651013242075997
8.719984416849911,-9.744541005492211,3.3534688085317614,-12.625554789304735,16.297437411913883
8.730011417064816,-10.497590460777284,3.2083300986886027,-12.769686316251756,16.83917088575981
8.740039417054504,-10.990398473739624,2.92597273260355,-12.953051490783691,17.237509041807964
8.750066416803747,-11.32666132092476,2.6098228454589845,-12.927220830917358,17.384403077900497
8.760093417018652,-11.713547022342683,2.4148510940372945,-12.851775376796724,17.555820117176093
8.770120416767895,-11.83481008887291,2.1786532562971117,-12.599659810066223,17.422993060328643
8.780148416757584,-11.832909743785859,1.8756856244802476,-12.104631024599076,17.031090446831367
8.790175416972488,-11.811457479000092,1.6134032115340233,-11.497948486804964,16.562500327741464
8.800202416721731,-11.648434767723083,1.3747277623414993,-10.745888965129852,15.907546593027849
8.810229416936636,-11.337889144420624,1.1126618425548078,-9.836759197711945,15.051497538146132
8.820257416926324,-10.765094729661943,0.780698233768344,-8.784261549711228,13.91617782455152
8.830284416675568,-10.265680532455445,0.3139861249923706,-7.454951450228691,12.69090561017571
8.840311416890472,-10.276925897598266,-0.33785255894064903,-6.284406119585038,12.05085517845877
8.85033941688016,-10.226609437465669,-0.9497492051124573,-5.657508003115654,11.72573924937747
8.860366417095065,-9.93494447350502,-1.5379624351859094,-4.790468248128891,11.136293646451767
8.870393416844308,-8.812592478990556,-2.6823253959417346,-3.332255110144615,9.795947113452574
8.880420417059213,-6.056440138220787,-5.00639539718628,-1.3165850964188577,7.967299312623573
8.890448417048901,-2.8726277071237565,-8.335802913308145,1.6887755754590035,8.97716899125323
8.900475416798145,-1.033778371810913,-11.801718356609346,5.322905180454255,12.987785548385865
8.91050241701305,0.48955696105957036,-14.259866766929628,9.842450877428055,17.333704321445264
8.920529416762292,5.036856467127801,-14.676328854560852,14.369257646799088,21.148052322560503
8.93055741675198,13.083652560710908,-15.06635568022728,20.44136539936066,28.566176804092862
8.940584416966885,21.11007637023926,-15.626378606557846,27.14493852853775,37.77124197628291
8.950611416716129,26.521929395198825,-14.42951437354088,30.37754129648209,42.830113694918076
8.960638416931033,29.70594180107117,-10.591410205364229,30.716534793376923,44.02415766530526
8.970666416920722,29.80155547142029,-6.830857073664665,27.562076554298404,41.16383583756476
8.980693416669965,26.728205130100253,-5.299937317371369,21.154954919815065,34.49664335416115
8.99072041688487,22.498319971561433,-5.051880887746811,14.361251639127731,27.165077778079162
9.000747416634113,17.66913029193878,-4.791512560844422,8.545559495687485,20.203547831719387
9.010775417089462,13.007054035663606,-4.269576350748539,3.832778816521168,14.216291019739202
9.020802416838706,9.090957950949669,-3.5495358896255493,0.20410174012184143,9.761474223599405
9.03082941705361,5.9601774269342425,-2.636996610760689,-1.8728508943319322,6.7812267738293315
9.040857417043298,3.5734650349617008,-1.5664798906445505,-3.3849981647729876,5.16543552659445
9.050884416792542,2.158192094564438,-0.7160987068712712,-4.7293560737371445,5.247608917137172
9.060911417007446,1.6399434310197831,0.07803957134485245,-5.725528662800789,5.956272584443565
9.07093841675669,1.811153998374939,0.2467624408006668,-6.223934800028801,6.486796967920993
9.080966416746378,1.7725103348493576,-0.014541294425725937,-6.7721077591180805,7.0002462697749905
9.090993416961282,1.1743185389041901,-0.1229955965280533,-7.926491970419884,8.01395201537358
9.101020416710526,-0.1365938812494278,0.023296768963336947,-9.592515152692796,9.593515913494896
9.11104741692543,-1.0802257293462754,0.7145515336096288,-11.274486615657807,11.348635158783306
9.121075416915119,-1.3097628575563431,1.9069875240325929,-12.270528227090836,12.486710661006088
9.131102416664362,-1.2120903825759888,3.19244175195694,-12.569221544265748,13.02482927581031
9.141129416879267,-0.9162972843647004,4.023410033583641,-12.601816263198852,13.260211240515693
9.151156417094171,-0.851092643737793,4.811683115959168,-12.66391369342804,13.573922171989397
9.16118441708386,-1.0552417463064194,5.553513518571854,-12.691313745975496,13.893325452997015
9.171211416833103,-1.4040421932935716,5.755318472385407,-12.547013819217682,13.875250663637352
9.181238417048007,-1.418121703863144,5.326923971772194,-12.67325754404068,13.820225936850417
9.19126541679725,-1.435673875808716,4.734943380653858,-13.135084669589997,14.036071301221563
9.201293416786939,-2.1407001489400863,4.196736708283424,-13.31305988073349,14.122066403834863
9.211320417001843,-2.750644263625145,3.670696629881859,-12.912650738954545,13.703160464646954
9.221347416751087,-3.2659324818849567,3.066218784749508,-11.848346393108368,12.666938259234788
9.231374416965991,-3.7681229370832443,2.56210693448782,-10.375707589387893,11.33218647892828
9.24140241695568,-4.115217166543007,2.039879240691662,-8.920883497595787,10.033856787003284
9.251429416704923,-4.60656980752945,1.281286186426878,-7.786375141739845,9.137276264351124
9.261456416919827,-5.024153975844383,0.45897467102855444,-7.134136362075806,8.737773317861416
9.27148341666907,-5.335738064646721,-0.4318800258636475,-6.861897602677345,8.703002916286367
9.28151141665876,-5.519647614955902,-1.4566058845818044,-6.661510598659516,8.77290909290298
9.291538416873664,-5.726123324632645,-2.7294340735673908,-6.449014595746994,9.045887902633465
9.301565417088568,-6.255107476115227,-4.699593161344528,-5.974183847308159,9.843953375618282
9.311593417078257,-8.047300708293916,-6.534491533041001,-5.14741620540619,11.573872380356134
9.3216204168275,-9.375684024095536,-8.9206998950243,-4.19607304930687,13.604755292613177
9.331647417042404,-11.070622272491455,-12.434549642801285,-2.830806374251843,16.887574338784663
9.341674416791648,-13.939158682823182,-15.874058475494385,-0.30049338251352314,21.12761637149999
9.351702416781336,-16.130847136974335,-18.05332510471344,5.067501139640808,24.73471941407807
9.36172941699624,-13.304120657444,-19.794827070236206,12.696973850727082,27.019399515430234
9.371756416745484,-7.2436319071054465,-21.62104817390442,22.309546122550966,31.900717476855604
9.381783416960388,-2.5169673067331315,-22.46067793607712,32.63821520090103,39.699751501384384
9.391811416950077,2.6632389146089555,-22.12335908174515,36.22885701656342,42.53311579584453
9.40183841669932,11.130448644161225,-21.495789120197298,33.69674132823944,41.49007366904261
9.411865416914225,19.774057760238648,-19.590841104984285,28.766301262378693,40.028920842609864
9.421892416663468,26.037071256637574,-16.215040025711062,22.214383857250215,37.87262141463003
9.431920416653156,29.706044712066653,-11.902242518663407,14.939756444692613,35.3172591240475
9.44194741686806,30.148515214920046,-6.73863420367241,7.426032875776292,31.772442853316765
9.451974417082965,28.030518050193788,-2.358442566096783,0.19975258111953736,28.130270076795938
9.462001416832209,25.4884574174881,0.9003557279706002,-4.545057391226292,25.90617008840817
9.472029416821897,22.270987243652346,3.6990725827217106,-5.8921205145120625,23.332318678963368
9.482056417036802,19.695178821086884,5.097100914716721,-5.7314226561784745,21.135981458005478
9.492083416786045,18.040622613430024,5.384436600208283,-5.117174990773202,19.510041047318687
9.502111416775733,15.571175043582917,5.731664146184921,-4.766171897649765,17.263541371355632
9.512138416990638,12.373117625713348,6.164777934551239,-5.296554118394852,14.803783715359854
9.522165416739881,9.042499151229858,6.546727416515351,-6.172742426991463,12.7565347895158
9.532192416954786,6.063801782727242,6.6131716668605804,-7.141467601060867,11.467532038436854
9.542220416944474,3.233766948580742,6.139848915338517,-7.973067381978035,10.569995121024363
9.552247416693717,-0.2539708882570267,6.05510521888733,-7.607322288751603,9.726260989137376
9.562274416908622,-1.6046373581886293,7.0270539629459385,-6.808110820055008,9.914873745418994
9.572301416657865,-2.400625256896019,6.040473146438599,-6.355612927079201,9.090881867879988
9.582329416647553,-4.097114186882973,4.392555282711983,-6.038438900113106,8.51725489359323
9.592356416862458,-4.217935788631439,3.7592497873306274,-7.136355965137482,9.1022259772935
9.602383417077363,-4.882171300649643,3.525365839004517,-7.441284168362618,9.572696118755216
9.612410416826606,-5.246166906952858,3.3486141577363018,-7.910423237085343,10.065300779550459
9.622438416816294,-5.368456744551659,3.153455441594124,-8.83870205104351,10.811441300185768
9.632465417031199,-6.034699605703354,2.787589603364468,-9.715894911289215,11.77229242989986
9.642492416780442,-6.8592733722925185,2.074902015924454,-10.344933693408967,12.584613728381044
9.652519416995347,-7.805852217078209,1.1062323904037477,-10.664600973129273,13.26230722206785
9.662547416985035,-8.616700229644776,-0.05143459394574166,-10.6249241065979,13.679882332680346
9.672574416734278,-9.401702379584313,-1.2666957753896715,-10.206344157457352,13.934345584997352
9.682601416949183,-10.222495336532594,-2.4109999716281894,-9.399971019029618,14.09509797508405
9.692628416698426,-10.867312245368957,-3.5100139743089676,-8.12541950941086,14.01574527958128
9.702656416688114,-11.13122047662735,-4.497991690635681,-6.434711136817932,13.621362118474215
9.712683416903019,-11.205398254394531,-5.021173650026322,-4.713789031505585,13.152678126406387
9.722710416652262,-11.266618602275848,-5.141257333159447,-3.088541407585144,12.763553961232036
9.73273841664195,-11.154763705730439,-4.907169317007065,-1.7077073979377748,12.305499932689775
9.742765416856855,-10.859026740789414,-4.044364992678165,-0.5285727998614311,11.599773237263458
9.75279241707176,-9.898056728839874,-3.2438428705930713,1.534924221932888,10.528534368254022
9.762819416821003,-8.924923923611642,-0.9104658561944962,4.295370757877827,9.946528292081783
9.772847416810691,-7.366738600730897,4.754302634596825,7.068280341625214,11.262007731334515
9.782874417025596,-1.3437381041049958,11.011248475313188,8.703006302118302,14.099487358490082
9.79290141677484,9.471959599256516,13.028137925863266,10.372199259996414,19.158103088623744
9.802928416989744,16.999200761318207,11.238397600650789,15.464385005235673,25.581665519353365
9.812956416979432,16.499888305664065,4.696541207134724,20.754743413925173,26.92699737415174
9.822983416728675,13.34065990805626,-4.134528180956841,24.333627648353577,28.056959289813705
9.83301041694358,10.928605098724367,-10.779710429906846,27.57803009748459,31.562387590520974
9.843037416692823,10.440495908260345,-13.844478228092195,28.94740824222565,33.74353236044788
9.853065416682512,9.498995370268823,-12.385162889957428,28.975411727428437,32.9119683037822
9.863092416897416,8.919867836236953,-10.324671921730042,26.97415773153305,30.228597020584985
9.87311941664666,8.786244340538978,-8.706194204092027,22.349218311309816,25.54375591524482
9.883146416861564,8.31908864736557,-7.087688419818878,15.137278897762299,18.670291253427227
9.893174416851252,7.727857376933098,-5.974073919653893,8.035616801977158,12.648338872117783
9.903201417066157,6.897159236669541,-4.929425573945045,2.597931362986565,8.866751907650773
9.9132284168154,4.952132651209832,-3.803252424001694,-1.7172892302274705,6.475911449063254
9.923255417030305,3.2296446615457537,-3.484309614300728,-5.326694176197052,7.1375548316556605
9.933283417019993,1.787163457274437,-3.847870772480965,-7.969584780335427,9.028529463632736
9.943310416769236,-0.027863152027130127,-4.280427613556386,-10.163068914413453,11.02772898965394
9.95333741698414,-1.4990442448854446,-4.57397128790617,-11.455579562187195,12.425725334817086
9.96336541697383,-2.401113499403,-4.389918480813503,-11.631349203586579,12.661951453112486
9.973392416723073,-3.036874825358391,-3.9335392060875893,-11.501849749088288,12.529480717145706
9.983419416937977,-3.5674564361572267,-3.4343226447701456,-11.26204257130623,12.302638754762105
9.99344641668722,-4.332751715183258,-3.038966082036495,-10.776156492233277,12.005565418517078
10.003474416676909,-5.379693338871003,-2.8045430204272273,-9.838873550891877,11.558978965469219
10.013501416891813,-6.488661056756974,-2.869815488755703,-9.161313988566398,11.58741719478845
10.023528416641057,-7.385877707004547,-3.334493131935597,-9.065531333684921,12.159518588816562
10.033555416855961,-8.533001430630684,-4.301770827770233,-9.046265927553177,13.158733711942416
10.04358341684565,-9.753922863006592,-5.325260438919067,-9.795569071769714,14.813864566668975
10.053610417060554,-10.65181428194046,-6.086090784072876,-11.388895576000214,16.739432217669894
10.063637416809797,-11.606339492797852,-6.594286329746247,-13.72149257183075,19.143434566962213
10.073664417024702,-13.121982228755952,-6.877700872421265,-16.14710239648819,21.913879225389692
10.08369241701439,-14.477341089248657,-6.713992867469788,-18.131376078128817,24.15404528697884
10.093719416763633,-15.125790288448334,-6.194660714864731,-19.106902148723602,25.144324666677864
10.103746416978538,-15.077344937324524,-5.744222795963288,-18.890406650304794,24.842904204271477
10.113773416727781,-13.728499875068666,-5.979860908985138,-17.85479809999466,23.302880948546726
10.12380141671747,-11.620838248729706,-6.638608809113503,-16.220889580249786,21.029319230498995
10.133828416932374,-10.60289062857628,-7.21325386762619,-14.31123572587967,19.216237640133134
10.143855416681617,-10.366058514118196,-7.574213599562645,-13.018357872962952,18.283914309536087
10.153882416896522,-11.069284429550171,-7.310070894956589,-12.39458392381668,18.15466620227726
10.16391041688621,-12.449730184078216,-6.926053837537766,-12.01151879310608,18.634446252410086
10.173937416635454,-12.614593598842621,-6.188148086071014,-9.639313343167306,17.03929312286366
10.183964416850358,-10.334021619558335,-4.068172515928746,-4.206843620538712,11.87600790251187
10.193991417065263,-5.762919852733613,-1.984627730548382,1.5778348910808564,6.2959951875303215
10.204019417054951,-0.8464499545097351,-3.144071537554264,7.091777962446213,7.803523436716656
10.214046416804194,6.956426029801369,-8.382039186358453,16.16630465269089,19.493584846132375
10.224073417019099,19.949979429244998,-11.719691276550293,28.427279698848725,36.653281898372
10.234101417008787,37.939530122280125,-11.947629776000976,43.064256792068484,58.6232378517001
10.24412841675803,50.07858604431153,-10.369931709766389,54.643418426513676,74.84185621159985
10.254155416972935,52.52526221752167,-6.143368939161301,55.77749759674072,76.8620412888994
10.264182416722178,50.1821940279007,-2.936041930317879,45.72306059360504,67.95197723184319
10.274210416711867,41.346148366928105,-0.7647498799860478,29.467452585697174,50.77814085853559
10.284237416926771,31.040449490547182,0.07871909089386464,14.14477017402649,34.11143832421188
10.294264416676015,21.743664286136628,0.25309556007385253,2.250853505730629,21.86132053319292
10.30429141689092,13.722636287212373,0.447426310479641,-4.1629175823926925,14.347153716755859
10.314319416880608,6.903732676506043,0.5654264844954014,-6.6467077875137335,9.599997728677952
10.324346417095512,2.0061668264865875,0.3086145803332329,-7.459122269153595,7.7303591974159005
10.334373416844755,-0.8647716200351716,0.008239750117063523,-8.097152314782143,8.143204127189865
10.34440041705966,-2.426741845607758,0.0013346269726753235,-8.713083978295327,9.044717252588917
10.354428417049348,-3.1686546939611437,0.09727120980620385,-9.219686742424965,9.74948500620755
10.364455416798592,-3.5919252794981005,0.13812205106019976,-9.724900208115578,10.367964553001375
10.374482417013496,-4.3009171342849735,0.25069805547595025,-10.247397458553314,11.116199547712807
10.38450941676274,-5.578374710083008,0.22634264811873436,-10.778758503198624,12.138827384501672
10.394537416752428,-7.231598337292672,-0.2721411108970642,-11.398213698863984,13.501457359157381
10.404564416967332,-9.037813192605972,-1.2316496112942696,-11.648013768196106,14.794433169727387
10.414591416716576,-10.783346228599548,-2.2663541820645334,-11.307680089473726,15.788620781128857
10.42461841693148,-12.187938644886017,-2.9761576303839683,-10.307591035366059,16.23729643766959
10.434646416921169,-13.269846618175507,-3.384161135852337,-8.775963181257248,16.265266847552798
10.444673416670412,-13.923014520406724,-3.5078838336467744,-7.376459012031556,16.142110453159415
10.454700416885316,-14.206182310581209,-3.5087793347239495,-6.3651631844043735,15.957520190347656
10.464728416875005,-14.17837061405182,-3.623718345165253,-5.857752335071564,15.762956268845377
10.47475541708991,-14.089512816667558,-3.8433239775896073,-6.095343418121338,15.825255827081902
10.484782416839153,-14.16286379814148,-4.086257076859474,-6.876872321963311,16.26577944014598
10.494809417054057,-14.479476492404938,-4.245934596061707,-7.946293566226959,17.05364423015799
10.504837417043746,-14.827763553857805,-4.491986600160599,-8.86204705953598,17.84870846057402
10.514864416792989,-15.142363636493684,-4.653033537268639,-9.59292913556099,18.51934628972221
10.524891417007893,-15.502372026443481,-4.793799114525318,-10.40572017788887,19.27648984688874
10.534918416757137,-15.53563332796097,-4.9926275432109835,-10.959733335971833,19.657008609696767
10.544946416746825,-14.97140508413315,-4.9347699290513996,-10.894244520664216,19.161928089884384
10.55497341696173,-14.019766058921814,-4.658434318006039,-10.258231179714203,17.985720935746034
10.565000416710973,-13.087129315137863,-4.369233663082123,-9.314200551509858,16.64684620063204
10.575027416925877,-12.616352441310884,-4.3339843082427985,-8.199725925922394,15.658584679584223
10.585055416915566,-12.12366137266159,-4.177865404486656,-6.864932892322541,14.545275110257114
10.595082416664809,-11.126046860218048,-4.0241789424419405,-5.545771805047989,13.066695060734611
10.605109416879714,-8.239771167039871,-4.468257429599762,-3.2230928564071655,9.911986728369746
10.615136417094618,-2.7325406992435455,-5.010217722058297,1.7724726203083994,5.9758446670903655
10.625164417084306,5.809736754298211,-5.873081980347633,9.54550119996071,12.623895051075912
10.63519141683355,19.565481730699542,-6.7451240283250815,19.88529519081116,28.70069229718202
10.645218417048454,38.360333182811736,-4.029428865015507,33.02262285232544,50.7764224706849
10.655245416797698,50.28669078826905,2.4225080229341986,44.560671544075014,67.2329775037154
10.665273416787386,52.88968876361847,2.894541901946068,44.844757347106935,69.40280838593964
10.67530041700229,47.76491765499115,-2.6809206023812298,35.19225327014923,59.38997713499044
10.685327416751534,35.98638935565948,-3.6775387492775917,26.038764610290528,44.57086237150543
10.695355416741222,26.097145550251007,-3.076607532799244,18.917055920362472,32.378720241479336
10.705382416956127,17.994414407014848,-4.352190198898316,13.347374850511551,22.82307877519679
10.71540941670537,10.900522091388703,-5.260716533660889,8.3908176112175,14.727604710104897
10.72543670842424,5.299792891144753,-5.2278165900707245,2.7816193038225174,7.94702944123433
10.735464708413929,0.6529667580127716,-4.84448365688324,-4.455625104904175,6.614225772101437
10.745491708628833,-3.1353214716911317,-4.012326636314392,-10.740672079324723,11.886590868828247
10.755518708378077,-5.76272455573082,-2.793504061996937,-14.675821316242219,16.012257509666956
10.765545708592981,-6.875877710580826,-1.6399446004629137,-16.16396108865738,17.642016626765763
10.77557370858267,-6.9043963354825975,-0.9464545914530754,-15.708289911746979,17.184785043828743
10.785600708331913,-6.348451257348061,-0.9792647802829743,-13.929796121120454,15.339524531510397
10.795627708546817,-5.729627560973167,-1.3091208332777025,-11.58148414850235,12.987424857360917
10.805654708761722,-5.3251499265432365,-1.257522663474083,-9.239780699014664,10.738348679159115
10.81568270875141,-5.4294379413127904,-0.8924847909808159,-7.38206532239914,9.20707412182974
10.825709708500654,-6.0110891336202625,-0.3823830530047417,-6.319688803553581,8.73028498648889
10.835736708715558,-6.937154191732407,0.015995204597711563,-6.107972234487534,9.242926427474757
10.845763708464801,-8.019338738322258,0.1747498869895935,-6.461020098924637,10.299762717736124
10.85579170845449,-9.031817457675935,0.12137577161192895,-6.732723253369332,11.265789855716921
10.865818708669394,-9.822392588853836,0.22631443530321121,-6.748686736822129,11.919538039075016
10.875845708418638,-10.220128383636474,0.4411930324137211,-6.5709091615676885,12.158228599571423
10.885872708633542,-10.209813895225526,0.7420312544703483,-6.168347074985505,11.951544494132685
10.89590070862323,-10.025133097171784,1.0318911829590798,-5.861882808208466,11.658892017968421
10.905927708372474,-10.024654794931413,1.1187410464882852,-5.5029614156484605,11.490338098974929
10.915954708587378,-10.295325915813446,1.1124552896618844,-5.183547320365906,11.580175098278492
10.925981708336622,-10.285371615886689,1.2398357132077218,-5.0356998878717425,11.518868661172602
10.93600970832631,-10.154583435058594,1.3844468580186369,-4.862704457938672,11.34363929642955
10.946036708541214,-10.10276073217392,1.4451618602871896,-4.884178942143917,11.31412706101828
10.956063708756119,-10.132249410152436,1.5267059603333475,-4.86220393627882,11.341707821876607
10.966091708745807,-9.90226672410965,1.546223381459713,-4.735054477751255,11.08451324723166
10.97611870849505,-9.348876294493676,1.538886295258999,-4.666037744879723,10.561324123239663
10.986145708709955,-8.72747105240822,1.8077149584889414,-4.707318502664566,10.07945592913111
10.996172708459198,-7.896999199390412,1.9447498659789564,-4.776288457810879,9.431732599507653
11.006200708448887,-6.9171023350954055,2.0261926630139353,-4.545513474047184,8.521352836526505
11.016227708663791,-5.918010231256485,2.040748429298401,-3.9269833078980447,7.389769762952713
11.026254708413035,-4.835774813890457,2.18031810477376,-3.039258735179901,6.113558599378013
11.03628170862794,-3.213653111457825,2.049208473265171,-2.028780933022499,4.317727847129781
11.046309708617628,-0.6011417162418365,2.0037928569316863,-0.4722515416145325,2.144662839481752
11.05633670836687,3.4025690478086474,2.140196996033192,2.4726565217971803,4.719316643511121
11.066363708581775,9.417448931336404,1.9736092373728753,6.605558007359505,11.671198498216196
11.076390708331019,17.503527789115907,1.453987939953804,11.151615564823151,20.80495363367796
11.086418708320707,25.00942778348923,1.0668417450785637,15.73721725702286,29.56805093950806
11.096445708535612,29.007653274536136,1.5968148069083692,19.88285339355469,35.20400012914524
11.106472708750516,31.281490430831912,1.1022852274775505,21.787001509666442,38.13686026771412
11.11649970849976,32.487677464485174,-1.7826204630732536,20.685690135955813,38.5554756053218
11.126527708489448,30.643928747177124,-3.53544556170702,19.25239841580391,36.36213125138172
11.136554708704352,27.663476629257204,-3.6015199756622316,17.639180853366852,33.005750809977606
11.146581708453596,24.707014467716217,-3.5214014267921447,14.813392267227174,29.021947253402864
11.1566087086685,20.806493611335757,-3.6052803200483323,11.16498697757721,23.886505746846947
11.166636708658189,15.926040222644806,-3.8586050909757614,7.045957426428795,17.837407504355877
11.176663708407432,10.426998195648194,-4.333279718756676,2.782951591908932,11.629463618583063
11.186690708622336,4.857501313090324,-5.171823652982712,-0.6914455300569534,7.128897237670173
11.196718708612025,-0.519377760887146,-5.601280592679978,-3.140326103568077,6.442495290893783
11.206745708361268,-4.942362538576126,-5.655621691346169,-4.907657559514046,8.972073723493432
11.216772708576173,-7.921134751439095,-5.5391621124744415,-5.794222337007523,11.269414587697328
11.226799708325416,-9.769660643935204,-5.137192933559418,-5.8914200180768965,12.51182841009524
11.236827708315104,-10.764356811046602,-4.4688120380043985,-5.64034116268158,12.948170025836802
11.246854708530009,-11.192071280479432,-3.7394648560881616,-5.41030000448227,12.98142531064104
11.256881708744913,-11.421934683322908,-2.9171507459878923,-5.317543283700943,12.932386746418679
11.266908708494157,-11.648407870531083,-2.0648819348216056,-5.447964259386063,13.024187417821928
11.276936708483845,-11.777866394519807,-1.3284219074249268,-5.722952964305878,13.161877989213504
11.28696370869875,-11.77661742925644,-0.744698169529438,-6.114756174087525,13.290355018106498
11.296990708447993,-11.702431465387345,-0.30801772579550746,-6.382951583862305,13.333560966351877
11.307017708662897,-11.628128557205201,0.11221406176686287,-6.292211567759514,13.221871734062313
11.317045708652586,-11.356479781866074,0.36624152183532716,-5.862999626398087,12.785872301387705
11.327072708401829,-11.045841772556306,0.40788539171218874,-5.239630304574967,12.232363495487796
11.337099708616734,-10.615367417335511,0.43939983755350115,-4.623051939010621,11.586703882168575
11.347126708365977,-10.151552238464356,0.8290118032693863,-3.798418238461018,10.870568271001472
11.357154708355665,-9.73287347137928,1.1117096234858037,-2.9614366802573207,10.234003689075111
11.36718170857057,-9.414299620985986,1.117789265960455,-2.430344461351633,9.786984438406748
11.377208708319813,-9.216305297613145,1.042545979321003,-2.338583229035139,9.565362354711658
11.387235708534718,-9.112396767139435,1.0959256495535374,-2.4437620671093465,9.497831379413151
11.397263708524406,-9.163823613524437,1.0957842931151391,-2.650131211280823,9.602062376064357
11.40729070873931,-9.341613467931747,0.8713919837772847,-2.885165891647339,9.815765298536855
11.417317708488554,-9.565013943314552,0.6126570765674114,-3.0996277284622193,10.07335755765285
11.427344708703458,-9.519924893975258,0.37629449352622035,-3.230941281616688,10.060295676472084
11.437372708693147,-9.536228100657464,0.19020115435123444,-3.269680547118187,10.082987342404467
11.44739970844239,-9.83543889641762,-0.2153797034919262,-3.3949577271938325,10.407112215752937
11.457426708657295,-10.025055913925172,-0.7962785053253174,-3.6059474873542787,10.683569760006522
11.467454708646983,-9.640717844367028,-1.1914576050639154,-3.325043154358864,10.267371803811832
11.477481708396226,-8.770911186933517,-1.2242059595882893,-2.171492902189493,9.118275314160368
11.48750870861113,-7.386124459505082,-1.215867391526699,-0.6610676367580891,7.514664228390122
11.497535708360374,-4.969888890981674,-2.184270384013653,0.8369143152236939,5.492836996508139
11.507563708350062,-1.3615867298841478,-3.780995582342148,2.3239758610725403,4.642274207706316
11.517590708564967,2.2256262785196306,-4.957511504888535,4.118722572326661,6.818666165793165
11.52761770831421,6.339460578560829,-5.6543183469772345,5.8028463953733445,10.287521697881738
11.537644708529115,12.833232686519624,-5.681796167492867,7.577818992733956,15.94985923329519
11.547672708518803,21.184188659191133,-4.079752926528454,10.491671909093858,23.989360402849194
11.557699708733708,29.146592473983766,-2.708345213234425,14.577909690141679,32.70129106889304
11.567726708482951,33.715592751502996,-2.6382414829730987,18.214773745536807,38.411970729302325
11.577753708697855,35.135067501068114,-2.5532533729076388,18.05554938554764,39.585286846312314
11.587781708687544,34.01816978931427,-1.3196440672874452,14.685561608076096,37.076179091480554
11.597808708436787,30.122046039104465,0.38434753473848104,10.255287691354752,31.822261174244687
11.607835708651692,24.81086335659027,1.1908994883298873,6.0568909585475925,25.567227268017035
11.617862708400935,19.016574361324313,0.9385269364714623,3.1029121094942096,19.290904509885106
11.627890708390623,13.066533082723618,-0.052203868255019194,0.8817599742114545,13.096354939367401
11.637917708605528,7.23785368859768,-1.2274097952246668,-1.037756817340851,7.41417561397745
11.647944708354771,1.8701313543319704,-2.041135368794203,-2.9597901043295862,4.05265127267145
11.657971708569676,-2.721813982129097,-2.20783130094409,-4.693630755543709,5.8577265279396356
11.667999708559364,-6.1654345768690115,-2.0404986070096496,-5.919676687717438,8.787422271290119
11.678026708308607,-8.226485708355904,-1.7096609526872635,-6.662629755735398,10.723275756266748
11.688053708523512,-9.070136016011238,-1.3887635649740697,-6.681929660439492,11.350956592966282
11.698080708738416,-9.281426907777787,-0.9041298133134842,-6.178294942975045,11.186315951471013
11.708108708728105,-9.154813638925553,-0.2890392717719078,-5.606428481340409,10.73900352828272
11.718135708477348,-8.80481275856495,0.19219732068479062,-5.311813012361527,10.28479581721289
11.728162792045623,-8.377371354103088,0.645547591522336,-5.335986571311951,9.953383102578178
11.738190792035311,-8.123493436574936,1.2909280988574028,-5.611038426160813,9.956977111068845
11.748217791784555,-7.859263023734093,1.978419741690159,-5.990667732954026,10.078207173758626
11.75824479199946,-7.766805680394173,2.6188655644655228,-6.299560933113098,10.337610713881196
11.768271791748703,-7.896113930940628,3.1049940106272698,-6.6002142369747165,10.749531663769805
11.778299791738391,-8.058774114847184,3.350949828028679,-6.783891652822495,11.054134563199923
11.788326791953295,-8.282583895325661,3.3938014402985575,-6.801597021818162,11.241921821756558
11.798353791702539,-8.715435143709183,3.2066987255215644,-6.687249457240105,11.443820680341894
11.808380791917443,-9.15977383196354,2.968027954101563,-6.467853155136109,11.599300454141899
11.818408791907132,-9.500241996645928,2.7827738365530967,-6.146669692397118,11.65246654265408
11.828435791656375,-9.583798123598099,2.6770667025446895,-5.777704537510872,11.506421786399526
11.83846279187128,-9.48719393491745,2.588158326745033,-5.414549760818482,11.225985987672244
11.848489792086184,-9.321787898540498,2.502633442282677,-5.064389251470566,10.899859735896527
11.858517792075872,-9.145168071985244,2.319919647574425,-4.740849945545197,10.558967015870257
11.868544791825116,-8.954933588504792,1.9327371999621392,-4.581095243096352,10.242692140495526
11.87857179204002,-8.84020537018776,1.3748236566782,-4.4733889460563665,10.002528667130019
11.888598791789263,-8.756767941713333,0.4637727134674788,-4.1727107915282255,9.711209258609943
11.898626791778952,-8.37450387954712,-0.4091390347480774,-3.5354745054245,9.099411517060375
11.908653791993856,-7.5812624180316925,-0.8007669011503459,-2.4457583065330986,8.006153956489554
11.9186807917431,-6.31305747628212,-1.4423746387660503,-1.432792952656746,6.63234761925066
11.928707791958004,-4.330047962665558,-2.48558003783226,-0.5612189742922783,5.024180552145798
11.938735791947693,-1.782354707121849,-3.324402884244919,0.3136256441473961,3.7850764699596517
11.948762791696936,1.7788370221853258,-3.945638264715672,0.8452559530735017,4.409850348219523
11.95878979191184,5.59909197986126,-3.96478818833828,1.0140099589526654,6.935242791293511
11.968816791661084,9.328014013767243,-3.545681405067444,1.4543943214416504,10.084590468111278
11.978844791650772,13.764545620679856,-2.4265665753185752,4.538442143797875,14.695182835910243
11.988871791865677,19.06772580385208,-2.04944572404027,11.496077377796174,22.359297622755292
11.998898792080581,23.295634603500368,-3.4221513730287554,19.757093818187716,30.73663071548991
12.00892679207027,25.209418931007388,-4.6666438087821005,25.291679899692536,36.01335084972779
12.018953791819513,26.209678723812104,-4.002070327699185,26.31841354608536,37.358034173335035
12.028980792034417,25.31084707260132,-2.0576965838670733,21.856291015148162,33.50478401217825
12.03900779178366,22.16277633190155,-0.5677929988503456,14.520067863464357,26.5017624769948
12.049035791773349,18.302139333486558,0.22141677092760803,7.8907081800699235,19.931899185773197
12.059062791988254,14.36219304084778,0.6509935420006514,3.0969371321797374,14.706712791612429
12.069089791737497,10.313489706516267,0.6652388942241669,0.22697253942489626,10.337414050257374
12.079116791952401,6.33491027534008,0.15173053186386826,-1.403049482256174,6.490197084878728
12.08914479194209,2.7640665471553802,-0.36396549314260485,-2.384576404094696,3.668615458761956
12.099171791691333,-0.1437789398431778,-0.45531939379870895,-3.1002887561917305,3.136842123167903
12.109198791906238,-2.376409013271332,-0.2587606715038419,-3.755208484232426,4.451501729026457
12.11922579165548,-3.9484814733266833,0.06412553697824479,-4.266651865839958,5.813685248959768
12.12925379164517,-5.138586909770966,0.3365279818698764,-4.444572990238667,6.8023933712635305
12.139280791860074,-6.310051422715188,0.6304158014059067,-4.365724748969078,7.698943149792272
12.149307792074978,-7.145476452112198,1.052748493552208,-4.337338271141053,8.424880794211347
12.159334791824222,-7.8294393002986915,1.5364833819866182,-4.374258760213852,9.099178020101064
12.16936279181391,-8.478408316969873,1.9951579812169076,-4.472887547314167,9.791362824969545
12.179389792028815,-8.929986442923546,2.4231741669774056,-4.5795875385403635,10.324197447620767
12.189416791778058,-9.324491651058198,2.8547261640429498,-4.821099472045899,10.878354937291146
12.199443791992962,-9.725138189792634,3.3360780197381974,-5.111234219670296,11.48183106532543
12.20947179198265,-10.025821899175645,3.7168919724226,-5.378910981416703,11.969338913852122
12.219498791731894,-10.142753348350526,3.9356015190482143,-5.783386276960373,12.321199683096772
12.229525791946799,-10.09766196012497,4.157026512622833,-6.121512047052383,12.518648338770902
12.239552791696042,-10.255580052137375,4.308885427415371,-6.392952076792717,12.830169604824361
12.24958079168573,-10.48119720697403,4.154110798537731,-6.604628884792328,13.06649356651742
12.259607791900635,-10.617362487316132,3.8213729453086853,-6.558996044397355,13.051885169760924
12.269634791649878,-10.735468057394028,3.4268855711817743,-6.371679321527481,12.945737387483273
12.279661791864783,-10.737148547172547,3.038139870464802,-6.0198617112636565,12.678934806177356
12.289689791854471,-10.730907229185105,2.611526139378548,-5.577751396894455,12.372701781890349
12.299716792069376,-10.832734150886536,2.1563987535238267,-5.210498306751251,12.212595030239896
12.309743791818619,-11.030566506385803,1.6523974156379702,-4.728991792201996,12.114750432498443
12.319771791808307,-11.177752618789674,1.0915862846374513,-4.103249670267106,11.9570218733686
12.329798792023212,-11.118057224750519,0.5752374180033804,-3.2593356531858446,11.600231180456138
12.339825791772455,-10.97981033563614,0.18686502546072006,-2.419794183969498,11.244845816508791
12.34985279198736,-11.121695362329483,-0.5764603266119958,-1.8483966690301896,11.288976237316678
12.359880791977048,-10.719010484218598,-1.8630632400512697,-0.5637709915637971,10.89431173264963
12.369907791726291,-9.24138166666031,-2.6230559715628625,2.2105702829360965,9.857493531047183
12.379934791941196,-6.566438965201378,-3.5597322642803193,5.616252388358117,9.345164812180226
12.389961791690439,-1.1302170842885972,-5.087064753770829,9.028495069742203,10.424458820055579
12.399989791680127,6.795550416111946,-5.494211057424546,13.15363671541214,15.791897271780984
12.410016791895032,15.029327602386475,-3.869926469922066,15.287079885005951,21.78421057722802
12.420043791644275,21.823927845954895,-1.9056292158365251,11.236500763893128,24.62060516621527
12.43007079185918,25.22714301109314,-0.10799423586577178,4.240607490241528,25.581304875698155
12.440098791848868,25.16833171606064,0.5764381071925163,2.592893694341183,25.30810739607452
12.450125792063773,25.066852118968963,-2.7691454386711123,7.813996803760529,26.40215498143952
12.460152791813016,22.66806931972504,-6.370693480968476,15.720985386371613,28.312126088141518
12.47017979202792,19.729663360118867,-7.768692576885224,22.42852994441986,30.865047482962126
12.480207792017609,17.9948880314827,-7.279102871418,22.797985095977783,29.94243574452002
12.490234791766852,15.391657336950303,-5.242971403598785,17.474303405284882,23.869292914055947
12.500261791981757,13.131903784275055,-3.666207137703896,10.3638190305233,17.125907762026674
12.510288791731,11.305193853378297,-2.4897926643490793,4.325762538313866,12.357940650115962
12.520316791720688,9.47239580154419,-1.111524997651577,0.3048668074607849,9.542259366198746
12.530343791935593,7.628905531167985,0.03904682904481888,-2.2135131865739823,7.943636754376476
12.540370791684836,5.827729806303978,0.5732461121678353,-4.031165195703506,7.109243183029445
12.55039779189974,3.9219403767585757,0.7097891226410866,-5.358710605502129,6.678412705949655
12.560425791889429,1.5965132367610932,0.49561496883630757,-5.940246022939682,6.170981406999919
12.570452791638672,-0.6176577615737915,0.0853181853890419,-6.059847895503045,6.091841824918233
12.580479791853577,-2.148589797019959,-0.07699935168027879,-5.690669317245484,6.083262635646815
12.590507791843265,-3.3602778911590576,0.13973208189010622,-5.142123305797577,6.144300175980037
12.60053479205817,-4.520146790742874,0.5360209831595422,-4.993763072490692,6.756975294347472
12.610561791807413,-5.6002789646387106,0.9699443185329438,-5.294892339706421,7.767869807863087
12.620588792022318,-6.553087432980537,1.3679110783338548,-5.767270181179047,8.836036496372847
12.630616792012006,-7.4221222579479225,1.814875458776951,-6.298770389556885,9.902332056801336
12.64064379176125,-8.149783687591553,2.2521796542406083,-6.731183096766472,10.807410107500473
12.650670791976154,-8.740520868301392,2.5971779492497444,-7.048661178946495,11.525001638388977
12.660697791725397,-9.187917650341989,2.8408320102095606,-7.226910039782524,12.0298123835248
12.670725791715086,-9.542560050487518,2.8637811622023586,-7.224711486697197,12.306833505340025
12.68075279192999,-10.047368888854981,2.7414118024706844,-7.0221224212646485,12.560858392589425
12.690779791679233,-10.545846362113954,2.61861004114151,-6.848056658506394,12.843982016453971
12.700806791894138,-10.82437380194664,2.3710898011922836,-6.643773654699326,12.920095333412354
12.710834791883826,-10.880885971784592,2.1697172489762306,-6.414023687839508,12.815656531744677
12.72086179163307,-10.666076810359955,2.1452045515179634,-6.227371208667756,12.535838594322115
12.730888416990638,-10.141395624876022,2.3542270159721377,-6.141310134530068,12.087430671216664
12.740915416739881,-9.628055114150047,2.4601224303245544,-6.215757468938828,11.72123238255968
12.75094341672957,-9.010559320449829,2.2859859162569047,-6.304740981459618,11.232349252047259
12.760970416944474,-8.313156647086144,2.091480041742325,-6.379094760417939,10.685303559861582
