"Time (s)","Linear Acceleration x (m/s^2)","Linear Acceleration y (m/s^2)","Linear Acceleration z (m/s^2)","Absolute acceleration (m/s^2)"
-2.463748679E-4,8.520057449E0,4.578475106E-1,-5.140521169E0,9.961222875E0
9.700625204E-3,8.721510401E0,4.632521285E-1,-5.054180598E0,1.009079222E1
1.964662503E-2,8.987350552E0,4.953541830E-1,-4.838441729E0,1.021901972E1
2.959262487E-2,9.096284180E0,5.289888293E-1,-4.858048612E0,1.032583417E1
3.953862516E-2,9.049000670E0,5.712644908E-1,-4.954076850E0,1.033216500E1
4.948562523E-2,8.870614985E0,5.153206703E-1,-4.948684548E0,1.017068554E1
5.943162506E-2,8.683527473E0,2.433257398E-1,-4.515547079E0,9.790455669E0
6.937762490E-2,8.490523163E0,8.291629538E-1,-4.604639057E0,9.694286752E0
7.932462497E-2,5.287555254E0,1.483928374E1,-7.870760404E0,1.760998159E1
8.927062526E-2,-4.688201031E0,2.862170430E1,-8.876938164E0,3.033119215E1
9.921662509E-2,-2.083499528E1,2.862207969E0,3.701839251E1,4.257523514E1
1.091626249E-1,-2.670344100E1,-1.610207416E1,1.081752297E2,1.125798866E2
1.191096250E-1,-1.705669292E1,-1.829592725E1,8.989383044E1,9.330901607E1
1.290556248E-1,-1.501584275E1,-1.848056127E1,3.474828822E1,4.212422359E1
1.390016251E-1,-2.110195108E1,-2.235771549E1,2.633966701E1,4.048379724E1
1.489476250E-1,-2.250308194E1,-2.558586034E1,2.352685690E1,4.140697938E1
1.588946250E-1,-2.106332437E1,-2.166214942E1,1.050729450E1,3.198930429E1
1.688406249E-1,-1.738625135E1,-1.499247026E1,1.002502785E0,2.297957599E1
1.787866252E-1,-1.199179730E1,-9.337959543E0,-3.593754873E0,1.561780283E1
1.887336252E-1,-7.190674260E0,-5.606633134E0,-4.758981577E0,1.028533116E1
1.986796251E-1,-3.639643822E0,-3.554255762E0,-4.344584141E0,6.689929187E0
2.086256249E-1,-1.011729983E0,-2.126902328E0,-3.124439219E0,3.912726863E0
2.185716252E-1,2.627598381E-1,-7.720607999E-1,-2.359849114E0,2.496799642E0
2.285186253E-1,8.350484687E-1,6.020997825E-1,-2.500098090E0,2.703760446E0
2.384646251E-1,8.185458720E-1,2.375617593E0,-2.592910359E0,3.610645430E0
2.484106249E-1,1.034377711E0,4.110199671E0,-3.531486120E0,5.516799144E0
2.583576250E-1,1.786997689E0,5.361671636E0,-4.237458472E0,7.063776452E0
2.683036248E-1,2.289603881E0,5.501210175E0,-5.291767003E0,7.969215603E0
2.782496251E-1,1.920824960E0,5.474308305E0,-6.870188954E0,8.992058508E0
2.881956249E-1,1.816591909E0,5.084936952E0,-8.457896284E0,1.003457022E1
2.981426250E-1,2.320573074E0,4.282025365E0,-9.455199725E0,1.063586397E1
3.080886248E-1,3.010900909E0,3.301805150E0,-9.689377204E0,1.067012053E1
3.180346251E-1,3.674419552E0,2.529621266E0,-9.738621869E0,1.071172716E1
3.279816252E-1,4.314007296E0,2.139783744E0,-9.683976715E0,1.081520866E1
3.379276250E-1,4.728050390E0,1.946100280E0,-9.183269114E0,1.051067069E1
3.478736249E-1,5.221019202E0,1.702351933E0,-8.623369564E0,1.022348014E1
3.578196252E-1,5.647477105E0,1.621120221E0,-8.346324978E0,1.020701568E1
3.677666252E-1,5.979733440E0,1.598413289E0,-8.357615951E0,1.040009045E1
3.777126251E-1,6.216181977E0,1.560797128E0,-8.144991310E0,1.036426020E1
3.876586249E-1,6.493131838E0,1.660696954E0,-7.856640548E0,1.032692966E1
3.976046252E-1,6.668094563E0,1.796745143E0,-7.530765279E0,1.021783754E1
4.075524583E-1,6.876157792E0,1.686550710E0,-7.198251666E0,1.009657498E1
4.174984582E-1,7.142185054E0,1.567606064E0,-7.034457707E0,1.014651622E1
4.274444585E-1,7.441978818E0,1.635923178E0,-6.864197897E0,1.025555977E1
4.373914585E-1,7.734667629E0,1.659884775E0,-6.733827792E0,1.038868315E1
4.473374584E-1,7.972626502E0,1.697245267E0,-6.614072138E0,1.049711223E1
4.572834582E-1,8.203838857E0,1.729012898E0,-6.405216027E0,1.055079381E1
4.672294585E-1,8.381418212E0,1.750886600E0,-6.188388407E0,1.056455992E1
4.771764586E-1,8.579842891E0,1.792675920E0,-6.001703768E0,1.062298635E1
4.871224584E-1,8.774876184E0,1.849905543E0,-5.827926857E0,1.069510795E1
4.970684582E-1,8.970588339E0,1.894294388E0,-5.685564113E0,1.078820864E1
5.070154583E-1,9.102956437E0,1.945692583E0,-5.512968925E0,1.081861183E1
5.169614581E-1,9.195241288E0,2.046769307E0,-5.300235525E0,1.080898809E1
5.269074584E-1,9.239938574E0,2.114302309E0,-5.112795426E0,1.076974541E1
5.368534583E-1,9.288841762E0,2.181210975E0,-4.898638522E0,1.072552665E1
5.468004583E-1,9.254968257E0,2.257606455E0,-4.696474257E0,1.062111552E1
5.567464582E-1,9.107021422E0,2.312484328E0,-4.491956779E0,1.041456186E1
5.666924585E-1,8.942968431E0,2.374361318E0,-4.269250953E0,1.019022962E1
5.766384583E-1,8.708430764E0,2.515627710E0,-4.088529305E0,9.943903711E0
5.865854584E-1,8.530417546E0,3.423035764E0,-4.614282870E0,1.028478506E1
5.965314582E-1,-1.845287704E0,3.466753349E0,1.877512879E0,4.352989790E0
6.064774585E-1,-3.079534357E1,4.101146427E0,1.682364864E1,3.532998359E1
6.164244586E-1,-3.287822937E1,-1.505980504E0,4.483119648E1,5.561548455E1
6.263704584E-1,-2.392658192E1,-2.404630717E1,1.327865533E2,1.370509940E2
6.363164582E-1,-2.875166217E1,-3.083577355E1,7.148795566E1,8.299416131E1
6.462624585E-1,-3.266758460E1,-2.707415447E1,2.537305209E1,4.943655223E1
6.562094586E-1,-2.324870485E1,-1.931077351E1,8.801999078E0,3.147830107E1
6.661554584E-1,-1.024765357E1,-1.027009401E1,7.387840033E-2,1.450843522E1
6.761014583E-1,-5.411355427E0,-7.562091152E0,-6.001754054E0,1.106747676E1
6.860484583E-1,-2.382519938E0,-5.999259632E0,-8.565614276E0,1.072554266E1
6.959944582E-1,-1.855532026E-1,-3.881427358E0,-6.368119537E0,7.460084099E0
7.059404585E-1,1.075062053E0,-2.431682450E0,-3.670227683E0,4.532042498E0
7.158864583E-1,1.396132665E0,-1.441777492E0,-2.683455663E0,3.350946590E0
7.258334584E-1,1.589879863E0,-1.695499581E-1,-3.152905219E0,3.535148722E0
7.357794582E-1,8.197237936E-1,1.989517611E0,-3.759773113E0,4.331976602E0
7.457254585E-1,2.117323565E-1,3.694198636E0,-3.845862839E0,5.336908761E0
7.556714583E-1,1.773358181E-1,4.718892189E0,-4.569610727E0,6.571204888E0
7.656184584E-1,1.549921453E-2,5.123316321E0,-5.903416166E0,7.816580632E0
7.755644582E-1,-1.525278363E-1,5.023763382E0,-6.829839073E0,8.479868220E0
7.855104585E-1,4.426628762E-1,4.370064552E0,-7.946692346E0,9.079831158E0
7.954574586E-1,1.466675521E0,3.594448938E0,-8.931890296E0,9.739089512E0
8.054034584E-1,2.428948877E0,2.802815753E0,-8.999992232E0,9.734240031E0
8.153494583E-1,3.711347058E0,2.136116517E0,-9.199934263E0,1.014770325E1
8.252954585E-1,4.573100637E0,1.677321611E0,-9.141988356E0,1.035869723E1
8.352424582E-1,5.015739248E0,1.524685163E0,-8.991195096E0,1.040787655E1
8.451884585E-1,5.296233106E0,1.383178305E0,-8.839111941E0,1.039678639E1
8.551344583E-1,5.512887064E0,1.303892253E0,-8.689355392E0,1.037289525E1
8.650814584E-1,5.726426795E0,1.276136544E0,-8.559850675E0,1.037745305E1
8.750274582E-1,5.952952607E0,1.217678128E0,-8.554714481E0,1.049302266E1
8.849734585E-1,6.084454733E0,1.203892148E0,-8.472583905E0,1.050022018E1
8.949194583E-1,6.170580711E0,1.218957206E0,-8.329894887E0,1.043786721E1
9.048664584E-1,6.289112543E0,1.250595029E0,-8.180237741E0,1.039390273E1
9.148124582E-1,6.427527248E0,1.280651910E0,-8.090432110E0,1.041192910E1
9.247584585E-1,6.582636337E0,1.232230825E0,-7.961986324E0,1.040397617E1
9.347054586E-1,6.658121552E0,1.202519660E0,-7.710450801E0,1.025805477E1
9.446514584E-1,6.729910158E0,1.222082105E0,-7.549450057E0,1.018721608E1
9.545974582E-1,6.882431270E0,1.245487193E0,-7.531190956E0,1.027803171E1
9.645434585E-1,6.995871931E0,1.307419878E0,-7.485254645E0,1.032863050E1
9.744904581E-1,7.115926378E0,1.413370987E0,-7.499670956E0,1.043451437E1
9.844364584E-1,7.254813538E0,1.503640156E0,-7.370679624E0,1.045084548E1
9.943824583E-1,7.306559642E0,1.613240367E0,-7.394700571E0,1.051997884E1
1.004329458E0,7.375669638E0,1.847665621E0,-7.526356478E0,1.069861733E1
1.014275458E0,7.233530842E0,2.049745248E0,-7.705350274E0,1.076558623E1
1.024221458E0,7.010527977E0,2.178017372E0,-7.828650511E0,1.073214941E1
1.034167458E0,6.780383323E0,2.273870485E0,-7.892958773E0,1.065095691E1
1.044114458E0,6.494592472E0,2.348847578E0,-7.836963497E0,1.044580362E1
1.054060458E0,5.926959980E0,2.756817169E0,-7.106605917E0,9.655710391E0
1.064006459E0,5.563674810E0,2.921148780E0,-6.731732150E0,9.208898160E0
1.073952458E0,5.751048836E0,2.569443728E0,-7.126652511E0,9.511350051E0
1.083899458E0,5.780886592E0,2.513259587E0,-7.336834186E0,9.672862007E0
1.093845458E0,3.947595035E0,2.152097542E0,-2.546605089E0,5.167226323E0
1.103791459E0,-1.768270519E0,1.441275362E0,8.382953691E0,8.687805700E0
1.113738458E0,-3.755452021E0,6.972200063E0,1.933529907E1,2.089422848E1
1.123684458E0,-3.078792053E0,5.775511247E0,6.595199431E1,6.627594620E1
1.133630458E0,-6.299405397E0,-1.330372188E1,1.310167087E2,1.318410008E2
1.143576459E0,-2.920028862E1,-2.754756143E1,7.160262657E1,8.208813025E1
1.153523458E0,-4.487848876E1,-2.488258530E1,2.462243566E1,5.691648393E1
1.163469458E0,-2.497033798E1,-1.728653996E1,3.499132306E0,3.057100210E1
1.173415458E0,-1.190901009E1,-9.896469795E0,-2.975936313E0,1.576771488E1
1.183362458E0,-4.372263106E0,-6.479936426E0,-5.068987502E0,9.316699794E0
1.193308458E0,-2.293620041E-1,-5.013035495E0,-4.164280568E0,6.521070806E0
1.203254458E0,1.443445995E0,-3.663179449E0,-2.454798540E0,4.639876711E0
1.213200458E0,2.414393988E0,-2.669995957E0,-5.428262651E-1,3.640444629E0
1.223147458E0,2.957496534E0,-1.909252443E0,2.365900397E-2,3.520311121E0
1.233093458E0,2.905587000E0,-7.077206701E-1,-1.303546683E0,3.262290348E0
1.243039459E0,1.686441367E0,8.396816562E-1,-2.849458700E0,3.415928080E0
1.252986459E0,-3.267044038E-2,2.144726395E0,-4.115747509E0,4.641152468E0
1.262932458E0,-9.828695887E-1,3.065826729E0,-5.434574720E0,6.316639023E0
1.272878458E0,-1.035030261E0,3.715051854E0,-6.420752664E0,7.489924077E0
1.282824459E0,-8.462985116E-1,4.078906542E0,-6.802492815E0,7.976691560E0
1.292771458E0,-8.006835052E-1,4.023091360E0,-7.234892074E0,8.316851657E0
1.302717458E0,-6.670819366E-1,3.831742690E0,-7.987946792E0,8.884511483E0
1.312663458E0,-2.047174519E-1,3.381090178E0,-8.429935484E0,9.085014711E0
1.322610458E0,4.754031909E-1,2.884729397E0,-8.508412135E0,8.996707672E0
1.332556458E0,1.405665088E0,2.281591295E0,-8.856821988E0,9.253369597E0
1.342502458E0,2.339179791E0,1.783126101E0,-8.698416238E0,9.182251676E0
1.352448458E0,3.402436024E0,1.496713691E0,-9.555357267E0,1.025288132E1
1.362395458E0,4.287772593E0,1.293449711E0,-9.887849829E0,1.085484133E1
1.372341458E0,4.782396167E0,1.298827249E0,-9.861766570E0,1.103687932E1
1.382287459E0,5.103442220E0,1.294173596E0,-9.731317527E0,1.106429160E1
1.392233458E0,5.281566535E0,1.295982578E0,-9.497862180E0,1.094458322E1
1.402180458E0,5.248304064E0,1.385445416E0,-9.201434659E0,1.068319027E1
1.412126208E0,5.089574379E0,1.403209550E0,-9.124823270E0,1.054206641E1
1.422072208E0,4.871462418E0,1.469682744E0,-8.929884117E0,1.027783751E1
1.432019209E0,4.838178897E0,1.518398967E0,-8.560759333E0,9.949879940E0
1.441965208E0,4.986914814E0,1.630638026E0,-8.489398159E0,9.979888818E0
1.451911208E0,5.188879396E0,1.635514750E0,-8.411249537E0,1.001740968E1
1.461857209E0,5.368764893E0,1.621608755E0,-8.465732138E0,1.015489400E1
1.471804209E0,5.464426510E0,1.718399178E0,-8.580175012E0,1.031660099E1
1.481750208E0,5.668486151E0,1.627150016E0,-8.600713357E0,1.042840461E1
1.491696208E0,5.798444027E0,1.726129928E0,-8.530460231E0,1.045802225E1
1.501643208E0,5.880220846E0,1.858904116E0,-8.478846273E0,1.048443398E1
1.511589208E0,5.836723993E0,1.884043488E0,-8.393976277E0,1.039595136E1
1.521535208E0,5.717417990E0,1.814292199E0,-8.657759963E0,1.053267925E1
1.531481208E0,5.657113316E0,1.789312309E0,-8.762832674E0,1.058261811E1
1.541428208E0,5.676791536E0,1.900173910E0,-8.908745847E0,1.073323696E1
1.551374208E0,5.494745493E0,1.968493655E0,-8.993442181E0,1.072143636E1
1.561320208E0,4.995195056E0,1.943499147E0,-8.500554646E0,1.004930803E1
1.571267209E0,4.755678484E0,1.828303151E0,-7.436849055E0,9.014759793E0
1.581213208E0,5.141499408E0,1.070720496E0,-5.055235435E0,7.289503676E0
1.591159208E0,5.559080068E0,-1.416372509E-1,8.832043827E-2,5.561585458E0
1.601105209E0,5.488857347E0,-1.338668130E0,1.052019814E1,1.194127950E1
1.611052209E0,5.751688521E0,-1.231807340E0,2.977835372E1,3.035374146E1
1.620998208E0,1.015764036E1,-8.441166231E-1,6.248663494E1,6.331247694E1
1.630944208E0,1.407076547E1,-1.067894770E1,8.984722112E1,9.156718576E1
1.640890209E0,1.014798895E0,-1.797492798E1,7.804034084E1,8.009009084E1
1.650837208E0,-3.347656793E1,-1.673786180E1,3.571276071E1,5.173236797E1
1.660783208E0,-4.797152083E1,-1.554107007E1,7.672095405E0,5.100639879E1
1.670729208E0,-2.868983605E1,-1.017954052E1,-3.141906606E0,3.060394280E1
1.680676208E0,-1.489758633E1,-5.595651478E0,-1.557511724E0,1.598984792E1
1.690622208E0,-5.946967982E0,-3.132563340E0,1.666990896E0,6.925188799E0
1.700568208E0,2.272963290E-1,-1.326168391E0,3.355077378E0,3.614820940E0
1.710514208E0,3.193925191E0,-4.316537386E-1,1.558082412E0,3.579818972E0
1.720461208E0,4.216828911E0,-3.735201359E-2,-1.570030028E-1,4.219916016E0
1.730407208E0,3.678386888E0,8.246624981E-1,-3.695598167E-1,3.787766201E0
1.740353209E0,2.689112259E0,1.711618308E0,-2.152630223E0,3.846398166E0
1.750300209E0,1.419125378E0,2.094351317E0,-3.892045317E0,4.642008297E0
1.760246208E0,8.070698342E-1,2.356420160E0,-5.202505748E0,5.768027717E0
1.770192208E0,1.151546265E-1,3.202849211E0,-6.204217989E0,6.983109945E0
1.780138209E0,-8.948388800E-2,2.967808976E0,-7.189027684E0,7.778047089E0
1.790085209E0,1.227102524E-1,3.042919092E0,-7.726989065E0,8.305466539E0
1.800031208E0,2.870059025E-1,3.066707320E0,-8.415215119E0,8.961189188E0
1.809977208E0,5.384262353E-1,2.990545582E0,-8.709970336E0,9.224795333E0
1.819924208E0,1.010905234E0,2.790532215E0,-8.878374240E0,9.361331560E0
1.829870208E0,1.509223078E0,2.692915873E0,-9.142202949E0,9.649322513E0
1.839816208E0,1.911522332E0,2.350720879E0,-9.266074458E0,9.748843118E0
1.849762208E0,2.167354097E0,2.009614052E0,-9.221138606E0,9.683252016E0
1.859709208E0,2.392441786E0,1.834326222E0,-9.106975229E0,9.592993704E0
1.869655208E0,2.661193851E0,1.825224300E0,-8.709690839E0,9.288278149E0
1.879601208E0,3.098682234E0,2.082207381E0,-8.805146050E0,9.563891265E0
1.889547208E0,3.815730675E0,2.016997770E0,-9.123835090E0,1.009318817E1
1.899494208E0,4.168103186E0,1.724064691E0,-8.867387322E0,9.948670320E0
1.909440208E0,4.500825251E0,1.531418962E0,-8.418366183E0,9.668069154E0
1.919386209E0,4.846903235E0,1.320183034E0,-8.220985233E0,9.634311206E0
1.929333209E0,5.133853004E0,1.233523936E0,-8.121954449E0,9.687320168E0
1.939279208E0,5.459015497E0,1.199261738E0,-8.069858682E0,9.816399444E0
1.949225208E0,5.917514387E0,1.200221266E0,-8.098691302E0,1.010179729E1
1.959171209E0,6.199313929E0,1.119671923E0,-8.038435160E0,1.021281539E1
1.969118208E0,6.383294231E0,1.015579498E0,-7.807933241E0,1.013615649E1
1.979064208E0,6.539444125E0,9.681790441E-1,-7.635581882E0,1.009969360E1
1.989010208E0,6.655745244E0,9.300198224E-1,-7.449282575E0,1.003273106E1
1.998957208E0,6.813815948E0,8.772194651E-1,-7.282145762E0,1.001135599E1
2.008903208E0,7.051404693E0,8.389591596E-1,-7.136530797E0,1.006758325E1
2.018849208E0,7.355023119E0,7.797288385E-1,-6.949929188E0,1.014918016E1
2.028795208E0,7.741276737E0,6.838702429E-1,-6.799270415E0,1.032594413E1
2.038742208E0,7.967242970E0,6.300635067E-1,-6.646064009E0,1.039442675E1
2.048688208E0,8.084198978E0,6.167184064E-1,-6.445895691E0,1.035780797E1
2.058634209E0,8.169778826E0,6.311607367E-1,-6.266920021E0,1.031590696E1
2.068581209E0,8.256498297E0,7.134884367E-1,-5.932376255E0,1.019175735E1
2.078527208E0,8.170912601E0,7.302230948E-1,-5.448967642E0,9.848263140E0
2.088473208E0,7.060792982E0,5.516991590E-1,-4.159004626E0,8.213189939E0
2.098419209E0,-5.343805468E-1,1.576518390E0,2.077130975E0,2.661850088E0
2.108366208E0,-5.134942340E0,5.730338582E0,1.369228222E1,1.570614547E1
2.118312208E0,-6.673843546E0,4.975740784E-1,9.842713534E1,9.865439037E1
2.128258208E0,-1.544063712E1,-6.106745489E0,1.083468572E2,1.096118017E2
2.138204209E0,-2.272424703E1,-8.933711119E0,5.407795057E1,5.933487453E1
2.148151208E0,-2.400029426E1,-1.129962146E1,2.003711464E1,3.324427067E1
2.158097208E0,-2.231529043E1,-1.120211095E1,3.545817060E0,2.521968071E1
2.168043208E0,-1.998701335E1,-1.032629043E1,8.907309186E-1,2.251458146E1
2.177990208E0,-1.405186493E1,-7.711574636E0,-9.490697587E-1,1.605689960E1
2.187936208E0,-1.274054145E1,-9.151752037E0,-1.254561633E0,1.573689572E1
2.197882209E0,-8.020404686E0,-9.799064537E0,2.408455263E0,1.288988805E1
2.207828208E0,-2.919466243E0,-8.065445203E0,1.195032885E0,8.660415294E0
2.217775208E0,-1.183599093E0,-6.347023952E0,1.093220581E0,6.548339568E0
2.227721208E0,-6.168629788E-1,-4.043608655E0,1.111432904E0,4.238699564E0
2.237667209E0,-4.677714050E-1,-1.067958856E0,-9.115423286E-1,1.479951223E0
2.247614208E0,-2.910511525E-1,1.254697727E0,-3.273383589E0,3.517672139E0
2.257560208E0,1.080076918E0,2.449026900E0,-5.801036097E0,6.388765038E0
2.267506208E0,9.464959605E-1,3.111174225E0,-6.900970452E0,7.628804155E0
2.277452209E0,-3.547651917E-3,3.535380073E0,-7.136022674E0,7.963777021E0
2.287399208E0,-9.366654754E-3,3.802961525E0,-7.910927852E0,8.777549975E0
2.297345208E0,1.471451819E-1,4.403274983E0,-8.438453708E0,9.519347838E0
2.307291208E0,1.007301010E0,3.785419293E0,-8.603746893E0,9.453492220E0
2.317237209E0,1.968656938E0,2.952193986E0,-8.655524572E0,9.354633349E0
2.327184208E0,2.764295466E0,2.416422679E0,-8.878505217E0,9.607719963E0
2.337130208E0,3.321573124E0,2.272783634E0,-8.799281877E0,9.676040255E0
2.347076208E0,3.500039794E0,2.141924702E0,-8.630875050E0,9.556679555E0
2.357023208E0,3.392955056E0,2.116995683E0,-8.780136339E0,9.648036529E0
2.366969208E0,3.035572650E0,2.159942020E0,-8.790849023E0,9.547726294E0
2.376915209E0,3.966413130E0,2.219686823E0,-8.536360071E0,9.671033346E0
2.386861208E0,4.415607346E0,2.393463733E0,-8.473829362E0,9.850484300E0
2.396808208E0,4.638067589E0,2.920770172E0,-8.209555680E0,9.871138426E0
2.406753625E0,4.713800141E0,3.641331328E0,-7.949905976E0,9.933791353E0
2.416699625E0,5.283242347E0,3.179187576E0,-7.761423318E0,9.912596797E0
2.426646625E0,5.803780196E0,2.790820482E0,-7.471678580E0,9.864001436E0
2.436592625E0,6.286138065E0,2.459010875E0,-7.117437884E0,9.809188972E0
2.446538625E0,6.811660080E0,2.077099692E0,-6.826424884E0,9.864741906E0
2.456484625E0,7.126021596E0,2.188318996E0,-6.542222722E0,9.918145087E0
2.466431625E0,7.389798265E0,2.332851496E0,-6.196238878E0,9.921929789E0
2.476377625E0,7.742745557E0,2.716310875E0,-5.833098135E0,1.006744692E1
2.486323625E0,7.923185370E0,3.412673036E0,-5.871164094E0,1.043521785E1
2.496270625E0,8.113064927E0,3.954985331E0,-6.239248658E0,1.097232680E1
2.506216625E0,8.375921829E0,3.840348914E0,-6.120541994E0,1.106188865E1
2.516162625E0,8.504664069E0,3.343363358E0,-5.740626758E0,1.079176469E1
2.526108625E0,8.583491553E0,3.004915699E0,-5.264307309E0,1.050803393E1
2.536055625E0,8.647779350E0,2.616871664E0,-4.945923493E0,1.030020700E1
2.546001625E0,8.862540565E0,2.290531249E0,-4.681199575E0,1.028128339E1
2.555947625E0,9.109305344E0,2.077253474E0,-4.286927378E0,1.027969709E1
2.565893625E0,9.575087526E0,1.918431402E0,-3.500977980E0,1.037398318E1
2.575840625E0,1.016699590E1,1.814795060E0,-2.574734874E0,1.064380320E1
2.585786625E0,1.041145279E1,2.304210518E0,-2.382200096E0,1.092623506E1
2.595732625E0,1.068478790E1,2.500861151E0,-2.245665271E0,1.120098261E1
2.605679625E0,1.119141990E1,3.188446350E0,-3.078563719E0,1.203709367E1
2.615625625E0,1.060700590E1,7.941510544E0,-7.482066743E0,1.521701306E1
2.625571625E0,-3.391550905E1,-2.607354736E0,2.581045423E1,4.269940984E1
2.635517625E0,-8.301807552E1,-2.546544745E1,9.717624284E1,1.303215717E2
2.645464625E0,-4.378415195E1,-2.118223803E1,6.464773777E1,8.090160177E1
2.655410625E0,-2.410080789E1,-1.466021861E1,2.807953643E1,3.980240340E1
2.665356625E0,-2.456610125E1,-1.533147429E1,1.702725570E1,3.359278004E1
2.675303625E0,-1.972688009E1,-1.201441200E1,7.254314770E0,2.420993549E1
2.685249625E0,-1.411728592E1,-7.177536736E0,3.650970463E0,1.625251921E1
2.695195625E0,-1.321718542E1,-8.361936459E0,5.169274267E0,1.647232128E1
2.705141625E0,-9.821735362E0,-9.632804807E0,3.974881067E0,1.431981472E1
2.715088625E0,-4.909144506E0,-7.263249316E0,-9.793144816E-1,8.821198743E0
2.725034625E0,-3.016275377E0,-6.101866572E0,-3.750447389E0,7.771521629E0
2.734980625E0,-1.975604015E0,-5.444314427E0,-3.373431787E0,6.702507951E0
2.744926625E0,-1.497971281E0,-4.711846294E0,-3.227449032E0,5.904391646E0
2.754873625E0,-1.810772175E0,-3.294550802E0,-3.641864009E0,5.234131668E0
2.764819625E0,-1.955579640E0,-1.276319123E0,-4.684724861E0,5.234494174E0
2.774765625E0,-1.509405511E0,5.404112189E-1,-5.335397757E0,5.571069781E0
2.784712625E0,-6.117547050E-1,2.258171588E0,-5.624418610E0,6.091606310E0
2.794658625E0,-6.661522293E-1,5.184451300E0,-5.935975801E0,7.909368040E0
2.804604625E0,-6.786851513E-1,5.317965453E0,-7.517485083E0,9.233306670E0
2.814550625E0,-2.082518014E-1,4.963663945E0,-8.298364361E0,9.671824008E0
2.824497625E0,8.144159836E-1,4.143335842E0,-8.824604999E0,9.782850233E0
2.834443625E0,1.843082135E0,3.090072209E0,-9.104351583E0,9.789520711E0
2.844389625E0,2.671785790E0,2.298848621E0,-9.245932555E0,9.894969080E0
2.854336625E0,3.185299378E0,1.945059038E0,-9.092842509E0,9.828996473E0
2.864282625E0,3.471111279E0,1.805387036E0,-9.045230970E0,9.855163072E0
2.874228625E0,3.732484158E0,1.644837404E0,-9.166639048E0,1.003315501E1
2.884174625E0,3.926098332E0,1.541764441E0,-9.084388019E0,1.001585700E1
2.894121625E0,4.079395369E0,1.446849221E0,-8.879713252E0,9.878468843E0
2.904067625E0,4.213115052E0,1.417775987E0,-8.749140834E0,9.813658467E0
2.914013625E0,4.323373951E0,1.475368284E0,-8.684841342E0,9.812988486E0
2.923960625E0,4.425689115E0,1.513606735E0,-8.597243035E0,9.787252796E0
2.933906625E0,4.528619991E0,1.534302809E0,-8.571414714E0,9.814868024E0
2.943852625E0,4.623375290E0,1.584851404E0,-8.533756306E0,9.834243730E0
2.953798625E0,4.754554650E0,1.629051969E0,-8.474138095E0,9.852442169E0
2.963745625E0,4.883569662E0,1.658452646E0,-8.462299238E0,9.910107276E0
2.973691625E0,5.023617786E0,1.682149218E0,-8.402872231E0,9.933510124E0
2.983637625E0,5.099014124E0,1.743260662E0,-8.278085632E0,9.877530284E0
2.993583625E0,5.109401118E0,1.829749606E0,-8.185875041E0,9.821533159E0
3.003530625E0,5.176140652E0,1.898412290E0,-8.118078330E0,9.813235809E0
3.013476625E0,5.275480168E0,2.044614608E0,-8.129976829E0,9.904931254E0
3.023422625E0,5.801009200E0,2.241996874E0,-8.279627543E0,1.035521559E1
3.033369625E0,6.126236597E0,2.315961229E0,-8.312321080E0,1.058249181E1
3.043315625E0,6.256368721E0,2.365915892E0,-8.236302014E0,1.061020162E1
3.053261625E0,6.308609499E0,2.545335073E0,-8.124387476E0,1.059636524E1
3.063207625E0,6.454526181E0,2.959700350E0,-8.117629264E0,1.078501920E1
3.073154625E0,6.369056261E0,2.825627788E0,-8.077393404E0,1.066739585E1
3.083100625E0,6.070745351E0,2.482743554E0,-7.849808076E0,1.022924491E1
3.093046625E0,5.818131602E0,2.282591608E0,-7.761720357E0,9.965198577E0
3.102993625E0,5.742204337E0,2.333553162E0,-7.714080752E0,9.895727505E0
3.112939625E0,5.703370639E0,2.601183584E0,-7.502367691E0,9.776508255E0
3.122885625E0,3.551375424E0,2.452846740E0,2.573264884E0,5.024979273E0
3.132831625E0,-3.671856133E0,3.666726370E0,4.792236680E1,4.820249630E1
3.142778625E0,-1.224864795E1,1.045200206E1,8.432395992E1,8.584756223E1
3.152724625E0,-8.654140536E0,-4.732434048E0,9.064020647E1,9.117530976E1
3.162670625E0,-1.156553528E1,-2.052194003E1,6.437593580E1,6.855051232E1
3.172616625E0,-1.957253581E1,-1.829955019E1,3.025013515E1,4.041074574E1
3.182563625E0,-3.202110240E1,-1.829380354E1,5.223814756E0,3.724650974E1
3.192509625E0,-3.332750837E1,-1.419258753E1,-5.031840726E0,3.657146123E1
3.202455625E0,-2.216900712E1,-8.618157941E0,-3.755681232E0,2.407992244E1
3.212402625E0,-1.505622129E1,-6.306898019E0,-1.929389377E0,1.643743610E1
3.222348625E0,-6.898072572E0,-4.695629334E0,2.219978453E0,8.634850571E0
3.232294625E0,-1.313228502E0,-4.111723748E0,2.678624693E0,5.079947984E0
3.242240625E0,1.174857360E0,-3.244296322E0,1.024972465E0,3.599488435E0
3.252187625E0,2.581177921E0,-1.990722137E0,3.012748629E-1,3.273563903E0
3.262133625E0,3.734405845E0,-1.856125519E-2,-3.087265545E-1,3.747191431E0
3.272079625E0,3.641929498E0,1.370665994E0,-1.349606370E0,4.118714981E0
3.282026625E0,2.952757658E0,2.363389018E0,-3.988779899E0,5.496794568E0
3.291972625E0,2.574995367E0,2.919326203E0,-6.103357612E0,7.239063528E0
3.301918625E0,2.008251359E0,3.758716814E0,-7.167989402E0,8.339130510E0
3.311864625E0,1.263671303E0,5.035544937E0,-7.699087906E0,9.285985815E0
3.321811625E0,1.228282200E0,4.511261362E0,-8.352607811E0,9.572158246E0
3.331757625E0,1.351978000E0,4.307748729E0,-8.709731770E0,9.810401170E0
3.341703625E0,1.718565385E0,3.930961753E0,-8.947045695E0,9.922477208E0
3.351650625E0,1.845904001E0,3.239324142E0,-9.055752450E0,9.793223929E0
3.361596625E0,2.146400307E0,2.573934682E0,-9.128795868E0,9.724561071E0
3.371542625E0,2.736091713E0,2.304398798E0,-9.206458586E0,9.877010245E0
3.381488625E0,3.347625686E0,2.110191278E0,-9.211605306E0,1.002562603E1
3.391435625E0,3.741283048E0,2.066410836E0,-9.054853733E0,1.001287315E1
3.401381625E0,4.057011643E0,2.049690576E0,-8.910179000E0,1.000259290E1
3.411327583E0,4.267241850E0,2.230181113E0,-8.862542903E0,1.008601643E1
3.421273584E0,4.405417695E0,2.361837460E0,-8.761109499E0,1.008677455E1
3.431220583E0,4.560351953E0,2.302380486E0,-8.717353615E0,1.010396060E1
3.441166583E0,4.595465945E0,2.462081832E0,-8.577569493E0,1.003767167E1
3.451112583E0,4.641751919E0,2.632625817E0,-8.420953576E0,9.969405133E0
3.461059583E0,4.801097317E0,2.620817950E0,-8.347514302E0,9.979990841E0
3.471005583E0,5.227306713E0,2.519897639E0,-8.505966244E0,1.029689668E1
3.480951583E0,5.435516707E0,2.712591169E0,-8.455880749E0,1.041176796E1
3.490897583E0,5.664351000E0,2.572077899E0,-8.376919949E0,1.043423427E1
3.500844583E0,5.834287459E0,2.565150703E0,-8.172692494E0,1.036396695E1
3.510790583E0,6.029300287E0,2.521063281E0,-7.948889730E0,1.029043585E1
3.520736584E0,5.986313311E0,2.698331856E0,-7.452924805E0,9.932926559E0
3.530683584E0,6.071075134E0,2.589602004E0,-7.273087256E0,9.821496325E0
3.540629583E0,6.237134305E0,2.502009252E0,-7.280464103E0,9.907928754E0
3.550575583E0,6.382596073E0,2.430943362E0,-7.282260368E0,9.983903762E0
3.560521584E0,6.347661883E0,2.376900033E0,-7.149578274E0,9.851849301E0
3.570468583E0,6.331546957E0,2.326524224E0,-6.922336763E0,9.665399531E0
3.580414583E0,6.358645878E0,2.294932595E0,-6.677826669E0,9.502234581E0
3.590360583E0,6.558855711E0,2.325651673E0,-6.470069250E0,9.502054517E0
3.600307583E0,6.858952360E0,2.296930150E0,-6.400508434E0,9.658551848E0
3.610253583E0,7.094278232E0,2.140692255E0,-6.537877071E0,9.882063730E0
3.620199583E0,6.399881612E0,2.134867259E0,-5.694230272E0,8.828386107E0
3.630145583E0,-3.617353066E0,2.118924825E0,3.846429434E0,5.689473175E0
3.640092583E0,-1.185772299E1,7.046419941E0,1.544473017E1,2.070742182E1
3.650038583E0,-4.716452438E0,5.671785150E0,9.440537364E1,9.469312880E1
3.659984584E0,-4.505706215E0,-1.177954571E1,1.176295132E2,1.183036832E2
3.669930583E0,-9.476022245E0,-1.907278949E1,6.306412467E1,6.656312881E1
3.679877583E0,-2.330029834E1,-1.597187421E1,2.729181123E1,3.927909913E1
3.689823583E0,-2.949455326E1,-1.261248509E1,1.423277779E0,3.210964297E1
3.699769584E0,-2.652152477E1,-1.312021520E1,-4.845146146E0,2.998344150E1
3.709716584E0,-1.697116804E1,-1.131288528E1,-7.374127142E0,2.168823804E1
3.719662583E0,-9.076608299E0,-8.614554886E0,-5.092383381E0,1.351028285E1
3.729608583E0,-3.059428706E0,-6.026735698E0,1.034666564E0,6.837556733E0
3.739554584E0,5.085399467E-1,-3.970901452E0,2.223359898E0,4.579301307E0
3.749501583E0,2.420368965E0,-2.450609449E0,4.968729973E-2,3.444726611E0
3.759447583E0,3.159106191E0,-9.172506729E-1,-4.952410394E-1,3.326644617E0
3.769393583E0,2.949253714E0,6.556269488E-1,7.132609069E-2,3.022090597E0
3.779339584E0,2.243550333E0,2.637608814E0,-9.504865390E-1,3.590810913E0
3.789286583E0,1.719981581E0,3.875783041E0,-4.177180111E0,5.952215092E0
3.799232583E0,1.746653363E0,4.386006986E0,-6.496035565E0,8.030338306E0
3.809178583E0,1.924738501E0,4.378416131E0,-7.756864829E0,9.112853455E0
3.819125583E0,2.195513118E0,4.198711021E0,-8.379565814E0,9.626347974E0
3.829071583E0,2.354115919E0,3.757207940E0,-8.714014855E0,9.777143149E0
3.839017584E0,2.184865046E0,3.006642966E0,-9.150724681E0,9.876704885E0
3.848963583E0,2.347962017E0,2.148008876E0,-9.822466264E0,1.032510103E1
3.858910583E0,3.047090788E0,1.659692840E0,-9.717815137E0,1.031868565E1
3.868856583E0,3.810645059E0,1.548119195E0,-8.815240683E0,9.727597705E0
3.878802584E0,4.408678395E0,1.624803089E0,-8.537790300E0,9.745270313E0
3.888749583E0,4.875808945E0,1.709351781E0,-8.623567200E0,1.005292533E1
3.898695583E0,5.165695771E0,1.783275644E0,-8.338083327E0,9.969358976E0
3.908641583E0,5.309735497E0,1.807925020E0,-8.075532820E0,9.832401245E0
3.918587584E0,5.465348032E0,1.817718521E0,-8.000609522E0,9.858188599E0
3.928534583E0,5.661254314E0,1.898983124E0,-8.151700405E0,1.010475912E1
3.938480583E0,5.842126821E0,2.156447139E0,-8.125744615E0,1.023759911E1
3.948426583E0,5.972453656E0,2.285697064E0,-8.028841048E0,1.026435104E1
3.958373583E0,6.097643713E0,2.348594393E0,-7.821229225E0,1.019160346E1
3.968319583E0,6.190401018E0,2.455962721E0,-7.606765049E0,1.011017765E1
3.978265584E0,6.396828196E0,2.591788278E0,-7.472980170E0,1.017262061E1
3.988211583E0,6.561461231E0,2.682479470E0,-7.453311891E0,1.028592863E1
3.998158583E0,6.554097247E0,2.819709236E0,-7.161017182E0,1.010876441E1
4.008104583E0,6.605601861E0,2.854006664E0,-6.987983453E0,1.003051558E1
4.018050584E0,6.794937043E0,2.804117051E0,-7.118796777E0,1.023286418E1
4.027997583E0,6.890944231E0,2.866046666E0,-7.344541985E0,1.047099006E1
4.037943583E0,7.117772929E0,2.984227080E0,-7.671789595E0,1.088230942E1
4.047889583E0,7.433785699E0,3.050316697E0,-7.847036496E0,1.123127702E1
4.057835584E0,7.268767918E0,3.031759096E0,-7.261793944E0,1.071261880E1
4.067782583E0,7.101746296E0,3.096303879E0,-6.931485316E0,1.039554649E1
4.077728583E0,7.008929933E0,3.253670578E0,-7.014221663E0,1.043603261E1
4.087674583E0,6.700220336E0,3.471272370E0,-7.008983143E0,1.029895767E1
4.097620583E0,6.216629874E0,3.515563567E0,-6.666560254E0,9.769785044E0
4.107567583E0,5.923070412E0,3.330961998E0,-6.413041356E0,9.343723581E0
4.117513584E0,5.930586423E0,3.283991607E0,-6.426240276E0,9.340932516E0
4.127459583E0,4.485823635E0,2.779986469E0,-3.958280822E0,6.596887563E0
4.137406583E0,-1.331865917E0,1.965664333E-1,9.223124905E0,9.320865743E0
4.147352583E0,-4.261477665E0,-3.030242036E-1,2.501525161E1,2.537744725E1
4.157298584E0,-4.625769725E0,5.928664443E0,6.167954142E1,6.213624254E1
4.167244583E0,-1.261609049E1,-8.297423544E0,1.069404381E2,1.080012513E2
4.177191583E0,-1.755829281E1,-2.597271914E1,8.587716751E1,9.142080554E1
4.187137583E0,-3.914455239E1,-2.486432328E1,2.398597092E1,5.220974387E1
4.197083584E0,-3.377104307E1,-1.720885853E1,-4.297319342E0,3.814570900E1
4.207030583E0,-1.997041896E1,-1.096852053E1,-7.567968773E0,2.400833662E1
4.216976583E0,-1.000499529E1,-7.419958203E0,-6.359000804E0,1.398544249E1
4.226922583E0,-2.708778492E0,-4.665898581E0,-3.149610897E0,6.247250539E0
4.236868584E0,1.222042636E0,-2.723048329E0,3.330587484E0,4.472269379E0
4.246815583E0,2.467402506E0,-1.728108772E0,6.666298299E0,7.315324194E0
4.256761583E0,2.689906019E0,-3.571217658E-1,4.137842383E0,4.948218864E0
4.266707583E0,2.095480999E0,1.163689909E0,2.365571199E0,3.367661194E0
4.276654583E0,1.744813244E0,2.269171663E0,-8.389175713E-1,2.982833549E0
4.286600583E0,1.864453708E0,2.623815525E0,-3.705466513E0,4.908266254E0
4.296546584E0,2.077616878E0,2.733953971E0,-5.914503071E0,6.839030837E0
4.306492583E0,2.055333724E0,3.754123241E0,-6.138782383E0,7.483480953E0
4.316439583E0,1.184590050E0,5.320066357E0,-5.791986362E0,7.953204741E0
4.326385583E0,7.460082382E-1,5.283662177E0,-6.610137547E0,8.495147596E0
4.336331584E0,1.332565244E0,4.968760378E0,-7.226228254E0,8.870326071E0
4.346277583E0,2.253626840E0,4.234479608E0,-7.571270696E0,8.962911995E0
4.356224583E0,3.557476408E0,3.102912694E0,-7.823578051E0,9.137400019E0
4.366170583E0,4.812123411E0,2.236703390E0,-7.920238958E0,9.533601572E0
4.376116584E0,5.738662094E0,1.696748546E0,-7.872343245E0,9.888629148E0
4.386063583E0,6.279070535E0,1.572594616E0,-7.690322930E0,1.005190765E1
4.396009583E0,6.630563040E0,1.683371725E0,-7.291802439E0,9.998424346E0
4.405955583E0,6.834602800E0,1.684611188E0,-6.942444752E0,9.886720863E0
4.415902250E0,7.022604232E0,1.659091308E0,-6.662233315E0,9.821145906E0
4.425849250E0,7.109010292E0,1.298284189E0,-5.604044572E0,9.144882980E0
4.435795250E0,7.332717161E0,1.101436212E0,-5.348625328E0,9.142740048E0
4.445741250E0,7.703026006E0,1.410502782E0,-5.966121122E0,9.844832603E0
4.455688250E0,7.933312747E0,1.432421216E0,-5.935758285E0,1.001111922E1
4.465634250E0,8.025049714E0,1.419330031E0,-5.790862527E0,9.997500160E0
4.475580250E0,8.073793858E0,1.467933988E0,-5.709905487E0,9.997199514E0
4.485526250E0,8.272115625E0,1.328094610E0,-5.264566925E0,9.894816679E0
4.495473250E0,8.330796527E0,1.312807064E0,-5.229756112E0,9.923506545E0
4.505419250E0,8.452712143E0,1.328721577E0,-5.728429466E0,1.029702616E1
4.515365250E0,9.106273563E0,1.349927382E0,-7.800503184E0,1.206624930E1
4.525312250E0,9.431734849E0,1.404678809E0,-8.173607583E0,1.255940308E1
4.535258250E0,9.084688566E0,1.383625909E0,-5.926557691E0,1.093481015E1
4.545204250E0,8.907387539E0,1.291315038E0,-4.363125662E0,1.000229538E1
4.555150250E0,8.983272119E0,1.218664553E0,-4.205658098E0,9.993592012E0
4.565097250E0,9.027299899E0,1.189389737E0,-4.136846017E0,1.000101427E1
4.575043250E0,9.095873705E0,1.167623769E0,-4.099715028E0,1.004519423E1
4.584989250E0,9.241661164E0,1.123790190E0,-4.322764963E0,1.026438027E1
4.594935250E0,9.521287880E0,1.051711928E0,-4.309800809E0,1.050406606E1
4.604882250E0,9.717738538E0,9.858845593E-1,-4.227640412E0,1.064327741E1
4.614828250E0,9.892071519E0,8.408036638E-1,-4.052845794E0,1.072313335E1
4.624774250E0,1.007616058E1,7.230492190E-1,-4.508225780E0,1.106236466E1
4.634721250E0,9.368023002E0,9.300577562E-1,-4.278313845E0,1.034063981E1
4.644667250E0,8.639433035E0,7.780770001E-1,-3.481370219E0,9.346932416E0
4.654613250E0,8.640383207E0,6.759101359E-1,-3.179465611E0,9.231580474E0
4.664559250E0,-3.210608466E0,1.717670469E0,4.134083793E-1,3.664601622E0
4.674506250E0,-7.123565532E1,8.887153834E-2,2.833875987E1,7.666558418E1
4.684452250E0,-6.899368783E1,-7.487575405E0,1.129915485E2,1.326019712E2
4.694398250E0,-3.584777292E1,-1.192035719E1,9.183276715E1,9.929962166E1
4.704345250E0,-3.218234054E1,-1.080440907E1,3.060183113E1,4.570459897E1
4.714291250E0,-2.752906551E1,-9.192525841E0,1.057979880E1,3.089148948E1
4.724237250E0,-1.517460752E1,-5.693796408E0,-1.553736176E0,1.628195710E1
4.734183250E0,-7.841192788E0,-3.557104526E0,-4.629949899E0,9.776181925E0
4.744130250E0,-5.912233767E0,-3.193489573E0,-7.165629466E0,9.823397040E0
4.754076250E0,-4.632599273E0,-3.384567225E0,-9.215197835E0,1.085523572E1
4.764022250E0,-3.540475044E0,-3.072745155E0,-8.201486523E0,9.446751161E0
4.773969250E0,-2.369855454E0,-2.971254155E0,-6.863371101E0,7.845408147E0
4.783915250E0,-5.217394513E-1,-2.112915934E0,-5.996840054E0,6.379554564E0
4.793861250E0,7.253564572E-1,-9.017847875E-1,-5.618997656E0,5.736941036E0
4.803807250E0,1.432270212E0,1.338238359E-1,-5.667299166E0,5.847015188E0
4.813754250E0,2.302397881E0,8.843331876E-1,-6.262675527E0,6.730838428E0
4.823700250E0,3.590243036E0,1.661892124E0,-6.851938625E0,7.912066317E0
4.833646250E0,4.202453531E0,2.221895170E0,-6.891169349E0,8.371717197E0
4.843593250E0,4.408012397E0,2.429562542E0,-7.052760662E0,8.664570410E0
4.853539250E0,4.784733299E0,2.451004575E0,-7.236341014E0,9.014750548E0
4.863485250E0,5.380668654E0,2.353614228E0,-7.151532998E0,9.253946149E0
4.873431250E0,5.946514823E0,2.428559453E0,-7.079076641E0,9.558884121E0
4.883378250E0,6.050726824E0,2.211160706E0,-7.078387839E0,9.571003143E0
4.893324250E0,6.141696635E0,1.951327984E0,-7.019954858E0,9.529317115E0
4.903270250E0,6.218326735E0,1.849470949E0,-6.939811751E0,9.499953543E0
4.913216250E0,6.212440928E0,1.946291338E0,-6.920904195E0,9.501651811E0
4.923163250E0,6.193062671E0,2.059454988E0,-6.945275390E0,9.530594437E0
4.933109250E0,6.190098717E0,2.178120429E0,-6.998913068E0,9.594077072E0
4.943055250E0,6.149937701E0,2.341556392E0,-6.894130379E0,9.530669113E0
4.953002250E0,5.961244544E0,2.822502159E0,-6.164541122E0,9.027985500E0
4.962948250E0,6.024945281E0,2.835906316E0,-6.372451154E0,9.216857598E0
4.972894250E0,6.258847940E0,2.494756073E0,-6.936819146E0,9.670390130E0
4.982840250E0,6.281236344E0,2.541941057E0,-7.096000237E0,9.811657032E0
4.992787250E0,6.206934605E0,2.867552324E0,-7.138594864E0,9.884757466E0
5.002733250E0,6.359593127E0,3.034478636E0,-7.057802131E0,9.973216946E0
5.012679250E0,6.694259684E0,3.334835779E0,-6.764126894E0,1.008402970E1
5.022626250E0,6.913413327E0,3.345695520E0,-6.575214466E0,1.011050976E1
5.032572250E0,7.046425788E0,3.205954083E0,-6.561160684E0,1.014786123E1
5.042518250E0,7.237306974E0,3.145476331E0,-6.332626353E0,1.011804280E1
5.052464250E0,7.351677343E0,3.127779733E0,-5.788283320E0,9.865819256E0
5.062411250E0,7.446487606E0,3.074669181E0,-5.531596985E0,9.772529531E0
5.072357250E0,7.465668812E0,3.004930317E0,-5.742117214E0,9.886239280E0
5.082303250E0,7.402399600E0,2.968541340E0,-5.916361316E0,9.930311614E0
5.092249250E0,7.463555628E0,2.843109501E0,-5.794862607E0,9.867541076E0
5.102196250E0,7.603826239E0,2.626402918E0,-5.436775028E0,9.709515356E0
5.112142250E0,7.838052249E0,2.363246638E0,-5.494722104E0,9.859613011E0
5.122088250E0,8.315583242E0,2.054318940E0,-5.521716360E0,1.019109918E1
5.132035250E0,8.441075014E0,2.129846986E0,-5.575456365E0,1.033797414E1
5.141981250E0,8.419063756E0,2.270288627E0,-5.822053914E0,1.048480600E1
5.151927250E0,8.265357413E0,2.215634995E0,-5.895871503E0,1.039165398E1
5.161873250E0,8.302693055E0,2.271620184E0,-6.875096523E0,1.101643874E1
5.171820250E0,-9.567786108E0,1.849307958E0,2.823562902E1,2.986993835E1
5.181766250E0,-4.046542671E1,7.767895894E-1,8.472175770E1,9.389265354E1
5.191712250E0,-3.754395897E1,-7.141519057E0,1.160166078E2,1.221491033E2
5.201659250E0,-3.388778857E1,-1.262788081E1,6.714628109E1,7.626577642E1
5.211605250E0,-2.926562775E1,-1.176579072E1,1.883097204E1,3.673576333E1
5.221551250E0,-3.069443700E1,-1.210601097E1,-2.182744553E0,3.306763278E1
5.231497250E0,-3.241252437E1,-1.141452041E1,-1.753485249E1,3.857893291E1
5.241444250E0,-2.410348592E1,-1.250991090E1,-1.260417386E1,2.993895627E1
5.251390250E0,-1.417696728E1,-1.214916576E1,-1.031630105E1,2.133107351E1
5.261336250E0,-6.241381722E0,-7.656989708E0,-1.049387865E1,1.441200285E1
5.271283250E0,-1.451154379E0,-3.760695219E0,-1.002283748E1,1.080305275E1
5.281229250E0,7.975350720E-1,-2.611207466E0,-7.912214239E0,8.370041863E0
5.291175250E0,1.993815753E0,-1.486497290E0,-5.886332356E0,6.390139596E0
5.301121250E0,2.820390437E0,-3.891672850E-1,-3.228563511E0,4.304610986E0
5.311068250E0,3.548040172E0,5.846303487E-1,1.914528093E0,4.073794242E0
5.321014250E0,4.682129282E0,1.765297941E0,1.766432154E-1,5.006976559E0
5.330960250E0,5.702674236E0,2.466698209E0,-4.173095246E0,7.484638764E0
5.340907250E0,6.035184340E0,3.121950644E0,-6.081817054E0,9.119129592E0
5.350853250E0,6.151821089E0,2.978363492E0,-6.868740014E0,9.689950526E0
5.360799250E0,6.335104403E0,2.746084605E0,-6.570688137E0,9.531446430E0
5.370745250E0,6.302120844E0,2.706825814E0,-6.532803442E0,9.472125101E0
5.380692250E0,6.396245813E0,2.720341946E0,-6.532446762E0,9.538610040E0
5.390638250E0,6.550991791E0,2.788137195E0,-6.277425714E0,9.491853141E0
5.400584250E0,6.638477247E0,2.720415036E0,-6.169092595E0,9.461910038E0
5.410529625E0,6.700720273E0,2.660211226E0,-6.173502565E0,9.491496713E0
5.420476625E0,6.814196602E0,2.522926204E0,-6.321744685E0,9.631349221E0
5.430422625E0,6.939617624E0,2.385940852E0,-6.425256189E0,9.753713324E0
5.440368625E0,6.928022010E0,2.430451904E0,-6.412726775E0,9.748212663E0
5.450315625E0,6.961386223E0,2.465396034E0,-6.406950311E0,9.776916080E0
5.460261625E0,7.048755904E0,2.516207753E0,-6.319828552E0,9.795738572E0
5.470207625E0,7.098503430E0,2.594314275E0,-6.208311040E0,9.780712830E0
5.480153625E0,7.140581748E0,2.652085935E0,-6.179410592E0,9.808495439E0
5.490100625E0,7.170081536E0,2.712180402E0,-6.193895899E0,9.855472498E0
5.500046625E0,7.197523103E0,2.750573512E0,-6.195215616E0,9.886894861E0
5.509992625E0,7.235240568E0,2.734034663E0,-6.249271370E0,9.943693694E0
5.519939625E0,7.288802233E0,2.717971777E0,-6.277310523E0,9.995930971E0
5.529885625E0,7.457538843E0,2.663633309E0,-6.201086805E0,1.005799710E1
5.539831625E0,7.805850463E0,2.556979219E0,-6.060257785E0,1.020765245E1
5.549777625E0,8.152976267E0,2.467577923E0,-5.900196104E0,1.036205949E1
5.559724625E0,8.401855985E0,2.412856170E0,-5.818936179E0,1.050109885E1
5.569670625E0,8.492719377E0,2.345373454E0,-5.833491653E0,1.056677264E1
5.579616625E0,8.562956716E0,2.228039424E0,-5.876927109E0,1.062198944E1
5.589562625E0,8.580318854E0,1.988799719E0,-5.966652049E0,1.063852117E1
5.599509625E0,8.585894759E0,1.623790498E0,-5.931933621E0,1.056135033E1
5.609455625E0,8.522295179E0,1.297503585E0,-5.772111091E0,1.037450226E1
5.619401625E0,8.401939600E0,1.282693757E0,-5.853620108E0,1.032001748E1
5.629348625E0,8.162000275E0,1.588168968E0,-6.176730813E0,1.035821088E1
5.639294625E0,7.938601554E0,1.920229421E0,-6.545265028E0,1.046657394E1
5.649240625E0,7.867216991E0,2.309121302E0,-6.579616835E0,1.051268291E1
5.659186625E0,7.931025901E0,3.114872004E0,-6.825440798E0,1.091742834E1
5.669133625E0,8.331597596E0,6.849334275E0,-1.070404863E1,1.519557684E1
5.679079625E0,-9.819921556E0,9.383195357E0,3.774035992E1,4.010997359E1
5.689025625E0,-4.823128222E1,5.692340451E0,1.129279776E2,1.229283834E2
5.698972625E0,-3.150383665E1,-7.222658529E0,1.125944898E2,1.171416990E2
5.708918625E0,-2.257440862E1,-1.429126164E1,5.426863529E1,6.048908050E1
5.718864625E0,-2.472484380E1,-1.560218634E1,1.904620337E1,3.489274971E1
5.728810625E0,-3.280620337E1,-2.020619039E1,-3.895964706E-1,3.853166094E1
5.738757625E0,-3.823222303E1,-1.989119152E1,-1.908038152E1,4.713197786E1
5.748703625E0,-2.645630259E1,-1.704549317E1,-1.593243942E1,3.527502529E1
5.758649625E0,-1.458280381E1,-1.345820181E1,-9.196651636E0,2.187143718E1
5.768595625E0,-6.115343235E0,-8.685542423E0,-5.530522267E0,1.197592362E1
5.778542625E0,-1.409236860E0,-5.167164007E0,-5.901073771E0,7.969203477E0
5.788488625E0,2.123347952E0,-2.622544048E0,-5.486632481E0,6.441232785E0
5.798434625E0,2.855700018E0,-4.575105648E-1,-9.069323838E-2,2.893538279E0
5.808381625E0,2.546427333E0,6.849792404E-1,3.867613311E0,4.681017138E0
5.818327625E0,3.754557397E0,2.342489023E0,-1.458418375E-1,4.427778891E0
5.828273625E0,5.809249681E0,3.510288209E0,-3.965645975E0,7.861033848E0
5.838219625E0,5.576129379E0,3.669907548E0,-5.739780082E0,8.803778487E0
5.848166625E0,5.488436347E0,3.258833085E0,-6.557093360E0,9.150868809E0
5.858112625E0,5.531933200E0,2.913643586E0,-6.396749259E0,8.944831186E0
5.868058625E0,5.426876861E0,2.861806850E0,-6.374367871E0,8.847231017E0
5.878005625E0,5.452273073E0,3.122216692E0,-6.446564612E0,9.001872807E0
5.887951625E0,5.625327267E0,3.903016448E0,-6.324084740E0,9.320509217E0
5.897897625E0,5.756038265E0,3.845494464E0,-6.744601287E0,9.664856476E0
5.907843625E0,5.778499759E0,3.163943008E0,-7.228699872E0,9.780373033E0
5.917790625E0,5.715957940E0,2.726204072E0,-7.364118463E0,9.712600298E0
5.927736625E0,5.777732604E0,2.520660993E0,-7.319258625E0,9.659579323E0
5.937682625E0,5.807842841E0,2.458309793E0,-7.216656362E0,9.584072963E0
5.947629625E0,5.827066147E0,2.439439074E0,-7.254362717E0,9.619321250E0
5.957575625E0,5.870682283E0,2.435580204E0,-7.237929702E0,9.632475683E0
5.967521625E0,5.897992873E0,2.422054718E0,-7.190786526E0,9.610415176E0
5.977467625E0,5.915384831E0,2.387013670E0,-7.145495748E0,9.578503090E0
5.987414625E0,6.036227483E0,2.331186063E0,-7.137848759E0,9.634280232E0
5.997360625E0,6.191849958E0,2.369111542E0,-7.129840413E0,9.735826607E0
6.007306625E0,6.358921282E0,2.408365509E0,-7.138449268E0,9.858679539E0
6.017252625E0,6.427246581E0,2.429215656E0,-7.143383149E0,9.911534197E0
6.027199625E0,6.461404846E0,2.458378206E0,-7.205544314E0,9.985651949E0
6.037145625E0,7.088476624E0,2.556072023E0,-7.532348120E0,1.065440159E1
6.047091625E0,8.055610186E0,2.615012834E0,-7.821845521E0,1.152876468E1
6.057038625E0,8.510620043E0,2.612974787E0,-7.515690572E0,1.165091823E1
6.066984625E0,7.963046424E0,2.570036636E0,-6.942257642E0,1.087244857E1
6.076930625E0,7.351523561E0,2.291894820E0,-6.487936002E0,1.006930951E1
6.086876625E0,7.719858386E0,1.766777432E0,-6.390719610E0,1.017639490E1
6.096823625E0,7.904801139E0,1.401831361E0,-6.329154861E0,1.022297479E1
6.106769625E0,7.977169204E0,1.548905792E0,-6.669416034E0,1.051263278E1
6.116715625E0,7.894827543E0,1.373121532E0,-6.804025955E0,1.051230393E1
6.126662625E0,7.789651337E0,8.148077470E-1,-6.630213377E0,1.026169133E1
6.136608625E0,7.729537282E0,3.995747441E-1,-6.308927003E0,9.985387649E0
6.146554625E0,7.556832751E0,1.408869070E-1,-6.529274647E0,9.987842498E0
6.156500625E0,7.499997230E0,8.508520308E-1,-1.072983017E1,1.311880952E1
6.166447625E0,7.868415670E0,3.363494152E0,-1.966030837E1,2.144184654E1
6.176393625E0,8.384870408E0,-1.087642630E0,6.114759682E0,1.043452463E1
6.186339625E0,-2.637059878E1,-1.108274121E1,1.081939501E2,1.119114225E2
6.196286625E0,-1.511258728E1,-8.392531430E0,1.151328924E2,1.164233988E2
6.206232625E0,-1.382927079E1,-7.562174767E0,5.774036111E1,5.985302431E1
6.216178625E0,-2.326846142E1,-9.146477848E0,2.634204799E1,3.631780344E1
6.226124625E0,-2.410544824E1,-9.493445778E0,8.717897406E0,2.733495716E1
6.236071625E0,-2.609615620E1,-9.961164558E0,-7.194716440E0,2.884437748E1
6.246017625E0,-2.023601119E1,-1.125625266E1,-1.039882631E1,2.538375388E1
6.255963625E0,-1.380957971E1,-1.138144973E1,-6.504992330E0,1.904092474E1
6.265910625E0,-8.173294172E0,-9.427112625E0,-1.802158057E0,1.260638583E1
6.275856625E0,-4.222849204E0,-6.820406930E0,1.383379887E0,8.140279234E0
6.285802625E0,-2.211133370E0,-4.333965597E0,8.320044082E-1,4.936051044E0
6.295748625E0,-5.992279226E-1,-2.693913700E0,-2.479535186E-1,2.770870996E0
6.305695625E0,1.127945441E0,-1.189970658E0,-5.781206435E-1,1.738538054E0
6.315641625E0,2.534911827E0,2.273014453E-1,-1.101059359E0,2.773044469E0
6.325587625E0,3.651443503E0,1.270226324E0,-2.704065928E0,4.717890113E0
6.335533625E0,4.256273058E0,2.186825617E0,-4.438438969E0,6.526699557E0
6.345480625E0,4.389806507E0,2.693384820E0,-6.238037699E0,8.089365692E0
6.355426625E0,4.084587112E0,3.002337661E0,-7.662698345E0,9.187754308E0
6.365372625E0,3.852077259E0,2.995081559E0,-8.531221538E0,9.828059508E0
6.375319625E0,4.028576633E0,2.702197743E0,-8.179645418E0,9.509884410E0
6.385265625E0,4.218164999E0,2.740002916E0,-7.486400115E0,9.019241577E0
6.395211625E0,4.474844903E0,2.758780664E0,-7.407424697E0,9.083228957E0
6.405157625E0,4.553720334E0,3.256200376E0,-6.795349272E0,8.804316072E0
6.415104708E0,4.873157818E0,3.306731429E0,-6.647411208E0,8.880890475E0
6.425050708E0,5.329187429E0,2.953529198E0,-7.015314508E0,9.291835719E0
6.434996708E0,5.746084549E0,2.863440562E0,-7.272610123E0,9.700909107E0
6.444943708E0,6.187927061E0,2.869212933E0,-7.225806670E0,9.936554041E0
6.454889708E0,6.366559500E0,2.816651142E0,-6.810045079E0,9.738753385E0
6.464835708E0,6.475871442E0,2.750546615E0,-6.504931519E0,9.582095370E0
6.474781708E0,6.643661388E0,2.699038492E0,-6.499363216E0,9.678055984E0
6.484728708E0,6.781486108E0,2.774327241E0,-6.442251706E0,9.756436466E0
6.494674708E0,6.927258364E0,2.756987323E0,-6.380600418E0,9.813253754E0
6.504620709E0,7.075063112E0,2.785799478E0,-6.355793021E0,9.910262443E0
6.514567709E0,7.205850708E0,2.871762319E0,-6.305298806E0,9.996404167E0
6.524513708E0,7.268473803E0,2.922746531E0,-6.225910574E0,1.000675378E1
6.534459708E0,7.360801923E0,2.913516701E0,-6.169774965E0,1.003673790E1
6.544405709E0,7.429094478E0,2.900153475E0,-6.150439977E0,1.007125845E1
6.554352708E0,7.538391802E0,2.729626739E0,-6.085591432E0,1.006541783E1
6.564298708E0,7.805476241E0,2.463700342E0,-5.895498451E0,1.008722859E1
6.574244708E0,8.388253022E0,2.151573339E0,-5.408195007E0,1.020983006E1
6.584190709E0,8.817193068E0,2.015294184E0,-5.088477441E0,1.037771203E1
6.594137708E0,8.988557417E0,1.879481052E0,-4.980316815E0,1.044653862E1
6.604083708E0,8.981160690E0,1.695018355E0,-4.939629550E0,1.038914215E1
6.614029708E0,9.029877936E0,1.491952742E0,-5.014979110E0,1.043621742E1
6.623976708E0,9.157733738E0,1.316022887E0,-5.161557112E0,1.059422839E1
6.633922708E0,9.128349141E0,1.225212996E0,-5.256529927E0,1.060466934E1
6.643868709E0,8.853161631E0,1.177052112E0,-5.105764149E0,1.028750456E1
6.653814708E0,8.878778867E0,1.378782222E0,-5.245248894E0,1.040415256E1
6.663761708E0,9.616260111E0,3.226955819E0,-7.794427927E0,1.279213857E1
6.673707708E0,9.522427502E0,6.613097992E0,-3.740991272E0,1.218214703E1
6.683653709E0,-2.555856787E1,-3.379606155E0,6.920418291E1,7.385039649E1
6.693600708E0,-3.390432216E1,-1.144064460E1,1.047104878E2,1.106556716E2
6.703546708E0,-2.212164936E1,-1.429516056E1,6.013490819E1,6.565002794E1
6.713492708E0,-2.558545571E1,-1.348873480E1,3.140974560E1,4.269816892E1
6.723438709E0,-2.719406216E1,-1.432339092E1,1.759043846E1,3.541327533E1
6.733385708E0,-2.584989954E1,-1.374287233E1,6.903146201E0,3.007885094E1
6.743331708E0,-2.078461333E1,-1.268783348E1,4.860901469E-1,2.435605784E1
6.753277708E0,-1.709462615E1,-1.055257300E1,-2.734782522E0,2.027466586E1
6.763224708E0,-1.375192616E1,-9.616805656E0,-5.979676722E0,1.781445923E1
6.773170708E0,-1.024859965E1,-8.772586999E0,-6.256416083E0,1.487060253E1
6.783116709E0,-6.145062878E0,-5.792790939E0,-4.189534693E0,9.427111200E0
6.793062708E0,-4.671304332E0,-3.916154265E0,-4.632482328E0,7.656189712E0
6.803009708E0,-4.438759104E0,-1.676133895E0,-4.648133571E0,6.642074443E0
6.812955708E0,-3.275980337E0,3.277814609E-1,-4.182867113E0,5.323144291E0
6.822901709E0,-1.693391660E0,1.987015149E0,-3.868105062E0,4.666694900E0
6.832847708E0,2.283776253E-2,3.097109040E0,-3.991427518E0,5.052138122E0
6.842794708E0,1.897302196E0,3.645586932E0,-4.620339416E0,6.183655554E0
6.852740708E0,3.077692484E0,3.665667440E0,-5.474655629E0,7.271943555E0
6.862686709E0,3.755722747E0,3.507277477E0,-6.181877532E0,8.038784639E0
6.872633708E0,4.150881674E0,3.280953687E0,-6.870265553E0,8.671506474E0
6.882579708E0,4.238099619E0,3.486361402E0,-7.445322255E0,9.249271739E0
6.892525708E0,4.383700844E0,3.445892530E0,-8.115121393E0,9.846126327E0
6.902471709E0,4.806153404E0,2.709051265E0,-8.265600073E0,9.937716733E0
6.912418708E0,5.083906088E0,2.248897320E0,-8.017235495E0,9.756008674E0
6.922364709E0,5.180952911E0,1.992542375E0,-7.647033654E0,9.449318594E0
6.932310708E0,5.167220725E0,1.836535300E0,-7.439058133E0,9.241894710E0
6.942257708E0,5.136421101E0,1.881377743E0,-7.593008305E0,9.358214523E0
6.952203708E0,5.139887331E0,1.883453504E0,-7.532170365E0,9.311252831E0
6.962149709E0,5.182242222E0,1.888821394E0,-7.521688646E0,9.327329778E0
6.972095708E0,5.335191350E0,1.914248889E0,-7.699373835E0,9.560803994E0
6.982042708E0,5.475024004E0,1.963456571E0,-7.734247799E0,9.677274335E0
6.991988708E0,5.533111998E0,2.067494471E0,-7.575688852E0,9.606296027E0
7.001934709E0,5.567286050E0,2.192008004E0,-7.269396493E0,9.415078249E0
7.011881708E0,5.737332437E0,2.116234229E0,-7.105079209E0,9.374304314E0
7.021827708E0,6.004480026E0,1.979297555E0,-7.231286681E0,9.605358205E0
7.031773708E0,6.088594562E0,1.952007138E0,-7.425541125E0,9.798978345E0
7.041719709E0,6.052825974E0,2.034204810E0,-7.559045337E0,9.895143147E0
7.051666708E0,6.148323870E0,1.938129356E0,-7.508714259E0,9.896414585E0
7.061612708E0,6.282520977E0,1.835250666E0,-7.305328803E0,9.808467962E0
7.071558708E0,6.470942239E0,1.796057365E0,-7.134507076E0,9.797964418E0
7.081505708E0,6.613088636E0,1.747208263E0,-7.065557878E0,9.834011702E0
7.091451708E0,6.769536738E0,1.691049265E0,-7.027741596E0,9.903303853E0
7.101397709E0,6.940703452E0,1.628742505E0,-6.976138163E0,9.974601256E0
7.111343708E0,7.127344236E0,1.576842034E0,-6.935030483E0,1.006876926E1
7.121290708E0,7.309089732E0,1.507834364E0,-6.912884154E0,1.017272454E1
7.131236708E0,7.422996417E0,1.415323519E0,-7.048165335E0,1.033347236E1
7.141182709E0,7.361150417E0,1.385902376E0,-7.326171788E0,1.047759772E1
7.151129708E0,7.062472302E0,1.661494221E0,-7.337239398E0,1.031863169E1
7.161075708E0,6.762244676E0,1.861281009E0,-7.397454025E0,1.019385335E1
7.171021708E0,6.795014226E0,2.297560187E0,-9.458066030E0,1.187038391E1
7.180967709E0,6.637098473E0,3.012863527E0,-7.399941430E0,1.038689347E1
7.190914708E0,-1.186672536E1,-4.940942835E0,8.252973478E1,8.352478201E1
7.200860708E0,-1.519819168E1,-1.351278206E1,1.195106513E2,1.212286108E2
7.210806708E0,-6.572468029E0,-1.035292801E1,6.483590585E1,6.598541613E1
7.220752708E0,-2.328773385E1,-8.984530440E0,3.375326753E1,4.198003578E1
7.230699708E0,-3.165164491E1,-1.310436340E1,2.176819453E1,4.058824040E1
7.240645709E0,-2.516598815E1,-6.331032987E0,9.401613502E0,2.760071149E1
7.250591708E0,-3.162977632E1,-4.664199380E0,-2.888373089E0,3.210202805E1
7.260538708E0,-2.897567134E1,-6.304046332E0,-7.457398510E0,3.057684291E1
7.270484708E0,-1.693431070E1,-7.378839414E0,-4.082209049E0,1.891778477E1
7.280430709E0,-8.186729904E0,-6.523336800E0,6.259023356E-1,1.048657348E1
7.290376708E0,-2.604961470E0,-5.061216552E0,1.186571379E0,5.814609952E0
7.300323708E0,5.642843771E-1,-3.884259165E0,8.735594004E-1,4.021068533E0
7.310269708E0,2.169600012E0,-2.866964971E0,6.928342438E-1,3.661512208E0
7.320215709E0,3.691829929E0,-1.136053775E0,-3.473936069E-1,3.878261044E0
7.330162708E0,4.334801457E0,6.725891367E-1,-1.989888763E0,4.816901193E0
7.340108708E0,4.050710391E0,2.402173892E0,-3.492712648E0,5.863252998E0
7.350054708E0,3.531194344E0,3.563637327E0,-5.537548866E0,7.472167820E0
7.360000708E0,3.050407914E0,4.269704989E0,-7.751215249E0,9.360379639E0
7.369947708E0,2.087143747E0,6.145578017E0,-8.414208813E0,1.062653321E1
7.379893709E0,1.470125670E0,6.653559555E0,-8.688765408E0,1.104200021E1
7.389839708E0,1.931164591E0,5.105847180E0,-8.994239742E0,1.052118913E1
7.399786708E0,2.368483112E0,4.074292797E0,-9.153462932E0,1.029540954E1
7.409732708E0,2.823032501E0,2.999126955E0,-9.227622584E0,1.010511225E1
7.419679208E0,2.985890613E0,1.861215228E0,-9.434345046E0,1.006908791E1
7.429625208E0,3.333792928E0,1.412073783E0,-9.259091129E0,9.941775303E0
7.439572209E0,3.937331418E0,1.259744898E0,-8.864419860E0,9.780975174E0
7.449518208E0,4.410398061E0,1.307883709E0,-8.531094654E0,9.692355072E0
7.459464208E0,4.686493936E0,1.449734968E0,-8.380534113E0,9.710731636E0
7.469411208E0,4.900556116E0,1.434993845E0,-8.386849106E0,9.819057771E0
7.479357209E0,5.055415530E0,1.418430729E0,-8.297497219E0,9.819248037E0
7.489303208E0,5.211635005E0,1.417517248E0,-8.199098520E0,9.818131753E0
7.499249208E0,5.294064374E0,1.374708613E0,-7.719728578E0,9.461033278E0
7.509196208E0,5.243675993E0,1.258028594E0,-6.713714540E0,8.611198336E0
7.519142208E0,5.477785644E0,1.157879238E0,-6.704146741E0,8.734552273E0
7.529088208E0,5.847313886E0,1.224539105E0,-7.306602327E0,9.438061944E0
7.539034208E0,6.104071557E0,8.241118366E-1,-7.682557243E0,9.846854101E0
7.548981208E0,6.252490847E0,4.494243041E-1,-7.695764934E0,9.925745409E0
7.558927208E0,6.376033158E0,3.755140364E-1,-7.669313300E0,9.980640065E0
7.568873208E0,6.466871408E0,2.902361968E-1,-7.594223356E0,9.978822137E0
7.578820209E0,6.584895701E0,1.595573772E-1,-7.458572046E0,9.950708865E0
7.588766208E0,6.690144414E0,3.389338553E-3,-7.288739083E0,9.893622248E0
7.598712208E0,6.789212619E0,-1.111944535E-1,-7.029934301E0,9.773727461E0
7.608659208E0,6.906781415E0,-2.278955224E-1,-6.923200396E0,9.781935882E0
7.618605209E0,7.158704608E0,-3.011052936E-2,-7.308888588E0,1.023072875E1
7.628551208E0,7.399715143E0,1.788628185E-1,-7.956761252E0,1.086728235E1
7.638497208E0,7.520403428E0,-4.456893951E-2,-8.620804975E0,1.144013691E1
7.648444208E0,7.533854948E0,-4.444150675E-1,-8.637307572E0,1.146994147E1
7.658390208E0,7.467273288E0,-6.901308567E-1,-8.073598561E0,1.101904917E1
7.668336208E0,7.380318759E0,-7.866891447E-1,-7.201070609E0,1.034134434E1
7.678282208E0,7.394852598E0,-5.837425221E-1,-7.353510445E0,1.044503308E1
7.688229208E0,7.463001312E0,3.251691442E-1,-1.029927863E1,1.272309962E1
7.698175208E0,7.865230107E0,2.227286888E0,-1.820147718E1,1.995285501E1
7.708121208E0,6.333721536E0,-1.278030311E0,-5.407341898E0,8.425481374E0
7.718068209E0,-3.230438363E1,-1.464706939E1,1.420821387E2,1.464426303E2
7.728014208E0,-1.241315234E1,-1.183730568E1,1.236561214E2,1.248400758E2
7.737960208E0,-2.029178661E1,-1.352680602E1,4.677593831E1,5.275148803E1
7.747906209E0,-2.736247600E1,-1.043667651E1,2.671800759E1,3.964191265E1
7.757853209E0,-1.783952985E1,-5.715423505E0,7.591476919E0,2.021250635E1
7.767799208E0,-1.473908351E1,-8.801071125E-1,4.349613331E0,1.539267057E1
7.777745208E0,-1.396622194E1,-6.172154197E-1,-5.863389051E-1,1.399214434E1
7.787692208E0,-1.417371389E1,-1.729234215E0,-2.665308829E0,1.452543588E1
7.797638208E0,-9.892131160E0,-1.463731155E0,1.002893963E0,1.005000319E1
7.807584208E0,-4.851831268E0,-1.802024010E0,3.702592607E0,6.363705618E0
7.817530208E0,-1.230539517E0,-2.241181919E0,3.176277709E0,4.077482554E0
7.827477208E0,1.642713842E0,-2.153862085E0,2.163861555E0,3.466976706E0
7.837423208E0,3.400796757E0,-1.361380323E0,8.353659725E-1,3.757207909E0
7.847369208E0,4.107835349E0,4.454708554E-2,-1.417952719E0,4.345904464E0
7.857316209E0,4.177071937E0,8.560686973E-1,-4.233302271E0,6.008463340E0
7.867262208E0,3.794394185E0,1.507947215E0,-6.618261083E0,7.776420243E0
7.877208208E0,3.031060939E0,2.349904754E0,-7.687128012E0,8.590769455E0
7.887154208E0,2.925376609E0,2.665663755E0,-8.052943271E0,8.972930786E0
7.897101209E0,2.806473186E0,3.107385229E0,-8.197294069E0,9.204768588E0
7.907047208E0,1.842189850E0,4.534769800E0,-8.239015707E0,9.583276079E0
7.916993208E0,1.308910918E0,4.820873477E0,-8.736100373E0,1.006347448E1
7.926939209E0,1.780063183E0,3.652288133E0,-8.984955533E0,9.860895470E0
7.936886209E0,2.182357467E0,2.914958625E0,-9.012596490E0,9.720419919E0
7.946832208E0,2.703052898E0,2.273755003E0,-8.978861564E0,9.648648184E0
7.956778208E0,3.605770901E0,1.762413655E0,-8.677087934E0,9.560310701E0
7.966725208E0,4.368795122E0,1.216056695E0,-8.418660883E0,9.562375006E0
7.976671208E0,4.710540318E0,8.241758636E-1,-8.371921164E0,9.641448020E0
7.986617208E0,5.088183911E0,6.213273279E-1,-8.267143153E0,9.727349026E0
7.996563208E0,5.449986811E0,4.923310629E-1,-8.153090288E0,9.819247800E0
8.006510208E0,5.492349304E0,5.423634580E-1,-8.367046925E0,1.002334940E1
8.016456208E0,5.747860934E0,2.942003167E-1,-8.558956636E0,1.031407765E1
8.026402208E0,6.384302875E0,1.197246824E-1,-7.780899809E0,1.006558786E1
8.036349209E0,6.777156245E0,-1.273193201E-1,-6.541725708E0,9.420203407E0
8.046295208E0,7.467407189E0,-4.102681321E-1,-7.032415860E0,1.026573733E1
8.056241208E0,7.964805266E0,-5.844107857E-1,-8.292350500E0,1.151272060E1
8.066187209E0,8.726075322E0,-5.689261892E-1,-1.032246635E1,1.352853943E1
8.076134209E0,9.422022039E0,-4.680187422E-1,-1.202210927E1,1.528151341E1
8.086080208E0,9.632973792E0,-4.449453369E-1,-1.219408641E1,1.554631480E1
8.096026208E0,9.038887326E0,-4.236518605E-1,-1.023579892E1,1.366208420E1
8.105973208E0,8.149392509E0,-3.940739760E-1,-7.598196539E0,1.114901266E1
8.115919208E0,7.831437294E0,-3.805800641E-1,-6.107904992E0,9.938951386E0
8.125865208E0,7.841894454E0,-3.345504901E-1,-5.740536126E0,9.724247410E0
8.135811208E0,7.863956584E0,-2.820407394E-1,-5.834261146E0,9.795915641E0
8.145758208E0,7.845485814E0,-2.116157046E-1,-5.838545401E0,9.781873096E0
8.155704208E0,7.848626938E0,-1.483236882E-1,-5.820512588E0,9.772477246E0
8.165650208E0,7.853837392E0,-7.003941089E-2,-5.855114071E0,9.796429354E0
8.175596208E0,7.920047169E0,2.660424650E-2,-5.985557851E0,9.927474892E0
8.185543208E0,7.892931876E0,1.258665794E-1,-5.762622814E0,9.773537624E0
8.195489208E0,7.877605739E0,9.098677774E-2,-5.620488111E0,9.677542942E0
8.205435209E0,7.913010045E0,1.476816639E-1,-5.503787627E0,9.639980088E0
8.215382209E0,8.183897513E0,1.299855920E0,-8.334724102E0,1.175301790E1
8.225328208E0,-6.912661375E0,5.144799576E0,-1.660422134E-1,8.618666949E0
8.235274208E0,-4.519968801E1,-7.295269253E0,1.331784477E2,1.408287318E2
8.245220209E0,-2.400392421E1,-1.068294486E1,1.221634255E2,1.249568574E2
8.255167208E0,-2.257080907E1,-1.143723919E1,4.170210814E1,4.877825013E1
8.265113208E0,-1.675305052E1,-8.014957420E0,1.499830929E1,2.387160501E1
8.275059208E0,-1.284574573E1,-7.072344157E0,1.703139553E0,1.476251738E1
8.285006208E0,-8.484340317E0,-5.116064605E0,-3.701660560E0,1.057640953E1
8.294952208E0,-6.934089081E0,-4.010929152E0,-2.782042642E0,8.479911869E0
8.304898208E0,-6.408430241E0,-3.846672678E0,1.888636622E0,7.709203405E0
8.314844208E0,-4.900866603E0,-4.318908140E0,5.152910249E0,8.320092849E0
8.324791208E0,-5.514573401E0,-4.990205042E0,4.804758843E0,8.854285612E0
8.334737208E0,-5.325737572E0,-2.628389802E0,2.335342848E0,6.381672183E0
8.344683209E0,-3.706976849E0,-1.155597070E0,-2.102658749E-1,3.888610765E0
8.354630209E0,-1.971002549E0,-3.955442584E-1,-2.092588089E0,2.901763467E0
8.364576208E0,-1.130284327E0,7.461709370E-1,-2.979931131E0,3.273271036E0
8.374522208E0,-1.053888993E0,2.499519215E0,-2.652097630E0,3.793665794E0
8.384468209E0,-9.161435026E-1,4.177363713E0,-3.182409684E0,5.330798993E0
8.394415208E0,-6.625810423E-1,5.179381179E0,-4.788724608E0,7.084976105E0
8.404361208E0,-5.103131148E-1,5.372701238E0,-6.106679415E0,8.149716041E0
8.414306750E0,-2.520793140E-2,5.010953302E0,-7.113453006E0,8.701235665E0
8.424253750E0,5.053260246E-1,4.200051787E0,-7.721095072E0,8.804038762E0
8.434199750E0,4.535150161E-1,4.200714569E0,-7.696841406E0,8.780264597E0
8.444145750E0,9.961193794E-1,3.813546447E0,-8.143248839E0,9.046982479E0
8.454091750E0,2.024928787E0,2.507911139E0,-8.806802566E0,9.378151540E0
8.464038750E0,2.698240348E0,1.882789114E0,-9.102472873E0,9.678863994E0
8.473984750E0,3.393643273E0,1.622182221E0,-9.072843862E0,9.821648821E0
8.483930750E0,3.808095088E0,1.271518851E0,-8.903341851E0,9.766670082E0
8.493876750E0,4.011816467E0,1.107252949E0,-8.797152906E0,9.731936072E0
8.503823750E0,4.243833691E0,1.054778354E0,-8.819151886E0,9.843785946E0
8.513769750E0,4.345063028E0,1.024171250E0,-8.827222797E0,9.891833085E0
8.523715750E0,4.474102599E0,9.566251653E-1,-8.846715075E0,9.959773762E0
8.533662750E0,4.624676296E0,9.164750397E-1,-8.805964660E0,9.988622074E0
8.543608750E0,4.737633977E0,9.403538990E-1,-8.650621097E0,9.907708439E0
8.553554750E0,4.855293404E0,9.677391873E-1,-8.544855491E0,9.875472067E0
8.563500750E0,4.965763680E0,9.850196830E-1,-8.419632690E0,9.824423003E0
8.573447750E0,5.076502928E0,1.005598593E0,-8.359506356E0,9.831757576E0
8.583393750E0,5.200198436E0,1.016252220E0,-8.263615528E0,9.816423684E0
8.593339750E0,5.398207963E0,9.958985008E-1,-8.109446086E0,9.792628802E0
8.603286750E0,5.505205577E0,9.889151712E-1,-7.994851184E0,9.757196683E0
8.613232750E0,5.356009192E0,1.050004541E0,-7.292585381E0,9.108849847E0
8.623178750E0,5.496239457E0,9.749724855E-1,-6.428941104E0,8.514135495E0
8.633124750E0,6.268276575E0,7.491794756E-1,-6.708854334E0,9.212018649E0
8.643071750E0,7.140337919E0,6.227568260E-1,-7.199748554E0,1.015916487E1
8.653017750E0,7.729485826E0,6.693290216E-1,-7.107411663E0,1.052179894E1
8.662963750E0,8.223077366E0,6.953760284E-1,-6.839226778E0,1.071809555E1
8.672910750E0,8.627165576E0,7.277573240E-1,-6.591372077E0,1.088135113E1
8.682856750E0,8.954765773E0,6.129697564E-1,-6.145616024E0,1.087805857E1
8.692802750E0,8.733110107E0,2.531002378E-1,-5.851107559E0,1.051507164E1
8.702748750E0,8.567087190E0,-4.280249566E-2,-5.616831263E0,1.024429638E1
8.712695750E0,8.504161209E0,-2.989377308E-1,-5.146898142E0,9.944882207E0
8.722641750E0,8.553369037E0,-2.568684760E-1,-4.695300136E0,9.760734945E0
8.732587750E0,9.385295677E0,3.405251166E0,-9.395167531E0,1.370943775E1
8.742533750E0,-1.687047314E1,8.381755596E0,8.786117456E0,2.078611437E1
8.752480750E0,-6.679530314E1,-7.642831260E0,1.178028714E2,1.356375387E2
8.762426750E0,-3.642805996E1,-1.004012887E1,9.439690687E1,1.016788265E2
8.772372750E0,-3.180317901E1,-1.298627069E1,3.911135190E1,5.205557866E1
8.782319750E0,-1.607311641E1,-8.627021150E0,1.033450226E1,2.096598440E1
8.792265750E0,-1.409834094E1,-6.902212400E0,4.947229761E-1,1.570504709E1
8.802211750E0,-1.135617339E1,-5.097631842E0,-2.976535068E0,1.279876109E1
8.812157750E0,-9.788698009E0,-4.361898916E0,-5.094434584E0,1.186583476E1
8.822104750E0,-8.358089576E0,-4.321571254E0,-6.026033447E0,1.117348283E1
8.832050750E0,-5.632503555E0,-4.636887328E0,-4.185867904E0,8.411142045E0
8.841996750E0,-3.728253990E0,-5.397761820E0,1.678829754E0,6.771571444E0
8.851943750E0,-1.985891021E0,-4.864765894E0,2.624497018E0,5.873473840E0
8.861889750E0,-9.024972707E-1,-2.288246450E0,-6.411050963E-1,2.541965555E0
8.871835750E0,-8.647821450E-1,6.127455157E-1,-2.930981165E0,3.116721966E0
8.881781750E0,3.097743756E-1,2.526473418E0,-4.294323814E0,4.992018140E0
8.891728750E0,7.993275359E-1,3.821410075E0,-4.859239106E0,6.233322080E0
8.901674750E0,-3.075924870E-1,4.308022086E0,-3.474853497E0,5.543308963E0
8.911620750E0,-1.760689311E0,7.408873637E0,-2.135643477E0,7.909008059E0
8.921567750E0,-1.567361651E0,7.970753054E0,-6.191657585E0,1.021401735E1
8.931513750E0,-9.965184519E-1,7.081565800E0,-8.312289505E0,1.096520771E1
8.941459750E0,6.866443813E-2,5.472218510E0,-8.613869008E0,1.020532359E1
8.951405750E0,1.360394775E0,3.565772438E0,-9.095198936E0,9.863470521E0
8.961352750E0,2.527366580E0,2.383607813E0,-9.427379842E0,1.004712191E1
8.971298750E0,3.167362167E0,1.746915610E0,-9.518025718E0,1.018217613E1
8.981244750E0,3.504174068E0,1.389779226E0,-9.293741144E0,1.002917477E1
8.991190750E0,3.753138278E0,1.113995008E0,-9.035801750E0,9.847474046E0
9.001137750E0,3.905248038E0,9.994086575E-1,-8.924314644E0,9.792505898E0
9.011083750E0,4.015854846E0,9.977355498E-1,-8.890664502E0,9.806451023E0
9.021029750E0,4.072443615E0,1.014218997E0,-8.875067639E0,9.817344996E0
9.030976750E0,4.143400454E0,9.923846166E-1,-8.846241451E0,9.818787214E0
9.040922750E0,4.265612231E0,9.465873232E-1,-8.803698864E0,9.828356371E0
9.050868750E0,4.359342805E0,9.366892297E-1,-8.746844047E0,9.817766406E0
9.060814750E0,4.528536960E0,9.066103484E-1,-8.580161564E0,9.744165525E0
9.070761750E0,4.645934433E0,9.286558132E-1,-8.538417122E0,9.764818243E0
9.080707750E0,4.705543580E0,9.718632285E-1,-8.511848543E0,9.774365665E0
9.090653750E0,4.776478785E0,9.922800976E-1,-8.470550829E0,9.774947607E0
9.100600750E0,4.800903189E0,1.048167200E0,-8.147953509E0,9.515065544E0
9.110546750E0,4.664303461E0,1.079172427E0,-7.107585325E0,8.569603786E0
9.120492750E0,4.952880510E0,7.995186668E-1,-6.894868882E0,8.526984951E0
9.130438750E0,5.457544338E0,5.553181104E-1,-7.438246540E0,9.242330874E0
9.140385750E0,5.882214746E0,4.214374834E-1,-7.895276610E0,9.854615803E0
9.150331750E0,6.134098179E0,2.853631273E-1,-7.749886177E0,9.887837395E0
9.160277750E0,6.405187376E0,1.655715309E-1,-7.536142378E0,9.891778465E0
9.170224750E0,6.837014776E0,8.632215232E-2,-7.344284708E0,1.003447759E1
9.180170750E0,7.074983005E0,-5.605023980E-2,-7.091839943E0,1.001762047E1
9.190116750E0,7.392285671E0,-2.623879735E-1,-6.763121173E0,1.002270138E1
9.200062750E0,7.769841555E0,-4.372658962E-1,-6.432305008E0,1.009634523E1
9.210009750E0,7.909547909E0,-5.531641424E-1,-6.186372871E0,1.005674639E1
9.219955750E0,7.874179856E0,-6.469426641E-1,-5.957243294E0,9.894947745E0
9.229901750E0,7.936782485E0,-7.207123062E-1,-5.618632790E0,9.750947486E0
9.239847750E0,8.308241478E0,1.645970741E-1,-6.845964525E0,1.076667074E1
9.249794750E0,2.331981869E0,1.022371974E1,-1.072162302E1,1.499719257E1
9.259740750E0,-5.889263214E1,8.139347577E-1,8.486069690E1,1.032973499E2
9.269686750E0,-4.324603971E1,-4.499009106E0,1.166415863E2,1.244818087E2
9.279633750E0,-3.795422067E1,-8.646869524E0,5.054382794E1,6.379631464E1
9.289579750E0,-2.601964655E1,-6.609559257E0,1.580248973E1,3.115167671E1
9.299525750E0,-1.873236226E1,-4.988305866E0,3.257370404E0,1.965693397E1
9.309471750E0,-1.296884599E1,-4.367721865E0,-1.831974764E0,1.380666839E1
9.319418750E0,-8.102760379E0,-2.938127047E0,-4.732775525E0,9.832928378E0
9.329364750E0,-5.030998726E0,-1.855648678E0,-3.722576635E0,6.527783468E0
9.339310750E0,-3.595173993E0,-2.041324965E0,-4.086034298E-2,4.134483428E0
9.349257750E0,-2.178067365E0,-2.739722250E0,4.304286300E0,5.547696459E0
9.359203750E0,5.577483594E-2,-2.903713844E0,6.775314372E0,7.371536459E0
9.369149750E0,2.131403661E0,-2.511839006E0,4.967848213E0,5.960849992E0
9.379095750E0,2.936320258E0,-1.185171117E0,1.974336339E0,3.731569537E0
9.389042750E0,2.749814544E0,3.441125880E-1,1.299409193E-1,2.774306786E0
9.398988750E0,2.269206161E0,1.789806837E0,-1.484541981E0,3.249087566E0
9.408934750E0,1.907849404E0,2.499806606E0,-3.452100227E0,4.669680759E0
9.418881958E0,1.673165556E0,2.560058947E0,-5.437265024E0,6.238368035E0
9.428827958E0,6.204462987E-1,2.061455905E0,-6.795209523E0,7.128073129E0
9.438773958E0,-2.050896272E-1,1.303182109E0,-8.080863726E0,8.187838782E0
9.448719958E0,1.972566971E-1,6.909601381E-1,-9.231398715E0,9.259322781E0
9.458666958E0,8.457743087E-1,5.407774007E-1,-9.592990531E0,9.645374110E0
9.468612958E0,1.631783057E0,7.338413519E-1,-8.911830254E0,9.089662125E0
9.478558959E0,2.071094894E0,1.347618316E0,-7.975669393E0,8.349659361E0
9.488504958E0,2.648718524E0,3.621128029E0,-6.510303356E0,7.906473791E0
9.498451958E0,3.362173266E0,3.469244263E0,-7.836791005E0,9.206256464E0
9.508397958E0,3.083883808E0,3.164368100E0,-8.351317915E0,9.448178435E0
9.518343959E0,2.956037069E0,2.917566483E0,-8.421899655E0,9.390353728E0
9.528290958E0,3.876924418E0,1.932795964E0,-8.446690680E0,9.492777604E0
9.538236958E0,4.355890317E0,1.096851556E0,-8.721692834E0,9.810442889E0
9.548182958E0,4.037937441E0,9.652966592E-1,-9.173016606E0,1.006881175E1
9.558128959E0,4.699149358E0,9.067645687E-1,-8.624074738E0,9.863006223E0
9.568075958E0,5.576483721E0,9.767585175E-1,-8.236573910E0,9.994617434E0
9.578021958E0,6.351976544E0,9.477795705E-1,-7.659160194E0,9.995430306E0
9.587967958E0,6.716307195E0,9.292126143E-1,-7.200310471E0,9.890232015E0
9.597914958E0,7.004203044E0,9.165417711E-1,-6.892537013E0,9.869446569E0
9.607860958E0,7.285034872E0,8.994315755E-1,-6.597660173E0,9.869641838E0
9.617806959E0,7.513351686E0,9.450302097E-1,-6.156678956E0,9.759520041E0
9.627752958E0,7.799048397E0,9.846679730E-1,-5.733108993E0,9.729504902E0
9.637699958E0,8.109247865E0,9.940340430E-1,-6.071621264E0,1.017902694E1
9.647645958E0,8.405830337E0,1.045423760E0,-6.722916888E0,1.081427325E1
9.657591959E0,8.653258776E0,1.107161294E0,-7.885127597E0,1.175924873E1
9.667538959E0,8.948795182E0,1.281004204E0,-9.432369856E0,1.306489602E1
9.677484958E0,9.229149292E0,1.323736534E0,-9.407653091E0,1.324512785E1
9.687430958E0,8.721951866E0,1.059908701E0,-7.112253742E0,1.130398178E1
9.697376959E0,8.517972332E0,8.784742045E-1,-5.653465238E0,1.026105447E1
9.707323958E0,8.595889989E0,7.671239957E-1,-5.285628011E0,1.012006262E1
9.717269958E0,8.634035470E0,6.785263263E-1,-5.023313146E0,1.001202484E1
9.727215958E0,8.624202792E0,6.382999677E-1,-4.781744495E0,9.881770138E0
9.737161959E0,8.626518289E0,6.725000397E-1,-4.611944276E0,9.805055028E0
9.747108958E0,8.714080929E0,6.555032802E-1,-4.757668877E0,9.949889654E0
9.757054958E0,9.092730242E0,1.503041986E0,-6.851452721E0,1.148387055E1
9.767000958E0,-5.778310309E0,5.184600989E0,-3.942505619E0,8.707026358E0
9.776947958E0,-4.277938980E1,-2.406707969E0,7.132569776E1,8.320591082E1
9.786893958E0,-1.793273213E1,-1.447575065E1,1.283698192E2,1.304221635E2
9.796839959E0,-1.427223714E1,-1.265174564E1,6.564345311E1,6.835807456E1
9.806785958E0,-1.969947068E1,-1.257435423E1,2.500949561E1,3.422949605E1
9.816732958E0,-1.667549189E1,-9.932474610E0,1.121919885E1,2.241866420E1
9.826678958E0,-1.250890401E1,-6.133705246E0,5.804718089E-1,1.394388637E1
9.836624959E0,-8.277219075E0,-3.715451803E0,-1.558395823E0,9.205733825E0
9.846571958E0,-7.927830398E0,-4.725359209E0,-9.370209861E-1,9.276719399E0
9.856517958E0,-7.514284317E0,-5.028951032E0,2.590950372E0,9.405734480E0
9.866463958E0,-5.269061680E0,-4.389551568E0,5.924007720E0,9.062286766E0
9.876409959E0,-2.481300461E0,-3.873559345E0,5.164075508E0,6.915850622E0
9.886356958E0,1.387281150E-1,-2.802379258E0,3.344972804E0,4.365938394E0
9.896302958E0,1.722806955E0,-6.183975805E-1,2.836056297E0,3.375454738E0
9.906248958E0,1.928213502E0,1.612610621E0,1.412437041E0,2.883313843E0
9.916195958E0,1.621714736E0,3.367961133E0,-2.016362032E0,4.247215172E0
9.926141958E0,5.629333779E-1,4.176635150E0,-4.595991610E0,6.235728830E0
9.936087959E0,-1.021093422E-1,4.562153773E0,-6.089118472E0,7.609273102E0
9.946033958E0,-7.366065001E-1,4.739962923E0,-6.620416952E0,8.175558590E0
9.955980958E0,-8.205269086E-1,4.420678343E0,-6.709349009E0,8.076572636E0
9.965926958E0,-1.022368992E0,4.184558712E0,-6.609306657E0,7.889151061E0
9.975872959E0,-1.669152320E0,4.633534535E0,-7.464450837E0,8.942803702E0
9.985819958E0,-6.755030966E-1,3.775962299E0,-8.526901615E0,9.349986464E0
9.995765958E0,1.090166581E0,2.513182696E0,-9.062941017E0,9.467916894E0
1.000571196E1,2.573839665E0,1.782748956E0,-9.309110550E0,9.821526546E0
1.001565796E1,3.563581486E0,1.211819364E0,-9.326389073E0,1.005729349E1
1.002560496E1,3.952178083E0,7.857726668E-1,-9.132138721E0,9.981638538E0
1.003555096E1,4.072000688E0,6.804989576E-1,-8.951883096E0,9.858015997E0
1.004549696E1,4.205695812E0,5.727919297E-1,-8.899362820E0,9.859747789E0
1.005544296E1,4.181743278E0,4.475378461E-1,-9.010200301E0,9.943388579E0
1.006538996E1,3.657499172E0,3.304426018E-1,-9.555078939E0,1.023650458E1
1.007533596E1,4.121781836E0,4.225192183E-1,-9.192105426E0,1.008277790E1
1.008528196E1,4.609936634E0,5.241954646E-1,-8.734688855E0,9.890454290E0
1.009522896E1,5.091671775E0,5.471032475E-1,-8.386370804E0,9.826273896E0
1.010517496E1,5.373546161E0,5.663320720E-1,-8.225836083E0,9.841753381E0
1.011512096E1,5.635499083E0,5.385532661E-1,-8.017767007E0,9.814961911E0
1.012506696E1,5.834333652E0,5.300031750E-1,-7.903139945E0,9.837681308E0
1.013501396E1,6.018906276E0,4.915233797E-1,-7.763752849E0,9.835887672E0
1.014495996E1,6.203298222E0,4.683657745E-1,-7.610490895E0,9.829539511E0
1.015490596E1,6.429188442E0,4.816486384E-1,-7.456360629E0,9.857168116E0
1.016485296E1,6.711109605E0,4.826873963E-1,-7.422430406E0,1.001820605E1
1.017479896E1,7.012127776E0,4.482212394E-1,-7.313506719E0,1.014190410E1
1.018474496E1,7.330450780E0,4.159364229E-1,-7.125891788E0,1.023165898E1
1.019469096E1,7.607920459E0,4.007816460E-1,-6.817019053E0,1.022315159E1
1.020463796E1,7.877070134E0,3.370683011E-1,-6.092287663E0,9.963825466E0
1.021458396E1,8.132298174E0,3.044285586E-1,-5.657155416E0,9.911122930E0
1.022452996E1,8.474165577E0,2.497465856E-1,-5.563007643E0,1.014006458E1
1.023447696E1,8.757898793E0,1.833566961E-1,-5.201039851E0,1.018750345E1
1.024442296E1,9.007652670E0,1.381369615E-1,-4.718314776E0,1.016953208E1
1.025436896E1,9.240169539E0,9.245589981E-2,-4.216038952E0,1.015698113E1
1.026431496E1,9.388822133E0,8.226945628E-2,-3.307804686E0,9.954813968E0
1.027426196E1,9.518399940E0,8.924109151E-2,-2.703425366E0,9.895272109E0
1.028420796E1,9.288521919E0,3.209488140E0,-5.904730035E0,1.146487202E1
1.029415396E1,-4.027939170E1,8.716498168E0,1.256219085E1,4.308381802E1
1.030410096E1,-6.705701983E1,-2.367403132E0,5.069739454E1,8.409800425E1
1.031404696E1,-1.071211662E1,-8.394619471E0,8.134953278E1,8.248009191E1
1.032399296E1,-2.399319106E1,-9.951699085E0,6.578041361E1,7.072320939E1
1.033393896E1,-1.939650889E1,-8.333210258E0,2.940868573E1,3.620135007E1
1.034388596E1,-1.337732780E1,-4.988191845E0,8.269942215E0,1.649930002E1
1.035383196E1,-1.404870510E1,-4.662449309E0,3.118061076E0,1.512702394E1
1.036377796E1,-1.173280307E1,-3.528976495E0,-1.379955758E0,1.232950206E1
1.037372396E1,-9.083802713E0,-2.701068646E0,-3.877675200E0,1.023951212E1
1.038367096E1,-6.048083882E0,-2.728177799E0,-2.959645386E0,7.265106576E0
1.039361696E1,-3.009304034E0,-2.649281611E0,1.462607321E0,4.267765691E0
1.040356296E1,-4.069837511E-1,-1.982976769E0,3.783194135E0,4.290733097E0
1.041351046E1,1.811759478E0,-7.162247144E-2,2.130845836E0,2.797875294E0
1.042345646E1,2.249903626E0,1.548254997E0,-6.962753302E-1,2.818503006E0
1.043340246E1,1.247668643E0,2.235294650E0,-3.722674869E0,4.517911840E0
1.044334846E1,9.693905872E-1,2.124098003E0,-5.756839333E0,6.212303079E0
1.045329546E1,1.220837525E0,2.478100864E0,-6.320255399E0,6.897612374E0
1.046324146E1,1.065738083E0,2.395684944E0,-6.567559876E0,7.071629709E0
1.047318746E1,8.587235525E-1,1.751867617E0,-7.043508028E0,7.308724350E0
1.048313446E1,7.764020652E-1,1.447726741E0,-7.390540861E0,7.570918512E0
1.049308046E1,-2.120229632E-2,3.330945626E0,-7.192374630E0,7.926279147E0
1.050302646E1,1.938217503E-1,3.831240706E0,-8.691760937E0,9.500667366E0
1.051297246E1,4.320785388E-1,2.972987562E0,-9.334971031E0,9.806479035E0
1.052291946E1,-3.332886609E-1,2.431381465E0,-1.034236326E1,1.062954255E1
1.053286546E1,-2.753608802E-1,1.777817999E0,-1.076966842E1,1.091889273E1
1.054281146E1,1.098000095E0,1.175151182E0,-9.969168227E0,1.009806415E1
1.055275846E1,2.348560187E0,9.266187894E-1,-9.188336896E0,9.528897745E0
1.056270446E1,3.334555697E0,8.785144041E-1,-8.722723698E0,9.379603295E0
1.057265046E1,4.379750465E0,9.062451167E-1,-8.426060534E0,9.539496343E0
1.058259646E1,5.041562891E0,8.556635584E-1,-8.145953761E0,9.618008068E0
1.059254346E1,5.410525707E0,8.223633729E-1,-8.045719621E0,9.730553641E0
1.060248946E1,5.746279846E0,8.241821493E-1,-7.928785833E0,9.826731556E0
1.061243546E1,6.057175718E0,8.120129972E-1,-7.721793814E0,9.847580540E0
1.062238246E1,6.339713178E0,7.997600106E-1,-7.482364367E0,9.839581077E0
1.063232846E1,6.603738354E0,7.887342084E-1,-7.236945031E0,9.828775879E0
1.064227446E1,6.896431258E0,7.857442347E-1,-6.983733696E0,9.846354373E0
1.065222046E1,7.179997244E0,7.732913464E-1,-6.724293323E0,9.867444483E0
1.066216746E1,7.407866161E0,7.652330062E-1,-6.456566859E0,9.856435371E0
1.067211346E1,7.626124595E0,7.720233777E-1,-6.070562918E0,9.777808066E0
1.068205946E1,7.837532431E0,7.677052090E-1,-5.405019384E0,9.551466926E0
1.069200646E1,8.173466665E0,6.913453234E-1,-5.452028659E0,9.849270642E0
1.070195246E1,8.427080873E0,6.468632150E-1,-5.460719960E0,1.006248411E1
1.071189846E1,8.602399110E0,6.069942675E-1,-5.400577839E0,1.017526184E1
1.072184446E1,8.795316296E0,5.199206749E-1,-5.286705068E0,1.027507454E1
1.073179146E1,8.964718319E0,4.483516324E-1,-5.110346612E0,1.032873837E1
1.074173746E1,9.151737419E0,3.709713346E-1,-5.035629721E0,1.045224781E1
1.075168346E1,9.260944111E0,2.985652632E-1,-4.663370830E0,1.037310246E1
1.076163046E1,9.257704754E0,3.199809828E-1,-3.676015257E0,9.965970766E0
1.077157646E1,9.407000542E0,4.987175380E-1,-3.463774485E0,1.003683775E1
1.078152246E1,9.523730262E0,4.390806088E0,-7.281385624E0,1.276711372E1
1.079146846E1,-3.043074862E1,9.483311384E0,7.602001907E0,3.276818715E1
1.080141546E1,-6.340961559E1,-5.992705488E0,4.199600324E1,7.629125871E1
1.081136146E1,-8.477359911E0,-1.371000747E1,8.068251048E1,8.227695566E1
1.082130746E1,-8.755965704E0,-9.389527892E0,7.978582827E1,8.081218077E1
1.083125346E1,-7.345392755E0,-8.406089369E0,2.289514009E1,2.547164253E1
1.084120046E1,-9.809759679E0,-7.058319610E0,1.699822311E1,2.085643425E1
1.085114646E1,-5.981040877E0,-5.595179023E0,1.127695648E1,1.393731056E1
1.086109246E1,-5.933466761E0,-3.778776272E0,3.975212020E0,8.080067358E0
1.087103946E1,-6.326389128E0,-3.116574129E0,2.320302640E0,7.424287039E0
1.088098546E1,-7.500124115E0,-3.051636998E0,5.524942269E0,9.802516880E0
1.089093146E1,-8.061243979E0,-1.628601733E0,8.227042948E0,1.163272254E1
1.090087746E1,-7.637526081E0,2.236823112E-2,7.418940203E0,1.064767480E1
1.091082446E1,-5.447254992E0,2.677513137E-2,3.104676799E0,6.269953898E0
1.092077046E1,-3.342736244E0,-8.471435074E-1,-5.283076286E-1,3.488645392E0
1.093071646E1,-2.543281824E0,-8.593312975E-1,-3.144249001E0,4.134372321E0
1.094066346E1,-2.244621836E0,-2.375443053E-1,-5.519510790E0,5.963199967E0
1.095060946E1,-1.661190459E0,3.897756878E-1,-6.768570194E0,6.980331030E0
1.096055546E1,-8.450742508E-1,9.201933572E-1,-7.202275720E0,7.309834598E0
1.097050146E1,-2.053451505E-1,1.357688245E0,-7.255475442E0,7.384267594E0
1.098044846E1,3.829882398E-1,1.609087674E0,-7.569419467E0,7.748029053E0
1.099039446E1,1.076257224E0,1.892364515E0,-8.041694398E0,8.331159695E0
1.100034046E1,1.622961947E0,2.077299228E0,-8.567692961E0,8.964069402E0
1.101028746E1,2.284273559E0,2.239492073E0,-8.761264451E0,9.327003013E0
1.102023346E1,2.929020009E0,2.031007260E0,-8.829244180E0,9.521538819E0
1.103017946E1,3.332264466E0,1.469282794E0,-8.854720498E0,9.574385281E0
1.104012546E1,3.631495727E0,1.140445619E0,-8.779974956E0,9.569552636E0
1.105007246E1,3.930218280E0,9.068019909E-1,-8.623836172E0,9.520475613E0
1.106001846E1,4.261154898E0,8.569038990E-1,-8.509896158E0,9.555629649E0
1.106996446E1,4.563488984E0,8.199477419E-1,-8.462025588E0,9.649021871E0
1.107991046E1,4.828420186E0,8.199014027E-1,-8.404180253E0,9.727082067E0
1.108985746E1,5.125935874E0,7.639697152E-1,-8.281780488E0,9.769685581E0
1.109980346E1,5.419394764E0,6.790377384E-1,-8.189519026E0,9.843736777E0
1.110974946E1,5.711184858E0,6.122169640E-1,-7.986846346E0,9.837792265E0
1.111969646E1,6.029447052E0,5.431835300E-1,-7.743737245E0,9.829280066E0
1.112964246E1,6.314354389E0,4.451561290E-1,-7.519738015E0,9.829328316E0
1.113958846E1,6.599799669E0,3.449866006E-1,-7.269750250E0,9.824746314E0
1.114953546E1,6.874344571E0,2.094080883E-1,-7.040362226E0,9.842111831E0
1.115948146E1,7.143490153E0,1.247643793E-1,-6.788617957E0,9.855473174E0
1.116942746E1,7.405246024E0,1.691789523E-1,-6.497916614E0,9.853385739E0
1.117937346E1,7.651631904E0,3.095004335E-1,-5.935047848E0,9.688552744E0
1.118932046E1,7.907377422E0,2.095352653E-1,-4.773344092E0,9.238795189E0
1.119926646E1,8.290918517E0,6.964589328E-2,-4.612942103E0,9.488066992E0
1.120921246E1,8.572468967E0,-1.052314813E-1,-4.872478956E0,9.861001421E0
1.121915846E1,8.864409335E0,-4.021428778E-1,-4.688937780E0,1.003621489E1
1.122910546E1,9.257940397E0,-6.696859941E-1,-4.190519656E0,1.018422283E1
1.123905146E1,9.560034454E0,-8.114176045E-1,-3.711916284E0,1.028741852E1
1.124899746E1,9.710533015E0,-6.633045622E-1,-3.250891981E0,1.026171151E1
1.125894446E1,9.762030028E0,-3.242632643E-1,-2.951932616E0,1.020373868E1
1.126889046E1,9.912308732E0,-3.306702778E-2,-2.858819800E0,1.031638544E1
1.127883646E1,1.013111739E1,1.514056094E-1,-2.906735393E0,1.054094748E1
1.128878246E1,1.070167700E1,5.743800042E0,-5.479229321E0,1.332437929E1
1.129872946E1,7.289036706E0,1.661475335E1,-7.597499551E0,1.966982675E1
1.130867546E1,-3.089027896E1,9.486649559E0,1.213053536E1,3.451602153E1
1.131862146E1,-6.390663360E1,-8.686932306E0,3.160205350E1,7.182068223E1
1.132856846E1,-2.712259983E1,-1.332664062E1,4.418035460E1,5.352698856E1
1.133851446E1,-3.022114114E0,-9.690912682E0,5.729561721E1,5.818792585E1
1.134846046E1,8.657972217E-3,-4.429923669E-2,3.774414658E1,3.774417357E1
1.135840646E1,-7.622200529E0,-7.573000302E0,2.569947174E1,2.785518124E1
1.136835346E1,-1.089594840E1,-1.249622140E1,2.501762558E1,3.001264451E1
1.137829946E1,-1.093391788E1,-9.823091916E0,1.479927241E1,2.085814371E1
1.138824546E1,-9.753245755E0,-6.239186093E0,3.337523451E0,1.204957712E1
1.139819246E1,-1.151601989E1,-4.431822844E0,-3.251786898E0,1.276063815E1
1.140813846E1,-1.259438679E1,-4.813574983E0,-3.829391817E0,1.401618081E1
1.141808362E1,-8.738547433E0,-4.911181676E0,-2.292580406E0,1.028289072E1
1.142802963E1,-6.675822828E0,-5.147180563E0,-2.156202872E0,8.701108493E0
1.143797662E1,-5.175041960E0,-4.938864149E0,-3.145061179E0,7.814400054E0
1.144792263E1,-3.510732012E0,-4.208950372E0,-4.013475614E0,6.793267918E0
1.145786862E1,-1.788646604E0,-3.237032619E0,-5.031669402E0,6.244624394E0
1.146781563E1,-7.106732216E-1,-1.785253610E0,-6.118385541E0,6.413020233E0
1.147776162E1,-3.730248767E-1,-1.507666549E-1,-6.997826656E0,7.009383428E0
1.148770763E1,1.613094771E-1,1.104488751E0,-7.693157076E0,7.773710950E0
1.149765362E1,1.041407819E0,1.747212356E0,-8.094131643E0,8.345792252E0
1.150760063E1,2.057479067E0,2.001920140E0,-7.946501142E0,8.449129231E0
1.151754662E1,2.987104495E0,2.257041760E0,-7.830406430E0,8.679417931E0
1.152749263E1,3.518896187E0,2.401264942E0,-7.902378638E0,8.977543753E0
1.153743963E1,3.687322895E0,2.525543710E0,-8.206265452E0,9.344384080E0
1.154738563E1,3.928965806E0,2.584806703E0,-8.216454225E0,9.467212791E0
1.155733162E1,4.043758344E0,2.604518836E0,-8.102817682E0,9.422905831E0
1.156727763E1,4.103256102E0,2.659284443E0,-7.895131599E0,9.286635954E0
1.157722462E1,4.294052795E0,2.592856565E0,-7.705953707E0,9.194754870E0
1.158717063E1,4.562066064E0,2.512645045E0,-7.454740366E0,9.093898274E0
1.159711662E1,4.733645591E0,2.411369662E0,-7.124857416E0,8.887389798E0
1.160706363E1,4.902603811E0,2.415700256E0,-6.998801971E0,8.879997798E0
1.161700962E1,4.961060180E0,2.828390889E0,-7.052896317E0,9.074979868E0
1.162695563E1,5.300789841E0,3.002877067E0,-7.198023625E0,9.430121300E0
1.163690162E1,5.625183426E0,2.403285155E0,-7.278290108E0,9.507469433E0
1.164684863E1,5.815098066E0,1.993369318E0,-7.262709033E0,9.515031753E0
1.165679462E1,6.047544184E0,1.911660765E0,-7.199155646E0,9.594533837E0
1.166674063E1,6.216328157E0,1.971359229E0,-7.170958618E0,9.692865441E0
1.167668763E1,6.336328225E0,1.975880296E0,-7.096513622E0,9.716669384E0
1.168663363E1,6.501688069E0,2.080703185E0,-7.036428219E0,9.803703156E0
1.169657962E1,6.646575640E0,2.095628349E0,-6.985887226E0,9.867686976E0
1.170652563E1,6.799703109E0,2.066230449E0,-6.873610745E0,9.886950759E0
1.171647263E1,7.109427198E0,2.300568872E0,-6.693915868E0,1.003220224E1
1.172641863E1,7.204721026E0,2.042758410E0,-6.509779446E0,9.922605273E0
1.173636462E1,7.305014808E0,2.055671985E0,-6.201856883E0,9.800615157E0
1.174631163E1,7.504991337E0,2.251894310E0,-6.058780194E0,9.904783713E0
1.175625762E1,8.131722223E0,2.714164655E0,-6.526594868E0,1.077441584E1
1.176620363E1,9.125769349E0,5.187144527E0,-9.590638781E0,1.421852618E1
1.177614962E1,3.108333648E0,5.911299382E0,-2.710833496E0,7.207899603E0
1.178609663E1,-8.576596516E0,-1.994357790E0,2.540455689E1,2.688730149E1
1.179604262E1,-1.124676614E1,-9.786689490E0,5.420149522E1,5.621450991E1
1.180598863E1,-3.265112118E0,-7.306563735E-1,3.457257705E1,3.473410283E1
1.181593563E1,-5.506567978E0,-1.517989955E0,2.313178627E1,2.382658432E1
1.182588163E1,-1.043298107E1,-7.128102620E0,3.157132989E1,3.400596730E1
1.183582762E1,-1.452545432E1,-9.337128654E0,2.648782376E1,3.161922836E1
1.184577363E1,-2.287667926E1,-1.197475501E1,1.957426074E1,3.240198906E1
1.185572063E1,-2.009517749E1,-1.043982699E1,1.425002239E1,2.675573367E1
1.186566663E1,-1.753487471E1,-1.059241593E1,1.187714510E1,2.367990038E1
1.187561262E1,-1.247500419E1,-9.671493495E0,7.686736833E0,1.755703389E1
1.188555863E1,-8.345920935E0,-8.188886942E0,6.004124515E0,1.314388743E1
1.189550562E1,-5.149148151E0,-6.173159918E0,5.242507719E0,9.597161937E0
1.190545163E1,-2.478197928E0,-3.539361734E0,3.921444533E0,5.834918481E0
1.191539762E1,-9.108044100E-1,-1.643369607E0,2.396336324E0,3.045103630E0
1.192534463E1,8.440455794E-2,-4.037344533E-1,7.177848977E-1,8.278531256E-1
1.193529062E1,7.791566885E-1,4.429201537E-1,-5.722389293E-1,1.063353563E0
1.194523663E1,1.240691453E0,1.450367929E0,-2.056391485E0,2.805642235E0
1.195518262E1,1.040984480E0,2.593616703E0,-4.317769979E0,5.143309623E0
1.196512963E1,8.802047610E-2,3.400059715E0,-5.337059535E0,6.328693242E0
1.197507562E1,-1.529935670E-1,3.743191579E0,-6.065064197E0,7.128807329E0
1.198502163E1,3.674059948E-1,4.035383962E0,-6.837807659E0,7.948265500E0
1.199496863E1,1.085914485E0,4.172533329E0,-7.388271557E0,8.554285549E0
1.200491463E1,1.895047510E0,4.219730884E0,-7.729522079E0,9.007932358E0
1.201486062E1,3.079073596E0,4.199277616E0,-7.987047490E0,9.534545312E0
1.202480762E1,4.497045611E0,3.984450620E0,-7.946020501E0,9.961852628E0
1.203475362E1,5.666802152E0,3.625254116E0,-7.577590367E0,1.013286681E1
1.204469963E1,6.152820379E0,3.128351883E0,-7.271908457E0,1.002618755E1
1.205464562E1,6.626350706E0,2.714916022E0,-7.064426442E0,1.005909606E1
1.206459263E1,7.107067262E0,2.466797612E0,-6.473264169E0,9.924648332E0
1.207453862E1,7.621563767E0,2.434183889E0,-5.652453085E0,9.796106948E0
1.208448463E1,8.075553285E0,2.384577281E0,-4.932740945E0,9.758724450E0
1.209443062E1,8.265491899E0,2.429913668E0,-4.409535012E0,9.678162832E0
1.210437763E1,8.545281168E0,2.566370139E0,-4.030501244E0,9.790455874E0
1.211432362E1,8.758727928E0,2.591562576E0,-3.670332933E0,9.843924794E0
1.212426963E1,8.690039517E0,2.595284036E0,-3.130510675E0,9.594393317E0
1.213421663E1,8.847659401E0,2.639792457E0,-2.812578557E0,9.651952094E0
1.214416263E1,9.064411007E0,2.677220777E0,-2.624016669E0,9.809002063E0
1.215410862E1,9.170542649E0,2.729537277E0,-2.350297687E0,9.852569484E0
1.216405463E1,9.241903823E0,2.833054629E0,-2.053650018E0,9.882128475E0
1.217400162E1,9.248273195E0,2.901426121E0,-1.749367640E0,9.849320675E0
1.218394763E1,9.253794721E0,2.972437047E0,-1.381963692E0,9.817225798E0
1.219389362E1,9.227520842E0,2.986076847E0,-9.635253183E-1,9.746393018E0
1.220384063E1,9.201717079E0,3.021462734E0,-5.356026514E-1,9.699881673E0
1.221378662E1,9.256665119E0,3.013972743E0,-2.265059316E-1,9.737617047E0
1.222373263E1,9.338461234E0,2.973679580E0,1.737137604E-1,9.802030654E0
1.223367862E1,9.329624337E0,2.950055075E0,4.883208597E-1,9.797100208E0
1.224362563E1,9.245644872E0,2.949236757E0,6.307170061E-1,9.725109279E0
1.225357162E1,9.264480507E0,3.012947142E0,8.793699248E-1,9.781704402E0
1.226351763E1,6.465764530E0,3.633234689E0,1.957151664E0,7.670524617E0
1.227346463E1,-7.842690260E0,4.844981547E0,5.115704416E0,1.054286813E1
1.228341063E1,-2.605481873E1,1.680648238E0,7.001272420E0,2.703138866E1
1.229335662E1,-3.725657066E1,-4.493227379E0,7.078165644E0,3.818823874E1
1.230330263E1,-3.822742597E1,-8.740477599E0,5.928477917E0,3.965953726E1
1.231324963E1,-3.175890389E1,-1.221438092E1,2.369949302E0,3.410917380E1
1.232319563E1,-1.937151205E1,-1.325571858E1,-1.753065419E-1,2.347339529E1
1.233314162E1,-1.545686198E1,-1.488686604E1,-2.360482367E0,2.158947057E1
1.234308862E1,-1.341046982E1,-1.485812581E1,-6.644964148E0,2.108933739E1
1.235303462E1,-1.392425296E1,-1.294862632E1,-1.017027853E1,2.156354121E1
1.236298063E1,-1.710470324E1,-8.727948185E0,-9.873886678E0,2.159262816E1
1.237292662E1,-1.772166168E1,-4.401443635E0,-5.786096461E0,1.915486651E1
1.238287363E1,-1.337660508E1,-2.682852230E0,-3.766726622E0,1.415342676E1
1.239281962E1,-8.777989241E0,-2.268096360E0,-3.506621420E0,9.720789577E0
1.240276563E1,-6.057840546E0,-1.915194384E0,-2.389404742E0,6.787831512E0
1.241271263E1,-3.794773377E0,-1.384152889E0,-1.023015987E0,4.166862838E0
1.242265863E1,-1.723940438E0,-9.786043373E-1,1.300040692E-2,1.982373853E0
1.243260462E1,4.348749697E-2,-5.881261066E-1,6.645338662E-1,8.884755140E-1
1.244255063E1,1.427535136E0,-3.849865258E-2,8.913527700E-1,1.683403835E0
1.245249763E1,2.442048687E0,8.042149311E-1,7.272160180E-1,2.671929374E0
1.246244363E1,3.209754773E0,1.779101024E0,1.218944196E-1,3.671863887E0
1.247238962E1,4.747247969E0,2.783854402E0,-2.889179420E-1,5.510869458E0
1.248233662E1,6.355197775E0,3.548222020E0,-7.078251891E-1,7.312963473E0
1.249228262E1,7.579892415E0,3.845731861E0,-1.483029306E0,8.628081971E0
1.250222863E1,8.638675236E0,3.767615106E0,-1.962102209E0,9.626602646E0
1.251217462E1,9.279796119E0,3.422943086E0,-1.807189586E0,1.005470485E1
1.252212163E1,9.526339874E0,3.075197477E0,-1.488097672E0,1.012039651E1
1.253206762E1,9.658259491E0,2.977172122E0,-1.591691038E0,1.023127610E1
1.254201363E1,9.754602309E0,2.619051506E0,-6.105580139E0,1.180211023E1
1.255196063E1,9.570127333E0,2.493761754E0,-7.639184936E0,1.249653277E1
1.256190663E1,9.618535262E0,2.835118403E0,-5.212873446E0,1.130168866E1
1.257185262E1,1.003202112E1,3.321142184E0,-2.552748173E0,1.087142844E1
1.258179863E1,1.028146801E1,3.775243676E0,-1.091523135E0,1.100692837E1
1.259174563E1,9.637259801E0,3.745931292E0,-4.969374628E-1,1.035160493E1
1.260169163E1,9.273692211E0,3.630838207E0,-3.700492287E-1,9.966006710E0
1.261163762E1,9.192764407E0,3.372853498E0,-6.901551957E-1,9.816280984E0
1.262158462E1,9.207712229E0,3.064939414E0,-1.125664004E0,9.769490138E0
1.263153062E1,9.233029504E0,2.822833988E0,-1.546911306E0,9.778044801E0
1.264147663E1,9.237855796E0,2.635082525E0,-1.787623633E0,9.771245461E0
1.265142262E1,9.224663892E0,2.584878916E0,-1.894337950E0,9.765476906E0
1.266136963E1,9.225624590E0,2.524688555E0,-2.021192709E0,9.776063694E0
1.267131562E1,9.233836420E0,2.452830660E0,-2.125110887E0,9.787553808E0
1.268126163E1,9.209793838E0,2.387258376E0,-2.246468240E0,9.775782559E0
1.269120863E1,9.185291666E0,2.321637560E0,-2.340716439E0,9.759023383E0
1.270115463E1,9.172145956E0,2.268353637E0,-2.474315085E0,9.767083740E0
1.271110062E1,9.168704284E0,2.220035171E0,-2.583507744E0,9.781012559E0
1.272104663E1,9.151395357E0,2.159977542E0,-2.670976827E0,9.774848192E0
1.273099363E1,9.139514984E0,2.081112344E0,-2.788559364E0,9.779459395E0
1.274093963E1,9.104286679E0,2.030939140E0,-2.885008017E0,9.764016642E0
1.275088562E1,9.089431243E0,1.983221183E0,-3.012966730E0,9.779002766E0
1.276083262E1,9.084786800E0,2.410135168E0,-3.807837811E0,1.014109124E1
1.277077862E1,5.658476887E0,3.875029043E0,-4.682374281E0,8.304145932E0
1.278072463E1,-9.483786762E0,1.420733070E0,3.353644810E0,1.015911548E1
1.279067062E1,-1.670587987E1,-3.840932174E0,1.323573279E1,2.165695742E1
1.280061763E1,-2.070553325E1,-6.891798509E0,1.638417542E1,2.728840776E1
1.281056362E1,-1.946274264E1,-7.771617939E0,4.644852698E1,5.095745338E1
1.282050963E1,-1.497835625E1,-6.347661299E0,3.684945476E1,4.028059429E1
1.283045663E1,-1.397250068E1,-1.112692043E1,2.824693052E1,3.342047602E1
1.284040263E1,-6.215972062E0,-1.322076158E1,2.222811312E1,2.659917026E1
1.285034862E1,-1.942123443E0,-9.305316292E0,1.490190742E1,1.767562161E1
1.286029463E1,-1.740103019E0,-3.995402455E0,1.607672414E1,1.665689822E1
1.287024163E1,-2.182244031E0,-3.712888384E-1,1.630894865E1,1.645848870E1
1.288018763E1,-3.837448695E0,3.083092095E-1,1.647404946E1,1.691790095E1
1.289013362E1,-4.950681957E0,-3.542183308E-1,1.434204587E1,1.517659390E1
1.290008062E1,-5.458630750E0,-1.351794398E0,1.013195471E1,1.158794650E1
1.291002663E1,-4.692745195E0,-1.626339591E0,5.582489980E0,7.472016616E0
1.291997263E1,-3.133312076E0,-1.925314014E0,2.157897395E0,4.263918360E0
1.292991862E1,-1.568843043E0,-1.998511798E0,-4.687981761E-1,2.583619482E0
1.293986562E1,-4.756975982E-1,-1.892441113E0,-2.663427780E0,3.301737287E0
1.294981162E1,-1.916775763E-2,-1.442776781E0,-4.177252032E0,4.419435120E0
1.295975763E1,-3.642961532E-1,-4.219166628E-1,-5.090018767E0,5.120450801E0
1.296970463E1,-1.163303846E0,1.074498820E0,-5.631335866E0,5.849766422E0
1.297965063E1,-1.378566167E0,2.260920949E0,-6.219634173E0,6.759885906E0
1.298959662E1,-7.634574991E-1,2.859669693E0,-6.494724619E0,7.137368281E0
1.299954263E1,1.790461287E-1,3.230050458E0,-6.671116989E0,7.414113930E0
1.300948963E1,1.343808855E0,3.414336569E0,-7.308311468E0,8.177709518E0
1.301943563E1,2.790256811E0,3.214614394E0,-8.240752330E0,9.275196911E0
1.302938162E1,4.048113935E0,2.784498473E0,-8.591278290E0,9.897005650E0
1.303932862E1,5.446702430E0,2.379262601E0,-8.515849208E0,1.038494803E1
1.304927463E1,6.559153334E0,2.182485229E0,-7.757790443E0,1.039081550E1
1.305922063E1,6.338433223E0,2.075110177E0,-7.151826528E0,9.779081790E0
1.306916662E1,6.034401398E0,2.125078289E0,-7.219729074E0,9.646473235E0
1.307911362E1,6.734842869E0,2.045693420E0,-7.409668858E0,1.021989054E1
1.308905962E1,7.189414185E0,1.926284505E0,-7.213456766E0,1.036495088E1
1.309900563E1,7.158964809E0,1.982906456E0,-6.681836105E0,9.991477813E0
1.310895263E1,7.197654666E0,2.070364577E0,-6.308386720E0,9.792261495E0
1.311889863E1,7.374789632E0,2.086067567E0,-6.073201767E0,9.778700308E0
1.312884462E1,7.569010747E0,2.098810550E0,-5.726641973E0,9.720563651E0
1.313879063E1,7.757036737E0,2.115432576E0,-5.398481027E0,9.684537745E0
1.314873763E1,7.912088524E0,2.103188214E0,-5.157275780E0,9.675848229E0
1.315868363E1,8.037043523E0,2.117920274E0,-4.909988260E0,9.653374518E0
1.316862962E1,8.153139989E0,2.101814703E0,-4.716652413E0,9.650809641E0
1.317857563E1,8.288649797E0,2.108329525E0,-4.610916335E0,9.716342845E0
1.318852263E1,8.455194871E0,2.089029620E0,-4.455251760E0,9.782823381E0
1.319846863E1,8.572407571E0,2.087762090E0,-4.229006907E0,9.784141328E0
1.320841462E1,8.681725945E0,2.078820235E0,-3.999687295E0,9.782195941E0
1.321836162E1,8.784781952E0,2.053664929E0,-3.763143448E0,9.775028501E0
1.322830762E1,8.899633546E0,2.068777058E0,-3.518632185E0,9.791020796E0
1.323825363E1,8.999252560E0,2.039685844E0,-3.280361948E0,9.793244584E0
1.324820063E1,9.075157605E0,2.034231707E0,-3.029726897E0,9.781402213E0
1.325814663E1,9.150898343E0,2.026283295E0,-2.773906242E0,9.774421738E0
1.326809262E1,9.223729507E0,2.015566518E0,-2.501195320E0,9.767070822E0
1.327803863E1,9.274830079E0,1.985996271E0,-2.222343067E0,9.741943486E0
1.328798563E1,7.115959707E0,1.184858437E0,-4.430870917E-1,7.227523659E0
1.329793163E1,-1.257704395E1,-6.430021670E0,1.061229178E1,1.766770925E1
1.330787762E1,-2.754193640E1,-8.671918411E0,1.017194148E1,3.061419317E1
1.331782363E1,-1.877083928E1,4.410134937E0,2.038744004E0,1.938943461E1
1.332777063E1,-1.575246913E1,3.633765323E0,1.145031239E1,1.981045653E1
1.333771663E1,-1.441025832E1,-3.243166932E0,5.140594142E1,5.348592796E1
1.334766262E1,-1.906853740E1,-5.329288001E0,5.917126834E1,6.239590873E1
1.335760962E1,-1.968175595E1,-1.047120782E1,3.883557382E1,4.477967736E1
1.336755562E1,-1.215384119E1,-1.164165200E1,2.238710827E1,2.800761564E1
1.337750163E1,-7.336883887E0,-9.013272429E0,1.591431422E1,1.970620060E1
1.338744762E1,-4.253196253E0,-6.367580423E0,8.405060844E0,1.137017179E1
1.339739463E1,-3.614697846E0,-5.239622703E0,5.207307481E0,8.224094953E0
1.340734062E1,-3.291516974E0,-4.611596659E0,5.347043656E0,7.790493155E0
1.341728671E1,-2.182943358E0,-3.859987080E0,5.089809437E0,6.750622347E0
1.342723371E1,-1.355083457E0,-2.854102851E0,3.826719639E0,4.962452766E0
1.343717971E1,-1.431369156E0,-1.870125946E0,2.101975209E0,3.156657804E0
1.344712571E1,-2.425073635E0,-7.404593767E-1,-5.062238646E-1,2.585638185E0
1.345707171E1,-4.322519673E0,9.019597654E-1,-3.048647025E0,5.365813677E0
1.346701871E1,-6.016196676E0,2.434385618E0,-4.896801034E0,8.130160894E0
1.347696471E1,-6.331140575E0,3.126412362E0,-5.833211571E0,9.158829209E0
1.348691071E1,-5.005051707E0,3.398525406E0,-6.651154010E0,8.991015915E0
1.349685771E1,-2.302163993E0,3.704217255E0,-7.137478046E0,8.364495046E0
1.350680371E1,3.059625757E-1,3.497038710E0,-7.468949100E0,8.252762780E0
1.351674971E1,2.684504653E0,2.893986416E0,-7.665751176E0,8.622381556E0
1.352669571E1,4.636656656E0,2.491398310E0,-7.877442017E0,9.474161874E0
1.353664271E1,5.702019932E0,2.099265609E0,-7.626035133E0,9.750710705E0
1.354658871E1,5.987455857E0,1.915717125E0,-7.632602726E0,9.888186088E0
1.355653471E1,5.979111881E0,2.134109460E0,-7.572479315E0,9.881631700E0
1.356648171E1,6.138599950E0,2.310188273E0,-7.499193823E0,9.962795150E0
1.357642771E1,6.082871892E0,2.427357996E0,-7.327737672E0,9.827977243E0
1.358637371E1,6.635464177E0,2.341184509E0,-7.462924129E0,1.025698622E1
1.359631971E1,7.135544956E0,2.193938901E0,-7.591875114E0,1.064734415E1
1.360626671E1,7.177380030E0,2.232648200E0,-6.935594155E0,1.022751037E1
1.361621271E1,7.174003848E0,2.290914827E0,-6.474183351E0,9.931247254E0
1.362615871E1,7.269378367E0,2.355677418E0,-6.121709683E0,9.791241361E0
1.363610571E1,7.423942496E0,2.461593882E0,-5.872669752E0,9.780726795E0
1.364605171E1,7.551655626E0,2.560630805E0,-5.608942784E0,9.749080571E0
1.365599771E1,7.732246882E0,2.661623621E0,-5.408303765E0,9.804164001E0
1.366594371E1,7.862349769E0,2.689210492E0,-5.177805355E0,9.790713215E0
1.367589071E1,8.005731098E0,2.709242176E0,-4.921742333E0,9.780351281E0
1.368583671E1,8.152512583E0,2.760828067E0,-4.664454904E0,9.789932205E0
1.369578271E1,8.283353974E0,2.790240731E0,-4.403886602E0,9.787421192E0
1.370572971E1,8.405857235E0,2.801462707E0,-4.164053404E0,9.790095500E0
1.371567571E1,8.519023662E0,2.840916502E0,-3.912700899E0,9.795601005E0
1.372562171E1,8.635117205E0,2.881651715E0,-3.636200104E0,9.802607660E0
1.373556771E1,8.703046063E0,2.919938406E0,-3.381180518E0,9.782710911E0
1.374551471E1,8.750904354E0,3.033687216E0,-3.197198462E0,9.798145903E0
1.375546071E1,8.807756832E0,3.122013794E0,-2.996468811E0,9.813377394E0
1.376540671E1,8.826994171E0,3.190420662E0,-2.773460976E0,9.787067788E0
1.377535371E1,8.874443157E0,3.299720325E0,-2.505838886E0,9.794035128E0
1.378529971E1,8.886335809E0,3.384470454E0,-2.225771874E0,9.766046528E0
1.379524571E1,8.929979426E0,3.582100203E0,-2.022705968E0,9.831953715E0
1.380519171E1,9.056234261E0,4.090422049E0,-2.254203960E0,1.018962055E1
1.381513871E1,8.468056406E0,4.393129772E0,-2.079862794E0,9.763882308E0
1.382508471E1,-1.264475120E1,9.684354445E-1,5.958430864E0,1.401179854E1
1.383503071E1,-3.662417791E1,-7.508092116E0,1.101489012E1,3.897473104E1
1.384497771E1,-3.144868572E1,-1.387566143E1,1.972666257E1,3.963199502E1
1.385492371E1,-2.642238873E1,-1.831499034E1,5.115978300E1,6.042271836E1
1.386486971E1,-1.240242036E1,-1.003464652E1,4.210817622E1,4.502902027E1
1.387481571E1,-6.106602232E0,-6.248731087E0,3.205814100E1,3.322742295E1
1.388476271E1,-1.164861720E1,-1.094380318E1,3.435250890E1,3.788867877E1
1.389470871E1,-1.119606844E1,-9.770570471E0,2.461920098E1,2.875623503E1
1.390465471E1,-1.240571234E1,-6.972841503E0,9.508522239E0,1.711532099E1
1.391460171E1,-1.442663520E1,-4.332934148E0,7.564145279E-1,1.508225065E1
1.392454771E1,-1.761369752E1,-4.289273281E0,-2.096277097E0,1.824923514E1
1.393449371E1,-1.323438092E1,-4.524127575E0,-4.386537328E0,1.465804483E1
1.394443971E1,-6.220157499E0,-4.003963948E0,-4.785926716E0,8.810628873E0
1.395438671E1,-2.592789906E0,-3.547051992E0,-3.887039516E0,5.866277656E0
1.396433271E1,4.318180454E-1,-2.023573987E0,-4.325903456E0,4.795285103E0
1.397427871E1,2.288976475E0,-3.128181437E-1,-4.778504260E0,5.307671001E0
1.398422571E1,2.670221952E0,1.056519655E0,-5.358944494E0,6.079852395E0
1.399417171E1,2.631546713E0,2.032916084E0,-5.966838575E0,6.830881970E0
1.400411771E1,2.380583925E0,2.526059727E0,-6.333836727E0,7.222578850E0
1.401406371E1,2.083043387E0,2.912383511E0,-6.928440086E0,7.798995416E0
1.402401071E1,1.703177852E0,3.236061688E0,-7.456106275E0,8.304602991E0
1.403395671E1,1.911269732E0,3.378611251E0,-8.048808705E0,8.935954764E0
1.404390271E1,2.675860130E0,3.361056156E0,-8.040650085E0,9.116412656E0
1.405384971E1,3.462324668E0,3.311386397E0,-7.744137779E0,9.106296828E0
1.406379571E1,4.183742441E0,3.323544221E0,-7.404295267E0,9.130894556E0
1.407374171E1,4.784967188E0,3.186232301E0,-7.222029369E0,9.230693120E0
1.408368771E1,5.428667863E0,2.997023712E0,-7.353363680E0,9.618967892E0
1.409363471E1,5.911875333E0,2.829389009E0,-7.377937188E0,9.868620434E0
1.410358071E1,6.226377182E0,2.701663308E0,-7.055405942E0,9.790072035E0
1.411352671E1,6.326269260E0,2.634012192E0,-6.648547322E0,9.547925663E0
1.412347371E1,6.597658419E0,2.575706389E0,-6.511304984E0,9.620834299E0
1.413341971E1,6.804757442E0,2.539049024E0,-6.359882564E0,9.653993993E0
1.414336571E1,7.087926401E0,2.543614823E0,-6.289028928E0,9.811246705E0
1.415331171E1,7.230808378E0,2.633951673E0,-6.288652368E0,9.938281533E0
1.416325871E1,7.281575074E0,2.899769020E0,-6.269502736E0,1.003676544E1
1.417320471E1,7.406255838E0,2.857586330E0,-5.930192320E0,9.908865027E0
1.418315071E1,7.566263725E0,2.622396698E0,-5.602213224E0,9.772927105E0
1.419309771E1,7.706302786E0,2.482192453E0,-5.360419162E0,9.709916354E0
1.420304371E1,7.819101423E0,2.504030050E0,-5.181969157E0,9.708826803E0
1.421298971E1,7.948102695E0,2.516165946E0,-5.054926118E0,9.749651561E0
1.422293571E1,8.084734583E0,2.523968470E0,-4.926216037E0,9.798007683E0
1.423288271E1,8.193951216E0,2.497834632E0,-4.708793755E0,9.775108849E0
1.424282871E1,8.287048244E0,2.471718921E0,-4.503945326E0,9.750389045E0
1.425277471E1,8.371801296E0,2.485724172E0,-4.348387755E0,9.755734604E0
1.426272171E1,8.468243517E0,2.470645664E0,-4.198209037E0,9.769349896E0
1.427266771E1,8.550072377E0,2.495698352E0,-4.022270996E0,9.772968427E0
1.428261371E1,8.626937535E0,2.498674293E0,-3.823467418E0,9.761471587E0
1.429255971E1,7.622609249E0,2.455217786E0,-3.134625653E0,8.599892100E0
1.430250671E1,-3.162978802E0,1.865471123E0,1.883189356E0,4.126841354E0
1.431245271E1,-2.394371660E1,4.261230327E0,8.834890251E0,2.587498665E1
1.432239871E1,-3.484821012E1,7.739630746E0,1.400352483E1,3.834577343E1
1.433234571E1,-1.592694537E1,-6.344250033E0,2.921251398E1,3.387164110E1
1.434229171E1,-2.165236352E1,-2.048295080E1,9.714548181E1,1.016150617E2
1.435223771E1,-1.284837698E1,-1.884616662E1,5.176364601E1,5.656618986E1
1.436218471E1,-7.513567448E0,-1.867581033E1,3.465031227E1,4.007347911E1
1.437213071E1,-1.372988800E0,-1.222266643E1,1.667156607E1,2.071762023E1
1.438207671E1,1.270926528E0,-6.335226025E0,5.041958748E0,8.195833761E0
1.439202271E1,1.713428606E0,-3.509283657E0,-8.836195350E-2,3.906240803E0
1.440196971E1,1.616237357E0,-1.374220809E0,-2.037635956E0,2.941541486E0
1.441191571E1,8.316526982E-1,1.567043562E-1,-5.137299353E-1,9.900105616E-1
1.442186208E1,1.436979559E-1,9.657273066E-1,-2.712651980E-1,1.013342559E0
1.443180808E1,-1.083114254E0,1.220372379E0,-1.096673362E0,1.965995344E0
1.444175508E1,-2.420990817E0,1.004999546E0,-2.204312593E0,3.424940091E0
1.445170108E1,-3.589196384E0,7.678252231E-1,-3.223594548E0,4.885022831E0
1.446164708E1,-3.895823788E0,8.420741907E-1,-3.991737421E0,5.640966191E0
1.447159408E1,-3.298152979E0,1.527654963E0,-4.599506371E0,5.862337556E0
1.448154008E1,-2.237937006E0,2.684403789E0,-5.001545717E0,6.101626447E0
1.449148608E1,-1.133265530E0,3.655886510E0,-5.661572403E0,6.833973881E0
1.450143308E1,-7.315480739E-2,3.891898260E0,-6.947813666E0,7.963939881E0
1.451137908E1,9.914012611E-1,3.566220919E0,-7.595821400E0,8.449692944E0
1.452132508E1,2.468305609E0,3.341795135E0,-7.314724694E0,8.412212827E0
1.453127108E1,3.859052111E0,3.156697723E0,-7.053161781E0,8.637367354E0
1.454121808E1,4.773555177E0,2.933780520E0,-7.301040455E0,9.203210792E0
1.455116408E1,5.419116436E0,2.931581674E0,-7.859455397E0,9.986592672E0
1.456111008E1,5.753332758E0,2.864336355E0,-7.882153119E0,1.017023099E1
1.457105708E1,5.810904443E0,2.692834889E0,-7.606777328E0,9.943894182E0
1.458100308E1,5.640853963E0,2.635671924E0,-7.282189032E0,9.581037367E0
1.459094908E1,5.589751638E0,2.645424787E0,-7.127261206E0,9.436177615E0
1.460089508E1,6.139615027E0,2.737121993E0,-7.072945835E0,9.757728848E0
1.461084208E1,6.311945921E0,2.745056372E0,-6.703213525E0,9.607760788E0
1.462078808E1,6.193787141E0,2.838479968E0,-6.846602456E0,9.658981979E0
1.463073408E1,6.592750851E0,2.931806207E0,-6.919411985E0,9.996905203E0
1.464068108E1,6.917119877E0,3.033654179E0,-6.555485376E0,1.000119961E1
1.465062708E1,7.091699610E0,3.125708649E0,-6.047772810E0,9.830453391E0
1.466057308E1,7.282669673E0,3.137147265E0,-5.649925919E0,9.736561683E0
1.467051908E1,7.478509882E0,3.140109172E0,-5.321708840E0,9.700978335E0
1.468046608E1,7.694051700E0,3.153733769E0,-5.069307929E0,9.738703770E0
1.469041208E1,7.789508080E0,3.203223433E0,-4.834753598E0,9.711432378E0
1.470035808E1,7.888000335E0,3.319013506E0,-4.704300170E0,9.765594709E0
1.471030508E1,7.971417882E0,3.361909264E0,-4.494106801E0,9.748996507E0
1.472025108E1,8.073978045E0,3.353618497E0,-4.267265531E0,9.728588470E0
1.473019708E1,8.227185035E0,3.287266633E0,-4.038549352E0,9.736661460E0
1.474014308E1,8.386001260E0,3.234678237E0,-3.811098510E0,9.762818870E0
1.475009008E1,8.501499556E0,3.188794844E0,-3.559028260E0,9.752465812E0
1.476003608E1,8.615045468E0,3.186857953E0,-3.286419079E0,9.755799423E0
1.476998208E1,8.711931492E0,3.168176392E0,-3.057782714E0,9.761410098E0
1.477992908E1,8.766410000E0,3.196362602E0,-2.813139889E0,9.745790590E0
1.478987508E1,8.893557705E0,3.282808131E0,-2.713082920E0,9.860680342E0
1.479982108E1,2.671608619E0,3.905758207E0,5.665571898E-2,4.732404216E0
1.480976708E1,-3.884132046E1,3.890505453E0,1.685419683E1,4.251879771E1
1.481971408E1,-3.667230050E1,-6.982656639E0,2.678636154E1,4.594697250E1
1.482966008E1,-1.423916528E1,-2.167706450E1,8.454259901E1,8.843132929E1
1.483960608E1,-9.059792876E0,-1.880973495E1,7.404479337E1,7.693190107E1
1.484955308E1,-1.230402926E1,-1.978341798E1,3.321540789E1,4.057137026E1
1.485949908E1,-1.036640467E1,-1.726574375E1,2.132367984E1,2.933031835E1
1.486944508E1,-9.423601956E0,-1.077104836E1,7.521594506E0,1.616768817E1
1.487939108E1,-1.098916588E1,-8.664514081E0,-5.581518173E-2,1.399423761E1
1.488933808E1,-8.184236652E0,-7.111257377E0,-5.225121608E0,1.203551440E1
1.489928408E1,-4.168092953E0,-5.501008446E0,-5.249186994E0,8.671104709E0
1.490923008E1,-2.610820380E0,-4.734375031E0,-1.960250396E0,5.750936586E0
1.491917708E1,-2.776868441E0,-3.362893351E0,-1.020552555E0,4.479015243E0
1.492912308E1,-3.568035311E0,-1.318629575E0,-1.852155844E0,4.230855848E0
1.493906908E1,-3.247714897E0,1.162964416E0,-3.207497163E0,4.710432712E0
1.494901508E1,-2.074903770E0,3.123765912E0,-3.886382289E0,5.400657962E0
1.495896208E1,-3.758996603E-1,3.972591590E0,-4.740338314E0,6.196256275E0
1.496890808E1,9.580250618E-1,4.111312396E0,-5.795597602E0,7.170052524E0
1.497885408E1,2.087044929E0,3.835396907E0,-6.956509645E0,8.213345994E0
1.498880108E1,3.382338851E0,3.367909092E0,-7.467420638E0,8.862584202E0
1.499874708E1,4.504104370E0,3.028255152E0,-7.695467311E0,9.416873291E0
1.500869308E1,4.900547345E0,2.872205538E0,-8.024628714E0,9.831561165E0
1.501863908E1,4.894758309E0,2.728679490E0,-7.799879871E0,9.604294699E0
1.502858608E1,4.879548240E0,2.547100348E0,-7.723504125E0,9.484209359E0
1.503853208E1,4.913294860E0,2.558171466E0,-7.732900600E0,9.512226833E0
1.504847808E1,5.058442633E0,2.541068068E0,-7.760429876E0,9.605682728E0
1.505842508E1,5.199923617E0,2.611044914E0,-8.038972519E0,9.923801707E0
1.506837108E1,5.117624642E0,2.612392112E0,-8.085573074E0,9.919232150E0
1.507831708E1,5.188464829E0,2.653503301E0,-7.910995679E0,9.825736598E0
1.508826308E1,5.357776805E0,2.752740490E0,-7.723364961E0,9.794575990E0
1.509821008E1,5.453993908E0,2.819485872E0,-7.557430336E0,9.737058253E0
1.510815608E1,5.466898713E0,2.820510305E0,-7.309663929E0,9.553713763E0
1.511810208E1,5.664510629E0,2.824838414E0,-7.662160401E0,9.938566030E0
1.512804908E1,5.750440140E0,2.883875996E0,-7.938096939E0,1.021751856E1
1.513799508E1,5.731087026E0,2.991336417E0,-7.772440057E0,1.010961307E1
1.514794108E1,5.706851487E0,3.246945403E0,-7.286187943E0,9.808126380E0
1.515788708E1,5.762803493E0,3.450681108E0,-7.106590714E0,9.778585572E0
1.516783408E1,6.040591845E0,3.366394079E0,-7.381573572E0,1.011479052E1
1.517778008E1,6.350527604E0,3.304710339E0,-7.404159611E0,1.029912088E1
1.518772608E1,6.600323580E0,3.401461293E0,-7.478878841E0,1.053887276E1
1.519767308E1,6.692142992E0,3.465206176E0,-7.188911324E0,1.041503133E1
1.520761908E1,6.853283485E0,3.437496221E0,-6.842774869E0,1.027654819E1
1.521756508E1,7.106891845E0,3.147847962E0,-6.776794302E0,1.031221603E1
1.522751108E1,7.332778557E0,3.063851832E0,-6.691222056E0,1.038890187E1
1.523745808E1,7.358617988E0,3.085312575E0,-6.451525390E0,1.026112042E1
1.524740408E1,6.988528413E0,3.225653352E0,-6.080014358E0,9.808717731E0
1.525735008E1,7.086118442E0,3.292269218E0,-5.949616186E0,9.820898327E0
1.526729708E1,7.216950477E0,3.210209101E0,-5.813661990E0,9.807572707E0
1.527724308E1,7.334421040E0,3.165423230E0,-5.668862711E0,9.795388744E0
1.528718908E1,7.173727275E0,3.079674105E0,-4.473805268E0,8.997871369E0
1.529713508E1,4.433708571E0,2.523451869E0,2.801744251E0,5.820253592E0
1.530708208E1,-9.015469812E0,6.495936162E0,1.551662169E1,1.908511020E1
1.531702808E1,-1.627035586E1,1.286583559E1,4.658238144E1,5.099188627E1
1.532697408E1,-1.594905720E1,3.747225281E0,9.724705496E1,9.861746205E1
1.533692108E1,-1.251716729E1,-9.113176786E0,7.035058333E1,7.203425604E1
1.534686708E1,-2.188497278E1,-2.260081698E1,5.180439408E1,6.060894495E1
1.535681308E1,-2.638060687E1,-2.680045099E1,2.879524966E1,4.736419528E1
1.536676008E1,-2.181375369E1,-1.901796600E1,6.327396603E0,2.962361944E1
1.537670608E1,-1.231997579E1,-1.390840350E1,-9.147325695E-1,1.860274784E1
1.538665208E1,-4.886913685E0,-1.333851515E1,-5.101188118E0,1.509370836E1
1.539659808E1,-1.366899510E0,-1.127391476E1,-4.854685879E0,1.235060902E1
1.540654508E1,6.400020191E-1,-8.573479950E0,-4.414304001E0,9.664380004E0
1.541649108E1,1.867180849E0,-5.703672355E0,-4.465444334E0,7.480537131E0
1.542643658E1,2.012038016E0,-1.967631044E0,-3.810938004E0,4.737416741E0
1.543638258E1,1.557738011E0,3.602083647E-1,-4.232676619E0,4.524582759E0
1.544632958E1,1.452603904E0,1.572679547E0,-5.439885162E0,5.846001166E0
1.545627558E1,1.527451188E0,2.162025383E0,-5.578131466E0,6.174383495E0
1.546622158E1,2.272554277E0,2.323480456E0,-5.396424562E0,6.299560494E0
1.547616858E1,3.118432082E0,2.583960026E0,-5.753094776E0,7.035592908E0
1.548611458E1,4.355906397E0,3.321150078E0,-6.436535468E0,8.451801418E0
1.549606058E1,4.637870245E0,2.808041702E0,-7.365310711E0,9.145640518E0
1.550600758E1,4.398954183E0,2.648628184E0,-7.758540641E0,9.303815456E0
1.551595358E1,4.620575058E0,2.677594998E0,-7.946469567E0,9.574215761E0
1.552589958E1,4.451399907E0,2.499764214E0,-8.031902651E0,9.517102629E0
1.553584558E1,4.343668174E0,2.423858145E0,-8.189589778E0,9.581853800E0
1.554579258E1,4.167910227E0,2.591220221E0,-8.322288244E0,9.661593011E0
1.555573858E1,4.100847926E0,2.722979917E0,-8.446873698E0,9.776566300E0
1.556568458E1,4.033452042E0,2.740508992E0,-8.578713793E0,9.867798906E0
1.557563158E1,4.157476748E0,2.806022951E0,-8.377740313E0,9.764471848E0
1.558557758E1,4.534225132E0,2.886813052E0,-8.760197334E0,1.027783754E1
1.559552358E1,4.629120179E0,2.956867374E0,-9.035371395E0,1.057401317E1
1.560546958E1,4.826296477E0,3.247485686E0,-9.023933072E0,1.073641789E1
1.561541658E1,4.630004863E0,3.050505562E0,-9.065027304E0,1.062625283E1
1.562536258E1,4.259627021E0,2.855666104E0,-8.963319080E0,1.032668099E1
1.563530858E1,4.219209897E0,2.948379555E0,-8.713094503E0,1.011991551E1
1.564525558E1,4.491994202E0,3.163774900E0,-8.604847339E0,1.020935264E1
1.565520158E1,4.860127298E0,3.323380791E0,-8.763644267E0,1.055780082E1
1.566514758E1,5.006941527E0,3.437055049E0,-8.759150682E0,1.065858957E1
1.567509358E1,5.039325746E0,3.629725775E0,-8.471844233E0,1.050437327E1
1.568504058E1,5.160319256E0,3.724139304E0,-8.413322375E0,1.054903321E1
1.569498658E1,5.312362651E0,3.703349821E0,-8.564151303E0,1.073688429E1
1.570493258E1,5.448689899E0,3.678217319E0,-8.541649463E0,1.077855648E1
1.571487958E1,5.563718664E0,3.646513131E0,-8.431825889E0,1.074000518E1
1.572482558E1,5.550512727E0,3.494511251E0,-8.299406335E0,1.057827708E1
1.573477158E1,5.094539834E0,3.612465671E0,-7.626616346E0,9.857460182E0
1.574471758E1,4.619965779E0,3.729308535E0,-6.753665641E0,8.992431570E0
1.575466458E1,4.173216283E0,3.661029428E0,-6.013787039E0,8.184406220E0
1.576461058E1,3.741778307E0,3.829773640E0,-4.680093282E0,7.111353188E0
1.577455658E1,3.115053853E0,4.390695283E0,-1.860467076E0,5.695884771E0
1.578450358E1,-1.021274686E0,5.731778752E0,5.993521174E0,8.355751654E0
1.579444958E1,-1.491709030E1,1.048019616E1,3.862390461E1,4.271018734E1
1.580439558E1,-1.684494420E1,1.196010540E1,1.011035042E2,1.031926103E2
1.581434158E1,-1.618468128E1,-1.696653705E1,9.226011909E1,9.519315555E1
1.582428858E1,-2.056798802E1,-3.167904730E1,6.538579672E1,7.551096995E1
1.583423458E1,-1.598261086E1,-2.223461522E1,2.774224330E1,3.898017480E1
1.584418058E1,-6.364687221E0,-1.162400276E1,6.951676921E0,1.496504245E1
1.585412758E1,4.942429197E-1,-8.432742147E0,-1.863331043E0,8.650284317E0
1.586407358E1,1.299199278E0,-8.692592411E0,-5.467959398E0,1.035121546E1
1.587401958E1,8.595711064E-1,-9.364089580E0,-6.380177080E0,1.136361279E1
1.588396658E1,4.200125170E-1,-8.805569388E0,-6.207788883E0,1.078198060E1
1.589391258E1,2.953949028E-1,-7.173727275E0,-5.359719250E0,8.959699303E0
1.590385858E1,3.877347171E-2,-4.312415684E0,-5.203644201E0,6.758427730E0
1.591380458E1,-6.248094910E-1,-2.038398872E0,-5.328495119E0,5.739191327E0
1.592375158E1,-8.178272492E-1,-6.610346000E-1,-5.495832490E0,5.595532407E0
1.593369758E1,-3.621443778E-1,2.691683865E-1,-5.633137978E0,5.651180730E0
1.594364358E1,5.683932155E-1,9.874026427E-1,-5.629855936E0,5.743980561E0
1.595359058E1,1.920681411E0,1.575182594E0,-6.330906687E0,6.800779129E0
1.596353658E1,3.056022995E0,1.950739461E0,-6.853679926E0,7.753553348E0
1.597348258E1,3.559738989E0,1.938441890E0,-6.708485375E0,7.837925405E0
1.598342858E1,4.024421894E0,2.372224892E0,-7.187213293E0,8.572015949E0
1.599337558E1,5.115247164E0,3.059656455E0,-7.634908283E0,9.686024760E0
1.600332158E1,5.441800125E0,2.589675094E0,-8.122477190E0,1.011406157E1
1.601326758E1,4.614462964E0,2.238376863E0,-7.831198727E0,9.361157671E0
1.602321458E1,4.502230922E0,2.127910388E0,-7.740175121E0,9.203716467E0
1.603316058E1,4.664925604E0,2.231499368E0,-8.052281367E0,9.569762564E0
1.604310658E1,5.040450751E0,2.517760189E0,-8.329399627E0,1.005605083E1
1.605305258E1,5.121638170E0,2.688280200E0,-8.474180195E0,1.026010516E1
1.606299958E1,4.882766547E0,2.423122273E0,-8.285875293E0,9.918097604E0
1.607294558E1,4.892541922E0,2.452810487E0,-8.235306233E0,9.888049075E0
1.608289158E1,5.040118629E0,2.587507532E0,-8.038328156E0,9.834262075E0
1.609283858E1,5.077359545E0,2.826795477E0,-8.161142489E0,1.001871246E1
1.610278458E1,5.150925704E0,3.022053303E0,-8.355920259E0,1.027064969E1
1.611273058E1,5.232476236E0,2.971819581E0,-8.335284265E0,1.028044177E1
1.612267658E1,5.168533425E0,3.038689216E0,-8.202911489E0,1.016046883E1
1.613262358E1,5.219973135E0,3.171236240E0,-8.162411919E0,1.019459794E1
1.614256958E1,5.342208593E0,3.044785231E0,-8.446964915E0,1.044802020E1
1.615251558E1,5.318094091E0,3.126405345E0,-8.396584135E0,1.041917273E1
1.616246258E1,5.482436519E0,3.020086592E0,-8.407610815E0,1.048169609E1
1.617240858E1,5.540627425E0,3.039446431E0,-8.346175289E0,1.046878354E1
1.618235458E1,5.726978772E0,3.033664704E0,-8.118124523E0,1.038775015E1
1.619230058E1,5.800971778E0,3.083651966E0,-7.991539321E0,1.034528316E1
1.620224758E1,5.847127360E0,3.056072696E0,-7.954779046E0,1.033474665E1
1.621219358E1,6.010080489E0,3.055947858E0,-8.078335390E0,1.052232804E1
1.622213958E1,6.056667595E0,3.126104506E0,-8.156696266E0,1.062955529E1
1.623208658E1,5.977838942E0,3.301139737E0,-8.003503894E0,1.052084391E1
1.624203258E1,5.152896801E0,3.671190427E0,-7.413271328E0,9.746105703E0
1.625197858E1,4.314983196E0,3.870046338E0,-6.614299010E0,8.794617106E0
1.626192558E1,5.405162641E0,3.739249386E0,-6.147397086E0,8.999347759E0
1.627187158E1,4.228826228E0,3.576915477E0,-1.860043153E0,5.842692541E0
1.628181758E1,-1.308414840E1,4.800687427E0,1.482972237E1,2.035097553E1
1.629176358E1,-2.649721205E1,2.326951217E0,5.717125395E1,6.305608001E1
1.630171058E1,-2.170835412E1,-1.327601543E1,1.050888541E2,1.081257253E2
1.631165658E1,-1.824863614E1,-2.923440362E1,8.389976080E1,9.070189049E1
1.632160258E1,-1.427015787E1,-2.727628103E1,4.705099601E1,5.622658746E1
1.633154958E1,-7.599191735E0,-1.367144508E1,1.487737601E1,2.158685810E1
1.634149558E1,-2.497703655E0,-5.735405779E0,2.587055542E0,6.769509538E0
1.635144158E1,1.387591052E-1,-3.125664210E0,-2.022107506E0,3.725312015E0
1.636138758E1,1.037545148E0,-2.928470078E0,-4.896355476E0,5.798856257E0
1.637133458E1,4.119609010E-1,-4.029849865E0,-6.275669210E0,7.469499699E0
1.638128058E1,-2.301966941E-1,-5.049241455E0,-6.936705126E0,8.582872933E0
1.639122658E1,-1.149393028E-1,-4.945214226E0,-6.115197054E0,7.865366475E0
1.640117358E1,-3.582974946E-1,-4.051800312E0,-4.575457942E0,6.122113871E0
1.641111958E1,-5.684540266E-1,-2.341560485E0,-4.398093765E0,5.014905209E0
1.642106596E1,-2.272482356E-1,3.177621107E-1,-5.340766670E0,5.355035307E0
1.643101196E1,1.701177227E-1,2.096543292E0,-5.450487918E0,5.842281434E0
1.644095896E1,1.047069678E0,2.896981068E0,-5.269554600E0,6.103856150E0
1.645090496E1,2.529383869E0,3.766855553E0,-5.661420375E0,7.255250801E0
1.646085096E1,3.447100273E0,3.520357114E0,-6.382441707E0,8.062938462E0
1.647079796E1,3.911532333E0,2.913852039E0,-6.776498433E0,8.349344281E0
1.648074396E1,4.159130926E0,2.600055072E0,-6.791719905E0,8.377715423E0
1.649068996E1,4.251180133E0,2.422433179E0,-6.775382200E0,8.357422987E0
1.650063596E1,4.419399265E0,2.256988112E0,-6.498457482E0,8.176492821E0
1.651058296E1,5.329237130E0,2.708842519E0,-7.410626047E0,9.521343109E0
1.652052896E1,5.467122077E0,2.621468160E0,-7.763836464E0,9.850821070E0
1.653047496E1,5.325804815E0,2.458896854E0,-7.424607909E0,9.462302747E0
1.654042196E1,5.600457305E0,2.422537698E0,-7.339142082E0,9.544465276E0
1.655036796E1,5.625316742E0,2.503478073E0,-7.514919325E0,9.715225338E0
1.656031396E1,5.767642649E0,2.644543612E0,-7.407266822E0,9.753302744E0
1.657026096E1,5.890605501E0,2.704303910E0,-7.396095132E0,9.834364036E0
1.658020696E1,5.909957446E0,2.805878817E0,-7.345326097E0,9.836379843E0
1.659015296E1,6.004425062E0,2.827636014E0,-7.286058134E0,9.855723661E0
1.660009896E1,5.978409630E0,2.887692474E0,-7.212195522E0,9.802852328E0
1.661004596E1,5.978147675E0,2.957013262E0,-7.152956210E0,9.779926360E0
