"Time (s)","Linear Acceleration x (m/s^2)","Linear Acceleration y (m/s^2)","Linear Acceleration z (m/s^2)","Absolute acceleration (m/s^2)"
1.977125183E-3,2.884343481E0,8.472948772E0,-1.248397206E0,9.037078830E0
1.192312501E-2,2.164208295E0,7.057874052E0,-1.399012711E0,7.513628966E0
2.187012509E-2,1.655779007E0,5.624426796E0,-3.473325035E-1,5.873365370E0
3.181612492E-2,1.912369886E0,1.812642699E0,6.763263845E-1,2.720339963E0
4.176212521E-2,2.417710821E0,-1.897822598E0,1.064263415E0,3.252647052E0
5.170912528E-2,2.264159430E0,-3.445758337E0,7.376087129E-1,4.188524209E0
6.165512512E-2,1.020664090E0,-4.053729016E0,4.916640052E-1,4.209062558E0
7.160212519E-2,9.773986414E-2,-3.557262985E0,5.262543789E-1,3.597306867E0
8.154812502E-2,-9.441510808E-1,-3.612772357E0,7.581096357E-1,3.810285500E0
9.149512509E-2,-1.605549670E0,-1.541145952E0,1.127647818E0,2.494896829E0
1.014411249E-1,-1.522030819E0,-1.135481333E0,5.320135939E-1,1.972038066E0
1.113881250E-1,-1.147886347E0,-2.766289074E0,-2.226396064E-1,3.003259346E0
1.213341253E-1,-1.386908390E-1,-3.235286640E0,-5.470112635E-1,3.284133998E0
1.312811249E-1,1.120653671E0,-3.155786726E0,-8.235426101E-1,3.448634069E0
1.412271252E-1,1.873760429E0,-4.826897571E0,-1.092146448E0,5.291757947E0
1.511741253E-1,3.538286431E0,-3.562627805E0,-9.495846060E-1,5.110136855E0
1.611201251E-1,4.593119457E0,-3.466375034E0,-1.086220880E0,5.855969435E0
1.710671252E-1,5.053876542E0,-3.457187304E0,-1.258769875E0,6.251264973E0
1.810131250E-1,4.144142173E0,-3.138311738E0,-1.192242740E0,5.333325198E0
1.909601251E-1,2.744226944E0,-2.532934299E0,-8.230903280E-1,3.824135899E0
2.009061249E-1,1.599587264E0,-2.509660626E0,-3.557994179E-1,2.997276947E0
2.108531250E-1,5.986908558E-1,-3.053051732E0,-1.722589731E-2,3.111246109E0
2.207991253E-1,-4.129730541E-1,-3.213128031E0,-6.582561493E-2,3.240227076E0
2.307461253E-1,-1.746059285E0,-2.871517321E0,-1.440332937E-1,3.363789581E0
2.406921252E-1,-2.608358703E0,-1.515852651E0,-2.019777390E-1,3.023597094E0
2.506391252E-1,-2.520784661E0,8.102439952E-1,-3.410843150E-1,2.669679597E0
2.605851251E-1,-1.640335194E0,2.848371118E0,-5.055045108E-1,3.325575497E0
2.705321251E-1,-7.095869552E-1,4.174415547E0,-6.694405572E-1,4.286888087E0
2.804781250E-1,1.666412607E-1,5.087176436E0,-1.051366796E0,5.197355629E0
2.904251250E-1,9.011497799E-1,5.341705148E0,-1.442827213E0,5.606035603E0
3.003711249E-1,1.407329790E0,5.026886380E0,-1.748997950E0,5.505375341E0
3.103181249E-1,1.781345916E0,4.690116579E0,-1.852271473E0,5.348017989E0
3.202641252E-1,2.134338817E0,4.242002928E0,-1.826127548E0,5.087704084E0
3.302101251E-1,2.328705674E0,2.979773256E0,-1.915574745E0,4.239262362E0
3.401571251E-1,2.472737213E0,1.192270076E0,-2.051743534E0,3.427183798E0
3.501031250E-1,2.714813696E0,-3.040973139E-1,-2.253133335E0,3.541087178E0
3.600501250E-1,3.436712402E0,-1.355789800E0,-2.625044317E0,4.532109419E0
3.699961249E-1,4.449882847E0,-1.728536934E0,-2.996839525E0,5.636518821E0
3.799431249E-1,5.103072091E0,-1.505663293E0,-3.026585480E0,6.121158909E0
3.898891252E-1,4.923830373E0,-9.586463284E-1,-2.739457955E0,5.715569807E0
3.998361253E-1,4.041922318E0,-2.372455126E-1,-2.244243228E0,4.629260106E0
4.097821251E-1,3.013652316E0,4.102032280E-1,-1.740085624E0,3.504035523E0
4.197291252E-1,2.230469235E0,7.733053797E-1,-1.339096731E0,2.714069688E0
4.296751251E-1,1.487678135E0,1.020325683E0,-9.529439776E-1,2.040184540E0
4.396221251E-1,5.901007113E-1,1.400190632E0,-6.317622690E-1,1.645562585E0
4.495681250E-1,-3.719463578E-1,2.007801123E0,-1.970511675E-1,2.051447929E0
4.595151250E-1,-1.359885775E0,2.781146264E0,2.572751498E-1,3.106485855E0
4.694611253E-1,-2.502789563E0,3.603640761E0,4.905930877E-1,4.414845853E0
4.794081249E-1,-3.735969975E0,4.347339934E0,6.747233704E-1,5.771662480E0
4.893541252E-1,-5.065696689E0,5.015416481E0,7.924941874E-1,7.172428631E0
4.993011253E-1,-6.515696243E0,5.478786687E0,7.594699904E-1,8.546823724E0
5.092471251E-1,-7.588547464E0,5.922600296E0,1.038896147E0,9.682073749E0
5.191941252E-1,-7.965085348E0,6.463487624E0,1.642041997E0,1.038824137E1
5.291401250E-1,-7.826275957E0,6.932556526E0,2.112275079E0,1.066642589E1
5.390871251E-1,-7.139837397E0,7.545983242E0,2.599736691E0,1.070877080E1
5.490331249E-1,-6.089105608E0,8.082964046E0,3.302422031E0,1.064506957E1
5.589801250E-1,-4.487561427E0,7.951868302E0,3.917831538E0,9.935784872E0
5.689261253E-1,-3.003252166E0,7.239824200E0,4.101614204E0,8.846344844E0
5.788731249E-1,-2.499592598E0,5.961269102E0,3.814608302E0,7.505726411E0
5.888191252E-1,-2.562748666E0,3.698721165E0,2.980604146E0,5.397427170E0
5.987661253E-1,-2.900124823E0,1.765227628E-1,1.524617043E0,3.281210357E0
6.087121251E-1,-3.393300334E0,-5.050474632E0,-5.974214253E-1,6.113811702E0
6.186591252E-1,-4.303596328E0,-1.198977885E1,-3.754724042E0,1.328057569E1
6.286051250E-1,-5.029356828E0,-1.929200745E1,-7.589257316E0,2.133243559E1
6.385511253E-1,-4.426993336E0,-2.486182535E1,-1.023294080E1,2.724741652E1
6.484975000E-1,-2.042433889E0,-2.666578259E1,-9.591149828E0,2.841171682E1
6.584435003E-1,8.290635511E-1,-2.376472865E1,-6.267407679E0,2.459126010E1
6.683904999E-1,2.712701974E0,-1.786426357E1,-3.068279051E0,1.832771130E1
6.783365002E-1,3.618807853E0,-1.331268566E1,-1.143489094E0,1.384308264E1
6.882835003E-1,4.373555925E0,-1.147017421E1,-2.609992415E-1,1.227847745E1
6.982295001E-1,4.977438816E0,-1.261294702E1,-3.690818068E-1,1.356456970E1
7.081765002E-1,5.387142107E0,-1.612632841E1,-1.432607888E0,1.706259457E1
7.181225000E-1,5.864583052E0,-1.954576375E1,-2.547307632E0,2.056499431E1
7.280695001E-1,5.888854845E0,-2.127822358E1,-3.041307600E0,2.228656461E1
7.380154999E-1,5.733986076E0,-2.039985485E1,-2.592238221E0,2.134835762E1
7.479625000E-1,5.165587013E0,-1.676933736E1,-1.403795441E0,1.760297152E1
7.579085003E-1,4.263590264E0,-1.213728305E1,-1.305016673E-1,1.286502516E1
7.678555003E-1,3.301851635E0,-7.528292491E0,7.883903190E-1,8.258266849E0
7.778015002E-1,2.322265258E0,-3.379036344E0,1.372239187E0,4.323637696E0
7.877485002E-1,1.370091359E0,8.068572879E-3,1.683638504E0,2.170680549E0
7.976945001E-1,4.749416994E-1,2.627843964E0,1.887146167E0,3.269931830E0
8.076415001E-1,-3.906128629E-1,4.561134018E0,2.000852000E0,4.995991460E0
8.175875000E-1,-1.106825883E0,6.109624073E0,1.980762136E0,6.517360546E0
8.275345000E-1,-1.704241168E0,7.375405928E0,1.892121855E0,7.802639021E0
8.374804999E-1,-2.155852770E0,8.539418165E0,1.703333827E0,8.970546800E0
8.474274999E-1,-2.438928905E0,9.623868508E0,1.409843216E0,1.002770548E1
8.573735002E-1,-2.747004664E0,1.070304291E1,9.536677167E-1,1.109101637E1
8.673205003E-1,-2.976630085E0,1.104136748E1,6.460962796E-1,1.145380125E1
8.772665001E-1,-2.930187113E0,1.082183962E1,6.725280333E-1,1.123167411E1
8.872135002E-1,-2.907844902E0,1.044205828E1,1.213193314E0,1.090706107E1
8.971595000E-1,-2.863709826E0,1.122170731E1,1.332113986E0,1.165770460E1
9.071065001E-1,-2.765149451E0,1.190832713E1,9.168305504E-1,1.225948143E1
9.170524999E-1,-3.227185907E0,1.217515429E1,3.866307628E-1,1.260153143E1
9.269995000E-1,-3.853854813E0,1.304108834E1,-2.721294165E-1,1.360133216E1
9.369455003E-1,-4.215040247E0,1.446689445E1,-2.656623960E-2,1.506845397E1
9.468924999E-1,-4.614004250E0,1.545210468E1,3.358264987E-1,1.612976608E1
9.568385002E-1,-5.176991422E0,1.565424293E1,6.871435873E-1,1.650238553E1
9.667855003E-1,-4.919742585E0,1.533418272E1,7.332501984E-1,1.612075316E1
9.767315001E-1,-4.405639305E0,1.527373420E1,4.676113375E-1,1.590331017E1
9.866785002E-1,-3.701104198E0,1.515355170E1,8.508097847E-1,1.562216946E1
9.966245000E-1,-3.779893967E0,1.482082993E1,1.159180098E0,1.533911003E1
1.006571500E0,-4.168453141E0,1.422000279E1,1.359655395E0,1.488062982E1
1.016517500E0,-4.504968004E0,1.345117345E1,1.246759694E0,1.424019711E1
1.026464500E0,-4.936868495E0,1.254323067E1,9.175148208E-1,1.351100069E1
1.036410500E0,-5.293006613E0,1.157326062E1,4.570743625E-1,1.273440998E1
1.046357500E0,-5.457702212E0,1.080569896E1,-6.600483209E-3,1.210577082E1
1.056303500E0,-5.550543718E0,1.021759537E1,-3.997450443E-1,1.163475770E1
1.066250500E0,-5.524760420E0,9.805952557E0,-6.722366957E-1,1.127526432E1
1.076196500E0,-5.269932915E0,9.561153612E0,-8.753737184E-1,1.095235730E1
1.086142500E0,-4.723208896E0,9.384343166E0,-9.376980937E-1,1.054769532E1
1.096089500E0,-4.070669277E0,9.213562369E0,-7.980337664E-1,1.010430293E1
1.106035500E0,-3.484362239E0,9.073960680E0,-5.829112673E-1,9.737418969E0
1.115982500E0,-3.105338996E0,9.128840892E0,1.917901352E-2,9.642574041E0
1.125928500E0,-2.700452349E0,9.299031705E0,6.431888978E-1,9.704541488E0
1.135875500E0,-2.370743061E0,9.313954968E0,9.204067075E-1,9.654912134E0
1.145821500E0,-1.890233936E0,9.021633947E0,8.088852485E-1,9.252954055E0
1.155768500E0,-1.276358153E0,8.387672979E0,2.797471690E-1,8.488840122E0
1.165714500E0,-7.679674566E-1,7.142089745E0,-9.184081292E-1,7.241732764E0
1.175661500E0,3.578368802E-1,2.693636835E0,-3.133552104E0,4.147634919E0
1.185607500E0,6.040610556E0,-9.842751424E0,-1.383768142E1,1.802360005E1
1.195554500E0,1.183900722E1,-2.921185208E1,-1.431385060E1,3.461763586E1
1.205500500E0,1.436049267E1,-5.440450119E1,-1.226807824E1,5.758974947E1
1.215447500E0,1.063286930E1,-7.028259659E1,-1.042526391E1,7.184279658E1
1.225393500E0,8.852426051E0,-7.915361795E1,-1.115978646E1,8.042512988E1
1.235340500E0,1.176533347E1,-8.462788416E1,-1.178587123E1,8.625084701E1
1.245286500E0,9.077974209E0,-6.842128751E1,-5.071279610E0,6.920693663E1
1.255233500E0,3.130292866E0,-3.952187322E1,-5.857611271E-1,3.964997241E1
1.265179500E0,1.459952977E0,-1.740075011E1,1.664896716E0,1.754107888E1
1.275126500E0,1.221536121E0,-6.946544820E-1,3.355858858E-1,1.444753692E0
1.285072500E0,-2.306206611E0,1.406470542E0,2.765125186E0,3.865574422E0
1.295019500E0,-2.956753353E0,-1.731868678E0,5.350089471E0,6.353362641E0
1.304965500E0,2.827906448E-1,-1.226628900E-2,2.059235688E1,2.059430219E1
1.314912500E0,2.070848434E0,4.163932074E0,3.103756097E1,3.138402355E1
1.324858500E0,-3.207828700E0,5.966321681E0,1.187162533E1,1.366830814E1
1.334805500E0,-5.791479993E0,6.456822383E0,5.304988142E0,1.016733470E1
1.344751500E0,-6.010195094E0,7.188021378E0,3.632200316E0,1.004902859E1
1.354698500E0,-5.211903977E0,8.073641245E0,2.518297256E0,9.934256243E0
1.364644500E0,-4.677221130E0,8.228778402E0,2.242840481E0,9.727256803E0
1.374591500E0,-4.243682833E0,8.399213628E0,2.341009970E0,9.697214097E0
1.384537500E0,-3.819208014E0,8.912353579E0,2.856206679E0,1.010813102E1
1.394484500E0,-3.879822005E0,1.005787750E1,3.074926458E0,1.121022263E1
1.404430500E0,-3.889941489E0,1.066939101E1,3.326703179E0,1.183361751E1
1.414377500E0,-3.669730085E0,1.021220658E1,3.544352625E0,1.141571363E1
1.424323500E0,-3.413322954E0,9.534169296E0,3.545630827E0,1.072952262E1
1.434270500E0,-3.374756182E0,9.578071945E0,3.397220600E0,1.070838687E1
1.444216500E0,-3.404344847E0,1.037982286E1,3.210455854E0,1.138583828E1
1.454163500E0,-3.351226986E0,1.158310032E1,3.535829724E0,1.256586754E1
1.464109500E0,-3.454770066E0,1.244608503E1,3.785911629E0,1.346007413E1
1.474056500E0,-3.675541048E0,1.313665406E1,4.518779127E0,1.437013037E1
1.484002500E0,-4.326842811E0,1.338297387E1,5.080648604E0,1.495454943E1
1.493949500E0,-4.822289088E0,1.286184545E1,5.366305554E0,1.474716162E1
1.503895500E0,-4.988036309E0,1.241822539E1,5.232363385E0,1.436907981E1
1.513842500E0,-5.342618483E0,1.208958146E1,4.632558050E0,1.400578974E1
1.523788500E0,-5.766897129E0,1.164757406E1,3.920773273E0,1.357554960E1
1.533735500E0,-6.169742221E0,1.116419410E1,3.263939458E0,1.316655800E1
1.543681500E0,-6.625944325E0,1.051850010E1,2.292071406E0,1.264102741E1
1.553628500E0,-7.123402044E0,9.868249962E0,1.134232660E0,1.222340778E1
1.563574500E0,-7.607685986E0,9.342799283E0,2.957638621E-1,1.205206459E1
1.573520500E0,-7.950845624E0,8.939317430E0,-3.260889843E-1,1.196802725E1
1.583467500E0,-8.016219249E0,8.964700778E0,-9.514729643E-1,1.206362018E1
1.593413500E0,-7.655806816E0,9.219439405E0,-1.002752753E0,1.202559579E1
1.603360500E0,-6.945786436E0,9.320740077E0,-4.093973355E-1,1.163132628E1
1.613306500E0,-6.125560659E0,9.488390860E0,9.716215923E-2,1.129431251E1
1.623253500E0,-5.206957233E0,9.647673692E0,3.152254423E-1,1.096765145E1
1.633199500E0,-4.269315857E0,9.762263331E0,2.236510286E-1,1.065733846E1
1.643146542E0,-3.502312607E0,9.824727967E0,1.357694238E-2,1.043032394E1
1.653092542E0,-2.930158170E0,9.851609956E0,5.480492905E-2,1.027828046E1
1.663039542E0,-2.561517535E0,9.758103622E0,3.577528265E-1,1.009504559E1
1.672985542E0,-2.533120240E0,9.621118562E0,4.710318124E-1,9.960145155E0
1.682932542E0,-3.120448202E0,9.392777190E0,2.135555184E-1,9.899851831E0
1.692878542E0,-4.263716271E0,9.044556202E0,-9.308328778E-2,9.999596883E0
1.702825542E0,-5.177467386E0,8.472415506E0,-5.881597281E-1,9.946553418E0
1.712771542E0,-5.839049431E0,7.667100713E0,-1.166189740E0,9.707673775E0
1.722718542E0,-4.752054965E0,5.463236017E0,-1.392505052E0,7.373468959E0
1.732664542E0,1.454655107E0,-3.953231167E0,-8.435590911E0,9.428852112E0
1.742611542E0,9.440612091E0,-1.882491316E1,-1.640562651E1,2.669545080E1
1.752557542E0,1.315820222E1,-3.539884475E1,-1.632652538E1,4.114330962E1
1.762504542E0,1.603487796E1,-5.717316716E1,-1.681791720E1,6.171491467E1
1.772450542E0,1.388797917E1,-7.070334819E1,-1.292890249E1,7.320516328E1
1.782397542E0,1.333136167E1,-7.507308004E1,-1.228020303E1,7.723014914E1
1.792343542E0,1.677245509E1,-7.231280600E1,-8.452351370E0,7.471211016E1
1.802290542E0,1.481243917E1,-4.850991842E1,-2.806833082E0,5.079861072E1
1.812236542E0,9.688703020E0,-2.660671636E1,1.349477585E0,2.834800542E1
1.822183542E0,5.825214919E0,-1.417521546E1,2.981400536E0,1.561277077E1
1.832129542E0,3.447449059E0,-5.837615694E0,2.592339963E0,7.258297906E0
1.842076542E0,1.820009314E0,3.473193473E0,-7.369570407E-1,3.989813590E0
1.852022542E0,3.067079495E0,1.400700510E-1,4.463896576E0,5.417838027E0
1.861969542E0,1.233418920E1,-1.802810606E0,3.457096088E1,3.674960796E1
1.871915542E0,7.967283901E0,-2.968473512E-1,3.226577329E1,3.323621304E1
1.881862542E0,-2.447798254E0,-2.622411901E-1,1.038564669E1,1.067343168E1
1.891808542E0,-5.003644282E0,6.276342809E-1,5.892678924E0,7.755903931E0
1.901755542E0,-4.782977088E0,2.615588200E0,4.998231515E0,7.395977943E0
1.911701542E0,-3.796177293E0,4.588006067E0,4.025069181E0,7.187624338E0
1.921648542E0,-3.342749108E0,5.663966838E0,3.710017109E0,7.551074022E0
1.931594542E0,-3.460408536E0,6.394041413E0,3.587224703E0,8.107180391E0
1.941541542E0,-3.745536312E0,7.206105062E0,3.613619034E0,8.889051409E0
1.951487542E0,-4.051652085E0,7.965406945E0,3.638819364E0,9.649072431E0
1.961434542E0,-4.406855233E0,8.946249304E0,3.537346784E0,1.058152030E1
1.971380542E0,-4.824292637E0,1.025218282E1,3.345217510E0,1.181403962E1
1.981327542E0,-4.745889076E0,9.979762212E0,3.382392353E0,1.155680297E1
1.991273542E0,-4.646347539E0,9.585755187E0,3.276077693E0,1.114486128E1
2.001220542E0,-4.646780525E0,9.665914081E0,3.194888227E0,1.119061102E1
2.011166542E0,-4.610489489E0,1.098656972E1,2.873504205E0,1.225635973E1
2.021113542E0,-5.023416642E0,1.354524814E1,2.057756518E0,1.459256056E1
2.031059542E0,-5.467339593E0,1.467464486E1,2.185852056E0,1.581186115E1
2.041006542E0,-5.302220070E0,1.328027103E1,2.661706652E0,1.454523354E1
2.050952542E0,-5.624678811E0,1.219162941E1,2.837862209E0,1.372320302E1
2.060899542E0,-5.951917065E0,1.185680614E1,3.100544572E0,1.362433651E1
2.070845542E0,-7.448918878E0,1.181847414E1,3.259429501E0,1.434526417E1
2.080792542E0,-9.906051042E0,1.212499220E1,3.193707382E0,1.597951970E1
2.090738542E0,-1.160529518E1,1.174740474E1,2.082282079E0,1.664392661E1
2.100685542E0,-1.217271016E1,1.114507136E1,1.064038882E0,1.653843000E1
2.110631542E0,-1.204845448E1,1.070948186E1,-2.013383460E-1,1.612137694E1
2.120578542E0,-1.141248675E1,1.019830541E1,-1.046505275E0,1.534097325E1
2.130524542E0,-1.039618688E1,9.779320244E0,-1.468866034E0,1.434828817E1
2.140471542E0,-9.616647781E0,9.410594825E0,-1.946919183E0,1.359520886E1
2.150417542E0,-9.015618916E0,9.188880687E0,-2.283382151E0,1.307404860E1
2.160364542E0,-8.308995184E0,9.123628099E0,-2.381572105E0,1.256789069E1
2.170310542E0,-7.457615442E0,9.121582743E0,-2.256442859E0,1.199628418E1
2.180257542E0,-6.621869985E0,9.170625679E0,-1.789477201E0,1.145215116E1
2.190203542E0,-5.977155987E0,9.326168048E0,-1.048025697E0,1.112664199E1
2.200150542E0,-5.402409772E0,9.607823748E0,-2.067060900E-1,1.102447441E1
2.210096542E0,-4.869339294E0,9.888722234E0,5.862362865E-1,1.103815952E1
2.220043542E0,-4.307362812E0,9.932548285E0,1.111616507E0,1.088322476E1
2.229989542E0,-3.805979565E0,9.529164664E0,1.285127661E0,1.034127713E1
2.239935542E0,-3.177507671E0,8.960362728E0,1.076031668E0,9.567784455E0
2.249882542E0,-2.463954988E0,8.138104459E0,5.416923438E-1,8.520167191E0
2.259829542E0,-1.671817188E0,6.208239119E0,-6.976137578E-1,6.467137746E0
2.269775542E0,6.944770190E-1,7.720809728E-1,-5.533206139E0,5.629811500E0
2.279722542E0,8.304905641E0,-9.988987949E0,-1.444760215E1,1.942896152E1
2.289668542E0,1.536386084E1,-2.515222147E1,-1.707870886E1,3.406412719E1
2.299614542E0,2.109196404E1,-4.422331059E1,-1.472779956E1,5.116131572E1
2.309561542E0,2.106128486E1,-6.741337255E1,-1.397389348E1,7.199590417E1
2.319507542E0,1.998386989E1,-8.161755043E1,-1.170472942E1,8.483973294E1
2.329454542E0,2.312439538E1,-8.122415912E1,-8.886121216E0,8.491798889E1
2.339400542E0,2.041501785E1,-5.742577623E1,-1.247625082E0,6.095940697E1
2.349347542E0,1.090191256E1,-3.047994943E1,2.298008230E0,3.245242451E1
2.359293542E0,4.940389103E0,-1.643216001E1,3.298588597E0,1.747295092E1
2.369240542E0,1.677743341E0,-7.019869489E0,3.272246305E0,7.924707329E0
2.379186542E0,-2.245596859E-1,3.404594523E0,-7.668053225E-1,3.497096127E0
2.389133542E0,-1.061749113E0,-2.176841789E0,7.420883818E0,7.806117344E0
2.399079542E0,7.397305505E0,-5.022813794E0,4.387085446E1,4.477276693E1
2.409026542E0,1.809693364E0,-4.424476402E0,2.960472884E1,2.998818019E1
2.418972542E0,-6.039034731E0,-3.453014147E0,1.034337950E1,1.246510115E1
2.428919542E0,-7.625912341E0,-7.950769025E-1,8.317863071E0,1.131253872E1
2.438865542E0,-6.029232459E0,3.187952260E0,6.982716866E0,9.760789849E0
2.448812542E0,-4.760486650E0,5.096450704E0,4.269602371E0,8.177135643E0
2.458758542E0,-4.308358593E0,5.642061414E0,3.425141639E0,7.882030577E0
2.468705542E0,-4.159054327E0,6.278747769E0,3.191688631E0,8.179687204E0
2.478651542E0,-4.094634383E0,7.034126755E0,3.333434494E0,8.795268925E0
2.488598542E0,-4.138717126E0,7.808447211E0,3.506865541E0,9.507835360E0
2.498544542E0,-4.182872960E0,8.647282922E0,3.557470269E0,1.024341363E1
2.508491542E0,-4.337491761E0,1.008168269E1,3.222472759E0,1.143846543E1
2.518437542E0,-4.165776286E0,1.027811639E1,3.027858419E0,1.149614262E1
2.528384542E0,-3.979703266E0,9.620240895E0,2.763393825E0,1.077141673E1
2.538330542E0,-3.982640030E0,9.359733989E0,2.580901640E0,1.049414576E1
2.548277542E0,-4.550536525E0,1.033559803E1,1.883422076E0,1.144898458E1
2.558223542E0,-5.649773891E0,1.285457853E1,6.851015934E-1,1.405807592E1
2.568170542E0,-6.838410507E0,1.474240590E1,-8.212297440E-2,1.625143483E1
2.578116542E0,-7.195415182E0,1.392553935E1,5.161919054E-1,1.568314700E1
2.588063542E0,-7.090082270E0,1.256309249E1,8.303277192E-1,1.444956760E1
2.598009542E0,-7.900976475E0,1.222769971E1,7.307054901E-1,1.457655652E1
2.607956542E0,-9.654955230E0,1.179707684E1,9.187589622E-1,1.527197762E1
2.617902542E0,-1.095026202E1,1.142160490E1,1.616614795E0,1.590517966E1
2.627849542E0,-1.131277652E1,1.180724514E1,1.526983703E0,1.642320401E1
2.637795542E0,-1.066639724E1,1.170505453E1,5.448666510E-1,1.584541609E1
2.647742875E0,-9.284259299E0,1.102818669E1,9.703995243E-2,1.441623353E1
2.657688875E0,-8.066545064E0,1.068594331E1,-6.284575689E-1,1.340348808E1
2.667635875E0,-7.246163167E0,1.058391174E1,-1.452693659E0,1.290877171E1
2.677581875E0,-6.754093072E0,1.043895575E1,-2.095199894E0,1.260870465E1
2.687528875E0,-6.152705188E0,1.038909537E1,-2.637983036E0,1.235912773E1
2.697474875E0,-5.494470674E0,1.049703381E1,-3.060682933E0,1.223702197E1
2.707421875E0,-4.948537783E0,1.058897659E1,-3.165348094E0,1.210924771E1
2.717367875E0,-4.361529372E0,1.056457733E1,-2.924486078E0,1.179770535E1
2.727314875E0,-3.852743550E0,1.023879503E1,-2.624494679E0,1.125009018E1
2.737260875E0,-3.731977204E0,9.941689821E0,-1.792923696E0,1.076937444E1
2.747207875E0,-3.729320522E0,1.004216487E1,-2.925104713E-1,1.071627123E1
2.757153875E0,-3.447459292E0,1.011017734E1,8.791791594E-1,1.071791106E1
2.767100875E0,-3.073977455E0,9.619507070E0,1.229289090E0,1.017326916E1
2.777046875E0,-2.452888547E0,8.919660260E0,9.708713946E-1,9.301590866E0
2.786993875E0,-1.708814568E0,7.995314868E0,2.488178833E-1,8.179670984E0
2.796939875E0,-1.069189695E0,6.418142467E0,-9.688555670E-1,6.578328088E0
2.806886875E0,6.289653996E-1,2.079240650E-1,-4.606410471E0,4.653799235E0
2.816832875E0,6.991026344E0,-1.201640122E1,-1.284972885E1,1.893102953E1
2.826779875E0,1.115011283E1,-2.242082098E1,-1.926797072E1,3.159545735E1
2.836725875E0,1.391865718E1,-3.591187712E1,-1.479643300E1,4.125925793E1
2.846672875E0,1.440218566E1,-6.103804573E1,-1.251707958E1,6.395110053E1
2.856618875E0,1.132335297E1,-8.144387409E1,-1.279550177E1,8.321687218E1
2.866565875E0,1.279018548E1,-8.979133109E1,-1.040480450E1,9.129256235E1
2.876511875E0,1.562338717E1,-6.867263359E1,-3.093993351E0,7.049534471E1
2.886458875E0,1.077705229E1,-3.572706300E1,1.756016070E0,3.735841912E1
2.896404875E0,6.110078986E0,-1.927669009E1,3.167268319E0,2.046840088E1
2.906351875E0,3.530092728E0,-9.496833655E0,4.247714781E0,1.098610418E1
2.916297875E0,2.106393950E0,2.242369781E0,2.245230531E0,3.808697657E0
2.926244875E0,-4.758364695E-1,2.864069138E0,8.379550027E0,8.868267645E0
2.936190875E0,5.972211581E0,9.729246444E-1,4.530307147E1,4.570538456E1
2.946137875E0,-3.833887741E-1,-5.581377840E-1,2.635174034E1,2.636043861E1
2.956083875E0,-7.236498304E0,-2.381905396E0,1.126044628E1,1.359551512E1
2.966030875E0,-8.998340979E0,-2.434506363E0,8.982100922E0,1.294508009E1
2.975976875E0,-7.438936511E0,2.857124984E-2,6.292564155E0,9.743457106E0
2.985923875E0,-5.215708176E0,3.209554213E0,3.950563959E0,7.287784685E0
2.995869875E0,-4.152624729E0,4.421894272E0,2.788490659E0,6.676310452E0
3.005816875E0,-3.768212984E0,5.130524184E0,2.276954892E0,6.760638363E0
3.015762875E0,-3.521323366E0,6.167385208E0,2.019208749E0,7.383330043E0
3.025709875E0,-3.233393312E0,7.149033898E0,1.748367474E0,8.038675687E0
3.035655875E0,-2.621449741E0,8.047151020E0,2.113980420E0,8.723391055E0
3.045602875E0,-1.859598765E0,8.900610616E0,2.383254933E0,9.399940478E0
3.055548875E0,-1.660199648E0,9.698333384E0,1.931279197E0,1.002715177E1
3.065495875E0,-2.894295734E0,1.053104121E1,-7.124481440E-2,1.092176051E1
3.075441875E0,-3.946333791E0,1.243546298E1,-3.324204079E0,1.346345508E1
3.085388875E0,-4.282211307E0,1.225063249E1,-5.396281890E0,1.405472121E1
3.095334875E0,-3.900078222E0,1.139580465E1,-4.920969915E0,1.301118436E1
3.105281875E0,-3.105838056E0,1.160398774E1,-3.859126078E0,1.261711598E1
3.115227875E0,-3.016456056E0,1.269733755E1,-3.529057771E0,1.351945401E1
3.125174875E0,-2.574244292E0,1.370805801E1,-2.623430486E0,1.419225055E1
3.135120875E0,-2.117856832E0,1.399619476E1,-1.935264513E0,1.428719826E1
3.145067875E0,-1.560526548E0,1.413799793E1,-1.479863623E0,1.430063722E1
3.155013875E0,-7.475086337E-1,1.451603095E1,-1.677560177E0,1.463175081E1
3.164960875E0,-1.608305901E-2,1.469038556E1,-1.821449776E0,1.480288370E1
3.174906875E0,2.566708401E-1,1.484926260E1,-2.143253628E0,1.500533291E1
3.184853875E0,5.162694907E-1,1.515580755E1,-2.523980750E0,1.537320772E1
3.194799875E0,9.161147051E-1,1.541528710E1,-2.676075307E0,1.567264246E1
3.204746875E0,1.084754252E0,1.554622380E1,-2.645592602E0,1.580698980E1
3.214692875E0,8.047115059E-1,1.553883175E1,-2.058929762E0,1.569528734E1
3.224639875E0,4.910108712E-1,1.546176896E1,-7.826743003E-1,1.548935022E1
3.234585875E0,2.047303158E-1,1.487554817E1,6.176063792E-1,1.488977117E1
3.244532875E0,-4.546209256E-2,1.372758537E1,2.272515539E0,1.391448863E1
3.254478875E0,-2.677440047E-2,1.254679747E1,3.997517978E0,1.316825705E1
3.264425875E0,-1.858815238E-1,1.106914644E1,4.543913383E0,1.196694211E1
3.274371875E0,-6.911788970E-1,9.711982539E0,4.033567232E0,1.053897517E1
3.284318875E0,-3.324615723E-1,8.252371917E0,3.804920050E0,9.093381634E0
3.294264875E0,9.892182031E-1,6.894535006E0,3.889988852E0,7.977792857E0
3.304211875E0,1.393843187E0,6.053312463E0,3.212716388E0,6.993349497E0
3.314157875E0,1.593439173E-1,5.887864911E0,-3.689220317E-1,5.901563112E0
3.324104875E0,-1.035470848E0,5.460450404E0,-2.791257269E0,6.219311508E0
3.334050875E0,-2.921350070E-1,9.553438210E-1,-2.940487568E0,3.105558214E0
3.343997875E0,2.017301679E0,-9.345820540E0,-5.007320427E0,1.079292016E1
3.353943875E0,2.764097830E0,-1.832846701E1,-1.243969168E1,2.232305689E1
3.363890875E0,2.726517482E0,-3.856211592E1,-1.487746021E1,4.142233098E1
3.373836875E0,-1.291556675E0,-5.711820333E1,-1.471826859E1,5.899817541E1
3.383783875E0,-7.473343282E0,-7.198471639E1,-1.643905387E1,7.421517867E1
3.393729875E0,-8.932445782E0,-7.606586709E1,-1.164912240E1,7.746939251E1
3.403676875E0,-1.344966019E0,-6.028212705E1,-6.687065270E0,6.066679995E1
3.413622875E0,-4.558874508E-1,-3.482351850E1,-3.258198370E0,3.497858102E1
3.423569875E0,-2.570419336E0,-1.961169228E1,1.446057508E0,1.983221147E1
3.433515875E0,-2.263003435E0,-1.201031661E1,3.138995570E0,1.261832725E1
3.443462875E0,-2.134003333E0,-6.624588355E0,4.522325463E0,8.300034259E0
3.453408875E0,-2.628283090E0,-3.021500157E0,5.810406260E0,7.056780860E0
3.463355875E0,-3.037644611E0,-1.282275097E0,7.048171182E0,7.781274396E0
3.473301875E0,-2.312697021E0,-1.816443390E-1,1.021858706E1,1.047860122E1
3.483248875E0,4.274672784E-2,2.517427483E0,2.029849219E1,2.045404737E1
3.493194875E0,-3.384596461E-1,5.102620686E0,1.825160068E1,1.895447758E1
3.503141875E0,-1.960913470E0,5.806350632E0,1.104343623E1,1.262997914E1
3.513087875E0,-2.223588962E0,6.525573360E0,7.567133206E0,1.023664791E1
3.523033875E0,-2.227110009E0,7.287338090E0,5.245420218E0,9.250932315E0
3.532980875E0,-1.967568040E0,8.229472466E0,3.939276202E0,9.333457990E0
3.542927875E0,-1.534856979E0,9.252176211E0,3.234313956E0,9.920652063E0
3.552873875E0,-1.188857129E0,1.020637105E1,2.590655965E0,1.059692831E1
3.562820875E0,-1.154795197E0,1.068972763E1,2.059064394E0,1.094730903E1
3.572766875E0,-1.091305545E0,1.077399536E1,1.651120091E0,1.095427412E1
3.582713875E0,-9.484469571E-1,1.084855438E1,1.101787191E0,1.094552962E1
3.592659875E0,-9.064467725E-1,1.093760513E1,5.158437037E-1,1.098721742E1
3.602606875E0,-9.332745288E-1,1.235257402E1,-1.231953374E0,1.244888731E1
3.612552875E0,-9.432190347E-1,1.337319265E1,-2.428666749E0,1.362462351E1
3.622499875E0,-1.031766199E0,1.316449266E1,-2.737162338E0,1.348556510E1
3.632445875E0,-1.337527776E0,1.212449285E1,-2.719267520E0,1.249746867E1
3.642392875E0,-1.243635088E0,1.300607755E1,-2.706335818E0,1.334274841E1
3.652339042E0,-9.455644991E-1,1.449249707E1,-1.945485592E0,1.465303647E1
3.662286042E0,-8.897303139E-1,1.550997808E1,-1.319715549E0,1.559143000E1
3.672232042E0,-1.029295458E0,1.518643293E1,-7.087736075E-1,1.523776737E1
3.682179042E0,-1.032635534E0,1.431649588E1,-1.300816910E-1,1.435427852E1
3.692125042E0,-1.314909869E0,1.339884321E1,4.005098601E-1,1.346916462E1
3.702072042E0,-1.418865908E0,1.339680136E1,9.445991237E-1,1.350480414E1
3.712018042E0,-1.196592484E0,1.314141837E1,1.238992545E0,1.325382258E1
3.721965042E0,-9.773091790E-1,1.256605469E1,1.129848271E0,1.265454151E1
3.731911042E0,-7.286991642E-1,1.192974431E1,7.732640107E-1,1.197696702E1
3.741858042E0,-5.356283426E-1,1.133547541E1,2.983553481E-1,1.135204460E1
3.751804042E0,-4.506611364E-1,1.085443902E1,-2.625317236E-1,1.086696207E1
3.761751042E0,-3.320658620E-1,1.056180224E1,-7.153331602E-1,1.059120559E1
3.771697042E0,9.601109829E-2,1.043398913E1,-9.031096204E-1,1.047344042E1
3.781644042E0,7.722841635E-1,1.034695332E1,-7.128106713E-1,1.040019062E1
3.791590042E0,1.024042173E0,1.010620708E1,-4.293727398E-1,1.016702734E1
3.801537042E0,1.002741132E0,9.726916913E0,-2.985901869E-1,9.783023996E0
3.811483042E0,1.085378077E0,9.254143800E0,-3.175878637E-1,9.322986919E0
3.821430042E0,1.255219445E0,8.704228370E0,-3.261473103E-1,8.800314736E0
3.831376042E0,1.392388692E0,8.289761353E0,-3.717648017E-1,8.414101177E0
3.841323042E0,1.403549419E0,7.652791407E0,-8.055054116E-1,7.822020600E0
3.851269042E0,1.230832317E0,6.053671482E0,-2.075764919E0,6.516953782E0
3.861216042E0,2.032613783E0,1.700134084E0,-5.245005065E0,5.876397947E0
3.871162042E0,3.638826673E0,-4.845763028E0,-1.098912027E1,1.254923277E1
3.881109042E0,5.174264866E0,-1.839938789E1,-1.238227787E1,2.277347792E1
3.891055042E0,2.926131777E0,-3.876557563E1,-1.300715578E1,4.099412400E1
3.901002042E0,-3.848668333E0,-4.956274000E1,-1.511334157E1,5.195854634E1
3.910948042E0,-1.000430765E1,-4.720526895E1,-1.477905976E1,5.046626790E1
3.920895042E0,-1.212123712E1,-5.194026934E1,-1.186344390E1,5.463933812E1
3.930841042E0,-1.363339374E1,-5.941198651E1,-8.320370357E0,6.152139570E1
3.940788042E0,-1.498233938E1,-6.312784060E1,-3.865366226E0,6.499642920E1
3.950734042E0,-1.321319762E1,-5.335508971E1,6.217929125E-3,5.496684662E1
3.960680042E0,-7.379242287E0,-3.098839992E1,2.366934185E0,3.194270689E1
3.970627042E0,-1.026053469E0,-1.080684502E1,2.679892077E0,1.118134636E1
3.980573042E0,8.344358267E-1,-3.231621020E0,3.936360195E0,5.160870969E0
3.990520042E0,-8.978713922E-2,-2.135863917E0,5.532930735E0,5.931551139E0
4.000467042E0,-4.951796436E-1,-1.586979352E0,9.359593656E0,9.506087510E0
4.010413042E0,7.756803726E-1,4.403637511E-1,2.438088251E1,2.439719312E1
4.020359042E0,-9.293150137E-1,3.890678238E0,2.419657359E1,2.452499087E1
4.030306042E0,-2.226788559E0,5.895033597E0,1.003387352E1,1.184857064E1
4.040253042E0,-2.092379636E0,6.818129439E0,3.755115514E0,8.060138591E0
4.050199042E0,-2.064737070E0,7.562332642E0,1.512498688E0,7.983712572E0
4.060146042E0,-1.145385346E0,8.144294906E0,1.779887474E0,8.414834908E0
4.070092042E0,-3.386353184E-1,8.629497446E0,2.342798341E0,8.948273806E0
4.080039042E0,3.073491698E-1,9.138675908E0,2.949609225E0,9.607812209E0
4.089985042E0,7.865045920E-1,9.867147177E0,3.227102585E0,1.041121386E1
4.099932042E0,1.330714601E0,1.112311857E1,2.843118272E0,1.155759013E1
4.109878042E0,2.196650401E0,1.280498830E1,2.198264818E0,1.317669786E1
4.119825042E0,1.896935868E0,1.238876010E1,2.370033209E0,1.275526557E1
4.129771042E0,8.422822054E-1,1.033736389E1,2.693889434E0,1.071576277E1
4.139718042E0,6.927509210E-1,1.036530188E1,2.207220998E0,1.062032069E1
4.149664042E0,5.436876331E-2,1.113798220E1,1.750748899E0,1.127487140E1
4.159611042E0,-7.461456478E-1,1.385393785E1,1.636929191E0,1.397024927E1
4.169557042E0,-6.417843966E-1,1.702028348E1,9.814512004E-1,1.706063256E1
4.179504042E0,-9.398010448E-1,1.654338340E1,8.743598843E-1,1.659310898E1
4.189450042E0,-2.443573056E0,1.498707796E1,3.149415600E-1,1.518824359E1
4.199397042E0,-3.358236921E0,1.467670074E1,-4.352234638E-1,1.506229462E1
4.209343042E0,-3.353416476E0,1.483875047E1,-9.515375760E-1,1.524268157E1
4.219290042E0,-3.554769148E0,1.406880783E1,-8.226365840E-1,1.453425156E1
4.229236042E0,-3.671162653E0,1.314687967E1,-8.461928232E-1,1.367603461E1
4.239183042E0,-2.996082310E0,1.225344851E1,-1.084344070E0,1.266093644E1
4.249129042E0,-1.899852167E0,1.227157254E1,-1.099317327E0,1.246633184E1
4.259076042E0,-2.079742633E0,1.228898672E1,-1.207395215E0,1.252207360E1
4.269022042E0,-2.626642361E0,1.167289016E1,-1.211276450E0,1.202592223E1
4.278969042E0,-2.607710246E0,1.121270844E1,-1.209152595E0,1.157527682E1
4.288915042E0,-2.098145283E0,1.096428013E1,-1.206633761E0,1.122825086E1
4.298862042E0,-1.413954686E0,1.090884736E1,-1.392234911E0,1.108785536E1
4.308808042E0,-6.379027956E-1,1.087042764E1,-1.304293957E0,1.096696402E1
4.318755042E0,2.309764934E-1,1.074950956E1,-1.069346912E0,1.080503627E1
4.328701042E0,7.902338000E-1,9.845148783E0,-5.507713155E-1,9.892157149E0
4.338648042E0,1.182235230E0,9.013428549E0,-2.399685609E-1,9.093797846E0
4.348594042E0,1.855765038E0,9.314714522E0,3.785728611E-2,9.497852582E0
4.358541042E0,2.215154646E0,9.591715254E0,4.004559195E-1,9.852323409E0
4.368487042E0,2.465293123E0,9.752525963E0,7.998241107E-1,1.009104313E1
4.378434042E0,2.722856541E0,9.508052707E0,1.031946001E0,9.943939188E0
4.388380042E0,2.877729110E0,8.972300988E0,8.461248493E-1,9.460414215E0
4.398327042E0,2.740485311E0,8.187208791E0,3.166568407E-1,8.639497618E0
4.408273042E0,2.316528847E0,7.123524250E0,-2.405813491E-1,7.494583580E0
4.418220042E0,1.909676366E0,-6.398853672E-1,-1.307210840E0,2.401065865E0
4.428166042E0,2.902260227E0,-1.312873810E1,-1.225616747E1,1.819341968E1
4.438113042E0,-2.559120469E0,-3.272186079E1,-1.990146157E1,3.838407800E1
4.448059042E0,-1.235595956E1,-5.757139529E1,-2.088343361E1,6.247602014E1
4.458006042E0,-1.934731159E1,-7.084363927E1,-2.033181197E1,7.620053982E1
4.467952042E0,-1.998617369E1,-7.131137910E1,-1.777719151E1,7.616290742E1
4.477899042E0,-1.760384613E1,-6.901332979E1,-1.113605379E1,7.208846497E1
4.487845042E0,-1.341338875E1,-5.056206658E1,-2.720626413E0,5.238170847E1
4.497792042E0,-8.983944549E0,-2.890383479E1,4.267087483E-1,3.027086067E1
4.507738042E0,-4.280981053E0,-1.401450824E1,1.316935637E0,1.471283656E1
4.517685042E0,2.719791430E-1,-1.479720367E0,6.430161126E-1,1.636158531E0
4.527631042E0,1.062884496E0,2.965838757E0,2.435036706E0,3.981874777E0
4.537578042E0,-4.534754013E-1,6.278091127E-1,4.101763600E0,4.174236320E0
4.547524042E0,-7.771832532E-1,-2.368910544E0,1.708749255E1,1.726841488E1
4.557471042E0,3.411256475E-1,-1.188764670E0,5.139152920E1,5.140640818E1
4.567417042E0,-1.683548165E0,1.376356212E0,2.475057389E1,2.484591714E1
4.577364042E0,-1.492826754E0,4.245942782E0,4.411536222E0,6.302238782E0
4.587310042E0,-1.641900786E0,5.756298466E0,-4.310500136E-1,6.001384368E0
4.597257042E0,-1.485257534E0,6.719567603E0,-1.850097916E0,7.126109809E0
4.607203042E0,-2.305926968E-1,7.558010965E0,-9.248152158E-1,7.617872795E0
4.617150042E0,9.562655615E-1,8.007923804E0,8.313851881E-1,8.107557512E0
4.627096042E0,1.748690532E0,8.657022044E0,1.820588188E0,9.017565669E0
4.637043042E0,2.288446132E0,9.471369030E0,2.183887391E0,9.985648760E0
4.646989125E0,2.491862286E0,1.022319349E1,2.275526709E0,1.076573661E1
4.656936125E0,2.627659192E0,1.122425436E1,2.119934640E0,1.172103244E1
4.666882125E0,2.452881823E0,1.134905733E1,1.966238822E0,1.177640975E1
4.676829125E0,4.271792738E0,1.149579203E1,1.116280538E0,1.231452516E1
4.686775125E0,9.498167989E0,1.366749003E1,-1.068616083E0,1.667805202E1
4.696722125E0,5.506110141E0,1.231743693E1,-3.725623620E-1,1.349723320E1
4.706668125E0,4.600581089E0,1.280428195E1,-1.586160157E0,1.369784241E1
4.716615125E0,1.516510901E0,1.387099652E1,-2.105153317E0,1.411155627E1
4.726561125E0,-1.158743457E0,1.485385617E1,-2.151618509E0,1.505354416E1
4.736508125E0,-2.450889677E0,1.629147249E1,-1.565059602E0,1.654896817E1
4.746454125E0,-2.764027371E0,1.769455165E1,3.365705569E-1,1.791229424E1
4.756401125E0,-3.532733915E0,1.840974330E1,8.967887802E-1,1.876707456E1
4.766347125E0,-4.643388847E0,1.790718214E1,1.580472278E0,1.856680168E1
4.776294125E0,-5.644626587E0,1.572900075E1,1.374388185E0,1.676759425E1
4.786240125E0,-6.265334256E0,1.298544974E1,7.068314548E-1,1.443523221E1
4.796187125E0,-6.404949394E0,1.012084032E1,-6.705440730E-3,1.197726307E1
4.806133125E0,-6.189673040E0,7.625482571E0,-5.604601519E-1,9.837385444E0
4.816080125E0,-5.549209968E0,5.630617828E0,-6.095652151E-1,7.929007387E0
4.826026125E0,-4.386967099E0,4.086636561E0,-6.379677728E-2,5.995844289E0
4.835973125E0,-2.816761362E0,2.903308632E0,7.300014853E-1,4.110504562E0
4.845919125E0,-8.419671135E-1,2.770104382E0,1.093549926E0,3.094872913E0
4.855866125E0,1.352460396E0,4.163460204E0,1.251176973E0,4.552910477E0
4.865812125E0,3.077559752E0,5.724177371E0,1.769240864E0,6.735561880E0
4.875759125E0,3.483313249E0,6.367000380E0,2.946276312E0,7.832797018E0
4.885705125E0,3.274931931E0,7.029668253E0,4.193528633E0,8.816297256E0
4.895652125E0,3.099975345E0,7.663175477E0,5.446365631E0,9.899343621E0
4.905598125E0,3.056339037E0,7.944593196E0,6.791895322E0,1.088979391E1
4.915545125E0,3.457130879E0,7.470533110E0,8.470998141E0,1.181179192E1
4.925491125E0,2.355144736E0,6.345868542E0,5.532927811E0,8.742427835E0
4.935438125E0,9.929778166E-1,4.098160838E0,2.123418703E0,4.721211094E0
4.945384125E0,1.872523450E0,5.109232718E0,2.661657535E0,6.057641775E0
4.955331125E0,1.937308846E0,3.714732596E0,2.024496970E0,4.653062626E0
4.965277125E0,2.316354308E0,-5.907961206E0,-4.752871236E-1,6.363599669E0
4.975224125E0,-6.050437387E0,-2.866747162E1,-3.297150182E0,2.948394345E1
4.985170125E0,-2.221458734E1,-6.660026341E1,-1.232837122E1,7.128163659E1
4.995117125E0,-4.551925472E1,-1.002264686E2,-2.297062765E1,1.124499769E2
5.005063125E0,-4.262171612E1,-9.626252418E1,-1.936640743E1,1.070427110E2
5.015010125E0,-1.221771968E1,-5.083142675E1,-9.257926948E0,5.309252143E1
5.024956125E0,-2.203258632E0,-2.162550141E1,-3.998040719E0,2.210205849E1
5.034903125E0,-4.133133620E-2,-9.501754671E0,-1.641612957E0,9.642610809E0
5.044849125E0,2.123212004E0,-2.601482962E0,-6.496035857E-1,3.420194093E0
5.054796125E0,3.318195188E0,1.429296318E0,-2.301312053E-1,3.620257952E0
5.064742125E0,3.788094979E0,3.791505368E0,-3.681187704E-2,5.359713765E0
5.074689125E0,3.737927915E0,4.907523658E0,-1.395753765E-1,6.170524681E0
5.084635125E0,3.318991579E0,4.904470827E0,2.429497638E-1,5.926935446E0
5.094582125E0,2.815132620E0,4.558895119E0,7.841015325E-1,5.415100331E0
5.104528125E0,2.475112060E0,4.038818032E0,1.416902852E0,4.944273910E0
5.114475125E0,2.507181699E0,3.849022674E0,2.134826913E0,5.065414254E0
5.124421125E0,2.789003460E0,4.020143194E0,2.726000296E0,5.600997163E0
5.134368125E0,2.962731254E0,4.509583211E0,3.136113769E0,6.240939576E0
5.144314125E0,3.121103674E0,5.384236625E0,3.703804150E0,7.242199760E0
5.154261125E0,3.428865146E0,6.638543905E0,3.958146628E0,8.455430569E0
5.164207125E0,3.718324248E0,7.969949062E0,4.005048022E0,9.663665605E0
5.174154125E0,4.079108856E0,9.316954590E0,3.791847430E0,1.085462477E1
5.184100125E0,4.397997871E0,1.047108386E1,3.422217739E0,1.186160009E1
5.194047125E0,4.561359721E0,1.158300442E1,3.226623405E0,1.286013579E1
5.203993125E0,4.790464740E0,1.256981679E1,2.943909651E0,1.377009261E1
5.213940125E0,4.972586212E0,1.364012857E1,2.865377160E0,1.479831434E1
5.223886125E0,4.708084780E0,1.415341470E1,2.906323164E0,1.519644446E1
5.233833125E0,4.267980938E0,1.417717778E1,3.251278775E0,1.515845786E1
5.243779125E0,3.565128952E0,1.394069065E1,3.650410885E0,1.484515072E1
5.253726125E0,2.587198214E0,1.344980871E1,3.865962642E0,1.423153597E1
5.263672125E0,1.936862264E0,1.298838972E1,4.172805224E0,1.377904229E1
5.273619125E0,1.078013289E0,1.242134078E1,4.341751750E0,1.320237205E1
5.283565125E0,1.022230340E-1,1.181443020E1,4.437801037E0,1.262082757E1
5.293512125E0,-7.181750531E-1,1.126202737E1,4.637481405E0,1.220062579E1
5.303459125E0,-1.243941920E0,1.082822127E1,4.930255294E0,1.196265793E1
5.313405125E0,-1.546724780E0,1.042397869E1,5.200144057E0,1.175130578E1
5.323352125E0,-1.581556498E0,1.021688201E1,5.522484684E0,1.172108510E1
5.333298125E0,-1.256881078E0,1.013735286E1,5.825597911E0,1.175939046E1
5.343245125E0,-7.266532235E-1,1.004339980E1,5.830427712E0,1.163579786E1
5.353191125E0,-5.629405408E-1,9.897218238E0,5.717789873E0,1.144399196E1
5.363138125E0,-7.637864050E-1,9.528719106E0,5.557577333E0,1.105741938E1
5.373084125E0,-1.210654745E0,9.067635162E0,5.335140479E0,1.059015657E1
5.383031125E0,-1.734824153E0,8.686967974E0,4.991276252E0,1.016788405E1
5.392977125E0,-2.270550290E0,8.345310486E0,4.584449791E0,9.788604886E0
5.402924125E0,-2.969658743E0,7.659357830E0,4.499481854E0,9.366427941E0
5.412870125E0,-3.210255587E0,7.407152216E0,3.785733581E0,8.916469236E0
5.422817125E0,-2.944050569E0,7.566894640E0,2.951530035E0,8.639262572E0
5.432763125E0,-2.647212281E0,7.753005082E0,2.528500940E0,8.573805320E0
5.442710125E0,-2.405414711E0,8.071199448E0,2.214656902E0,8.708328523E0
5.452656125E0,-2.380923648E0,8.253999782E0,1.993213490E0,8.818741964E0
5.462603125E0,-2.430315079E0,8.127678289E0,1.736406702E0,8.659139333E0
5.472549125E0,-2.408994084E0,7.413164324E0,1.011196133E0,7.860074771E0
5.482496125E0,-2.599397845E0,5.994298854E0,3.301396430E-2,6.533726182E0
5.492442125E0,-3.140982746E0,3.182389804E0,8.527286947E-2,4.472208507E0
5.502389125E0,-1.106195553E0,-7.110485544E0,1.876976105E0,7.436781063E0
5.512335125E0,6.150921495E-1,-2.961984272E1,-5.701693658E0,3.016989777E1
5.522282125E0,-5.445098539E0,-5.841340838E1,-1.911062799E1,6.170082235E1
5.532228125E0,-1.426766461E1,-7.826680116E1,-3.314989569E1,8.618685516E1
5.542175125E0,-1.848732182E1,-8.402489121E1,-3.397161660E1,9.249883321E1
5.552121125E0,-1.154705808E1,-7.174256681E1,-2.318756169E1,7.627577243E1
5.562068125E0,-2.484426382E0,-4.208573695E1,-8.346461803E0,4.297726205E1
5.572014125E0,2.432582045E-1,-2.084381054E1,-1.757823445E0,2.091921499E1
5.581961125E0,1.864784953E0,-1.006075433E1,3.507642344E-1,1.023812660E1
5.591907125E0,2.731990476E0,-3.725687354E0,1.649959419E0,4.905801087E0
5.601854125E0,2.401716932E0,-1.451214606E-1,2.511805385E0,3.478285605E0
5.611800125E0,1.914591828E0,1.940264028E0,2.920206793E0,3.994733293E0
5.621747125E0,1.439081487E0,2.999003579E0,2.987202436E0,4.470833970E0
5.631693125E0,9.515666659E-1,3.434453915E0,3.279571697E0,4.843195570E0
5.641640125E0,8.249360016E-1,3.727013503E0,3.744075093E0,5.346891374E0
5.651585250E0,1.250894114E0,4.117092369E0,4.662776460E0,6.344814416E0
5.661532250E0,2.605301778E0,4.761909277E0,8.053010514E0,9.711557839E0
5.671478250E0,4.098642649E0,6.164700751E0,1.079897817E1,1.309275894E1
5.681425250E0,3.659575810E0,7.182031490E0,8.694882765E0,1.185643529E1
5.691371250E0,2.354672281E0,7.796813591E0,5.983848125E0,1.010649406E1
5.701318250E0,1.305558125E0,8.600573609E0,4.234329920E0,9.674910764E0
5.711264250E0,5.019093503E-1,9.783066555E0,3.130834318E0,1.028408614E1
5.721211250E0,-6.436986837E-2,1.103095476E1,2.446296397E0,1.129913592E1
5.731157250E0,8.954716127E-3,1.213546105E1,2.567331714E0,1.240405931E1
5.741104250E0,4.308083774E-1,1.268027303E1,3.188541951E0,1.308211450E1
5.751050250E0,6.935108397E-1,1.271288296E1,4.048156912E0,1.335986245E1
5.760997250E0,6.001722479E-1,1.288335502E1,4.495547554E0,1.365836707E1
5.770943250E0,1.537737500E-1,1.266994334E1,5.049032124E0,1.363978871E1
5.780890250E0,7.375642741E-1,1.379993648E1,5.288979635E0,1.479714680E1
5.790836250E0,4.649053191E-1,1.328504002E1,5.600539166E0,1.442478646E1
5.800783250E0,-2.334247226E-1,1.211073084E1,6.292886336E0,1.365008084E1
5.810729250E0,-5.981917959E-1,1.165734475E1,6.687202680E0,1.345251649E1
5.820676250E0,-1.001350445E0,1.126505038E1,7.134420537E0,1.337176201E1
5.830622250E0,-1.029592423E0,1.180744512E1,7.573806633E0,1.406550275E1
5.840569250E0,-1.647654300E0,1.209805057E1,8.406796882E0,1.482402867E1
5.850515250E0,-2.203977255E0,1.270180131E1,9.330714258E0,1.591400329E1
5.860462250E0,-2.455356657E0,1.279155841E1,9.366457703E0,1.604316904E1
5.870408250E0,-2.606331473E0,1.190768862E1,8.431421261E0,1.482143301E1
5.880355250E0,-2.344601622E0,1.082369436E1,7.007665765E0,1.310560551E1
5.890301250E0,-1.890701567E0,1.026161321E1,5.571660352E0,1.182873016E1
5.900248250E0,-1.583581242E0,9.860813473E0,4.443592120E0,1.093109706E1
5.910194250E0,-1.388752894E0,9.528175315E0,3.509597653E0,1.024851380E1
5.920141250E0,-1.284729904E0,9.301610911E0,2.627017168E0,9.750472587E0
5.930087250E0,-1.295930538E0,9.205651086E0,1.832114220E0,9.475235638E0
5.940034250E0,-1.448151688E0,9.147188870E0,1.224642600E0,9.341732014E0
5.949980250E0,-1.602182259E0,9.195116742E0,8.482313088E-1,9.372121224E0
5.959927250E0,-1.702735657E0,9.259315662E0,7.726578006E-1,9.446228629E0
5.969873250E0,-1.828375364E0,9.295430989E0,3.916877273E-1,9.481635567E0
5.979820250E0,-2.073207493E0,9.214343557E0,-2.271853781E-1,9.447429793E0
5.989766250E0,-2.317541146E0,8.909919384E0,-9.076086143E-1,9.251022310E0
5.999713250E0,-2.638214878E0,8.261366689E0,-1.963711948E0,8.891935780E0
6.009660250E0,-3.062274838E0,6.728651252E0,-3.161854675E0,8.040497487E0
6.019606250E0,-2.502404816E0,2.003429160E0,-5.621830047E0,6.471532380E0
6.029553250E0,-6.758435507E-1,-1.150602232E1,-1.387277875E1,1.803605568E1
6.039499250E0,1.740040893E0,-2.541450417E1,-2.019529585E1,3.250807191E1
6.049446250E0,2.344721197E0,-5.215924055E1,-1.615535516E1,5.465418184E1
6.059392250E0,-4.102885096E0,-7.264035298E1,-1.817258608E1,7.499131572E1
6.069338250E0,-7.534413942E0,-8.011664034E1,-2.007597991E1,8.293665307E1
6.079285250E0,-6.166475966E0,-7.815777164E1,-1.390277380E1,7.962380180E1
6.089231250E0,-2.625345741E0,-6.040794042E1,-6.708102382E0,6.083592971E1
6.099178250E0,-1.771016371E0,-3.393394416E1,-1.429970209E0,3.401020258E1
6.109125250E0,-1.492288080E0,-1.649349379E1,1.496447643E0,1.662833776E1
6.119071250E0,-5.281035608E-1,-6.213177093E0,2.273937728E0,6.637262670E0
6.129018250E0,9.798278672E-1,4.336361786E0,1.078808657E0,4.574704833E0
6.138964250E0,1.250697355E0,9.807616675E0,7.558938333E-1,9.915894524E0
6.148911250E0,1.182288952E0,6.924363407E0,2.664783749E0,7.513034553E0
6.158857250E0,1.312360775E0,3.002646394E0,4.991731750E0,5.971227850E0
6.168804250E0,2.660827523E0,7.839449733E-1,1.345617048E1,1.373910830E1
6.178750250E0,4.827491063E0,1.822200558E0,2.622745660E1,2.673021819E1
6.188697250E0,1.934628482E0,2.543479167E0,1.873214006E1,1.900276677E1
6.198643250E0,-1.630667408E0,3.060308712E0,7.557396423E0,8.314974822E0
6.208590250E0,-3.409912858E0,4.733423982E0,1.448502959E0,6.010904184E0
6.218536250E0,-3.880895262E0,6.954539133E0,-4.172269034E-1,7.975026074E0
6.228483250E0,-3.497461464E0,8.633455426E0,7.699733439E-1,9.346745329E0
6.238429250E0,-2.798810118E0,9.599139463E0,1.970515768E0,1.019116033E1
6.248376250E0,-2.166527447E0,1.005430018E1,2.631228625E0,1.061631562E1
6.258322250E0,-1.852657681E0,1.027196629E1,3.231255862E0,1.092641965E1
6.268269250E0,-1.402398541E0,1.059915192E1,3.516621036E0,1.125501517E1
6.278215250E0,-7.992914294E-1,1.158003170E1,3.612011342E0,1.215658780E1
6.288162250E0,-1.568824039E-1,1.272701918E1,3.185389718E0,1.312053113E1
6.298108250E0,2.259842869E-1,1.299373993E1,3.055980603E0,1.335018216E1
6.308055250E0,3.043108103E-1,1.209096842E1,3.437960782E0,1.257392925E1
6.318001250E0,8.346935427E-1,1.265037271E1,3.594544247E0,1.317760947E1
6.327948250E0,7.302499189E-1,1.258800046E1,3.646674806E0,1.312590026E1
6.337894250E0,-9.098055594E-2,1.083769025E1,3.892205531E0,1.151577489E1
6.347841250E0,-8.287350107E-2,1.104819352E1,4.307254639E0,1.185841012E1
6.357787250E0,-1.273613105E-1,1.191024034E1,4.584652397E0,1.276280077E1
6.367734250E0,-5.750330213E-1,1.201713914E1,4.920247200E0,1.299812019E1
6.377680250E0,-8.985854834E-1,1.268759024E1,5.423500679E0,1.382739171E1
6.387627250E0,-1.134951648E0,1.312409658E1,5.429130962E0,1.424799949E1
6.397573250E0,-1.582644811E0,1.285167831E1,4.859775295E0,1.383068386E1
6.407520250E0,-2.174891158E0,1.221432713E1,3.827673905E0,1.298349053E1
6.417466250E0,-2.765402636E0,1.164603507E1,2.573834110E0,1.224345567E1
6.427413250E0,-3.390124419E0,1.116471567E1,1.402327497E0,1.175203565E1
6.437359250E0,-3.851240523E0,1.094925746E1,6.314545593E-1,1.162398501E1
6.447306250E0,-4.307211954E0,1.093223973E1,1.517004552E-1,1.175112562E1
6.457252250E0,-4.516501052E0,1.103931628E1,-9.423285037E-2,1.192787347E1
6.467199250E0,-4.420807567E0,1.114763244E1,-1.189045921E-1,1.199280563E1
6.477145250E0,-4.330933231E0,1.127766984E1,-1.118972889E-1,1.208119782E1
6.487092250E0,-3.830607453E0,1.112468797E1,1.898020819E-1,1.176725374E1
6.497038250E0,-2.938403621E0,1.074839508E1,6.408235529E-1,1.116122160E1
6.506985250E0,-2.331148348E0,1.060660595E1,9.117721242E-1,1.089796636E1
6.516931250E0,-2.199348160E0,1.047138558E1,9.986559016E-1,1.074636505E1
6.526878250E0,-2.177240715E0,1.001745453E1,1.046893969E0,1.030464747E1
6.536825250E0,-2.233348258E0,9.332319903E0,7.506325087E-1,9.625148746E0
6.546771250E0,-2.333529773E0,8.262447839E0,4.234845936E-2,8.585755580E0
6.556718250E0,-2.654116089E0,6.066470452E0,-9.984225976E-1,6.696509810E0
6.566664250E0,-1.206146542E0,-4.420737693E0,-3.773206214E0,5.935890528E0
6.576611250E0,2.403034894E0,-2.231099623E1,-1.816828721E1,2.887285559E1
6.586557250E0,5.674088953E0,-3.612123550E1,-2.995641313E1,4.726865375E1
6.596504250E0,1.878971760E0,-5.635888859E1,-2.907255269E1,6.344342502E1
6.606450250E0,-2.449743623E0,-7.003597039E1,-2.401665710E1,7.407994472E1
6.616397250E0,-1.241295617E0,-7.498931049E1,-1.536478587E1,7.655726058E1
6.626343250E0,1.126385477E0,-7.136229665E1,-6.626401577E0,7.167813701E1
6.636290250E0,3.269741651E0,-5.143623935E1,-2.113288987E-1,5.154049465E1
6.646236250E0,2.636231795E0,-2.938332285E1,2.118435998E0,2.957730804E1
6.656184125E0,1.432083393E0,-1.642315179E1,4.182998967E0,1.700788811E1
6.666130125E0,1.249591939E0,-7.359085180E0,3.604775998E0,8.289271663E0
6.676077125E0,1.008479224E0,-4.579059827E-1,2.306572501E0,2.558707669E0
6.686023125E0,2.917288740E0,-1.316450318E0,1.621247193E1,1.652537022E1
6.695970125E0,9.084079286E0,-1.312587063E0,5.030703910E1,5.113747710E1
6.705916125E0,-5.161917593E-1,-1.302905828E-1,2.249753644E1,2.250383469E1
6.715863125E0,-6.328775961E0,1.856187499E0,8.221456518E0,1.053998029E1
6.725809125E0,-6.872882767E0,3.235156247E0,4.419332899E0,8.788245373E0
6.735756125E0,-5.271390626E0,4.690803627E0,2.204127528E0,7.392521624E0
6.745702125E0,-3.250750479E0,5.898671735E0,1.782502057E0,6.966995084E0
6.755649125E0,-2.007849655E0,6.401782542E0,1.873441463E0,6.965921538E0
6.765595125E0,-1.383075247E0,7.119362787E0,2.405414711E0,7.640958288E0
6.775542125E0,-9.915943654E-1,8.235604441E0,3.090087704E0,8.851953565E0
6.785488125E0,-8.676252075E-1,9.366831924E0,3.239355425E0,9.949057110E0
6.795435125E0,-5.673445174E-1,1.020968292E1,3.268423396E0,1.073508717E1
6.805381125E0,-1.222730999E-1,1.069153559E1,3.177215018E0,1.115430765E1
6.815328125E0,3.992244959E-1,1.175695909E1,2.884288809E0,1.211216699E1
6.825274125E0,8.908920094E-1,1.337875569E1,2.629067202E0,1.366370326E1
6.835221125E0,1.300785043E0,1.455719417E1,2.379847468E0,1.480768780E1
6.845167125E0,8.742993656E-1,1.318065436E1,2.171518484E0,1.338691679E1
6.855114125E0,-4.074772561E-1,1.077478824E1,2.086775080E0,1.098256480E1
6.865060125E0,-2.451996262E0,1.072414902E1,1.047920740E0,1.105069209E1
6.875007125E0,-5.130358123E0,1.354089313E1,8.446411183E-1,1.450481919E1
6.884953125E0,-5.991682810E0,1.625416959E1,1.996879402E0,1.743805664E1
6.894900125E0,-5.782042587E0,1.629690923E1,2.275633129E0,1.744132372E1
6.904846125E0,-6.314280714E0,1.538504063E1,2.063677993E0,1.675793492E1
6.914793125E0,-5.471191739E0,1.528757105E1,2.192432512E0,1.638445995E1
6.924739125E0,-4.031230977E0,1.479128161E1,2.626310532E0,1.555411012E1
6.934686125E0,-3.472127818E0,1.401975436E1,2.892370538E0,1.473007099E1
6.944632125E0,-3.292192620E0,1.341077387E1,2.644474615E0,1.405989452E1
6.954579125E0,-3.014005488E0,1.282358244E1,1.918957652E0,1.331205823E1
6.964525125E0,-2.625254817E0,1.229156534E1,1.248648344E0,1.263066364E1
6.974472125E0,-2.279147890E0,1.182646143E1,9.670894155E-1,1.208283771E1
6.984418125E0,-2.039086358E0,1.141115593E1,9.843474725E-1,1.163362767E1
6.994365125E0,-1.599144776E0,1.111401680E1,1.090014845E0,1.128125728E1
7.004311125E0,-9.883595395E-1,1.079848233E1,1.107355056E0,1.090001424E1
7.014258125E0,-4.232419342E-1,1.048374776E1,1.190021529E0,1.055955738E1
7.024204125E0,8.374003102E-2,1.031898609E1,1.216648580E0,1.039079978E1
7.034151125E0,5.001486075E-1,1.006956258E1,1.283969912E0,1.016340582E1
7.044097125E0,9.332273126E-1,9.917971176E0,1.309845596E0,1.004752512E1
7.054044125E0,1.316551183E0,9.836548698E0,1.204753443E0,9.997120994E0
7.063991125E0,1.671086286E0,9.762981954E0,1.032722657E0,9.958657646E0
7.073937125E0,1.833587718E0,9.530505431E0,8.704542366E-1,9.744242827E0
7.083884125E0,1.593514054E0,9.207584760E0,5.604866105E-1,9.361252555E0
7.093830125E0,6.780545291E-1,8.445983167E0,-9.501579255E-3,8.473162331E0
7.103777125E0,-2.734764688E-2,7.068281511E0,-1.029916578E0,7.142974140E0
7.113723125E0,9.441268149E-1,1.672941023E-1,-5.708275284E0,5.788244075E0
7.123670125E0,2.839422831E0,-2.358758374E1,-1.554537362E1,2.839181343E1
7.133616125E0,-1.693336111E0,-5.929819502E1,-1.950081386E1,6.244537662E1
7.143563125E0,-4.795494515E0,-8.355084575E1,-2.416208204E1,8.710652559E1
7.153509125E0,-6.378396018E0,-9.448696335E1,-2.742164515E1,9.859217414E1
7.163456125E0,-1.788422655E0,-8.708920644E1,-1.915660582E1,8.918914665E1
7.173402125E0,7.286454429E-1,-5.974974976E1,-7.780827888E0,6.025864919E1
7.183349125E0,-2.309343204E-1,-3.083722834E1,-1.402286274E0,3.086995933E1
7.193295125E0,-8.017386353E-1,-1.493232463E1,8.339357436E-1,1.497706756E1
7.203242125E0,-5.552622695E-1,-5.475774786E0,2.251122185E0,5.946425548E0
7.213188125E0,5.226911587E-1,2.835274524E0,2.406203208E0,3.755236551E0
7.223135125E0,1.447277091E0,9.150661531E0,1.902221166E0,9.457677453E0
7.233081125E0,4.649356516E-1,7.109448833E0,4.791579219E0,8.586015332E0
7.243028125E0,3.671889462E0,3.364196110E0,2.678433138E1,2.724336608E1
7.252974125E0,2.058476164E0,2.194146039E0,2.926018049E1,2.941444820E1
7.262921125E0,-2.645022499E0,2.166429067E0,1.005377159E1,1.061922229E1
7.272867125E0,-4.808185019E0,2.854760370E0,2.209416335E0,6.012472078E0
7.282814125E0,-5.667213212E0,4.915651873E0,-1.834858903E0,7.723188857E0
7.292760125E0,-4.803884392E0,6.789015568E0,-8.835558003E-1,8.363534449E0
7.302707125E0,-3.603433477E0,8.034637393E0,6.650912520E-1,8.830768780E0
7.312653125E0,-2.511826435E0,8.815261733E0,1.436465881E0,9.278014102E0
7.322600125E0,-1.502846105E0,9.190064163E0,2.430218600E0,9.624021414E0
7.332546125E0,-6.719668467E-1,9.412515635E0,3.419415168E0,1.003690142E1
7.342493125E0,2.960664555E-3,9.740912223E0,3.974698342E0,1.052062767E1
7.352439125E0,4.687046937E-1,1.014995478E1,4.468655040E0,1.110000649E1
7.362386125E0,8.513856623E-1,1.088945682E1,4.388021059E0,1.177114507E1
7.372332125E0,1.550416858E0,1.230112437E1,4.011422949E0,1.303123046E1
7.382279125E0,2.010987563E0,1.344806390E1,3.702153481E0,1.409256663E1
7.392225125E0,2.343541229E0,1.356387386E1,3.743062063E0,1.426468973E1
7.402172125E0,2.207550488E0,1.225297138E1,4.025882821E0,1.308496539E1
7.412118125E0,1.638687157E0,1.125052706E1,4.205039755E0,1.212196412E1
7.422065125E0,1.063497576E0,1.063848848E1,4.578818922E0,1.163073716E1
7.432011125E0,8.090216348E-1,9.933605461E0,4.860700325E0,1.108861764E1
7.441958125E0,8.490439986E-1,9.875772990E0,5.181653992E0,1.118486951E1
7.451904125E0,6.381165844E-1,1.049238878E1,5.828136773E0,1.201934246E1
7.461851125E0,7.952480067E-2,1.199535943E1,6.425343313E0,1.360808615E1
7.471798125E0,-1.494919619E-1,1.304912709E1,6.886263535E0,1.475542921E1
7.481744125E0,-1.386360579E-1,1.272146316E1,6.956990871E0,1.450015748E1
7.491691125E0,-4.143836583E-1,1.214841848E1,6.551239713E0,1.380849475E1
7.501637125E0,-7.214762449E-1,1.198014497E1,5.584357581E0,1.323742615E1
7.511584125E0,-1.077174360E0,1.169033825E1,4.493735210E0,1.257051985E1
7.521530125E0,-1.405910379E0,1.120789385E1,3.644905731E0,1.186923781E1
7.531477125E0,-1.702375907E0,1.077906373E1,3.049970250E0,1.133087009E1
7.541423125E0,-2.061695787E0,1.053369585E1,2.607656160E0,1.104577785E1
7.551370125E0,-2.389052740E0,1.040168209E1,2.361865819E0,1.093073527E1
7.561316125E0,-2.567915559E0,1.037631453E1,2.093857227E0,1.089248969E1
7.571263125E0,-2.634120073E0,1.037851776E1,1.686259811E0,1.083954296E1
7.581209125E0,-2.537279657E0,1.036223911E1,1.334776661E0,1.075153088E1
7.591156125E0,-2.091318659E0,1.030632804E1,1.206093478E0,1.058530457E1
7.601102125E0,-1.724395936E0,1.028732926E1,1.108571569E0,1.048959559E1
7.611049125E0,-1.657516068E0,1.033073548E1,9.770217884E-1,1.050837888E1
7.620995125E0,-1.768351795E0,1.026577175E1,9.425504056E-1,1.045951906E1
7.630942125E0,-1.978032948E0,9.943763244E0,6.495458445E-1,1.015937752E1
7.640888125E0,-2.072381281E0,9.296943664E0,1.416444138E-1,9.526173881E0
7.650835125E0,-2.239002369E0,7.535157707E0,1.273921180E-1,7.861803994E0
7.660781125E0,-9.232940626E-1,-3.582010156E-1,-2.402194942E0,2.598330316E0
7.670728125E0,1.273096722E0,-2.194104524E1,-1.592739210E1,2.714244021E1
7.680674125E0,-2.534720623E0,-5.529040582E1,-2.529118172E1,6.085308256E1
7.690621125E0,-5.324217880E0,-7.827639995E1,-3.638798548E1,8.648484013E1
7.700567125E0,-6.129868303E0,-8.555922867E1,-3.664796906E1,9.327931460E1
7.710514125E0,-1.988152578E0,-7.781092416E1,-2.035093470E1,8.045280115E1
7.720460125E0,2.675946961E0,-5.470245192E1,-6.927963538E0,5.520430795E1
7.730407125E0,3.329503410E0,-3.002974189E1,-7.577129021E-1,3.022325462E1
7.740353125E0,2.143826948E0,-1.608907112E1,1.798868998E0,1.633065011E1
7.750300125E0,1.744401454E0,-8.279462652E0,2.910636948E0,8.947862632E0
7.760246125E0,1.506877029E0,-2.326457419E0,3.818920623E0,4.718817355E0
7.770193125E0,1.524574943E0,2.644135476E0,2.476054924E0,3.930219988E0
7.780139125E0,8.142846551E0,2.353958044E0,2.665170718E1,2.796713364E1
7.790086125E0,1.370202134E1,4.842102671E-1,4.682979351E1,4.879558800E1
7.800032125E0,3.299216880E0,-2.045929062E-1,1.540371663E1,1.575440181E1
7.809979125E0,-2.575006185E0,1.533476159E0,4.748321810E0,5.615048174E0
7.819925125E0,-4.116000109E0,2.936931877E0,2.682371297E0,5.723822282E0
7.829872125E0,-3.311946561E0,4.123196862E0,1.485794747E0,5.493389519E0
7.839818125E0,-2.116667508E0,5.091237327E0,7.253240052E-1,5.561211538E0
7.849765125E0,-1.529362204E0,5.835749847E0,1.174403908E0,6.146067814E0
7.859711125E0,-1.369784819E0,6.772754461E0,2.397485887E0,7.313990157E0
7.869658125E0,-1.050315467E0,7.871677832E0,3.202786938E0,8.562962025E0
7.879604125E0,-8.561991633E-1,8.896485990E0,3.495421955E0,9.596797103E0
7.889551125E0,-6.954113310E-1,9.777327513E0,3.443323264E0,1.038923507E1
7.899498125E0,-2.423696470E-1,1.047432088E1,3.487480852E0,1.104231242E1
7.909444125E0,2.626576215E-1,1.162137268E1,3.317460193E0,1.208845872E1
7.919391125E0,9.953520785E-1,1.361725309E1,3.019045788E0,1.398338103E1
7.929337125E0,1.313362988E0,1.450809043E1,2.898331482E0,1.485294367E1
7.939284125E0,1.619217390E0,1.363003276E1,2.808314182E0,1.401022079E1
7.949230125E0,1.160574659E0,1.245417992E1,2.479309484E0,1.275149036E1
7.959177125E0,4.519842516E-1,1.177151164E1,2.455884076E0,1.203345930E1
7.969123125E0,-5.700836456E-1,1.144318814E1,2.695721952E0,1.177023649E1
7.979070125E0,-2.238258311E0,1.104067751E1,2.778851817E0,1.160294694E1
7.989016125E0,-4.839684262E0,1.247892416E1,2.454781584E0,1.360779353E1
7.998963125E0,-6.588989337E0,1.414948537E1,2.653235498E0,1.583232059E1
8.008909125E0,-6.678742343E0,1.471749325E1,3.047922262E0,1.644688533E1
8.018856125E0,-6.752194481E0,1.479244286E1,2.855601492E0,1.650948079E1
8.028802125E0,-6.365897595E0,1.443147319E1,2.452923631E0,1.596273488E1
8.038749125E0,-6.131428925E0,1.381641159E1,1.667773546E0,1.520753493E1
8.048695125E0,-5.651647339E0,1.312954619E1,9.386775023E-1,1.432505554E1
8.058642125E0,-4.775094456E0,1.273675948E1,5.004000378E-1,1.361164829E1
8.068588125E0,-3.847208868E0,1.221221628E1,2.539691341E-1,1.280639461E1
8.078535125E0,-3.141532092E0,1.163600125E1,3.698513004E-1,1.205829751E1
8.088481125E0,-2.714358782E0,1.114152795E1,8.039383578E-1,1.149555155E1
8.098428125E0,-2.160651433E0,1.076958071E1,1.178353410E0,1.104720780E1
8.108374125E0,-1.589870507E0,1.050962403E1,1.405857754E0,1.072176858E1
8.118321125E0,-1.006013818E0,1.028363032E1,1.568211836E0,1.045104802E1
8.128267125E0,-5.204092463E-1,1.015820637E1,1.635933118E0,1.030224537E1
8.138214125E0,-1.090877748E-1,1.005108772E1,1.610659406E0,1.017990610E1
8.148160125E0,2.134923685E-1,9.956312538E0,1.553566607E0,1.007905291E1
8.158107125E0,4.613292351E-1,9.822288508E0,1.301296966E0,9.918848219E0
8.168053125E0,3.495468441E-1,9.581060457E0,6.998450553E-1,9.612943648E0
8.178000125E0,-1.504368537E-1,9.068385360E0,-1.316217014E-1,9.070588104E0
8.187947125E0,-2.581700662E-1,7.321720887E0,-7.176217604E-1,7.361333407E0
8.197893125E0,2.559705775E0,-3.089832473E-1,-4.993564267E0,5.619897543E0
8.207840125E0,3.788226542E0,-2.629248465E1,-1.335816296E1,2.973358248E1
8.217786125E0,7.331543040E-1,-5.920062136E1,-1.953471134E1,6.234465520E1
8.227732125E0,1.259790013E-1,-8.551417236E1,-3.131802851E1,9.106870184E1
8.237679125E0,4.054807243E-1,-9.550221774E1,-3.412880145E1,1.014180117E2
8.247625125E0,4.425562523E0,-7.957768610E1,-2.081281796E1,8.237333986E1
8.257572125E0,2.923953397E0,-4.822597763E1,-6.927092303E0,4.880859585E1
8.267519125E0,9.652897887E-1,-2.425091995E1,-2.375630164E-1,2.427128631E1
8.277465125E0,-3.150282450E-2,-1.200304501E1,1.686021537E0,1.212092202E1
8.287412125E0,-1.522138408E-1,-4.852761560E0,3.380373017E0,5.916027852E0
8.297358125E0,-1.984023128E-1,-2.126445222E-1,3.962868547E0,3.973525927E0
8.307305125E0,8.028973342E-1,4.656267048E0,3.661515624E0,5.977638632E0
8.317251125E0,1.705519955E0,5.604984804E0,6.378683116E0,8.660961336E0
8.327198125E0,9.007234009E0,3.025233604E0,3.222221153E1,3.359394617E1
8.337144125E0,6.198141562E0,1.148627627E0,2.599058355E1,2.674409725E1
8.347091125E0,-8.868099220E-1,1.168491789E0,7.762851208E0,7.900231882E0
8.357037125E0,-4.083744528E0,1.915565389E0,1.941764716E0,4.910886921E0
8.366984125E0,-4.830912562E0,3.709290592E0,-1.060767950E0,6.182376689E0
8.376930125E0,-3.773354733E0,5.544166160E0,-4.671793744E-1,6.722666206E0
8.386877125E0,-2.737274605E0,6.667599889E0,1.284582700E0,7.321182504E0
8.396823125E0,-1.882572037E0,7.568798493E0,2.501645555E0,8.190788643E0
8.406770125E0,-1.181205682E0,8.158391374E0,3.231181310E0,8.854102401E0
8.416716125E0,-8.056061299E-1,8.635888453E0,3.858176198E0,9.492791695E0
8.426663125E0,-5.635208769E-1,9.081926926E0,4.329991245E0,1.007709168E1
8.436609125E0,-3.486781671E-1,9.598198062E0,4.384907709E0,1.055814369E1
8.446556125E0,-1.233277184E-1,1.009083007E1,4.225499747E0,1.094051687E1
8.456502125E0,1.265990894E-1,1.074760103E1,4.188134869E0,1.153548564E1
8.466449125E0,9.166956259E-1,1.246113693E1,4.278780161E0,1.320712778E1
8.476395125E0,1.188137264E0,1.346350874E1,4.136893964E0,1.413476669E1
8.486342125E0,1.242837966E0,1.333856193E1,4.126664261E0,1.401753325E1
8.496288125E0,1.070600774E0,1.221300332E1,3.920437642E0,1.287142057E1
8.506235125E0,3.541752807E-1,1.143220006E1,3.633123592E0,1.200084269E1
8.516181125E0,-2.190227381E-1,1.111028978E1,3.774765374E0,1.173607105E1
8.526128125E0,-5.072331671E-1,1.089848258E1,4.034897473E0,1.163248063E1
8.536074125E0,-8.720261874E-1,1.036880437E1,4.503681616E0,1.133823980E1
8.546021125E0,-1.252622404E0,9.756052419E0,5.026733767E0,1.104616106E1
8.555968125E0,-1.563483339E0,1.069676300E1,5.528454106E0,1.214203540E1
8.565914125E0,-2.406261242E0,1.147704586E1,6.362365292E0,1.334137800E1
8.575861125E0,-3.001185468E0,1.194505817E1,6.693965569E0,1.401787088E1
8.585807125E0,-3.013354400E0,1.212744686E1,6.615570779E0,1.413934400E1
8.595754125E0,-2.868791934E0,1.204813172E1,6.018942529E0,1.377008040E1
8.605700125E0,-2.863661002E0,1.194803089E1,4.815849842E0,1.319653009E1
8.615647125E0,-2.666998090E0,1.160393746E1,3.831434249E0,1.250776286E1
8.625593125E0,-2.488503353E0,1.129557051E1,3.086507746E0,1.197117756E1
8.635540125E0,-2.424827467E0,1.099258884E1,2.532334667E0,1.153817648E1
8.645486125E0,-2.400077665E0,1.064330074E1,2.223063444E0,1.113473100E1
8.655432500E0,-2.323402103E0,1.030289221E1,2.066077106E0,1.076180561E1
8.665378500E0,-2.301757757E0,1.005504511E1,1.960270569E0,1.049974675E1
8.675325500E0,-2.289574499E0,9.986267824E0,1.856691237E0,1.041225234E1
8.685271500E0,-2.264321251E0,1.006059997E1,1.562278081E0,1.042993458E1
8.695218500E0,-2.311659578E0,1.016498680E1,9.860884809E-1,1.047105998E1
8.705164500E0,-2.594415432E0,1.012816688E1,2.418946338E-1,1.045797633E1
8.715111500E0,-2.866222667E0,9.777228695E0,-1.433920588E0,1.028909916E1
8.725057500E0,-3.203111166E0,8.226176391E0,-2.146319908E0,9.084964959E0
8.735004500E0,-1.734596696E0,2.439525613E0,-3.450213623E0,4.567722075E0
8.744950500E0,2.929107717E0,-2.005349620E1,-1.348033001E1,2.434012487E1
8.754897500E0,-5.548341437E-1,-5.608445303E1,-2.377305976E1,6.091742019E1
8.764843500E0,-7.534533517E-1,-8.681915863E1,-3.676285282E1,9.428489457E1
8.774790500E0,-3.097781178E0,-9.845325603E1,-3.675453574E1,1.051357968E2
8.784736500E0,-2.501367228E0,-8.646770823E1,-2.204274001E1,8.926815665E1
8.794683500E0,-9.133859557E-1,-5.737376876E1,-7.968529358E0,5.793169319E1
8.804629500E0,-7.516787218E-1,-2.873729206E1,-8.895260999E-1,2.876088024E1
8.814576500E0,-9.105116107E-2,-1.335649534E1,1.305300993E0,1.342043474E1
8.824522500E0,8.112084934E-1,-4.699818864E0,2.118084873E0,5.218490213E0
8.834469500E0,1.048396776E0,1.234209230E0,3.166655239E0,3.556699822E0
8.844415500E0,1.771454328E0,6.792526236E0,3.548490115E0,7.865636986E0
8.854362500E0,1.204688392E1,7.628561715E0,3.437629304E1,3.721628527E1
8.864308500E0,1.339477121E1,6.178769152E0,3.788911777E1,4.065934492E1
8.874255500E0,3.298359970E0,5.068212746E0,1.266678234E1,1.403614383E1
8.884201500E0,-1.327042549E0,5.999212269E0,7.719013463E0,9.865837959E0
8.894148500E0,-3.236052040E0,6.667033294E0,6.571513764E0,9.904855319E0
8.904094500E0,-3.447231543E0,6.657684181E0,2.335793669E0,7.852648981E0
8.914041500E0,-2.912180028E0,7.028698785E0,6.293606713E-1,7.634100731E0
8.923988500E0,-2.063777688E0,7.535043687E0,9.716198382E-1,7.872744554E0
8.933934500E0,-1.579241439E0,8.105082309E0,2.001491685E0,8.496607071E0
8.943881500E0,-1.305873874E0,8.869961851E0,2.693241563E0,9.361361008E0
8.953827500E0,-9.161994897E-1,9.666233339E0,3.020509931E0,1.016852835E1
8.963774500E0,-5.623933145E-1,1.025872118E1,3.208876229E0,1.076357436E1
8.973720500E0,-3.062841725E-1,1.127764762E1,2.834766986E0,1.163249972E1
8.983667500E0,5.219110305E-1,1.386486396E1,2.747464255E0,1.414409430E1
8.993613500E0,1.002604234E0,1.462195326E1,3.011977089E0,1.496257793E1
9.003560500E0,1.559916976E0,1.350689976E1,3.077063323E0,1.394051652E1
9.013506500E0,1.259559103E0,1.233739815E1,2.761416297E0,1.270524704E1
9.023453500E0,7.315660541E-1,1.196229927E1,2.339211366E0,1.221080270E1
9.033399500E0,1.452509398E-1,1.200831452E1,2.365914723E0,1.224002728E1
9.043346500E0,-3.996068307E-1,1.179523263E1,2.676774926E0,1.210174873E1
9.053292500E0,-1.495380818E0,1.066412267E1,3.132286767E0,1.121476244E1
9.063239500E0,-3.449683573E0,1.119157427E1,3.062006743E0,1.210485591E1
9.073185500E0,-4.537033842E0,1.272515158E1,3.659595106E0,1.399667086E1
9.083132500E0,-5.102776222E0,1.282369939E1,4.516178285E0,1.452175807E1
9.093078500E0,-5.577568379E0,1.271188191E1,4.238616806E0,1.451437505E1
9.103025500E0,-5.825841156E0,1.264203341E1,3.516691495E0,1.435717775E1
9.112971500E0,-6.137445710E0,1.227103109E1,2.299252079E0,1.391161399E1
9.122918500E0,-6.545092535E0,1.168169841E1,1.154386843E0,1.343997481E1
9.132864500E0,-6.489395467E0,1.126843241E1,3.870184332E-1,1.300921234E1
9.142811500E0,-5.795757231E0,1.110364267E1,3.437578082E-3,1.252524228E1
9.152757500E0,-4.836539630E0,1.100894584E1,-1.826561996E-1,1.202590402E1
9.162704500E0,-3.937635473E0,1.082047137E1,-2.075723550E-1,1.151653855E1
9.172651500E0,-3.145533634E0,1.066124350E1,5.699982762E-2,1.111574306E1
9.182597500E0,-2.421050604E0,1.049263670E1,5.825662816E-1,1.078407596E1
9.192544500E0,-1.719208725E0,1.033992380E1,1.195978380E0,1.054988470E1
9.202490500E0,-1.159366770E0,1.015450625E1,1.695087060E0,1.036008922E1
9.212437500E0,-8.083977368E-1,1.003780518E1,1.910935564E0,1.025001046E1
9.222383500E0,-6.091247005E-1,1.006132736E1,1.794786180E0,1.023829081E1
9.232330500E0,-5.451849588E-1,1.001695635E1,1.424075631E0,1.013235573E1
9.242276500E0,-7.651714642E-1,9.517959645E0,8.131371975E-1,9.583226767E0
9.252223500E0,-1.501414121E0,8.625769846E0,1.081603333E-1,8.756132049E0
9.262169500E0,-2.399374976E0,7.238978108E0,-4.084280133E-1,7.637186509E0
9.272116500E0,-1.851855297E0,4.881746793E-1,-1.462103291E0,2.409445702E0
9.282062500E0,-2.834200975E-1,-2.591881015E1,-1.258523941E1,2.881411629E1
9.292009500E0,-4.709039923E0,-6.089238457E1,-2.608890565E1,6.641301494E1
9.301955500E0,-7.199075539E0,-8.413422011E1,-3.955233487E1,9.324580890E1
9.311902500E0,-8.648145386E0,-8.547956620E1,-3.500642876E1,9.277390102E1
9.321848500E0,-3.691882846E0,-7.536096887E1,-1.900173764E1,7.780727255E1
9.331795500E0,1.272411429E0,-5.305252670E1,-6.436840693E0,5.345673520E1
9.341741500E0,3.214473768E0,-3.007751131E1,-5.454388011E-1,3.025371104E1
9.351688500E0,2.613003146E0,-1.674795760E1,1.818150777E0,1.704780166E1
9.361634500E0,2.527961826E0,-8.853973224E0,3.822906670E0,9.969856983E0
9.371581500E0,2.378067868E0,-4.321779415E0,4.353319589E0,6.579086224E0
9.381527500E0,8.902127384E0,5.326047474E-1,2.825936638E1,2.963314576E1
9.391474500E0,2.307757790E1,4.211125537E0,6.266735132E1,6.691416219E1
9.401420500E0,9.774651242E0,3.584979372E0,2.338862404E1,2.560124252E1
9.411367500E0,1.813576061E-1,4.839177893E0,6.640507400E0,8.218690394E0
9.421313500E0,-1.198060939E0,4.339278962E0,1.150929676E0,4.646432077E0
9.431260500E0,1.655495124E-1,3.683874500E0,1.364362988E-1,3.690115558E0
9.441206500E0,3.465409367E-1,4.158619879E0,4.934690407E-1,4.202109186E0
9.451153500E0,9.802191921E-2,5.541764708E0,9.606107005E-1,5.625258865E0
9.461099500E0,-1.851251864E-1,6.849661134E0,1.698824893E0,7.059612950E0
9.471046500E0,-4.687510694E-1,7.892368789E0,2.016768998E0,8.159446664E0
9.480992500E0,-3.639973970E-1,8.981071812E0,2.249854509E0,9.265742836E0
9.490939500E0,-1.329110490E-1,9.892042283E0,2.497826154E0,1.020339656E1
9.500885500E0,2.077762401E-2,1.053209020E1,2.353485735E0,1.079186040E1
9.510832500E0,-7.875934532E-2,1.120918959E1,1.741230362E0,1.134389781E1
9.520779500E0,-8.380445820E-1,1.300397840E1,-7.472940409E-1,1.305236459E1
9.530725500E0,-2.786953426E0,1.530584360E1,-5.380627724E0,1.646168620E1
9.540672500E0,-4.166037657E0,1.543810177E1,-6.450007453E0,1.724219975E1
9.550618500E0,-3.296909569E0,1.414484502E1,-4.834691325E0,1.530753061E1
9.560565500E0,-3.050907851E0,1.344467486E1,-3.439338386E0,1.420902422E1
9.570511500E0,-3.222844934E0,1.374853945E1,-1.748518917E0,1.422906831E1
9.580458500E0,-4.681345463E0,1.411110425E1,-4.433502164E-1,1.487396443E1
9.590404500E0,-5.747120676E0,1.474007988E1,6.365308195E-2,1.582097982E1
9.600351500E0,-5.897940248E0,1.439914277E1,4.962496841E-1,1.556814939E1
9.610297500E0,-5.551165277E0,1.354452542E1,7.427416912E-1,1.465678239E1
9.620244500E0,-5.363433986E0,1.307136288E1,1.185625885E0,1.417859868E1
9.630190500E0,-4.918371413E0,1.262302996E1,1.918636639E0,1.368255931E1
9.640137500E0,-4.000556776E0,1.226852146E1,2.512333388E0,1.314659243E1
9.650083167E0,-3.132900140E0,1.187113884E1,2.691879454E0,1.256921699E1
9.660030167E0,-2.382999849E0,1.142743574E1,2.694089701E0,1.198011249E1
9.669976167E0,-1.800035810E0,1.094070182E1,2.808147537E0,1.143786596E1
9.679923167E0,-1.323802753E0,1.053329824E1,2.903459783E0,1.100603944E1
9.689869167E0,-9.584133900E-1,1.020329542E1,2.958392327E0,1.066667140E1
9.699816167E0,-6.169305141E-1,1.001166579E1,2.944280365E0,1.045384341E1
9.709762167E0,-3.513783382E-1,9.922798637E0,2.849439112E0,1.032979684E1
9.719709167E0,-4.725457022E-2,9.826521893E0,2.752926724E0,1.020496796E1
9.729655167E0,2.193391456E-1,9.760052499E0,2.626797312E0,1.010973781E1
9.739602167E0,4.976322582E-1,9.714609109E0,2.511449582E0,1.004632505E1
9.749548167E0,7.479724641E-1,9.717076049E0,2.415359656E0,1.004066691E1
9.759495167E0,9.443229159E-1,9.734721192E0,2.271275491E0,1.004067900E1
9.769441167E0,1.043145465E0,9.751191629E0,1.986947029E0,1.000609060E1
9.779388167E0,9.318086319E-1,9.742609670E0,1.312787330E0,9.874721317E0
9.789334167E0,3.510631733E-2,9.441172255E0,1.865235481E-1,9.443079849E0
9.799281167E0,-7.997266815E-1,8.142092260E0,-5.796529064E-1,8.201781918E0
9.809228167E0,1.712724309E0,1.827357218E0,-3.170121176E0,4.040090002E0
9.819174167E0,3.457592224E0,-2.312443281E1,-1.207134750E1,2.631371823E1
9.829121167E0,-3.571984520E0,-6.180701072E1,-1.998718877E1,6.505653974E1
9.839067167E0,-7.250502385E0,-9.108104911E1,-3.262236691E1,9.701827722E1
9.849014167E0,-7.514686021E0,-9.675736702E1,-3.225984188E1,1.022700150E2
9.858960167E0,7.160876703E-1,-8.251544887E1,-1.918519520E1,8.471944168E1
9.868907167E0,5.135472098E0,-5.483307404E1,-7.818844146E0,5.562529466E1
9.878853167E0,3.014332932E0,-2.731919257E1,8.798276156E-2,2.748512737E1
9.888800167E0,1.718040597E0,-1.307834329E1,2.013416497E0,1.334348428E1
9.898746167E0,8.443720002E-1,-4.713908899E0,3.249422868E0,5.787283488E0
9.908693167E0,9.229786053E-2,8.919974256E-1,4.569141780E0,4.656311299E0
9.918639167E0,1.507089721E0,7.690605935E0,4.101959190E0,8.845496497E0
9.928586167E0,9.943337567E0,9.610625734E0,2.736974760E1,3.066491762E1
9.938532167E0,1.095715121E1,6.960792146E0,3.199433385E1,3.452751349E1
9.948479167E0,1.709227966E0,4.881340996E0,8.745327280E0,1.016020174E1
9.958425167E0,-2.436435214E0,5.065041216E0,1.922862715E0,5.940392250E0
9.968372167E0,-3.341015701E0,5.997001437E0,1.805784208E0,7.098399028E0
9.978318167E0,-2.186414119E0,6.717638606E0,3.490694774E0,7.879849310E0
9.988265167E0,-1.581722559E0,6.865700632E0,3.032152322E0,7.670308932E0
9.998211167E0,-1.478481342E0,6.936958895E0,2.206971906E0,7.428191622E0
1.000815817E1,-1.466002799E0,7.482632754E0,2.545641468E0,8.038609806E0
1.001810417E1,-1.276083334E0,8.331371309E0,3.174984890E0,9.006701150E0
1.002805117E1,-1.138525393E0,9.133726825E0,3.387466859E0,9.807962964E0
1.003799717E1,-9.626027007E-1,9.781256257E0,3.287557240E0,1.036376430E1
1.004794417E1,-7.122325279E-1,1.042485578E1,2.966679879E0,1.086213987E1
1.005789017E1,-3.177556787E-1,1.163586325E1,2.635676309E0,1.193486791E1
1.006783717E1,4.902552648E-1,1.428436660E1,2.461140138E0,1.450312691E1
1.007778317E1,5.150201234E-1,1.473400462E1,2.714325745E0,1.499078724E1
1.008773017E1,5.446888226E-1,1.318725587E1,3.062260804E0,1.354909017E1
1.009767617E1,1.005721092E-3,1.206445013E1,2.708161026E0,1.236467121E1
1.010762317E1,-7.165790556E-1,1.141427717E1,2.750463877E0,1.176283386E1
1.011757017E1,-1.320902534E0,1.106852897E1,3.016004359E0,1.154787423E1
1.012751617E1,-1.868463875E0,1.027327724E1,3.424975578E0,1.098916922E1
1.013746317E1,-2.847077714E0,9.370424454E0,3.880380122E0,1.053413764E1
1.014740917E1,-4.664788780E0,1.024927792E1,4.266053988E0,1.204189225E1
1.015735617E1,-5.836547992E0,1.162129433E1,5.143964009E0,1.398499697E1
1.016730217E1,-6.048498450E0,1.162571483E1,6.110087757E0,1.445941739E1
1.017724917E1,-6.175585928E0,1.146848437E1,5.916132690E0,1.430610433E1
1.018719517E1,-6.276035246E0,1.128485724E1,5.266141580E0,1.394520951E1
1.019714217E1,-6.373386708E0,1.084865729E1,4.062510365E0,1.322185364E1
1.020708817E1,-6.883134105E0,1.075769683E1,2.855116758E0,1.308653002E1
1.021703517E1,-7.276247676E0,1.067329227E1,2.174746732E0,1.309933096E1
1.022698117E1,-6.946177615E0,1.041573880E1,1.787330688E0,1.264640459E1
1.023692817E1,-5.975529292E0,1.014177102E1,1.682484556E0,1.189088827E1
1.024687417E1,-5.213085115E0,9.988599694E0,1.704131533E0,1.139528168E1
1.025682117E1,-4.682104139E0,9.904219694E0,1.607491092E0,1.107247463E1
1.026676717E1,-4.166520637E0,9.791900529E0,1.540907093E0,1.075246971E1
1.027671417E1,-3.644388252E0,9.649507379E0,1.619655932E0,1.044116103E1
1.028666017E1,-3.276669432E0,9.595841049E0,1.663265928E0,1.027536771E1
1.029660717E1,-3.006703193E0,9.615442085E0,1.532131592E0,1.019040813E1
1.030655317E1,-2.663830068E0,9.647933308E0,1.140628929E0,1.007371044E1
1.031650017E1,-2.492283871E0,9.612046022E0,4.619776914E-1,9.940640373E0
1.032644617E1,-3.142887184E0,9.321604296E0,-2.125065279E-1,9.839471811E0
1.033639317E1,-4.160233126E0,8.534540418E0,-1.119946158E0,9.560345140E0
1.034634017E1,-4.351038297E0,6.294646348E0,-2.204325457E0,7.963237886E0
1.035628617E1,-2.010739641E0,-3.149551840E0,-8.078020810E0,8.900402851E0
1.036623217E1,7.522466326E-1,-3.285866693E1,-1.904191736E1,3.798489810E1
1.037617917E1,1.416450862E0,-6.412207309E1,-2.740440989E1,6.974703056E1
1.038612617E1,6.702536125E-1,-8.477326933E1,-3.798011682E1,9.289480990E1
1.039607217E1,4.611629696E0,-8.945780591E1,-3.486735390E1,9.612335062E1
1.040601917E1,6.972151532E0,-8.009388765E1,-2.050598415E1,8.297070038E1
1.041596517E1,7.426681332E0,-5.378932733E1,-6.951683353E0,5.474279160E1
1.042591217E1,5.511705927E0,-2.854104547E1,-4.415852344E-1,2.907172468E1
1.043585817E1,3.526163692E0,-1.431683970E1,2.186868302E0,1.490597606E1
1.044580517E1,2.651957589E0,-5.630780965E0,2.788662567E0,6.820206173E0
1.045575117E1,2.058730518E0,-5.471239686E-1,2.384776671E0,3.197635963E0
1.046569817E1,1.160485079E1,6.810691196E0,2.988169975E1,3.277154339E1
1.047564417E1,2.477492637E1,8.601790414E0,5.789795059E1,6.356068327E1
1.048559117E1,8.756091419E0,5.249762945E0,1.955792128E1,2.206221731E1
1.049553717E1,-7.815125316E-2,5.509358854E0,8.900750949E0,1.046816651E1
1.050548417E1,-2.547647647E0,4.313766391E0,2.312565897E0,5.517884562E0
1.051543017E1,-2.856561897E0,3.529521455E0,-1.096176641E0,4.671088824E0
1.052537717E1,-1.906500159E0,4.280073565E0,1.830286673E-1,4.689058761E0
1.053532317E1,-1.604989214E0,5.867735286E0,1.817153242E0,6.348886018E0
1.054527017E1,-1.623355757E0,7.343779508E0,2.548106946E0,7.940984221E0
1.055521617E1,-1.607274599E0,8.522196946E0,2.894827538E0,9.142822261E0
1.056516317E1,-1.634540019E0,9.464820149E0,3.093837816E0,1.009090551E1
1.057510917E1,-1.541705238E0,1.022771456E1,2.725155958E0,1.069623650E1
1.058505617E1,-1.784203158E0,1.122516652E1,1.075311437E0,1.141683139E1
1.059500217E1,-2.052620908E0,1.316192339E1,-1.098966640E-1,1.332146978E1
1.060494917E1,-1.682800598E0,1.533865467E1,-8.575336441E-1,1.545449801E1
1.061489517E1,-1.196607467E0,1.469770394E1,-4.357061514E-1,1.475276958E1
1.062484217E1,-2.330246415E0,1.329306591E1,-5.284847993E-1,1.350610772E1
1.063478817E1,-4.183488087E0,1.255286337E1,-5.884447798E-1,1.324470531E1
1.064473517E1,-3.590282797E0,1.179146468E1,7.742309940E-1,1.235023091E1
1.065468150E1,-2.613572957E0,1.152898668E1,2.006000766E0,1.199051027E1
1.066462850E1,-3.079976991E0,1.191010352E1,2.925190960E0,1.264490277E1
1.067457550E1,-5.325009593E0,1.288945367E1,3.071423976E0,1.428031471E1
1.068452150E1,-7.417898229E0,1.312839312E1,3.112974875E0,1.539709494E1
1.069446850E1,-7.772876260E0,1.236969584E1,2.858974166E0,1.488625922E1
1.070441450E1,-7.063482116E0,1.195168774E1,2.164477851E0,1.405064354E1
1.071436150E1,-6.622155329E0,1.144196491E1,1.814148942E0,1.334401133E1
1.072430750E1,-6.707832241E0,1.100587255E1,1.565049662E0,1.298359058E1
1.073425450E1,-6.425962533E0,1.072727143E1,1.158402710E0,1.255823410E1
1.074420050E1,-5.821994272E0,1.047455828E1,8.337424931E-1,1.201278964E1
1.075414750E1,-5.203659403E0,1.027319420E1,7.930239451E-1,1.154320048E1
1.076409350E1,-4.655399905E0,1.013041105E1,9.626543024E-1,1.119038335E1
1.077404050E1,-4.186099161E0,1.010569136E1,1.159134197E0,1.099963709E1
1.078398650E1,-3.722179610E0,1.014487940E1,1.397809354E0,1.089619521E1
1.079393350E1,-3.177906743E0,1.026154421E1,1.606119920E0,1.086176791E1
1.080387950E1,-2.579521405E0,1.031469423E1,1.783679101E0,1.078092570E1
1.081382650E1,-1.963347812E0,1.026590623E1,2.027209494E0,1.064674334E1
1.082377250E1,-1.450696542E0,1.020413976E1,2.240513874E0,1.054745899E1
1.083371950E1,-1.021562954E0,1.018881537E1,2.311437092E0,1.049753738E1
1.084366550E1,-7.522244132E-1,1.022183577E1,2.210929302E0,1.048522658E1
1.085361250E1,-5.553530475E-1,1.034583650E1,2.016985345E0,1.055523471E1
1.086355850E1,-4.443763297E-1,1.049176196E1,1.849800293E0,1.066284673E1
1.087350550E1,-4.613155307E-1,1.026119689E1,1.325999114E0,1.035679715E1
1.088345150E1,-9.797603318E-1,9.744126438E0,5.541005740E-1,9.808922356E0
1.089339850E1,-9.499164355E-1,8.548310026E0,-2.293953332E-1,8.603985574E0
1.090334450E1,1.957796612E0,3.714944265E0,-3.512993131E0,5.474933717E0
1.091329150E1,6.843827367E0,-1.456139131E1,-1.455194571E1,2.169403637E1
1.092323850E1,4.560335873E0,-4.805440629E1,-2.284168485E1,5.340192125E1
1.093318450E1,1.953689528E0,-7.757515507E1,-3.427339607E1,8.483152283E1
1.094313150E1,7.174010280E-1,-9.056727064E1,-3.656969122E1,9.767439527E1
1.095307750E1,5.492729373E0,-8.257411749E1,-2.443310984E1,8.628807456E1
1.096302450E1,8.234883479E0,-6.504957715E1,-1.134938828E1,6.654374055E1
1.097297050E1,6.313038180E0,-3.896187134E1,-1.316793257E0,3.949197151E1
1.098291750E1,3.462210355E0,-2.030383421E1,2.276758718E0,2.072236025E1
1.099286350E1,1.997670822E0,-1.090150208E1,4.115111917E0,1.182233405E1
1.100281050E1,1.378357421E0,-3.884363245E0,5.246438802E0,6.671826370E0
1.101275650E1,4.920557102E0,4.606433567E0,1.248133789E1,1.418502407E1
1.102270350E1,1.847289206E1,6.493959804E0,4.772525950E1,5.158604123E1
1.103264950E1,5.786865370E0,2.152606834E0,2.045586182E1,2.136735383E1
1.104259650E1,-5.070639340E0,1.999517373E0,4.253398567E0,6.913816053E0
1.105254250E1,-8.736519034E0,3.549804277E0,1.144859682E1,1.483233779E1
1.106248950E1,-6.965243046E0,4.144291862E0,1.283456936E1,1.517945771E1
1.107243550E1,-4.687537664E0,3.792274277E0,6.256244760E0,8.688783116E0
1.108238250E1,-3.485710607E0,3.946578205E0,2.576950969E0,5.862280636E0
1.109232850E1,-2.961283191E0,4.668209401E0,1.941610934E0,5.859285807E0
1.110227550E1,-2.665657908E0,5.705962710E0,2.851349397E0,6.913315840E0
1.111222150E1,-2.327587248E0,6.767520618E0,3.322914476E0,7.890421936E0
1.112216850E1,-2.024542286E0,7.803929653E0,3.434712654E0,8.763409183E0
1.113211450E1,-1.770854403E0,8.777891008E0,3.196088368E0,9.508011187E0
1.114206150E1,-1.484502950E0,9.656818153E0,3.004239468E0,1.022170928E1
1.115200750E1,-1.100001159E0,1.023407984E1,3.106979433E0,1.075173074E1
1.116195450E1,-1.084942605E0,1.118085398E1,2.749571007E0,1.156497890E1
1.117190050E1,-1.033375279E0,1.303528673E1,1.693957378E0,1.318544866E1
1.118184750E1,-1.023135051E0,1.285381021E1,1.771851938E0,1.301563297E1
1.119179350E1,-1.411289232E0,1.188555457E1,1.390778662E0,1.204958132E1
1.120174050E1,-2.563416418E0,1.303558143E1,2.348425993E-1,1.328731117E1
1.121168650E1,-3.986141343E0,1.374703321E1,-1.351098579E-1,1.431392677E1
1.122163350E1,-5.005813599E0,1.405978206E1,4.664490572E-1,1.493161800E1
1.123158050E1,-5.251302516E0,1.444990361E1,1.540060124E0,1.545146199E1
1.124152650E1,-5.328420859E0,1.374521356E1,2.718881603E0,1.499050639E1
1.125147350E1,-6.080857526E0,1.264209305E1,3.440093554E0,1.444415414E1
1.126141950E1,-6.301127987E0,1.255191612E1,4.297634800E0,1.468756199E1
1.127136650E1,-6.372421333E0,1.260750560E1,4.674245774E0,1.487970177E1
1.128131250E1,-5.658149443E0,1.242908250E1,4.035809347E0,1.424024241E1
1.129125950E1,-4.750044400E0,1.205449583E1,3.144056335E0,1.333262471E1
1.130120550E1,-4.161641135E0,1.166048822E1,2.533397398E0,1.263741844E1
1.131115250E1,-3.701341302E0,1.142182826E1,1.871532055E0,1.215157276E1
1.132109850E1,-3.152038661E0,1.122223824E1,1.375962110E0,1.173742947E1
1.133104550E1,-2.473167276E0,1.088444927E1,1.189244142E0,1.122506543E1
1.134099150E1,-1.755060635E0,1.065931509E1,9.477861486E-1,1.084433191E1
1.135093850E1,-1.130634941E0,1.051842292E1,7.096160451E-1,1.060278789E1
1.136088450E1,-6.118951844E-1,1.039082498E1,4.566738282E-1,1.041883921E1
1.137083150E1,-1.497775984E-1,1.027039222E1,1.818624401E-1,1.027309416E1
1.138077750E1,1.909441162E-1,1.020490340E1,-1.624873987E-1,1.020798292E1
1.139072450E1,2.320650623E-1,1.003050318E1,-5.223080930E-1,1.004677331E1
1.140067050E1,-2.597061663E-1,9.552628956E0,-9.410051326E-1,9.602377722E0
1.141061750E1,-1.199542258E0,8.927518333E0,-1.766636514E0,9.179351273E0
1.142056350E1,-2.065571322E0,7.947729642E0,-3.059431337E0,8.763167889E0
1.143051050E1,-1.737348981E0,4.862054540E0,-5.040419176E0,7.215523633E0
1.144045650E1,2.822409773E0,-7.650896325E0,-1.208259989E1,1.457708584E1
1.145040350E1,4.653672053E0,-3.392349635E1,-2.387997727E1,4.174582114E1
1.146034950E1,2.101636217E-1,-6.869052139E1,-2.268020346E1,7.233825770E1
1.147029650E1,-5.671519101E0,-9.529293420E1,-2.817225222E1,9.953183025E1
1.148024250E1,-2.383120447E0,-9.850160548E1,-2.575075883E1,1.018398111E2
1.149018950E1,5.901207672E0,-7.785904441E1,-1.278690871E1,7.912243729E1
1.150013550E1,6.189243270E0,-4.902278004E1,-4.030024989E0,4.957601029E1
1.151008250E1,3.882126393E0,-2.482140004E1,7.736253686E-1,2.513506120E1
1.152002850E1,2.047099967E0,-1.220303148E1,2.704804724E0,1.266572399E1
1.152997550E1,1.495583278E0,-1.595093533E0,2.492856021E0,3.315934839E0
1.153992250E1,3.914724328E0,1.147103492E1,1.029094167E1,1.590010029E1
1.154986850E1,1.207056515E1,1.330760326E1,6.494719474E1,6.738641519E1
1.155981550E1,-1.048730287E0,9.405372092E0,3.401548943E1,3.530742670E1
1.156976150E1,-8.409087821E0,9.158483351E0,1.606212715E1,2.031212702E1
1.157970850E1,-6.825377648E0,6.605673782E0,6.273411015E0,1.138316265E1
1.158965450E1,-3.513738066E0,4.713706586E0,8.782427278E-1,5.944467618E0
1.159960150E1,-2.215538077E0,4.450883013E0,-2.575376898E-2,4.971884132E0
1.160954750E1,-1.693170635E0,5.726357798E0,1.420358556E0,6.138030536E0
1.161949450E1,-1.637223891E0,7.056739692E0,1.983180837E0,7.510731215E0
1.162944050E1,-1.648581377E0,8.093526456E0,2.171150986E0,8.540309576E0
1.163938750E1,-1.410719275E0,9.185507428E0,2.357468712E0,9.587561437E0
1.164933350E1,-1.103695795E0,1.020646110E1,2.159181736E0,1.049056997E1
1.165928050E1,-9.563752699E-1,1.105654218E1,2.015978454E0,1.127944802E1
1.166922650E1,-9.201050643E-1,1.246086562E1,1.352956970E0,1.256782630E1
1.167917350E1,-3.477947624E-1,1.411501720E1,1.064118551E0,1.415934391E1
1.168911950E1,-1.153506544E0,1.566137653E1,-9.122147584E-1,1.573027107E1
1.169906650E1,-2.495719694E0,1.525381157E1,-3.153305753E0,1.577500305E1
1.170901250E1,-2.745901002E0,1.373881670E1,-2.745075668E0,1.427692184E1
1.171895950E1,-3.674571287E0,1.253522817E1,-2.159366215E0,1.323998799E1
1.172890550E1,-4.714043093E0,1.234464402E1,-1.171576195E0,1.326593491E1
1.173885250E1,-5.239609255E0,1.413473635E1,-3.919110909E-1,1.507971721E1
1.174879850E1,-5.040789889E0,1.574461282E1,7.018211219E-1,1.654675038E1
1.175874550E1,-4.834365050E0,1.517256684E1,7.890990016E-1,1.594366794E1
1.176869250E1,-4.926994302E0,1.426919425E1,7.295410171E-1,1.511348429E1
1.177863850E1,-4.956137409E0,1.355699870E1,8.117493609E-1,1.445733201E1
1.178858550E1,-4.740006192E0,1.290992009E1,9.367929447E-1,1.378445779E1
1.179853150E1,-4.085600142E0,1.245148435E1,1.176072996E0,1.315730743E1
1.180847850E1,-3.306389367E0,1.204543147E1,1.291331849E0,1.255755422E1
1.181842450E1,-2.757863236E0,1.153869656E1,1.142264980E0,1.191856104E1
1.182837150E1,-2.403203879E0,1.104859698E1,8.518285158E-1,1.133898126E1
1.183831750E1,-2.097267616E0,1.051703596E1,6.377818313E-1,1.074306020E1
1.184826450E1,-1.730153689E0,1.006460648E1,4.833928263E-1,1.022366881E1
1.185821050E1,-1.263802573E0,9.910969720E0,4.080551071E-1,9.999551325E0
1.186815750E1,-7.485606209E-1,9.927195743E0,4.488218947E-1,9.965490426E0
1.187810350E1,-2.942789983E-1,9.931968241E0,5.112467690E-1,9.949470665E0
1.188805050E1,-3.519804552E-3,9.891448206E0,5.743839803E-1,9.908111674E0
1.189799650E1,2.161739016E-1,9.844959333E0,5.635850501E-1,9.863446838E0
1.190794350E1,3.667478907E-1,9.756024352E0,4.660757124E-1,9.774034057E0
1.191788950E1,4.143591000E-1,9.586101342E0,3.677455719E-1,9.602097125E0
1.192783650E1,3.474447335E-1,9.283746498E0,2.810654238E-2,9.290288309E0
1.193778250E1,1.040792326E-1,8.909480842E0,-8.080990903E-1,8.946658902E0
1.194772950E1,-1.498532833E-1,8.267074156E0,-1.999488429E0,8.506757613E0
1.195767550E1,1.320702194E-1,6.161885317E0,-4.195314373E0,7.455664685E0
1.196762250E1,2.679453244E0,-5.676230788E0,-1.143023656E1,1.304029806E1
1.197756850E1,-2.472232014E-1,-4.187301992E1,-1.945704161E1,4.617344891E1
1.198751550E1,-4.085398706E0,-7.671894027E1,-2.891256351E1,8.208789562E1
1.199746150E1,-1.569210540E0,-9.335154634E1,-3.394514976E1,9.934408295E1
1.200740850E1,4.120101930E0,-9.060210134E1,-2.878369556E1,9.515365015E1
1.201735450E1,1.054848580E1,-7.050359327E1,-1.614119671E1,7.309285497E1
1.202730150E1,8.548682494E0,-4.004973646E1,-4.522248572E0,4.120087493E1
1.203724750E1,5.079690245E0,-1.858926218E1,1.113153155E0,1.930292805E1
1.204719450E1,3.363401766E0,-7.787004887E0,2.737983872E0,8.913275057E0
1.205714150E1,1.425651748E0,-1.486246444E0,3.777872292E0,4.302758470E0
1.206708750E1,2.059162188E0,6.776090882E0,6.466364454E0,9.590069125E0
1.207703450E1,1.904687697E1,1.423702286E1,5.534393357E1,6.023642856E1
1.208698050E1,1.109437717E1,9.556565886E0,3.456503414E1,3.753870991E1
1.209692750E1,-2.421291948E0,7.177197012E0,1.349669169E1,1.547693439E1
1.210687350E1,-6.071348784E0,5.431726542E0,4.693121463E0,9.401612540E0
1.211682050E1,-4.899058937E0,3.240223444E0,-3.534311494E-1,5.884279056E0
1.212676650E1,-4.040631838E0,2.804021156E0,-1.383331355E-1,4.920200845E0
1.213671350E1,-3.221079075E0,3.851873776E0,3.756299575E-1,5.035213984E0
1.214665950E1,-2.694514209E0,5.247306529E0,1.107678699E0,6.001798459E0
1.215660650E1,-2.432796053E0,6.545284324E0,1.628155737E0,7.170086095E0
1.216655250E1,-2.113205371E0,7.631683543E0,2.073725848E0,8.185876223E0
1.217649950E1,-1.944849707E0,8.651188862E0,2.268475552E0,9.152676681E0
1.218644550E1,-1.753098602E0,9.557617216E0,2.366394195E0,1.000106110E1
1.219639250E1,-1.401805341E0,1.021768425E1,2.291111001E0,1.056481515E1
1.220633850E1,-1.301146254E0,1.084955074E1,2.083749146E0,1.112419630E1
1.221628550E1,-6.055374337E-1,1.317028608E1,1.835289112E0,1.331132589E1
1.222623150E1,-1.310584245E0,1.459415676E1,1.411357060E-1,1.465356482E1
1.223617850E1,-3.642125088E0,1.437569309E1,-1.820317755E0,1.494119084E1
1.224612450E1,-4.770219925E0,1.313595474E1,-1.458810431E0,1.405120752E1
1.225607150E1,-5.318689338E0,1.291635437E1,-6.352590501E-1,1.398299755E1
1.226601750E1,-6.166935557E0,1.289715562E1,-2.161040273E-1,1.429735703E1
1.227596450E1,-7.024165438E0,1.287177519E1,7.870150539E-1,1.468471618E1
1.228591050E1,-7.097719903E0,1.251941730E1,2.138820269E0,1.454950135E1
1.229585750E1,-6.193983607E0,1.195910669E1,3.276328831E0,1.386073578E1
1.230580450E1,-4.758820778E0,1.214782675E1,4.041920272E0,1.365844754E1
1.231575050E1,-3.627923955E0,1.246693386E1,4.647272568E0,1.379070029E1
1.232569750E1,-3.487007812E0,1.214987327E1,4.809765229E0,1.352451424E1
1.233564350E1,-3.775451837E0,1.204270316E1,4.271761455E0,1.332398897E1
1.234559050E1,-4.142015541E0,1.167172774E1,3.620250069E0,1.290316750E1
1.235553650E1,-4.466562322E0,1.128000171E1,2.766105764E0,1.244347052E1
1.236548350E1,-4.538692697E0,1.104196624E1,2.009757017E0,1.210635672E1
1.237542950E1,-4.318246820E0,1.086909915E1,1.550207382E0,1.179778432E1
1.238537650E1,-3.971886708E0,1.068947737E1,1.181878112E0,1.146462587E1
1.239532250E1,-3.470226011E0,1.066636449E1,7.478366625E-1,1.124157728E1
1.240526950E1,-2.836682826E0,1.059855316E1,5.339069223E-1,1.098458717E1
1.241521550E1,-2.148610701E0,1.045729145E1,4.220721987E-1,1.068408243E1
1.242516250E1,-1.697766547E0,1.035785604E1,2.103249317E-1,1.049818220E1
1.243510850E1,-1.363890240E0,1.017438445E1,-1.179076418E-1,1.026607021E1
1.244505550E1,-1.188993588E0,9.779835969E0,-5.187111783E-1,9.865493328E0
1.245500150E1,-1.577296070E0,8.987912470E0,-8.700499016E-1,9.166647167E0
1.246494850E1,-2.090327848E0,7.809002112E0,-1.541311136E0,8.229557978E0
1.247489450E1,-2.038289383E0,5.491225469E0,-2.438238933E0,6.344540161E0
1.248484150E1,1.225503530E0,-5.720473160E0,-7.984114527E0,9.898068339E0
1.249478750E1,3.074533525E0,-3.992146726E1,-2.017830618E1,4.483681907E1
1.250473450E1,3.525899105E0,-7.589970325E1,-3.289754389E1,8.279761659E1
1.251468050E1,2.173607694E0,-9.778965786E1,-3.942879022E1,1.054617051E2
1.252462750E1,5.892323413E0,-9.079145757E1,-2.678436413E1,9.484308306E1
1.253457350E1,1.103725455E1,-6.914867646E1,-1.325693363E1,7.126785204E1
1.254452050E1,9.273524396E0,-3.970086350E1,-3.365668732E0,4.090824542E1
1.255446650E1,5.491015554E0,-2.036208885E1,1.534375022E0,2.114521745E1
1.256441350E1,3.408117178E0,-1.058715811E1,4.106349864E0,1.185602331E1
1.257436050E1,1.705044576E0,-3.782096613E0,5.279356288E0,6.714390114E0
1.258430650E1,1.303200410E1,1.057768094E1,6.170554048E1,6.394758941E1
1.259425350E1,1.093191930E1,1.645523546E1,4.651505894E1,5.053644568E1
1.260419950E1,-2.251783505E0,1.273868906E1,1.656571158E1,2.101826653E1
1.261414650E1,-4.993526845E0,9.748729366E0,7.051947899E0,1.302701055E1
1.262409250E1,-3.386928915E0,6.256103257E0,7.267185661E-1,7.151100287E0
1.263403950E1,-2.023880528E0,4.613972383E0,-2.580139455E-1,5.044938526E0
1.264398550E1,-1.013384599E0,4.718973173E0,1.068688296E0,4.943455353E0
1.265393262E1,-1.043721270E0,5.968557072E0,2.281061099E0,6.474277361E0
1.266387863E1,-1.254590431E0,7.052342001E0,2.542213830E0,7.600814167E0
1.267382563E1,-1.353906704E0,8.093378522E0,2.787357469E0,8.666325687E0
1.268377163E1,-1.233569983E0,9.062617081E0,2.985447687E0,9.621102908E0
1.269371863E1,-1.044841889E0,9.850245216E0,3.127737633E0,1.038757759E1
1.270366463E1,-9.972365630E-1,1.040969862E1,3.278817114E0,1.095933154E1
1.271361163E1,-1.030579652E0,1.102775049E1,3.140626066E0,1.151246747E1
1.272355762E1,-2.820625933E-1,1.340099850E1,2.538958977E0,1.364231039E1
1.273350463E1,-4.644773760E-1,1.423578209E1,1.715902855E0,1.434634286E1
1.274345063E1,-2.316851321E0,1.389915905E1,-7.204822183E-2,1.409111824E1
1.275339762E1,-4.318357332E0,1.311742608E1,-1.343774649E0,1.387518675E1
1.276334363E1,-5.206526878E0,1.242401881E1,-4.034377071E-1,1.347690348E1
1.277329063E1,-5.664424090E0,1.212265214E1,4.403143421E-1,1.338798984E1
1.278323663E1,-5.573074209E0,1.216259915E1,1.798865490E0,1.349903298E1
1.279318363E1,-6.685938511E0,1.247535385E1,2.523714409E0,1.437725154E1
1.280312963E1,-7.051363177E0,1.348025867E1,2.636710097E0,1.543992671E1
1.281307663E1,-6.365398242E0,1.362792075E1,3.148769191E0,1.536727907E1
1.282302262E1,-5.541198698E0,1.283247957E1,3.252749349E0,1.435122967E1
1.283296963E1,-5.032538883E0,1.243480926E1,3.297841615E0,1.381400334E1
1.284291663E1,-4.619589803E0,1.186784569E1,3.305722784E0,1.315728598E1
1.285286262E1,-4.043204028E0,1.134053442E1,3.137902140E0,1.244193111E1
1.286280962E1,-3.437044816E0,1.091074419E1,2.941507615E0,1.181143865E1
1.287275563E1,-2.964455890E0,1.060753098E1,2.776367919E0,1.135851799E1
1.288270262E1,-2.548465380E0,1.033251421E1,2.542183424E0,1.094158225E1
1.289264863E1,-2.152043309E0,1.011858330E1,2.330824412E0,1.060423315E1
1.290259563E1,-1.745409075E0,1.002354616E1,2.160269026E0,1.040118709E1
1.291254163E1,-1.347960232E0,9.998551655E0,2.003804259E0,1.028607133E1
1.292248863E1,-1.063155076E0,9.964720834E0,1.849806433E0,1.019057132E1
1.293243462E1,-8.445403270E-1,9.968457205E0,1.571779807E0,1.012688892E1
1.294238163E1,-7.096157527E-1,1.001658330E1,1.045390942E0,1.009595650E1
1.295232762E1,-5.971829320E-1,1.006401240E1,4.131025699E-1,1.009017477E1
1.296227462E1,-6.579188380E-1,1.000657637E1,-4.100696191E-1,1.003656241E1
1.297222063E1,-1.122518933E0,9.609963244E0,-1.337771605E0,9.767347397E0
1.298216763E1,-1.659310286E0,8.601978110E0,-2.085830462E0,9.005444284E0
1.299211363E1,-1.520886519E0,6.564242751E0,-3.140573148E0,7.434082216E0
1.300206063E1,2.295445542E0,-1.757141513E0,-7.201437814E0,7.759982160E0
1.301200663E1,7.224488708E0,-3.051601506E1,-1.946855244E1,3.691131190E1
1.302195363E1,3.479082204E0,-6.542580103E1,-3.172615013E1,7.279552223E1
1.303189962E1,8.485450119E-2,-8.895754621E1,-4.209877858E1,9.841625569E1
1.304184663E1,6.898783301E-1,-8.997199602E1,-3.423919220E1,9.626919696E1
1.305179263E1,7.033287680E0,-7.148547644E1,-1.714816092E1,7.384916993E1
1.306173962E1,6.235040417E0,-4.571933241E1,-5.941347638E0,4.652346394E1
1.307168563E1,3.744824999E0,-2.508395406E1,1.016210997E0,2.538229994E1
1.308163263E1,2.352322578E0,-1.454435486E1,4.332511687E0,1.535715915E1
1.309157863E1,-2.377071137E-1,-8.709072204E0,6.218387547E0,1.070386785E1
1.310152563E1,1.256295187E0,-2.701176234E0,1.383557994E1,1.415266416E1
1.311147163E1,1.710859866E1,5.243573667E0,5.835721898E1,6.103903849E1
1.312141863E1,5.370403867E0,3.342592987E0,1.923435742E1,2.024783126E1
1.313136563E1,-6.051363001E0,5.082931942E0,1.008059277E1,1.280911948E1
1.314131163E1,-7.874501452E0,6.789369324E0,1.804099216E1,2.082260087E1
1.315125863E1,-6.124858993E0,4.666058795E0,4.274218455E0,8.806528588E0
1.316120462E1,-3.504678682E0,3.734951683E0,4.287467954E-1,5.139694597E0
1.317115162E1,-2.024169526E0,4.359913786E0,1.580733356E0,5.060121385E0
1.318109763E1,-2.040359005E0,5.588676335E0,2.385074295E0,6.409754085E0
1.319104462E1,-1.835246866E0,6.734362228E0,2.661941417E0,7.470321130E0
1.320099063E1,-1.476370497E0,7.951260191E0,2.857184918E0,8.577045769E0
1.321093763E1,-1.172348027E0,8.976268909E0,3.000916496E0,9.536944125E0
1.322088363E1,-9.143995705E-1,9.819142706E0,2.964410866E0,1.029754446E1
1.323083063E1,-7.490277404E-1,1.056352133E1,3.143148555E0,1.104664692E1
1.324077662E1,-2.206606894E-1,1.183983752E1,3.103718148E0,1.224187527E1
1.325072363E1,5.428677438E-1,1.381690159E1,2.818081079E0,1.411180555E1
1.326066962E1,-1.199532902E-1,1.424732332E1,2.110398123E0,1.440327709E1
1.327061662E1,-9.778921464E-1,1.403053312E1,7.706232619E-1,1.408566622E1
1.328056263E1,-1.130052778E0,1.293344929E1,1.539130417E-1,1.298363658E1
1.329050963E1,-2.054240295E0,1.262913913E1,1.673546210E-1,1.279621295E1
1.330045563E1,-2.879849311E0,1.250671598E1,6.450367641E-1,1.285019646E1
1.331040263E1,-3.573926965E0,1.247020012E1,1.331290259E0,1.304036727E1
1.332034863E1,-5.415254935E0,1.237491155E1,1.994758909E0,1.365439435E1
1.333029563E1,-6.770070589E0,1.351555013E1,2.380099483E0,1.530257575E1
1.334024162E1,-6.127548128E0,1.440938007E1,2.722019219E0,1.589296916E1
1.335018863E1,-4.733394453E0,1.335378925E1,3.489673558E0,1.459131700E1
1.336013462E1,-3.894984128E0,1.293687341E1,3.578443354E0,1.397636762E1
1.337008162E1,-3.297584630E0,1.275957531E1,3.372627503E0,1.360350847E1
1.338002863E1,-2.736047859E0,1.241238051E1,2.871664963E0,1.303071784E1
1.338997463E1,-2.546815881E0,1.177265302E1,2.378177504E0,1.227751434E1
1.339992162E1,-2.457122224E0,1.111277134E1,1.913909458E0,1.154097855E1
1.340986763E1,-2.338733649E0,1.057918368E1,1.515433406E0,1.094007956E1
1.341981463E1,-2.113796233E0,1.023499902E1,1.198500576E0,1.051949348E1
1.342976063E1,-1.784062094E0,1.009302746E1,9.421852469E-1,1.029270586E1
1.343970763E1,-1.332562028E0,1.004379858E1,6.977245626E-1,1.015580775E1
1.344965363E1,-7.021868652E-1,9.952308365E0,5.388795407E-1,9.991591432E0
1.345960063E1,-1.849559096E-1,9.867772830E0,4.439229512E-1,9.879484647E0
1.346954662E1,1.540922954E-1,9.838537921E0,2.424673685E-1,9.842731495E0
1.347949362E1,2.846407038E-1,9.828818679E0,-1.508686888E-1,9.834096721E0
1.348943963E1,2.043055521E-1,9.706723554E0,-6.044948021E-1,9.727673765E0
1.349938662E1,-1.181128791E-1,9.321198499E0,-9.642444527E-1,9.371683919E0
1.350933263E1,-7.281818318E-1,8.649218350E0,-1.618963329E0,8.829511261E0
1.351927963E1,-1.638104774E0,7.295303752E0,-2.888129553E0,8.015368762E0
1.352922563E1,-5.899767503E-1,2.534491412E0,-5.330085561E0,5.931402142E0
1.353917263E1,4.574117176E0,-1.740623246E1,-1.591814414E1,2.402679316E1
1.354911863E1,2.593843282E0,-5.071536186E1,-2.667754719E1,5.736259649E1
1.355906563E1,1.044819157E0,-7.688469246E1,-3.313774050E1,8.372847441E1
1.356901162E1,-3.662379843E0,-8.968454690E1,-3.384677387E1,9.592880214E1
1.357895862E1,1.749155532E0,-8.222655899E1,-2.206137158E1,8.515263158E1
1.358890463E1,6.192335277E0,-5.891893058E1,-1.073879045E1,6.020886161E1
1.359885162E1,3.073138380E0,-3.384862626E1,-2.967388269E0,3.411713752E1
1.360879763E1,1.661885692E0,-1.864207540E1,1.420920181E0,1.876986557E1
1.361874463E1,1.445668229E0,-9.773889935E0,4.115031810E0,1.070291399E1
1.362869063E1,5.375476912E-1,-4.090609744E0,4.794667426E0,6.325415506E0
1.363863763E1,7.781762273E0,4.305905979E0,2.281424036E1,2.448644959E1
1.364858362E1,1.763489601E1,8.064033685E0,4.917094849E1,5.285641278E1
1.365853100E1,1.660070424E0,4.405614454E0,1.152492871E1,1.244946803E1
1.366847800E1,-6.291935579E0,5.434181203E0,6.436213871E0,1.051397297E1
1.367842400E1,-7.380048033E0,6.081191402E0,1.108128409E1,1.463696877E1
1.368837100E1,-5.513969969E0,5.564318588E0,5.976474202E0,9.853108649E0
1.369831700E1,-3.581036595E0,5.435436015E0,2.629511590E0,7.020122433E0
1.370826400E1,-2.679126384E0,5.691952196E0,1.652224046E0,6.504297217E0
1.371821000E1,-2.496010301E0,6.725974982E0,2.273025563E0,7.525652934E0
1.372815700E1,-2.420855600E0,7.815740443E0,2.818538331E0,8.653929676E0
1.373810300E1,-2.204620302E0,8.870752394E0,2.980680452E0,9.614315091E0
1.374805000E1,-1.934579365E0,9.633370818E0,2.991281161E0,1.027093928E1
1.375799600E1,-1.811637271E0,1.041622996E1,3.142778133E0,1.102982006E1
1.376794300E1,-1.518392681E0,1.205810707E1,3.075959954E0,1.253654626E1
1.377788900E1,-1.055326385E0,1.425838157E1,2.635197715E0,1.453820573E1
1.378783600E1,-3.192099544E-1,1.490361480E1,2.396939172E0,1.509850809E1
1.379778200E1,1.666753938E-1,1.363911934E1,2.572224372E0,1.388055097E1
1.380772900E1,-2.059307492E-1,1.214443302E1,2.391639841E0,1.237940233E1
1.381767500E1,-1.105599722E0,1.084277148E1,2.101961761E0,1.109983276E1
1.382762200E1,-2.234903471E0,1.048068265E1,1.754400631E0,1.085897896E1
1.383756800E1,-2.327507872E0,1.164632509E1,2.576332625E0,1.215284620E1
1.384751500E1,-2.324265298E0,1.442642704E1,3.548071747E0,1.503704823E1
1.385746100E1,-3.352743461E0,1.468082186E1,4.559871897E0,1.573403479E1
1.386740800E1,-4.416426541E0,1.444108601E1,4.684012086E0,1.581106441E1
1.387735400E1,-5.241617188E0,1.375407209E1,4.528748630E0,1.539995500E1
1.388730100E1,-5.183393539E0,1.297084340E1,4.429442735E0,1.465367906E1
1.389724700E1,-4.555086243E0,1.249136821E1,4.088996790E0,1.391053504E1
1.390719400E1,-4.212058167E0,1.202765828E1,3.478914681E0,1.321017960E1
1.391714100E1,-4.304922477E0,1.144701222E1,3.078831814E0,1.261133029E1
1.392708700E1,-4.470032060E0,1.092021084E1,2.623345993E0,1.208776801E1
1.393703400E1,-4.486022440E0,1.044341484E1,2.218888824E0,1.158070716E1
1.394698000E1,-4.243630793E0,1.009452084E1,1.680099477E0,1.107837928E1
1.395692700E1,-3.800376471E0,9.905852237E0,9.950335515E-1,1.065640003E1
1.396687300E1,-3.153518592E0,9.803313709E0,3.460116175E-1,1.030385186E1
1.397682000E1,-2.379602178E0,9.699806297E0,1.825193748E-2,9.987446213E0
1.398676600E1,-1.636215685E0,9.662364237E0,-1.180833507E-1,9.800634066E0
1.399671300E1,-1.181109203E0,9.637710621E0,-2.584783606E-1,9.713253628E0
1.400665900E1,-1.099454737E0,9.594927714E0,-7.033674181E-1,9.683293049E0
1.401660600E1,-1.419808041E0,9.590639366E0,-1.408179829E0,9.796896894E0
1.402655200E1,-1.605086424E0,9.437432960E0,-1.900280621E0,9.759739225E0
1.403649900E1,-1.563717666E0,8.896301218E0,-2.248860190E0,9.308424166E0
1.404644500E1,-1.067363828E0,7.862422859E0,-2.439025384E0,8.300951968E0
1.405639200E1,-6.019112829E-1,6.218047823E0,-2.761681176E0,6.830322016E0
1.406633800E1,6.339231806E-1,1.492332811E0,-5.065538814E0,5.318702783E0
1.407628500E1,6.108685595E0,-1.648650520E1,-1.884482293E1,2.577301388E1
1.408623100E1,6.725503696E0,-5.141196639E1,-3.153325750E1,6.068582221E1
1.409617800E1,2.808649228E0,-8.041213523E1,-3.628908802E1,8.826606319E1
1.410612400E1,-1.027164294E-1,-8.973753671E1,-3.741988573E1,9.722697102E1
1.411607100E1,2.883498850E0,-7.883312505E1,-2.356877910E1,8.233142485E1
1.412601700E1,6.073535643E0,-6.146503748E1,-1.031232728E1,6.261934814E1
1.413596400E1,4.577387524E0,-3.802866742E1,-1.781079429E0,3.834454676E1
1.414591000E1,1.713156126E0,-2.090510807E1,3.441473790E0,2.125563900E1
1.415585700E1,3.369472638E-1,-1.154844387E1,5.395024738E0,1.275093648E1
1.416580300E1,-1.738094208E0,-5.594522966E0,6.505841346E0,8.754749014E0
1.417575000E1,5.718596789E0,2.338202721E0,2.534345115E1,2.608562932E1
1.418569600E1,1.359179782E1,3.202612984E0,5.059993315E1,5.249139865E1
1.419564300E1,-4.204989176E0,-2.004945928E-1,1.177465160E1,1.250458125E1
1.420559000E1,-1.409849999E1,2.894102776E0,2.015155868E1,2.476345796E1
1.421553600E1,-1.357147056E1,4.761781808E0,1.836844442E1,2.332936196E1
1.422548300E1,-7.228145556E0,3.632781529E0,4.031161395E0,9.038443009E0
1.423542900E1,-3.538221527E0,4.283104177E0,3.593024264E0,6.616178377E0
1.424537600E1,-2.745481465E0,5.021846665E0,2.257902617E0,6.152620305E0
1.425532200E1,-2.668133911E0,6.008874208E0,2.197282193E0,6.932067286E0
1.426526900E1,-2.396960368E0,7.295321293E0,2.421292241E0,8.051694722E0
1.427521500E1,-1.961083917E0,8.540019844E0,2.652350814E0,9.154930579E0
1.428516200E1,-1.706691152E0,9.470137607E0,2.595698896E0,9.966642049E0
1.429510800E1,-1.460439173E0,1.014173242E1,2.651168800E0,1.058377603E1
1.430505500E1,-9.864579519E-1,1.146640861E1,2.976271066E0,1.188738050E1
1.431500100E1,-1.484616460E-1,1.362737345E1,3.000366273E0,1.395455287E1
1.432494800E1,4.915654796E-1,1.429155868E1,2.823330709E0,1.457605853E1
1.433489400E1,5.364794049E-1,1.364036245E1,2.191283534E0,1.382566532E1
1.434484100E1,-4.121243307E-1,1.158612450E1,1.360302389E0,1.167298376E1
1.435478700E1,-1.617572861E0,1.092941903E1,4.180025366E-1,1.105637682E1
1.436473400E1,-2.310135209E0,1.223937777E1,4.822704533E-1,1.246481760E1
1.437468000E1,-3.262949232E0,1.577631174E1,1.524522318E0,1.618218212E1
1.438462700E1,-5.412558199E0,1.716803093E1,1.797725283E0,1.809057457E1
1.439457300E1,-6.596351566E0,1.680283723E1,7.515648472E-1,1.806687695E1
1.440452000E1,-5.351675820E0,1.604867037E1,6.523089463E-1,1.693002545E1
1.441446600E1,-3.661591053E0,1.517558401E1,1.699847571E0,1.570334616E1
1.442441300E1,-2.854248154E0,1.430541190E1,2.211338315E0,1.475403536E1
1.443435900E1,-2.097828948E0,1.411406995E1,2.239862787E0,1.444385136E1
1.444430600E1,-1.173044431E0,1.384861338E1,1.805066170E0,1.401493452E1
1.445425300E1,-6.307417837E-1,1.302936701E1,1.348831614E0,1.311417503E1
1.446419900E1,-3.179096067E-1,1.216107069E1,1.310256070E0,1.223558245E1
1.447414600E1,-2.984301925E-2,1.138375704E1,1.397832158E0,1.146929596E1
1.448409200E1,2.482863714E-1,1.084907829E1,1.302418170E0,1.092979592E1
1.449403900E1,5.637802009E-1,1.048329753E1,1.207369487E0,1.056764478E1
1.450398500E1,8.897412774E-1,1.011801612E1,1.046565940E0,1.021083689E1
1.451393200E1,1.347355484E0,9.711545752E0,7.916842018E-1,9.836475567E0
1.452387800E1,1.793390742E0,9.430863029E0,4.535558005E-1,9.610574420E0
1.453382500E1,2.221672684E0,9.312358094E0,7.351265699E-2,9.573988035E0
1.454377100E1,2.302988011E0,9.360940270E0,-4.878374411E-1,9.652406015E0
1.455371800E1,1.632891397E0,9.470551590E0,-1.130163436E0,9.676515443E0
1.456366400E1,7.848974848E-1,9.278133756E0,-1.912483907E0,9.505652253E0
1.457361100E1,3.404203637E-1,8.791479353E0,-2.953236837E0,9.280495841E0
1.458355700E1,6.436993597E-1,7.283726850E0,-3.524155465E0,8.117062118E0
1.459350400E1,2.253857074E0,2.499907470E0,-4.079495064E0,5.288826812E0
1.460345000E1,5.045729032E0,-1.229181092E1,-1.073299469E1,1.708054953E1
1.461339700E1,8.342634800E-1,-3.857529086E1,-2.536449411E1,4.617474009E1
1.462334300E1,-8.919034023E0,-7.241979601E1,-3.509044389E1,8.096613659E1
1.463329000E1,-1.414273417E1,-9.394814944E1,-3.981496841E1,1.030121518E2
1.464323600E1,-9.763715195E0,-9.108721441E1,-2.763112983E1,9.568537035E1
1.465318300E1,-3.667027210E0,-7.429665400E1,-1.245384429E1,7.542239801E1
1.466312879E1,-1.202576524E0,-4.608985409E1,-2.187375548E0,4.615739867E1
1.467307579E1,-1.407739388E0,-2.335177957E1,2.115615009E0,2.348963955E1
1.468302179E1,-9.465829378E-1,-1.106159768E1,3.545571477E0,1.165444291E1
1.469296879E1,-2.056465014E-1,-3.091450397E0,4.909075509E0,5.805030439E0
1.470291479E1,7.088499429E0,6.452842183E0,2.318290496E1,2.508651189E1
1.471286179E1,1.496810842E1,8.418284907E0,5.159461002E1,5.437752820E1
1.472280779E1,-1.900402097E0,3.605140572E0,1.435186686E1,1.491927106E1
1.473275479E1,-9.546345538E0,5.882521725E0,8.240886816E0,1.391578207E1
1.474270179E1,-1.332358370E1,1.037124616E1,1.864761739E1,2.515579981E1
1.475264779E1,-9.333303405E0,8.730025701E0,6.833715777E0,1.449219005E1
1.476259479E1,-5.391426362E0,7.607097756E0,3.396647573E0,9.923337604E0
1.477254079E1,-3.279023228E0,7.010767128E0,1.095351892E0,7.816818076E0
1.478248779E1,-2.645924140E0,6.995712302E0,6.112354723E-1,7.504299699E0
1.479243379E1,-2.096969846E0,7.718131118E0,1.682046600E0,8.172888795E0
1.480238079E1,-1.642030741E0,8.522089357E0,2.022505409E0,8.911385980E0
1.481232679E1,-1.160579044E0,9.288411407E0,2.234176662E0,9.623568753E0
1.482227379E1,-6.654198655E-1,1.005666830E1,2.468419922E0,1.037653400E1
1.483221979E1,-2.404484346E-1,1.076813879E1,2.823295918E0,1.113470378E1
1.484216679E1,2.793628608E-1,1.325497949E1,3.022479565E0,1.359808470E1
1.485211279E1,1.320711769E0,1.504345915E1,2.909318108E0,1.537901410E1
1.486205979E1,2.180887185E0,1.512681004E1,2.492506649E0,1.548512965E1
1.487200579E1,1.909734546E0,1.482850264E1,2.488872897E0,1.515671683E1
1.488195279E1,1.395651585E0,1.373853837E1,2.588095469E0,1.404968036E1
1.489189879E1,5.815034039E-1,1.286866798E1,2.850479331E0,1.319340723E1
1.490184579E1,-2.302186212E-1,1.200651124E1,3.151651576E0,1.241540255E1
1.491179179E1,-6.576036000E-1,1.165404926E1,3.437837991E0,1.216832103E1
1.492173879E1,-1.044856507E0,1.181591774E1,4.589650597E0,1.271898304E1
1.493168479E1,-1.847019650E0,1.235001645E1,5.884993343E0,1.380462004E1
1.494163179E1,-3.261715762E0,1.256251947E1,6.899694005E0,1.469902930E1
1.495157779E1,-4.939049506E0,1.262315860E1,7.259438685E0,1.537653385E1
1.496152479E1,-6.711337647E0,1.230461866E1,7.000810490E0,1.566706868E1
1.497147079E1,-7.055256253E0,1.211289782E1,5.925549631E0,1.521877370E1
1.498141779E1,-6.048964473E0,1.183631516E1,4.363323882E0,1.399024385E1
1.499136479E1,-5.044397621E0,1.127378495E1,3.335020551E0,1.279322229E1
1.500131079E1,-4.429632477E0,1.069614904E1,2.674279920E0,1.188196201E1
1.501125779E1,-3.819989494E0,1.028401272E1,2.253687066E0,1.119965816E1
1.502120379E1,-3.243990805E0,9.930511115E0,1.938119562E0,1.062519811E1
1.503115079E1,-2.617349381E0,9.764480011E0,1.724530714E0,1.025522276E1
1.504109679E1,-2.026369541E0,9.739508307E0,1.588157858E0,1.007404789E1
1.505104379E1,-1.487633550E0,9.698090140E0,1.501307410E0,9.925720622E0
1.506098979E1,-1.035611547E0,9.624583037E0,1.292042578E0,9.765985047E0
1.507093679E1,-8.286563656E-1,9.451639355E0,8.622921082E-1,9.526998770E0
1.508088279E1,-1.055926455E0,9.095370260E0,4.518506062E-1,9.167601094E0
1.509082979E1,-1.533414471E0,8.663822356E0,4.521154851E-2,8.798592037E0
1.510077579E1,-2.239207460E0,8.030434999E0,-7.808944809E-1,8.373274898E0
1.511072279E1,-3.360956461E0,6.802543686E0,-2.048041369E0,7.859077705E0
1.512066879E1,-4.731816874E0,2.631162844E0,-4.294539576E0,6.910584564E0
1.513061579E1,-5.161376433E0,-1.756374826E1,-1.258208308E1,2.221337152E1
1.514056179E1,-8.774730588E0,-5.216751085E1,-2.361546794E1,5.793216215E1
1.515050879E1,-1.250921157E1,-7.904150110E1,-3.034391045E1,8.558499969E1
1.516045479E1,-1.442400980E1,-9.092582191E1,-3.338807149E1,9.793018159E1
1.517040179E1,-4.677172598E0,-8.494024710E1,-2.490080757E1,8.863843262E1
1.518034779E1,2.138711511E0,-6.275230435E1,-1.349752901E1,6.422311949E1
1.519029479E1,2.784860123E0,-3.610543399E1,-4.360639426E0,3.647427841E1
1.520024079E1,2.178089292E0,-1.933248071E1,-4.788565564E-1,1.946068311E1
1.521018779E1,2.542720783E0,-9.239484245E0,9.611965916E-1,9.631064167E0
1.522013379E1,2.606961218E0,-2.763538544E0,1.547247229E0,4.102117266E0
1.523008079E1,3.456618078E0,2.348631815E0,8.011177779E0,9.035665407E0
1.524002679E1,2.550835666E1,1.096191318E1,8.075176023E1,8.539137298E1
1.524997379E1,2.009416709E1,1.034727960E1,4.092245444E1,4.674921415E1
1.525991979E1,4.724850794E0,8.660059088E0,6.575132021E0,1.185551347E1
1.526986679E1,3.863827678E-1,6.402698801E0,-2.454652652E0,6.867981015E0
1.527981379E1,6.581173510E-1,5.093122469E0,-2.999002117E0,5.947018466E0
1.528975979E1,1.088607201E0,5.377720488E0,-1.002605550E0,5.577648355E0
1.529970679E1,1.095895975E0,6.370670677E0,1.799889922E-1,6.466747938E0
1.530965279E1,1.036469553E0,7.348117558E0,9.147970350E-1,7.477028447E0
1.531959979E1,1.180287230E0,8.270604705E0,8.746311951E-1,8.400057134E0
1.532954579E1,1.266253287E0,9.191404345E0,4.989578220E-1,9.291623654E0
1.533949279E1,6.325705004E-1,1.013881583E1,4.941612048E-1,1.017054213E1
1.534943879E1,1.756371905E-2,1.081538897E1,1.670900637E0,1.094371308E1
1.535938579E1,5.046128836E-1,1.183579476E1,1.753674407E0,1.197564385E1
1.536933179E1,7.825130633E-1,1.399229584E1,1.242700849E0,1.406914976E1
1.537927879E1,1.314102953E0,1.484591214E1,-2.724986681E-1,1.490644926E1
1.538922479E1,1.089371652E0,1.443653103E1,-1.700159812E0,1.457706082E1
1.539917179E1,1.343088807E-1,1.393694610E1,-1.551520374E0,1.402368428E1
1.540911779E1,-2.821175937E-1,1.339443792E1,-7.365863273E-1,1.341764200E1
1.541906479E1,-5.840309725E-1,1.320963784E1,-1.075332195E-1,1.322297952E1
1.542901079E1,-1.371754599E0,1.311676651E1,6.065468824E-1,1.320224123E1
1.543895779E1,-2.811322282E0,1.327704571E1,8.211423281E-1,1.359624031E1
1.544890379E1,-4.506010270E0,1.436482429E1,5.348240581E-1,1.506447285E1
1.545885079E1,-6.158368217E0,1.455236788E1,6.314028114E-2,1.580192700E1
1.546879679E1,-6.855582025E0,1.392368695E1,-1.626563832E-1,1.552077705E1
1.547874379E1,-6.440850129E0,1.337500294E1,-6.029648781E-3,1.484504262E1
1.548868979E1,-5.517671256E0,1.276333741E1,7.812040910E-1,1.392687179E1
1.549863679E1,-4.630236705E0,1.223349547E1,1.541839724E0,1.317098224E1
1.550858279E1,-4.011757118E0,1.166809194E1,1.858605030E0,1.247769920E1
1.551852979E1,-3.630594671E0,1.110293749E1,1.896022825E0,1.183432893E1
1.552847579E1,-3.237689846E0,1.064079696E1,1.946057157E0,1.129142745E1
1.553842279E1,-2.776394817E0,1.034899166E1,2.087214790E0,1.091633923E1
1.554836879E1,-2.312865567E0,1.023421433E1,2.237211367E0,1.072816875E1
1.555831579E1,-1.838395299E0,1.011038082E1,2.363069175E0,1.054436312E1
1.556826279E1,-1.403153124E0,9.999980714E0,2.333956181E0,1.036415961E1
1.557820879E1,-9.584128784E-1,9.870409924E0,2.178729855E0,1.015334482E1
1.558815579E1,-5.685556950E-1,9.850661538E0,1.933749938E0,1.005475893E1
1.559810179E1,-2.709323818E-1,9.820347233E0,1.691299234E0,9.968606584E0
1.560804879E1,7.687919140E-3,9.758450362E0,1.347699008E0,9.851076347E0
1.561799479E1,-1.015503301E-1,9.649155961E0,8.383781657E-1,9.686041564E0
1.562794179E1,-9.542302188E-1,9.195483363E0,-2.255516660E-1,9.247612835E0
1.563788779E1,-1.821207701E0,8.117134005E0,-1.285955042E0,8.417739739E0
1.564783479E1,-4.557495296E-1,4.433110401E0,-1.925776382E0,4.854769833E0
1.565778213E1,5.477815465E0,-1.469840677E1,-9.256654009E0,1.821360116E1
1.566772912E1,1.367721044E0,-5.351413397E1,-2.474228019E1,5.897299064E1
1.567767513E1,-3.574443274E0,-8.467573777E1,-4.028323215E1,9.383760443E1
1.568762213E1,-2.519670767E0,-9.420779388E1,-3.954655782E1,1.022026781E2
1.569756813E1,8.821768807E-1,-8.408029475E1,-2.451113274E1,8.758464380E1
1.570751513E1,5.964933552E0,-6.266162573E1,-9.121517254E0,6.360237298E1
1.571746112E1,4.106321505E0,-3.572756352E1,-8.003531376E-1,3.597167270E1
1.572740813E1,2.395640213E0,-1.829462332E1,2.687096724E0,1.864545047E1
1.573735412E1,1.249978586E0,-9.782397634E0,3.925399882E0,1.061444837E1
1.574730112E1,7.956418897E-1,-3.335757592E0,4.919377134E0,5.996715444E0
1.575724713E1,1.455268129E1,6.808582106E0,3.875774504E1,4.195593074E1
1.576719413E1,1.831746956E1,7.964303575E0,4.378945654E1,4.812978628E1
1.577714013E1,4.973094919E-1,4.838120132E0,6.793619081E0,8.355117196E0
1.578708713E1,-6.362281092E0,6.609297886E0,8.003330816E0,1.217434776E1
1.579703313E1,-7.766867661E0,6.772490752E0,9.798302645E0,1.421962021E1
1.580698013E1,-6.301289955E0,4.769099599E0,3.838929795E0,8.785667194E0
1.581692612E1,-4.873658924E0,4.052904559E0,1.105723683E0,6.434377323E0
1.582687313E1,-3.834340023E0,4.685000850E0,9.936416218E-1,6.135040346E0
1.583681913E1,-3.371915897E0,5.997248774E0,1.932236386E0,7.146352015E0
1.584676612E1,-3.124749706E0,7.111553831E0,2.485825036E0,8.155831332E0
1.585671313E1,-2.720972568E0,8.170444824E0,2.757381133E0,9.042290144E0
1.586665913E1,-2.356341515E0,9.120083517E0,2.857589546E0,9.843479400E0
1.587660612E1,-2.021161719E0,9.954856582E0,2.727226457E0,1.051770072E1
1.588655213E1,-1.615048764E0,1.061186143E1,2.983468404E0,1.114096357E1
1.589649913E1,-1.015055733E0,1.211007244E1,2.992535097E0,1.251556867E1
1.590644513E1,-7.734886900E-1,1.329534282E1,2.795495039E0,1.360805709E1
1.591639213E1,-3.549096179E-1,1.302365779E1,3.132594915E0,1.339980500E1
1.592633813E1,1.164557782E-1,1.173203592E1,3.421171964E0,1.222123751E1
1.593628513E1,-3.115544873E-1,1.073438632E1,3.275986477E0,1.122747538E1
1.594623112E1,-8.426200283E-1,1.074304722E1,3.171976790E0,1.123318783E1
1.595617812E1,-1.416268721E0,1.117560786E1,3.125354308E0,1.169050331E1
1.596612413E1,-2.916762783E0,1.235145603E1,3.938075476E0,1.328813041E1
1.597607112E1,-4.396171201E0,1.360901553E1,5.318601630E0,1.525841238E1
1.598601713E1,-4.497033332E0,1.329832256E1,6.254311670E0,1.536831501E1
1.599596413E1,-4.972387991E0,1.193396951E1,6.644142029E0,1.453577978E1
1.600591013E1,-5.344081457E0,1.158746936E1,6.865400670E0,1.449007864E1
1.601585713E1,-5.371166929E0,1.185793115E1,6.264514477E0,1.444659499E1
1.602580312E1,-5.499637858E0,1.162170948E1,5.123988166E0,1.384071539E1
1.603575013E1,-6.285487854E0,1.140116888E1,3.905808493E0,1.359225329E1
1.604569612E1,-7.445419904E0,1.133249216E1,2.806180533E0,1.384681571E1
1.605564312E1,-7.953608433E0,1.139588183E1,1.797884912E0,1.401279415E1
1.606558913E1,-7.486122372E0,1.145391194E1,1.054436000E0,1.372391934E1
1.607553613E1,-6.334624346E0,1.149250590E1,6.415717041E-1,1.313837021E1
1.608548213E1,-5.091144356E0,1.143889979E1,4.124301401E-1,1.252750087E1
1.609542913E1,-4.115657462E0,1.135744925E1,2.080655676E-1,1.208195270E1
1.610537513E1,-3.201789696E0,1.116249372E1,3.472176057E-1,1.161780029E1
1.611532213E1,-2.290347793E0,1.087987440E1,8.391216391E-1,1.114995449E1
1.612526913E1,-1.811060443E0,1.075583859E1,1.055278584E0,1.095817578E1
1.613521513E1,-1.493024829E0,1.050296873E1,1.152401420E0,1.067096548E1
1.614516213E1,-1.284027946E0,9.962114146E0,1.634475115E0,1.017663770E1
1.615510812E1,-1.701948914E0,9.327370820E0,2.026526247E0,9.695529132E0
1.616505513E1,-3.229631798E0,8.462264739E0,1.917119579E0,9.258282430E0
1.617500113E1,-6.068076097E0,7.073526464E0,8.099069032E-1,9.354799482E0
1.618494812E1,-8.181527052E0,3.301430343E0,-7.600374627E-1,8.855195320E0
1.619489413E1,-6.512227090E0,-1.434706746E1,-8.972355368E0,1.813148111E1
1.620484113E1,-3.722277258E0,-4.719086609E1,-2.467193117E1,5.338105823E1
1.621478713E1,-6.286715770E-1,-7.203891774E1,-3.048618256E1,7.822664651E1
1.622473413E1,-3.552315071E0,-8.335529614E1,-3.208621933E1,8.938819726E1
1.623468013E1,2.643092625E0,-8.123401051E1,-2.083250437E1,8.390437199E1
1.624462713E1,1.077103316E1,-6.880258211E1,-9.095305356E0,7.023200865E1
1.625457312E1,1.367284725E1,-4.622036862E1,-7.157842728E-1,4.820561767E1
1.626452012E1,1.192441516E1,-2.768303907E1,1.864008150E0,3.019961681E1
1.627446613E1,9.605667880E0,-1.603363484E1,2.994665530E0,1.892919235E1
1.628441312E1,7.994044853E0,-9.016706498E0,3.746222483E0,1.261903055E1
1.629435913E1,6.450361794E0,-4.993854289E0,4.375596603E0,9.256975401E0
1.630430613E1,1.861568692E1,2.616242504E0,5.403304863E1,5.720977949E1
1.631425213E1,2.181697434E1,8.410099390E0,5.276711241E1,5.771549440E1
1.632419913E1,6.708811650E0,7.187714984E0,1.437488852E1,1.741576356E1
1.633414513E1,1.506865188E0,5.477035446E0,4.613203474E0,7.317800644E0
1.634409213E1,2.468570195E-1,4.208585506E0,9.777980062E-1,4.327726804E0
1.635403812E1,-1.585561694E-1,3.787643867E0,1.365283047E0,4.029315564E0
1.636398512E1,-4.290577210E-1,4.156892611E0,2.450417514E0,4.844418717E0
1.637393113E1,-1.035986719E0,5.087072940E0,2.692931368E0,5.848372332E0
1.638387812E1,-1.528484537E0,6.441207978E0,2.855727207E0,7.209757491E0
1.639382413E1,-1.880709114E0,7.764514741E0,2.989812341E0,8.530166105E0
1.640377113E1,-2.104515678E0,8.853212501E0,2.958941673E0,9.568891977E0
1.641371713E1,-2.273699601E0,9.566896162E0,2.808439020E0,1.022656060E1
1.642366413E1,-2.443698917E0,1.003300813E1,2.477568183E0,1.061938137E1
1.643361012E1,-2.804519339E0,1.053756904E1,1.581245133E0,1.101844028E1
1.644355713E1,-3.285267762E0,1.230907775E1,4.855539572E-1,1.274920162E1
1.645350413E1,-4.519169136E0,1.449697019E1,-2.327548510E0,1.536237340E1
1.646345012E1,-6.892237051E0,1.467717553E1,-5.908792681E0,1.725793279E1
1.647339713E1,-8.192040346E0,1.420041111E1,-7.356424112E0,1.796881121E1
1.648334313E1,-9.929736943E0,1.334584171E1,-8.026636648E0,1.846992319E1
1.649329012E1,-1.114327744E1,1.258254618E1,-7.861265695E0,1.855512325E1
1.650323613E1,-1.227608425E1,1.180097342E1,-6.476067324E0,1.821825091E1
1.651318313E1,-1.170796293E1,1.061190119E1,-3.499076173E0,1.618432504E1
1.652312913E1,-9.759947249E0,1.073784437E1,-1.620567513E-1,1.451151730E1
1.653307613E1,-7.551846830E0,1.147758030E1,2.722254277E0,1.400628103E1
1.654302213E1,-6.290183169E0,1.109256804E1,5.046031918E0,1.371400409E1
1.655296913E1,-5.422807199E0,1.102205062E1,6.207745029E0,1.376330397E1
1.656291512E1,-4.760595116E0,1.106928443E1,6.090636410E0,1.350141383E1
1.657286213E1,-4.125212689E0,1.065267031E1,5.467247207E0,1.266442089E1
1.658280813E1,-3.541326691E0,1.027154646E1,4.772059459E0,1.186668500E1
1.659275512E1,-3.135093723E0,9.945791059E0,4.221852838E0,1.125040505E1
1.660270113E1,-2.919613008E0,9.773906307E0,3.819080837E0,1.089214226E1
1.661264813E1,-2.817320648E0,9.573401189E0,3.526349048E0,1.058406555E1
