"Time (s)","Linear Acceleration x (m/s^2)","Linear Acceleration y (m/s^2)","Linear Acceleration z (m/s^2)","Absolute acceleration (m/s^2)"
6.927833310E-3,-2.145627013E-1,-2.016149193E-1,-2.935711563E-2,2.958843840E-1
1.687483327E-2,3.063831367E-2,4.324425280E-2,-1.228345057E-1,1.337799965E-1
2.682083333E-2,2.949141155E-1,2.534785527E-1,-2.593991509E-1,4.674544167E-1
3.676783328E-2,5.418458332E-1,2.854160446E-1,-3.864889678E-1,7.241774284E-1
4.671383335E-2,8.285668302E-1,2.859346926E-1,-4.522587419E-1,9.863161816E-1
5.666083330E-2,1.070271722E0,2.188033944E-1,-4.647197431E-1,1.187148231E0
6.660683325E-2,1.155330656E0,9.090724647E-2,-4.243309781E-1,1.234143359E0
7.655383332E-2,1.057297043E0,-4.803136826E-2,-2.125480431E-1,1.079518744E0
8.649983327E-2,8.275190091E-1,-1.214250344E-1,7.857488394E-3,8.364170548E-1
9.644683334E-2,5.041019100E-1,-1.540068895E-1,8.773805559E-2,5.343545865E-1
1.063928333E-1,1.885213955E-1,-2.248219335E-1,-4.060394257E-2,2.961990859E-1
1.163388334E-1,2.460223295E-2,-2.980261499E-1,-2.608784965E-1,3.968405798E-1
1.262858333E-1,-8.471826106E-2,-3.245263159E-1,-4.467565119E-1,5.586464843E-1
1.362318333E-1,-2.037803625E-1,-3.156215912E-1,-5.725502935E-1,6.848045441E-1
1.461788333E-1,-2.561423980E-1,-2.557811862E-1,-5.035566571E-1,6.201630836E-1
1.561248333E-1,-2.275166228E-1,-1.708497941E-1,-2.513805717E-1,3.796651915E-1
1.660718333E-1,-9.896405183E-2,-8.708433688E-2,6.473744810E-3,1.319828574E-1
1.760178333E-1,1.449249941E-1,2.563419342E-3,9.234507680E-2,1.718645928E-1
1.859648332E-1,4.206508137E-1,8.664813459E-2,2.188817471E-2,4.300396475E-1
1.959108333E-1,7.022903609E-1,1.111900681E-1,-1.107953811E-1,7.196183702E-1
2.058578333E-1,8.905302130E-1,1.052305859E-1,-2.223652259E-1,9.238851823E-1
2.158038333E-1,9.910983753E-1,5.621747017E-2,-2.701922339E-1,1.028805247E0
2.257508333E-1,9.628437522E-1,-5.249045491E-2,-3.157929146E-1,1.014666696E0
2.356968333E-1,8.831178439E-1,-1.143873256E-1,-2.788934755E-1,9.331469108E-1
2.456438333E-1,7.701572388E-1,-1.543881279E-1,-2.317807049E-1,8.189628574E-1
2.555898333E-1,6.440278271E-1,-1.557914597E-1,-1.954490304E-1,6.908278689E-1
2.655358333E-1,5.913032643E-1,-1.511850232E-1,-9.997364670E-2,6.184587226E-1
2.754828333E-1,5.927097389E-1,-1.579531753E-1,-2.152652442E-2,6.137731107E-1
2.854288333E-1,5.286499831E-1,-1.249585068E-1,3.065870583E-2,5.440821531E-1
2.953758333E-1,4.829864448E-1,-9.698074937E-2,1.221717238E-2,4.927782777E-1
3.053218334E-1,4.676708329E-1,-3.275727153E-2,-6.300667226E-2,4.730315925E-1
3.152688333E-1,5.903305800E-1,1.084798837E-1,-1.439183959E-1,6.172281454E-1
3.252148333E-1,6.265762272E-1,2.353217787E-1,-2.277519733E-1,7.069972202E-1
3.351618333E-1,6.023898044E-1,2.928887862E-1,-2.764996254E-1,7.246442992E-1
3.451078333E-1,4.923697641E-1,2.840168059E-1,-3.100515336E-1,6.474762422E-1
3.550548333E-1,4.213689248E-1,2.606571794E-1,-3.129257324E-1,5.860174485E-1
3.650008333E-1,3.825090605E-1,2.155178440E-1,-2.585755706E-1,5.095315968E-1
3.749478332E-1,4.384055185E-1,1.510867900E-1,-1.103410524E-1,4.766568626E-1
3.848938333E-1,5.440677021E-1,7.337320089E-2,2.916211098E-2,5.497669686E-1
3.948398333E-1,6.610798428E-1,3.154222012E-2,1.647871086E-1,6.820383137E-1
4.047868333E-1,6.824557284E-1,8.420575261E-3,1.592734766E-1,7.008457516E-1
4.147328333E-1,5.980672503E-1,2.328887522E-2,-2.735385954E-2,5.991452588E-1
4.246798333E-1,4.509646799E-1,4.991826475E-2,-3.050153267E-1,5.467132020E-1
4.346258333E-1,2.878341606E-1,-1.725104034E-2,-5.227282155E-1,5.969848320E-1
4.445728333E-1,1.370714526E-1,-9.174515247E-2,-5.674047437E-1,5.908924600E-1
4.545188333E-1,2.316783786E-2,-1.139084387E-1,-4.900305855E-1,5.036286885E-1
4.644658333E-1,-2.376893163E-2,-1.009211880E-1,-3.506855893E-1,3.656917156E-1
4.744118333E-1,-7.606613606E-2,-3.848637342E-2,-2.612056482E-1,2.747647151E-1
4.843588333E-1,-6.529044852E-2,1.347607791E-2,-2.135447010E-1,2.237091565E-1
4.943048334E-1,-1.470092341E-2,6.074087620E-2,-2.183534512E-1,2.271206746E-1
5.042518333E-1,7.690265335E-2,1.471299791E-1,-2.292649403E-1,2.830612332E-1
5.141978333E-1,4.759436198E-2,1.190645134E-1,-2.768700466E-1,3.051206390E-1
5.241448333E-1,-1.153921697E-1,1.869120955E-2,-3.856846833E-1,4.030104082E-1
5.340908333E-1,-3.397492495E-1,-1.583063471E-1,-5.446225297E-1,6.611385271E-1
5.440368333E-1,-7.791960841E-1,-3.623449373E-1,-6.640685740E-1,1.086014485E0
5.539838333E-1,-1.215682766E0,-4.157346940E-1,-7.161169794E-1,1.470898858E0
5.639298332E-1,-1.523915377E0,-3.585582805E-1,-6.094994339E-1,1.679991570E0
5.738768333E-1,-1.672817647E0,-3.309184921E-1,-4.190123507E-1,1.755960500E0
5.838228333E-1,-1.755913013E0,-3.417457813E-1,-1.664904025E-1,1.796591145E0
5.937698333E-1,-1.738599992E0,-3.541395396E-1,8.553628653E-2,1.776361788E0
6.037158333E-1,-1.526558026E0,-2.662775230E-1,2.999627477E-1,1.578372825E0
6.136628333E-1,-1.211121426E0,-1.056112397E-1,3.670212480E-1,1.269910799E0
6.236088333E-1,-8.431822380E-1,1.001136875E-1,2.609255666E-1,8.882911619E-1
6.335558333E-1,-3.695694646E-1,3.462364429E-1,2.557455182E-2,5.070654014E-1
6.435018333E-1,1.359743688E-1,5.311435282E-1,-2.482061183E-1,6.018378135E-1
6.534488333E-1,3.565262268E-1,5.754168910E-1,-5.147394571E-1,8.503953537E-1
6.633948333E-1,4.065580738E-1,4.792237616E-1,-7.531704926E-1,9.809233772E-1
6.733418333E-1,2.984272689E-1,1.958805549E-1,-8.461347896E-1,9.183529326E-1
6.832878334E-1,1.113657770E-1,-1.466820824E-1,-8.888662416E-1,9.077450991E-1
6.932338333E-1,-1.288679552E-1,-3.352898705E-1,-9.917310441E-1,1.054778039E0
7.031808333E-1,-4.242612500E-1,-2.378126925E-1,-1.169719996E0,1.266805966E0
7.131268333E-1,-5.746330717E-1,-5.804764867E-2,-1.405656025E0,1.519684690E0
7.230738333E-1,-4.929367979E-1,6.537245572E-2,-1.605873167E0,1.681097521E0
7.330198333E-1,-2.382455327E-1,1.485572845E-1,-1.869903605E0,1.890864800E0
7.429668333E-1,3.796268217E-1,3.989075768E-1,-2.068563927E0,2.140607506E0
7.529128332E-1,5.283289710E-1,7.803892815E-1,-2.075114855E0,2.279087667E0
7.628598333E-1,5.645893094E-1,1.094048547E0,-1.859285354E0,2.229942900E0
7.728058333E-1,7.436711061E-1,1.733189564E0,-1.372822155E0,2.332730899E0
7.827528333E-1,9.173567998E-1,2.661845523E0,-9.382068014E-1,2.967692216E0
7.926988333E-1,1.090870732E0,3.441237854E0,-3.308673289E-1,3.625133117E0
8.026458333E-1,1.224619065E0,3.634514644E0,5.671489280E-1,3.876989355E0
8.125918333E-1,1.270543097E0,3.765610973E0,1.701987652E0,4.323293621E0
8.225388333E-1,1.101855165E0,4.258807241E0,2.508335062E0,5.063918316E0
8.324848333E-1,1.288485278E0,5.045349548E0,2.454146284E0,5.756611881E0
8.424308333E-1,2.193499044E0,5.772225696E0,2.604314768E0,6.701677623E0
8.523778333E-1,3.154979518E0,5.952129904E0,2.384135232E0,7.146037151E0
8.623238333E-1,3.750661982E0,5.536838429E0,1.245185623E0,6.802538668E0
8.722708334E-1,4.435508929E0,4.820664439E0,6.359180313E-1,6.581560365E0
8.822168333E-1,4.936699510E0,4.217169219E0,7.584481895E-1,6.536877078E0
8.921638333E-1,4.530297849E0,3.228200984E0,8.621976757E-1,5.629233077E0
9.021098333E-1,3.611946146E0,1.883129715E0,5.703023314E-1,4.113098252E0
9.120568333E-1,3.092969212E0,6.020035958E-1,4.180469754E-1,3.178620793E0
9.220028333E-1,2.638180964E0,-7.007443571E-1,9.689169627E-1,2.896522317E0
9.319498333E-1,2.337731436E0,-1.323372252E0,1.813371847E0,3.241083128E0
9.418958332E-1,1.941677593E0,-1.119758754E0,2.043914112E0,3.033406738E0
9.518428333E-1,1.513651174E0,-9.624476033E-1,1.574275106E0,2.386584877E0
9.617888333E-1,8.007995725E-1,-1.306799489E0,1.145945217E0,1.913686312E0
9.717358333E-1,-1.788595660E-1,-1.988210027E0,1.185517419E0,2.321728108E0
9.816818333E-1,-1.030584915E0,-2.773332045E0,1.886557353E0,3.508927834E0
9.916278333E-1,-1.132920252E0,-3.250356084E0,3.041184808E0,4.593161004E0
1.001574833E0,-1.078453438E0,-3.591215428E0,3.707376798E0,5.273000359E0
1.011520833E0,-1.184216413E0,-3.865820555E0,3.576708485E0,5.398127515E0
1.021467833E0,-1.269793630E0,-3.917391243E0,2.966131702E0,5.075063279E0
1.031413833E0,-1.485420817E0,-4.154451399E0,2.225747316E0,4.941648768E0
1.041360833E0,-2.056092400E0,-4.773699603E0,1.842114421E0,5.514445520E0
1.051306833E0,-2.912321823E0,-5.767498807E0,2.066379114E0,6.783478719E0
1.061253833E0,-3.588649085E0,-7.005947853E0,2.914310753E0,8.393742595E0
1.071199833E0,-3.783946964E0,-8.254328980E0,3.852505276E0,9.863772019E0
1.081146833E0,-3.364599861E0,-9.385640078E0,4.690773806E0,1.101880805E1
1.091092833E0,-1.920486991E0,-1.040366313E1,5.777172441E0,1.205405318E1
1.101039833E0,-2.991426757E-1,-1.172146181E1,6.974697409E0,1.364289402E1
1.110985833E0,2.441268449E-1,-1.426003517E1,7.869658788E0,1.628925199E1
1.120932833E0,-3.458809322E-1,-1.766321993E1,8.373508099E0,1.955056546E1
1.130878833E0,-9.398580551E-1,-2.042206725E1,8.256466722E0,2.204797965E1
1.140824833E0,-1.174883965E-1,-2.212598097E1,7.279605147E0,2.329303520E1
1.150771833E0,2.538662523E0,-2.231486241E1,5.249873457E0,2.306423775E1
1.160717833E0,4.514032357E0,-2.099578435E1,3.610543984E0,2.177694829E1
1.170664833E0,4.661589183E0,-2.019289616E1,3.314257965E0,2.098732414E1
1.180610833E0,4.163376296E0,-1.894096519E1,4.808275651E0,1.998032480E1
1.190557833E0,2.374881282E0,-1.802893286E1,5.603215436E0,1.902836053E1
1.200503833E0,8.052971046E-1,-1.613073487E1,5.708862344E0,1.713009691E1
1.210450833E0,3.783617766E-1,-1.276598737E1,6.232247787E0,1.421106975E1
1.220396833E0,4.660168017E-1,-7.936240448E0,6.843296440E0,1.048960391E1
1.230343833E0,2.835167228E-1,-6.004447281E-1,7.461820174E0,7.491306690E0
1.240289833E0,-6.276067990E-1,6.521602516E0,8.300195709E0,1.057442379E1
1.250236833E0,-2.919808306E0,9.960397403E0,1.007389186E1,1.446437327E1
1.260182833E0,-5.823126878E0,1.008863737E1,1.035147673E1,1.558340403E1
1.270128833E0,-7.388393179E0,1.079592125E1,8.741009111E0,1.573357905E1
1.280075833E0,-7.028675981E0,1.303118783E1,6.800795953E0,1.629309572E1
1.290021833E0,-4.224303991E0,1.686603978E1,3.826590416E0,1.780311311E1
1.299968833E0,-3.073942664E0,2.183758226E1,-1.413058892E0,2.209809625E1
1.309914833E0,4.132305362E0,2.344292830E1,-9.197273780E0,2.551933933E1
1.319861833E0,1.210449420E1,2.184022521E1,-2.097407013E1,3.261021059E1
1.329807833E0,1.143710704E1,2.040438527E1,-1.697101718E1,2.889916573E1
1.339754833E0,1.020095419E1,1.368573568E1,-9.501137205E0,1.953536372E1
1.349700833E0,4.457274604E0,9.889264855E0,-6.629780098E0,1.271293988E1
1.359647833E0,-2.271198893E0,5.425202218E0,-6.530762179E0,8.788743833E0
1.369593833E0,-6.030643392E0,4.166675588E0,-4.415124366E0,8.557053719E0
1.379540833E0,-7.829901230E0,4.955788915E0,-5.136887709E0,1.059503716E1
1.389486833E0,-8.394230631E0,4.109172900E0,-5.528963984E0,1.085899869E1
1.399433833E0,-9.004914418E0,2.372344029E0,-5.910713491E0,1.102964341E1
1.409379833E0,-9.670336915E0,1.023308347E0,-5.995323871E0,1.142394347E1
1.419325833E0,-8.635049377E0,-1.492818130E0,-4.543960161E0,9.871178129E0
1.429272833E0,-9.041501616E0,-8.861959936E0,6.261198521E-3,1.266029718E1
1.439218833E0,-1.416987578E1,-2.382896850E1,2.354889506E0,2.782356239E1
1.449165833E0,-5.703087634E0,-2.303664505E1,9.298131233E-1,2.375030055E1
1.459111833E0,1.273174841E1,-6.552124397E0,-2.163797235E-1,1.432042499E1
1.469058833E0,1.650131386E1,6.340720069E0,-8.061855013E0,1.942914296E1
1.479004833E0,9.405255733E0,1.241224018E1,-1.336646133E1,2.052278807E1
1.488951833E0,4.268810073E0,1.222351310E1,-1.184140458E1,1.754582214E1
1.498897833E0,1.438490041E0,1.370863338E1,-1.059309420E1,1.738417463E1
1.508844833E0,-1.711569192E0,1.908051600E1,-1.123807600E1,2.221013085E1
1.518790833E0,-4.530539047E0,2.692181580E1,-1.222810434E1,2.991381764E1
1.528737833E0,-5.516589521E0,3.310337992E1,-7.127635428E0,3.430844952E1
1.538682875E0,-1.205041564E0,3.286226413E1,5.611358854E0,3.335967442E1
1.548629875E0,5.348016633E0,3.251542835E1,1.163340041E1,3.494553430E1
1.558575875E0,6.819142177E0,2.799686615E1,4.964338129E0,2.923986778E1
1.568522875E0,1.943135011E0,2.009309120E1,-5.468081605E0,2.091430143E1
1.578468875E0,9.039788821E-1,1.505142540E1,-6.921076688E0,1.659107853E1
1.588414875E0,1.865120875E0,1.316385297E1,-4.130132244E0,1.392205780E1
1.598361875E0,1.770263542E0,1.170165145E1,4.377652484E-1,1.184289314E1
1.608307875E0,-3.901905477E-2,7.151225435E0,5.127573094E0,8.799633716E0
1.618254875E0,1.610864643E0,-2.004997383E0,6.850936412E0,7.317802206E0
1.628200875E0,3.849776380E0,-1.275850995E1,9.174938586E0,1.617961224E1
1.638147875E0,-1.177281323E0,-2.715957294E1,1.595580021E1,3.152167435E1
1.648093875E0,-6.846200752E0,-4.886034439E1,2.390442799E1,5.482358431E1
1.658040875E0,4.997366127E0,-5.626539863E1,1.463665433E1,5.835238128E1
1.667986875E0,1.547210450E1,-2.439351249E1,-1.437625443E1,3.226617673E1
1.677933875E0,1.086951782E1,-1.016705087E0,-2.020681019E1,2.296726551E1
1.687879875E0,4.866799555E0,5.762862550E0,-1.194768708E1,1.412952757E1
1.697826875E0,-1.756025572E-1,6.734601964E0,-3.964933784E0,7.817058256E0
1.707772875E0,-4.177083047E0,3.229035382E0,4.370016021E-1,5.297703529E0
1.717718875E0,-5.816278034E0,5.587008709E-1,4.165166422E0,7.175642700E0
1.727665875E0,-7.203525270E0,-1.071241482E0,7.584943825E0,1.051521314E1
1.737611875E0,-1.082399841E1,-4.538892379E0,8.949319677E0,1.475976993E1
1.747558875E0,-1.350981050E1,-9.381922418E0,9.526466174E0,1.900760389E1
1.757504875E0,-9.657608696E0,-1.182523352E1,9.383852584E0,1.792100005E1
1.767451875E0,-5.388940126E-1,-9.911219981E0,7.477286645E0,1.242708750E1
1.777397875E0,3.161261474E0,-7.312334937E0,4.592941702E0,9.195592956E0
1.787344875E0,4.278723735E0,-5.772437950E0,1.280953626E0,7.298586088E0
1.797290875E0,5.916050245E0,-4.911126713E0,-3.307986242E-1,7.695988813E0
1.807237875E0,5.312861418E0,-3.837176215E0,1.580560863E-1,6.555562484E0
1.817183875E0,4.284256663E0,-3.750336292E0,-4.742957282E-1,5.713565777E0
1.827130875E0,3.335608488E0,-4.333093777E0,-6.506500912E-1,5.506844034E0
1.837076875E0,2.378101636E0,-5.149301932E0,-5.383285868E-1,5.697409539E0
1.847023875E0,1.709760209E0,-5.780956174E0,1.346362334E0,6.177007835E0
1.856969875E0,6.406395118E-1,-5.595718136E0,3.628727070E0,6.700010492E0
1.866915875E0,-6.745909309E-1,-5.227542356E0,4.521740742E0,6.944667835E0
1.876862875E0,-1.315790314E0,-4.952924364E0,3.708256220E0,6.325656337E0
1.886808875E0,-1.159275407E0,-4.768644100E0,2.162281637E0,5.362774273E0
1.896755875E0,-9.588521504E-1,-4.422070858E0,1.183603333E0,4.677074403E0
1.906701875E0,-1.102497920E0,-3.896537148E0,8.942310619E-1,4.147065541E0
1.916648875E0,-1.191734617E0,-3.286700038E0,8.614030391E-1,3.600644905E0
1.926594875E0,-1.154083811E0,-2.781990017E0,8.645886022E-1,3.133511026E0
1.936541875E0,-9.848593962E-1,-2.389576943E0,8.472282189E-1,2.719893684E0
1.946487875E0,-5.516403580E-1,-2.054814491E0,6.112123758E-1,2.213628299E0
1.956434875E0,9.533885121E-3,-1.694675124E0,5.315879166E-2,1.695535469E0
1.966380875E0,5.106233096E-1,-1.369547714E0,-6.762246430E-1,1.610489638E0
1.976327875E0,8.911674133E-1,-1.153215938E0,-1.224539105E0,1.903570954E0
1.986273875E0,9.945525449E-1,-1.048722101E0,-1.323614327E0,1.959823384E0
1.996220875E0,9.206411809E-1,-9.297248304E-1,-1.024863707E0,1.662021077E0
2.006166875E0,7.488967627E-1,-7.780463022E-1,-5.200683171E-1,1.198613142E0
2.016112875E0,6.774853027E-1,-4.898662788E-1,5.594148159E-2,8.379049802E-1
2.026059875E0,5.665583593E-1,-1.169390506E-1,5.154390764E-1,7.748164670E-1
2.036005875E0,4.763045391E-1,2.668254071E-1,6.619574368E-1,8.580498004E-1
2.045952875E0,4.698994991E-1,6.320272940E-1,5.774207318E-1,9.765647655E-1
2.055898875E0,4.766492325E-1,8.124729538E-1,2.325788498E-2,9.422567170E-1
2.065845875E0,4.464878324E-1,9.020961517E-1,-6.801130414E-1,1.214776770E0
2.075791875E0,3.971054649E-1,1.003264092E0,-1.417712983E0,1.781612105E0
2.085738875E0,3.450778171E-1,1.122054371E0,-2.060547686E0,2.371485079E0
2.095684875E0,3.870447457E-1,1.312066661E0,-2.578144970E0,2.918587679E0
2.105631875E0,4.456926110E-1,1.627136275E0,-2.978286894E0,3.422923777E0
2.115577875E0,5.320559862E-1,2.159379079E0,-3.116790476E0,3.828888148E0
2.125524875E0,6.176659477E-1,2.964130200E0,-2.964469923E0,4.237412063E0
2.135470875E0,6.885499889E-1,3.920134172E0,-2.521247469E0,4.711501015E0
2.145416875E0,8.516200626E-1,4.905823873E0,-1.960465574E0,5.351241899E0
2.155363875E0,1.060804495E0,5.921490494E0,-1.480126748E0,6.195169976E0
2.165309875E0,1.161943784E0,6.866860719E0,-1.101038893E0,7.050969872E0
2.175256875E0,1.294931395E0,7.802404699E0,-6.929266298E-1,7.939427795E0
2.185202875E0,1.534271673E0,8.584163398E0,-3.403746092E-1,8.726838241E0
2.195149875E0,1.581307260E0,9.106845421E0,7.874474555E-2,9.243449946E0
2.205095875E0,1.580697980E0,9.255565842E0,3.201853430E-1,9.395031869E0
2.215042875E0,1.468092301E0,9.037696248E0,5.863739884E-1,9.174915963E0
2.224988875E0,1.354375944E0,8.557066231E0,7.442219138E-1,8.695492105E0
2.234935875E0,1.248545141E0,7.941640937E0,7.662138766E-1,8.075618208E0
2.244881875E0,1.084628975E0,7.108627884E0,5.825697899E-1,7.214457565E0
2.254828875E0,1.013900470E0,6.049735136E0,-4.711744845E-2,6.134289644E0
2.264774875E0,8.846878213E-1,4.775187719E0,-7.421350425E-1,4.912825533E0
2.274721875E0,7.010028040E-1,3.333409935E0,-1.317143798E0,3.652108228E0
2.284667875E0,3.072328833E-1,1.945975004E0,-1.665753626E0,2.579911995E0
2.294613875E0,-1.341205182E-1,1.015984125E0,-1.528192615E0,1.839995849E0
2.304560875E0,-9.209013820E-1,4.965432143E-1,-1.249806678E0,1.629917559E0
2.314506875E0,-1.617974272E0,1.169261867E-1,-1.263891451E0,2.056437229E0
2.324453875E0,-1.837530496E0,-2.509139639E-1,-1.572387040E0,2.431435203E0
2.334399875E0,-1.484541688E0,-1.981001580E-1,-1.477513627E0,2.103842726E0
2.344346875E0,-1.087161112E0,5.222177535E-1,-1.154517528E0,1.669593180E0
2.354292875E0,-6.447636992E-1,1.424792792E0,-1.083555134E0,1.902589408E0
2.364239875E0,2.923879356E-1,2.361294546E0,-1.013968590E0,2.586374864E0
2.374185875E0,1.685498503E0,2.799152765E0,-1.365170488E0,3.541165326E0
2.384132875E0,2.200311928E0,2.946741750E0,-1.602659830E0,4.011630348E0
2.394078875E0,1.563310700E0,3.160373867E0,-1.910237991E0,4.010101309E0
2.404025875E0,1.269417947E0,3.000552506E0,-3.415817669E0,4.720439346E0
2.413971875E0,2.763060095E-1,3.534608533E0,-3.217254412E0,4.787538871E0
2.423918875E0,-4.520920962E-1,3.873659917E0,-2.438352662E0,4.599477375E0
2.433864875E0,-8.687200986E-1,3.773348009E0,-1.741757489E0,4.245768359E0
2.443810875E0,-8.625328673E-1,3.633322982E0,-1.613604063E0,4.068011420E0
2.453757875E0,-9.258041261E-1,3.079692816E0,-2.105735554E0,3.843922911E0
2.463703875E0,-1.047242755E0,2.368616429E0,-2.403343043E0,3.533145759E0
2.473650875E0,-7.690936303E-1,1.296974412E0,-2.506037107E0,2.924699919E0
2.483596875E0,-3.049289341E-1,-2.059769422E-1,-2.582219895E0,2.608307447E0
2.493543875E0,-1.365646452E-1,-1.675212666E0,-2.001000227E0,2.613233493E0
2.503489875E0,-3.785943496E-1,-2.497022454E0,-8.748317546E-1,2.672786078E0
2.513436875E0,-1.488491190E0,-2.181947578E0,-8.342222571E-2,2.642623795E0
2.523382875E0,-2.474199310E0,-9.560454869E-1,-2.745080638E-1,2.666653310E0
2.533329875E0,-2.912795155E0,3.979474640E-1,-8.221734846E-1,3.052655735E0
2.543276458E0,-2.385913370E0,1.473904726E0,-1.591588712E0,3.224613524E0
2.553223458E0,-1.901061663E0,1.947492941E0,-2.157977502E0,3.473273830E0
2.563169458E0,-1.598596600E0,2.109851409E0,-2.221180640E0,3.455521305E0
2.573115458E0,-1.338275051E0,2.032396266E0,-1.801656366E0,3.027801241E0
2.583062458E0,-1.193195690E0,1.883623804E0,-1.157369800E0,2.512222013E0
2.593008458E0,-8.688582391E-1,2.006742193E0,2.657056653E-1,2.202845516E0
2.602955458E0,-1.070111508E0,1.982967414E0,1.206361281E0,2.555896309E0
2.612901458E0,-8.840355644E-1,2.062037557E0,1.085585287E0,2.492391057E0
2.622848458E0,-6.175454950E-1,2.312108352E0,2.070900182E0,3.164780408E0
2.632794458E0,-8.199304926E-1,2.492495540E0,4.056340967E0,4.831016671E0
2.642741458E0,-8.056305420E-1,1.795627302E0,6.041342043E0,6.353828110E0
2.652687458E0,-9.991336191E-1,-2.007068467E-1,7.542229915E0,7.610767590E0
2.662634458E0,-2.374746065E0,-3.083507540E0,8.729581897E0,9.557878306E0
2.672580458E0,-2.304055567E0,-5.986826697E0,9.170023416E0,1.119107213E1
2.682527458E0,6.528866512E-1,-8.052353872E0,9.667530836E0,1.259872281E1
2.692473458E0,4.056569594E0,-9.805411105E0,1.036580358E1,1.483414061E1
2.702419458E0,7.686823372E0,-1.249686108E1,9.896829983E0,1.769762792E1
2.712366458E0,1.060937402E1,-1.493958220E1,9.099814728E0,2.045865493E1
2.722312458E0,1.150613693E1,-1.596791564E1,6.915908334E0,2.086133517E1
2.732259458E0,1.234862364E1,-1.479685283E1,3.788088840E0,1.964140974E1
2.742205458E0,1.320693876E1,-1.323190754E1,5.520309520E-1,1.870324429E1
2.752152458E0,1.195296828E1,-1.162717663E1,-1.411959908E0,1.673494302E1
2.762098458E0,8.776656076E0,-8.685696205E0,-1.290743034E0,1.241519343E1
2.772045458E0,5.409680200E0,-5.028663349E0,2.633813971E-1,7.390633579E0
2.781991458E0,2.744621632E0,-2.009848818E0,2.336799390E0,4.127114193E0
2.791938458E0,1.150909796E0,1.362866101E-1,3.805804734E0,3.978356076E0
2.801884458E0,1.439865160E-1,1.261585894E0,4.552170821E0,4.725948611E0
2.811831458E0,-2.828146183E-1,1.810442685E0,5.390565067E0,5.693494407E0
2.821777458E0,-3.279481065E-1,2.490281199E0,5.611240740E0,6.147769762E0
2.831724458E0,-9.330097961E-1,3.271881439E0,4.805045357E0,5.887629091E0
2.841670458E0,-1.696255041E0,3.628874128E0,3.204233247E0,5.129631498E0
2.851616458E0,-2.293314232E0,3.562791528E0,7.034738374E-1,4.295072651E0
2.861563458E0,-2.588848883E0,3.276414785E0,-2.463893884E0,4.848484862E0
2.871509458E0,-2.691677433E0,2.672815484E0,-5.083319027E0,6.342649474E0
2.881456458E0,-2.829783404E0,2.170089132E0,-6.872154788E0,7.742316991E0
2.891402458E0,-2.885790374E0,1.865642155E0,-8.018261681E0,8.723584534E0
2.901349458E0,-2.898315695E0,1.699882069E0,-8.053779423E0,8.726579852E0
2.911295458E0,-3.094113219E0,1.868780940E0,-7.013403053E0,7.890101470E0
2.921242458E0,-3.420407733E0,2.403621955E0,-5.498349717E0,6.907129445E0
2.931188458E0,-3.911213660E0,3.024519074E0,-4.055581414E0,6.394767277E0
2.941135458E0,-4.403618799E0,3.524748373E0,-3.012936909E0,6.394802455E0
2.951081458E0,-4.909920432E0,3.920237668E0,-2.282039630E0,6.684555849E0
2.961028458E0,-5.427411296E0,4.109087530E0,-1.895736896E0,7.066485130E0
2.970974458E0,-5.808777226E0,4.136878762E0,-1.825278533E0,7.361202380E0
2.980920458E0,-5.869463139E0,4.052244993E0,-1.935154147E0,7.390271212E0
2.990867458E0,-5.570164050E0,3.862409289E0,-2.165317512E0,7.115724347E0
3.000813458E0,-5.012532050E0,3.609810158E0,-2.488879622E0,6.659634277E0
3.010760458E0,-4.586625832E0,3.269317435E0,-2.788433649E0,6.284976947E0
3.020706458E0,-4.232713164E0,2.960132459E0,-2.919502496E0,5.933105404E0
3.030653458E0,-3.906054661E0,2.605404689E0,-2.735223402E0,5.433860844E0
3.040599458E0,-3.423210889E0,2.030124038E0,-2.036560069E0,4.470721789E0
3.050546458E0,-2.953539723E0,9.485534495E-1,-1.114579875E0,3.296276512E0
3.060492458E0,-2.292869551E0,-8.298836231E-1,-3.020811939E-1,2.457073595E0
3.070439458E0,-1.137227311E0,-3.324604028E0,4.723146915E-1,3.545329191E0
3.080385458E0,2.597298110E-1,-6.523589984E0,1.299112154E0,6.656754333E0
3.090332458E0,1.451482116E0,-9.405205446E0,2.227209705E0,9.773696992E0
3.100278458E0,1.748479448E0,-1.037243549E1,2.540774830E0,1.082128158E1
3.110225458E0,1.257376483E0,-9.659442968E0,2.158961588E0,9.977321745E0
3.120171458E0,9.527154976E-1,-7.789868853E0,1.746587289E0,8.039918577E0
3.130117458E0,1.171281203E0,-5.532201587E0,1.101501993E0,5.761116272E0
3.140064458E0,8.441106297E-1,-3.607021036E0,6.560514566E-1,3.762117359E0
3.150010458E0,5.205185527E-1,-2.133919718E0,4.355064690E-1,2.239245143E0
3.159957458E0,1.208413946E0,-9.512952089E-1,3.204268330E-1,1.570955185E0
3.169903458E0,1.177111608E0,1.966301680E-2,2.731477675E0,2.974382064E0
3.179850458E0,1.297319836E0,4.705745602E-1,6.127741086E0,6.281217238E0
3.189796458E0,1.740674585E0,2.842068404E-1,6.684535764E0,6.913301666E0
3.199743458E0,2.321189078E0,-2.854727626E-1,5.696351057E0,6.157745431E0
3.209689458E0,3.363920999E0,-1.320251593E0,4.706097312E0,5.933496496E0
3.219636458E0,4.173579980E0,-2.897863705E0,3.085863968E0,5.944656452E0
3.229582458E0,4.088294832E0,-4.242100577E0,1.267400950E0,6.026265601E0
3.239529458E0,4.428951861E0,-3.855212536E0,1.465449652E0,6.051927046E0
3.249475458E0,5.401442057E0,-3.209758281E0,3.657407371E0,7.270127454E0
3.259421458E0,5.353479102E0,-2.485643188E0,5.528965738E0,8.087497924E0
3.269368458E0,3.446739500E0,-9.902411735E-1,5.528777457E0,6.589990207E0
3.279314458E0,6.081656840E-1,1.447954198E0,3.527162104E0,3.860998493E0
3.289261458E0,-9.376635951E-1,4.350995028E0,1.336326174E0,4.647164554E0
3.299207458E0,-9.258395018E-1,5.647298765E0,4.406642979E-1,5.739629530E0
3.309154458E0,-7.733264297E-2,4.236122383E0,4.649436915E-1,4.262262993E0
3.319100458E0,2.123270038E0,1.581812167E0,-2.697455066E-1,2.661422181E0
3.329047458E0,4.523234705E0,-2.199582195E-1,-1.209229340E0,4.687245397E0
3.338993458E0,6.698496577E0,-3.166846150E-1,-1.040997052E0,6.786296515E0
3.348940458E0,7.633094476E0,4.077503210E-1,-3.365613475E-1,7.651383218E0
3.358886458E0,7.834401248E0,1.025022166E0,3.759759665E-4,7.901171653E0
3.368833458E0,7.079280708E0,1.579990759E0,1.078755739E-1,7.254255530E0
3.378779458E0,5.325104318E0,2.404451675E0,6.333744925E-1,5.877013451E0
3.388725458E0,3.446629572E0,3.215965101E0,1.152628585E0,4.852858909E0
3.398672458E0,1.150846792E0,2.962725114E0,1.324267461E0,3.443235796E0
3.408618458E0,-7.579438671E-1,1.717475172E0,1.263892913E0,2.263100786E0
3.418565458E0,-1.827088684E0,-4.332202077E-2,9.387371439E-1,2.054594189E0
3.428511458E0,-2.301162218E0,-2.000725992E0,3.535814229E-1,3.069734821E0
3.438458458E0,-2.505223759E0,-3.224195641E0,9.804698914E-2,4.084262091E0
3.448404458E0,-2.205877892E0,-3.784090514E0,1.442329761E-1,4.382469788E0
3.458351458E0,-1.758087447E0,-3.316064170E0,7.085802108E-2,3.753954436E0
3.468297458E0,-9.207256731E-1,-1.300774518E0,-5.587014556E-3,1.593669139E0
3.478244458E0,4.294429064E-1,5.929977143E-1,-1.789271379E-1,7.537124250E-1
3.488190458E0,1.278272824E0,1.348501246E0,-7.715839595E-2,1.859674821E0
3.498137458E0,1.281136352E0,1.362961410E0,1.292948020E-1,1.875017681E0
3.508083458E0,8.817861405E-1,1.086768179E0,3.690847304E-1,1.447354625E0
3.518029458E0,4.430289119E-3,8.039845508E-1,1.157774427E0,1.409557522E0
3.527976458E0,-4.575558807E-1,5.633727962E-1,8.052744466E-1,1.084072519E0
3.537922458E0,-8.736753215E-1,8.036325485E-1,1.358869529E-1,1.194821788E0
3.547869875E0,-1.347501811E0,1.201912134E0,4.180308956E-1,1.853403285E0
3.557815875E0,-1.542218039E0,1.484367149E0,4.156849927E-1,2.180499100E0
3.567762875E0,-1.596543935E0,1.673156785E0,2.684053248E-1,2.328185470E0
3.577708875E0,-1.648307288E0,1.726943568E0,-1.353463778E-1,2.391144004E0
3.587655875E0,-1.708793372E0,1.783193783E0,-5.083312011E-1,2.521538313E0
3.597601875E0,-1.586776161E0,1.759103839E0,-6.599687988E-1,2.459240475E0
3.607548875E0,-1.210881325E0,1.496952696E0,-9.939611721E-1,2.166808660E0
3.617494875E0,-1.030717647E0,8.748411101E-1,-1.096517826E0,1.740711687E0
3.627441875E0,-9.730097213E-1,3.854952335E-2,-1.068198884E0,1.445435173E0
3.637387875E0,-9.451139711E-1,-5.378339124E-1,-9.361927280E-1,1.434908554E0
3.647333875E0,-1.096698213E0,-4.475534874E-1,-8.935770509E-1,1.483755721E0
3.657280875E0,-1.468607587E0,4.327284569E-1,-1.095872586E0,1.882816743E0
3.667226875E0,-1.485994137E0,1.751523508E0,-1.188291630E0,2.586126480E0
3.677173875E0,-1.350950352E0,3.087429852E0,-1.140238042E0,3.557728593E0
3.687119875E0,-1.419194229E0,4.134736342E0,-8.490312079E-1,4.453202316E0
3.697066875E0,-1.180702675E0,5.180754690E0,-1.491446373E-1,5.315686418E0
3.707012875E0,-4.305806284E-1,5.644929473E0,8.759342471E-1,5.728690010E0
3.716959875E0,-2.880850062E-2,5.683638040E0,9.304794136E-1,5.759371775E0
3.726905875E0,9.101598275E-1,6.637325930E0,1.840714889E0,6.947713129E0
3.736852875E0,1.878214545E0,8.041655806E0,4.170233034E0,9.251311342E0
3.746798875E0,4.571590009E0,8.695754585E0,6.273621515E0,1.165649647E1
3.756745875E0,5.664665580E0,8.289327489E0,6.190958258E0,1.179531053E1
3.766691875E0,6.587707043E0,6.932900342E0,4.501869564E0,1.057023277E1
3.776637875E0,6.334469980E0,5.970929287E0,4.192547178E-1,8.715117957E0
3.786584875E0,4.946870742E0,5.479000695E0,-4.464575438E0,8.626900521E0
3.796530875E0,4.653219186E0,3.575436716E0,-7.041541609E0,9.166215399E0
3.806477875E0,5.255984967E0,1.223138697E0,-6.254114619E0,8.260471894E0
3.816423875E0,5.179376501E0,1.189019608E-1,-4.385679834E0,6.787802754E0
3.826370875E0,4.237157633E0,3.995811760E-2,-2.656838845E0,5.001389217E0
3.836316875E0,2.626027234E0,-2.020359188E-1,-1.119571351E0,2.861866097E0
3.846263875E0,1.443771977E0,-1.391371862E0,1.154990568E0,2.313956869E0
3.856209875E0,1.322307766E0,-2.896972005E0,3.459909183E0,4.702330931E0
3.866156875E0,1.918406844E0,-3.539729524E0,4.288255574E0,5.882100457E0
3.876102875E0,1.670582549E0,-3.510865914E0,4.613832634E0,6.033612275E0
3.886049875E0,9.090736341E-1,-3.217704062E0,5.392433837E0,6.344948935E0
3.895995875E0,-6.001757562E-2,-3.111528566E0,6.689522270E0,7.378002462E0
3.905942875E0,-1.099142934E0,-3.618465207E0,7.398162707E0,8.308683234E0
3.915888875E0,-1.692032182E0,-4.486276209E0,7.167656111E0,8.623510958E0
3.925834875E0,-5.110899174E-1,-5.987911355E0,6.363152912E0,8.752485949E0
3.935781875E0,8.920414989E-1,-8.047931038E0,5.700453463E0,9.902530066E0
3.945727875E0,-9.743862290E-2,-9.680644387E0,4.523789606E0,1.068592731E1
3.955674875E0,-1.851195146E0,-1.100921715E1,3.045621675E0,1.157175860E1
3.965620875E0,-2.994814634E0,-1.222696647E1,1.920802156E0,1.273409222E1
3.975567875E0,-2.818418463E0,-1.304509368E1,1.270973014E0,1.340646576E1
3.985513875E0,-1.528636126E0,-1.408088583E1,1.175597910E0,1.421232229E1
3.995460875E0,-8.273784567E-2,-1.516621677E1,1.759269900E0,1.526813699E1
4.005406875E0,1.068881839E0,-1.533747821E1,3.220180943E0,1.570828798E1
4.015353875E0,2.422709606E0,-1.445839845E1,6.008334510E0,1.584344947E1
4.025299875E0,4.175789351E0,-1.384992549E1,9.180496949E0,1.713298506E1
4.035245875E0,6.489408331E0,-1.417654394E1,9.286136255E0,1.814715254E1
4.045192875E0,7.943156535E0,-1.487219655E1,8.205995895E0,1.875138220E1
4.055138875E0,7.754820642E0,-1.569793332E1,7.832240701E0,1.918088497E1
4.065085875E0,6.314005895E0,-1.664532259E1,7.778107764E0,1.942761939E1
4.075031875E0,4.855790710E0,-1.780671645E1,7.267867447E0,1.983632403E1
4.084978875E0,3.504739493E0,-1.880392984E1,7.110208386E0,2.040651954E1
4.094924875E0,2.297299986E0,-1.817028813E1,8.973585037E0,2.039515105E1
4.104871875E0,-7.732650340E-3,-1.652795143E1,9.871243737E0,1.925135557E1
4.114817875E0,-2.573102331E0,-1.369126130E1,8.134196180E0,1.613185169E1
4.124764875E0,-3.988222075E0,-8.851188195E0,6.711397873E0,1.180221628E1
4.134710875E0,-4.511775917E0,-2.616009200E0,6.049343957E0,7.987126415E0
4.144657875E0,-5.510528297E0,2.187829877E0,4.590853077E0,7.498563439E0
4.154603875E0,-6.456416586E0,5.523622552E0,3.252265785E0,9.097964276E0
4.164549875E0,-6.527118194E0,8.007613901E0,-2.579209748E0,1.064788595E1
4.174496875E0,-6.168799649E0,7.955668992E0,-5.129780418E0,1.129873468E1
4.184442875E0,-4.226620950E0,7.326221489E0,-3.784604484E0,9.266125246E0
4.194389875E0,-2.155653818E0,9.002082612E0,-5.687356285E0,1.086417766E1
4.204335875E0,2.327246647E-1,1.180802516E1,-7.585249050E0,1.403636784E1
4.214282875E0,2.064555660E0,1.419382831E1,-7.637643610E0,1.624994622E1
4.224228875E0,3.404241644E0,1.676360709E1,-7.409651316E0,1.864162859E1
4.234175875E0,5.553455631E0,1.949356683E1,-5.906019931E0,2.111210763E1
4.244121875E0,8.009227148E0,2.085193349E1,-4.301320007E0,2.274757578E1
4.254068875E0,1.013484090E1,1.943083673E1,-3.732953104E0,2.223077495E1
4.264014875E0,7.150503888E0,1.413384991E1,-3.167103428E0,1.615320288E1
4.273961875E0,7.996295446E-1,1.041306077E1,-4.397061732E0,1.133161039E1
4.283907875E0,-3.394702496E0,9.405972016E0,-7.237361938E0,1.234405616E1
4.293854875E0,-6.739224188E0,7.794207487E0,-9.988610219E0,1.435058003E1
4.303800875E0,-6.861350888E0,5.953429740E0,-1.044757572E1,1.384461267E1
4.313746875E0,-7.365715338E0,4.901783447E0,-8.860620339E0,1.252165469E1
4.323693875E0,-6.787729180E0,4.236650387E0,-5.494315138E0,9.706182193E0
4.333639875E0,-6.124420452E0,3.507476867E0,-2.665797656E0,7.544361934E0
4.343586875E0,-5.766466774E0,1.762757179E0,-1.393862191E0,6.188885500E0
4.353532875E0,-7.107291795E0,-2.754409871E0,8.162391454E-1,7.665938738E0
4.363479875E0,-1.248170159E1,-1.142053369E1,1.721019169E0,1.700539242E1
4.373425875E0,-1.194565342E1,-1.495175142E1,1.403684928E0,1.918915938E1
4.383372875E0,2.942381482E0,-5.085926301E0,1.987601332E0,6.202806959E0
4.393318875E0,1.245868461E1,4.398956814E0,-6.677549511E-1,1.322934390E1
4.403265875E0,1.332586177E1,9.558158668E0,-7.593070285E0,1.807184843E1
4.413211875E0,1.032090515E1,1.161258198E1,-1.231516470E1,1.982514628E1
4.423158875E0,6.235471941E0,1.208435054E1,-1.201035169E1,1.814279984E1
4.433104875E0,4.715403448E0,1.445818795E1,-1.315470091E1,2.010771952E1
4.443050875E0,4.252891029E0,1.904840193E1,-1.473645694E1,2.445591669E1
4.452997875E0,4.149659021E0,2.465854573E1,-1.298727992E1,2.817681648E1
4.462943875E0,3.083435619E0,2.749678187E1,-5.583754148E0,2.822691798E1
4.472890875E0,2.058237013E0,2.712147716E1,3.429756262E0,2.741485165E1
4.482836875E0,2.532727307E-1,2.359895073E1,6.371400994E0,2.444523212E1
4.492783875E0,-2.584381610E0,1.831080023E1,1.700007200E0,1.857025734E1
4.502729875E0,-4.088905281E0,1.527076849E1,-3.470972115E0,1.618527615E1
4.512676875E0,-6.211191378E0,1.351219383E1,-4.648338808E0,1.558092853E1
4.522622875E0,-7.706099303E0,1.271062359E1,-4.597807170E0,1.555904076E1
4.532569875E0,-7.846954635E0,9.838445535E0,-1.962915557E0,1.273666931E1
4.542516000E0,-6.273744891E0,4.085192299E0,3.154662307E0,8.124073199E0
4.552463000E0,3.979923414E0,-1.937650908E0,8.853601926E0,9.898512438E0
4.562409000E0,9.122633488E0,-1.268784050E1,1.866262836E1,2.434127022E1
4.572355000E0,3.168024949E0,-3.264993770E1,2.466494726E1,4.104161835E1
4.582302000E0,2.781044523E0,-5.427770082E1,2.052828777E1,5.809658865E1
4.592248000E0,2.163159421E1,-4.611543683E1,-2.011959663E0,5.097653739E1
4.602195000E0,1.909792550E1,-1.279204607E1,-2.230450582E1,3.202902092E1
4.612141000E0,3.319588872E0,1.546175142E0,-2.115363579E1,2.146827042E1
4.622088000E0,-4.631461405E0,4.222945683E0,-1.010677192E1,1.189245743E1
4.632034000E0,-7.698786775E0,3.746616878E0,-2.658894433E0,8.965387635E0
4.641981000E0,-9.768889981E0,3.827026033E-1,4.092388467E0,1.059836384E1
4.651927000E0,-9.055201058E0,-2.571916516E0,8.465665480E0,1.266013084E1
4.661874000E0,-9.759661320E0,-4.786795612E0,8.044128594E0,1.352303243E1
4.671820000E0,-1.014590617E1,-6.959909801E0,7.890028149E0,1.461616573E1
4.681767000E0,-5.679036866E0,-6.882966875E0,9.213099269E0,1.282606295E1
4.691713000E0,3.162658959E0,-6.066114357E0,9.385464077E0,1.161409019E1
4.701659000E0,7.033821530E0,-7.244732938E0,6.787746137E0,1.216693463E1
4.711606000E0,3.938074307E0,-7.744426632E0,2.806436641E0,9.130205897E0
4.721552000E0,2.452839723E0,-7.296857942E0,3.980322486E-1,7.708371307E0
4.731499000E0,3.233938857E0,-6.077312359E0,1.010690056E0,6.957986809E0
4.741445000E0,3.477005857E0,-4.929417388E0,1.028801807E0,6.119408360E0
4.751392000E0,3.209346345E0,-4.482299518E0,3.559907681E-1,5.524277542E0
4.761338000E0,2.429263311E0,-4.535685182E0,2.059833741E-1,5.149387289E0
4.771285000E0,2.096217456E0,-4.509177414E0,1.682872519E0,5.249654130E0
4.781231000E0,7.070257285E-1,-3.925958583E0,4.539975284E0,6.043542980E0
4.791178000E0,-7.680311912E-1,-3.554800138E0,5.954924288E0,6.977649978E0
4.801124000E0,-1.536343049E0,-3.972152756E0,6.069391721E0,7.414571016E0
4.811071000E0,-1.386276744E0,-4.717186849E0,5.444346002E0,7.335837946E0
4.821017000E0,-9.905111687E-1,-5.078341877E0,4.793559671E0,7.053288802E0
4.830963000E0,-1.004982150E0,-4.823763463E0,4.030178186E0,6.365612247E0
4.840910000E0,-1.179893567E0,-4.310251629E0,2.944458997E0,5.351659250E0
4.850856000E0,-1.146384782E0,-3.905076422E0,1.937614070E0,4.507567882E0
4.860803000E0,-8.763341966E-1,-3.823358660E0,1.135061502E0,4.083429647E0
4.870749000E0,-4.407501058E-1,-3.897104328E0,4.481177437E-1,3.947466569E0
4.880696000E0,-1.011188239E-2,-3.927682927E0,-2.082626188E-1,3.933213539E0
4.890642000E0,3.140456204E-1,-3.714619160E0,-6.832945114E-1,3.789975137E0
4.900589000E0,5.112109548E-1,-3.301440868E0,-9.557157040E-1,3.474800851E0
4.910535000E0,5.907615928E-1,-2.803033562E0,-8.887721014E-1,2.999318632E0
4.920482000E0,5.634214742E-1,-2.317819912E0,-4.067364138E-1,2.419745320E0
4.930428000E0,4.189817990E-1,-1.897893350E0,3.018736178E-1,1.966894149E0
4.940375000E0,1.947618364E-1,-1.450305948E0,8.919097173E-1,1.713715980E0
4.950321000E0,-8.593842879E-2,-9.078065425E-1,1.010758469E0,1.361297474E0
4.960267000E0,-3.723347591E-1,-1.720163137E-1,6.178659225E-1,7.416070948E-1
4.970214000E0,-5.927877992E-1,7.472139341E-1,-2.051039529E-1,9.755991337E-1
4.980160000E0,-8.168186045E-1,1.714114777E0,-1.275271887E0,2.287291080E0
4.990107000E0,-9.533089169E-1,2.617790846E0,-2.105080081E0,3.491846066E0
5.000053000E0,-9.846527702E-1,3.381752375E0,-2.461110610E0,4.296842520E0
5.010000000E0,-9.492764577E-1,4.067832500E0,-2.890229580E0,5.079548609E0
5.019946000E0,-8.310475845E-1,4.758915503E0,-2.547123152E0,5.461295927E0
5.029893000E0,-6.471938020E-1,5.364327441E0,-2.096634947E0,5.795752480E0
5.039839000E0,-6.149879229E-1,6.035621712E0,-1.554044909E0,6.262746616E0
5.049786000E0,-4.627801486E-1,6.820889910E0,-9.086456180E-1,6.896690619E0
5.059732000E0,-2.320573147E-1,7.555016021E0,-3.710947108E-1,7.567683196E0
5.069679000E0,-4.399214823E-2,8.269582027E0,1.340854257E-2,8.269709910E0
5.079625000E0,1.607115627E-1,8.934338526E0,1.425366989E-1,8.936920600E0
5.089571000E0,3.841307492E-1,9.494311166E0,-3.919856429E-2,9.502159622E0
5.099518000E0,5.633801052E-1,9.891185081E0,-2.541036201E-1,9.910474666E0
5.109464000E0,6.648898154E-1,9.991737310E0,-3.633758014E-1,1.002042588E1
5.119411000E0,7.419996795E-1,9.770893822E0,-3.596876702E-1,9.805626182E0
5.129357000E0,8.533511308E-1,9.188844434E0,-3.458107656E-1,9.234860869E0
5.139304000E0,9.922727886E-1,8.202074168E0,-3.851964408E-1,8.270852570E0
5.149250000E0,1.266529130E0,6.928367581E0,-6.060729656E-1,7.069207722E0
5.159197000E0,1.538871677E0,5.562231132E0,-1.139586078E0,5.882618264E0
5.169143000E0,1.717269934E0,4.255940351E0,-1.825359224E0,4.939026281E0
5.179090000E0,1.693361547E0,3.169436467E0,-2.478409013E0,4.365239063E0
5.189036000E0,1.462779521E0,2.389599162E0,-2.738124205E0,3.917554371E0
5.198983000E0,1.092763256E0,1.894046466E0,-2.532190533E0,3.345673691E0
5.208929000E0,6.024856257E-1,1.497129866E0,-2.157367637E0,2.694182972E0
5.218876000E0,4.139805293E-1,1.119990889E0,-1.892999230E0,2.238125456E0
5.228822000E0,6.257877302E-1,1.226466932E0,-1.819241867E0,2.281550435E0
5.238768000E0,9.132750048E-1,2.071752706E0,-1.779442209E0,2.879695311E0
5.248715000E0,1.261728858E0,3.216179109E0,-1.976191075E0,3.980087805E0
5.258661000E0,1.277711930E0,4.416418355E0,-2.035288884E0,5.027892173E0
5.268608000E0,1.349080120E0,5.185955204E0,-2.703467174E0,6.001906639E0
5.278554000E0,1.479538372E0,5.064955847E0,-3.547163674E0,6.358080029E0
5.288501000E0,9.052038006E-1,4.631113495E0,-3.774797534E0,6.042822399E0
5.298447000E0,1.627315199E-1,4.040834736E0,-3.249259731E0,5.187727413E0
5.308394000E0,-7.121326867E-1,3.426236238E0,-2.731068955E0,4.439027524E0
5.318340000E0,-1.477058714E0,2.926583474E0,-2.056645254E0,3.869933201E0
5.328287000E0,-1.825541219E0,2.254295177E0,-1.836810411E0,3.433412293E0
5.338233000E0,-2.018520824E0,1.204393108E0,-2.248774821E0,3.252995123E0
5.348180000E0,-2.443251459E0,-1.288545066E-1,-2.702258554E0,3.645309653E0
5.358126000E0,-3.093568259E0,-1.264638140E0,-2.478193835E0,4.160639240E0
5.368072000E0,-3.614848996E0,-2.067025816E0,-2.591225191E0,4.904505784E0
5.378019000E0,-3.684690186E0,-2.280460297E0,-2.641191988E0,5.074774483E0
5.387965000E0,-3.279472587E0,-2.107955741E0,-2.208334892E0,4.480531314E0
5.397912000E0,-2.778094602E0,-1.934778171E0,-1.538262690E0,3.718525015E0
5.407858000E0,-2.139465802E0,-1.617403584E0,-1.745368729E0,3.199940667E0
5.417805000E0,-1.480804440E0,-1.024442707E0,-1.773653466E0,2.527471319E0
5.427751000E0,-5.635552293E-1,4.252796888E-2,-7.831023896E-1,9.657393423E-1
5.437698000E0,2.836335209E-1,1.326420406E0,7.433699745E-1,1.546750783E0
5.447644000E0,5.848154131E-1,2.809977130E0,3.180884730E0,4.284391229E0
5.457591000E0,-2.969479233E-1,4.017736480E0,3.589022137E0,5.395504091E0
5.467537000E0,-2.863562769E-1,5.256683124E0,2.878854407E0,6.000210003E0
5.477484000E0,4.198546422E-1,5.302357480E0,3.649730853E0,6.450721515E0
5.487430000E0,7.421414745E-1,3.561434973E0,4.892553617E0,6.096857710E0
5.497376000E0,1.076785812E0,1.718730569E-1,4.684856424E0,4.810081885E0
5.507323000E0,7.157272625E-1,-4.018773192E0,5.215179588E0,6.622756345E0
5.517269000E0,-5.302804792E-1,-8.873039825E0,6.960685726E0,1.128995921E1
5.527216000E0,2.547638876E0,-1.136565172E1,8.519465126E0,1.443086238E1
5.537162000E0,6.598296350E0,-1.056391894E1,1.047760936E1,1.627618493E1
5.547108000E0,6.963321651E0,-9.974814298E0,1.053881684E1,1.609507468E1
5.557054000E0,7.637768741E0,-9.875940220E0,9.054324560E0,1.542240253E1
5.567001000E0,9.807177549E0,-1.078675632E1,7.167008239E0,1.624502541E1
5.576947000E0,1.072951442E1,-1.184132038E1,5.394479193E0,1.686534179E1
5.586894000E0,9.626158862E0,-1.065747906E1,3.903277819E0,1.488221664E1
5.596840000E0,6.521109011E0,-7.518567987E0,2.127136363E0,1.017734918E1
5.606787000E0,3.785634763E0,-4.327726618E0,5.499586987E-1,5.776045603E0
5.616733000E0,3.492629033E0,-2.633410806E0,8.603710055E-2,4.375009990E0
5.626679000E0,3.829990572E0,-2.368920192E0,3.163109779E-1,4.514494799E0
5.636626000E0,3.737318051E0,-2.646472608E0,1.924412811E0,4.967366319E0
5.646572000E0,3.737535567E0,-2.573714827E0,4.114658757E0,6.125650726E0
5.656519000E0,3.642782022E0,-1.944557931E0,5.066315909E0,6.535956189E0
5.666465000E0,3.098522020E0,-1.288431630E0,4.552404710E0,5.655553326E0
5.676412000E0,1.779424083E0,-9.591763785E-1,3.341101947E0,3.905039259E0
5.686358000E0,7.355387986E-2,-8.093423545E-1,1.311281379E0,1.542693773E0
5.696305000E0,-1.385931612E0,-7.333870232E-1,-1.064069288E0,1.894968709E0
5.706251000E0,-2.520247595E0,-4.881281939E-1,-3.067283270E0,3.999767960E0
5.716198000E0,-3.337747400E0,1.177140990E-1,-4.251837360E0,5.406712056E0
5.726144000E0,-3.710232579E0,1.077540980E0,-4.825049266E0,6.181263687E0
5.736091000E0,-3.966263441E0,2.113627833E0,-5.031449547E0,6.746417778E0
5.746037000E0,-3.929956325E0,3.208690872E0,-4.952234393E0,7.089772867E0
5.755983000E0,-3.762567497E0,4.233727364E0,-4.452807332E0,7.204779990E0
5.765930000E0,-3.087887689E0,5.120209111E0,-3.426776521E0,6.891617302E0
5.775876000E0,-2.089595484E0,5.675959477E0,-2.385625395E0,6.501856181E0
5.785823000E0,-1.503398082E0,5.741723696E0,-1.710481317E0,6.176839251E0
5.795769000E0,-1.408836325E0,5.164246831E0,-1.247537373E0,5.496418345E0
5.805716000E0,-1.649619988E0,4.412068611E0,-9.887518877E-1,4.813026680E0
5.815662000E0,-2.019450531E0,3.825980551E0,-1.067826124E0,4.456070046E0
5.825609000E0,-2.415828602E0,3.184502403E0,-1.441600614E0,4.249175887E0
5.835555000E0,-2.912144945E0,2.871015045E0,-1.810800242E0,4.472394558E0
5.845502000E0,-3.469305074E0,2.802136014E0,-1.901272455E0,4.847976989E0
5.855448000E0,-4.001710432E0,2.825285726E0,-1.878138531E0,5.246268212E0
5.865395000E0,-4.520391204E0,2.778580506E0,-1.884023169E0,5.630629589E0
5.875341000E0,-4.749141297E0,2.448852507E0,-1.982659850E0,5.699312392E0
5.885287000E0,-4.500303387E0,1.841839601E0,-1.917539994E0,5.227051112E0
5.895234000E0,-3.904991345E0,9.208891028E-1,-1.744206887E0,4.374843061E0
5.905180000E0,-2.881158502E0,-1.870921898E-1,-1.547904748E0,3.275986403E0
5.915127000E0,-1.481009970E0,-1.366587269E0,-1.162477927E0,2.326436379E0
5.925073000E0,2.935740799E-2,-2.279777927E0,-4.418150300E-1,2.322380196E0
5.935020000E0,1.339850875E0,-2.908106273E0,5.290736139E-1,3.245335322E0
5.944966000E0,2.431102114E0,-3.581383919E0,1.397112658E0,4.548460404E0
5.954913000E0,3.235751494E0,-4.213236381E0,1.981312652E0,5.669836713E0
5.964859000E0,3.763740741E0,-4.517381058E0,2.058099457E0,6.229626744E0
5.974806000E0,3.953846001E0,-4.248471118E0,1.714456254E0,6.051591963E0
5.984752000E0,3.746903976E0,-3.474676327E0,9.107038379E-1,5.190572845E0
5.994699000E0,3.307653535E0,-2.334621887E0,-2.368315297E-1,4.055504954E0
6.004645000E0,2.762850326E0,-1.067893367E0,-1.293502920E0,3.232164596E0
6.014591000E0,2.453221839E0,1.263489747E-1,-1.932718781E0,3.125646068E0
6.024538000E0,1.948820551E0,1.135172015E0,-2.355457855E0,3.261088584E0
6.034484000E0,1.038690618E0,1.585906972E0,-2.641321796E0,3.251239757E0
6.044431000E0,2.221807462E-1,1.520491247E0,-2.687834058E0,3.096079753E0
6.054377000E0,2.335664445E-1,1.321142124E0,-2.575913672E0,2.904358973E0
6.064324000E0,3.049890143E-1,1.192633188E0,-1.995530156E0,2.344681817E0
6.074270000E0,5.540485337E-1,9.404848766E-1,-6.098689780E-1,1.250368646E0
6.084217000E0,1.479144708E0,6.242697930E-1,2.466469583E0,2.942966878E0
6.094163000E0,2.747685280E0,1.614480561E-1,6.114414112E0,6.705363510E0
6.104110000E0,2.501782672E0,-7.259002483E-1,5.951166283E0,6.496324179E0
6.114056000E0,2.709259425E0,-1.029299405E0,5.007450235E0,5.785680751E0
6.124003000E0,2.925967762E0,-1.305907204E0,4.537449871E0,5.554739625E0
6.133949000E0,3.101794707E0,-1.826824536E0,4.853139875E0,6.042465137E0
6.143895000E0,3.023596383E0,-2.653488683E0,5.197794646E0,6.572686396E0
6.153842000E0,2.564594632E0,-3.456123111E0,5.050749452E0,6.635661430E0
6.163788000E0,1.604639405E0,-3.835333173E0,3.248988713E0,5.276416949E0
6.173735000E0,-8.200570849E-1,-4.192423217E0,2.760797954E-1,4.280785688E0
6.183681000E0,-4.730596561E0,-4.842771592E0,-4.509736408E0,8.134414729E0
6.193628000E0,-5.190583860E0,-4.566634494E0,-5.234556091E0,8.671613972E0
6.203574000E0,-2.751690915E0,-3.270400924E0,-1.919980330E0,4.685472181E0
6.213521000E0,-5.585058662E-1,-2.172739382E0,1.562131609E0,2.733675253E0
6.223467000E0,1.518975064E0,-1.620412561E0,5.212444260E0,5.665915396E0
6.233414000E0,2.560117419E0,-1.224443210E0,7.267515444E0,7.801938420E0
6.243360000E0,1.876277655E0,-6.414921820E-1,5.999640870E0,6.318830638E0
6.253307000E0,1.397723107E0,7.189560950E-1,2.572079068E0,3.014318909E0
6.263253000E0,3.014902743E0,3.643369668E0,-1.323511416E-1,4.730887645E0
6.273199000E0,5.371004376E0,6.511304399E0,-1.119827167E0,8.514621887E0
6.283146000E0,6.896824776E0,7.551281404E0,-1.103310244E0,1.028617209E1
6.293092000E0,7.532969095E0,7.301886547E0,-8.010790694E-1,1.052163952E1
6.303039000E0,8.228249229E0,6.564930384E0,-3.400459957E-1,1.053176280E1
6.312985000E0,8.793739886E0,5.480105819E0,-5.367451608E-3,1.036153704E1
6.322932000E0,8.305464050E0,4.310123575E0,3.018663087E-1,9.362105617E0
6.332878000E0,6.351487132E0,3.035642232E0,7.749428925E-1,7.082164149E0
6.342825000E0,3.621485294E0,1.104488166E0,1.094988195E0,3.941325790E0
6.352771000E0,1.382437609E0,-1.055553403E0,5.989943263E-1,1.839598035E0
6.362718000E0,-3.776345292E-1,-3.091373799E0,-5.876755786E-1,3.169315760E0
6.372664000E0,-1.830223523E0,-4.784806974E0,-1.693766174E0,5.395640812E0
6.382611000E0,-2.834590985E0,-5.232890219E0,-1.869126510E0,6.237922732E0
6.392557000E0,-3.261486844E0,-4.739621446E0,-7.812020445E-1,5.806167799E0
6.402503000E0,-2.978599135E0,-4.112032188E0,4.150681114E-1,5.094422741E0
6.412450000E0,-1.804092901E0,-3.048757537E0,4.512182298E-1,3.571172301E0
6.422396000E0,-1.184686237E0,-1.427005963E0,-1.892270082E-1,1.864305329E0
6.432343000E0,-8.768653431E-1,-3.631179392E-2,-8.170168251E-2,8.814116752E-1
6.442289000E0,-7.181760033E-1,8.085693526E-1,5.847388145E-1,1.229422893E0
6.452236000E0,-7.977142160E-1,1.342616023E0,1.334710880E0,2.054365812E0
6.462182000E0,-9.003957083E-1,1.796386855E0,1.077023502E0,2.279846001E0
6.472129000E0,-1.351388309E0,2.135378598E0,5.999357280E-1,2.597309184E0
6.482075000E0,-1.832714437E0,1.994617406E0,7.891618592E-1,2.821367974E0
6.492022000E0,-1.854865151E0,1.623860664E0,1.028260647E0,2.671098677E0
6.501968000E0,-2.233276483E0,1.392339576E0,1.278000490E0,2.925648406E0
6.511915000E0,-2.812645800E0,1.105340105E0,9.694414580E-1,3.173731224E0
6.521861000E0,-2.736913539E0,9.348879218E-1,8.293053335E-1,3.008730378E0
6.531807000E0,-2.253433590E0,6.374359685E-1,6.401549238E-1,2.427773853E0
6.541754000E0,-1.790644012E0,2.136759710E-1,3.857636207E-1,1.844146678E0
6.551700333E0,-1.299574377E0,-1.484204596E-1,2.732941818E-1,1.336267901E0
6.561647333E0,-1.001175394E0,-3.828283185E-1,3.331728861E-1,1.122458847E0
6.571593333E0,-1.116709943E0,-2.677334797E-1,1.369812593E-1,1.156497375E0
6.581540333E0,-1.425333075E0,6.772829890E-3,-1.162546340E-1,1.430082300E0
6.591486333E0,-1.539605795E0,1.880201429E-1,-3.862927938E-1,1.598424131E0
6.601433333E0,-1.393506388E0,3.014713293E-1,-7.348236841E-1,1.603967226E0
6.611379333E0,-1.224483629E0,4.390147984E-1,-1.081179703E0,1.691462001E0
6.621326333E0,-1.006253481E0,7.561221671E-1,-1.198715461E0,1.738155792E0
6.631272333E0,-9.881939902E-1,8.794107091E-1,-1.481484764E0,1.986123778E0
6.641218333E0,-1.371652419E0,7.950944442E-1,-1.560301723E0,2.224443076E0
6.651165333E0,-2.234726593E0,1.172229913E0,-1.401460648E0,2.886558134E0
6.661111333E0,-2.833384119E0,1.983360347E0,-1.333936709E0,3.706908547E0
6.671058333E0,-3.081494343E0,3.464210980E0,-9.492130154E-1,4.732586021E0
6.681004333E0,-2.464025739E0,6.130060676E0,3.540877917E-1,6.616225881E0
6.690951333E0,-1.316427806E0,7.216660455E0,9.854423636E-1,7.401639477E0
6.700897333E0,-1.892619453E0,7.274593499E0,5.378821519E-1,7.535982761E0
6.710844333E0,-4.610108542E-1,9.474574474E0,2.090173774E0,9.713337165E0
6.720790333E0,2.474506873E0,1.198756743E1,5.872620635E0,1.357617878E1
6.730737333E0,6.673194505E0,1.320255452E1,9.793179899E0,1.774106376E1
6.740683333E0,9.562035956E0,1.297163394E1,9.727035611E0,1.882315172E1
6.750630333E0,1.316312792E1,1.151759396E1,1.002462439E1,2.015976194E1
6.760576333E0,1.382089524E1,7.079953723E0,4.800644742E0,1.625389430E1
6.770523333E0,1.292396042E1,3.077281424E0,9.891126609E-1,1.332204030E1
6.780469333E0,1.169712804E1,-7.854295814E-1,-2.712331553E0,1.203313951E1
6.790415333E0,9.484181449E0,-1.800161818E0,-6.971966760E0,1.190792177E1
6.800362333E0,4.943142557E0,-9.743461025E-1,-9.645734171E0,1.088228819E1
6.810308333E0,2.572047201E0,-6.698634571E-1,-9.489004233E0,9.854204442E0
6.820255333E0,1.638017358E0,-2.187460917E0,-7.880987184E0,8.341345522E0
6.830201333E0,9.282580563E-1,-4.242760143E0,-4.962714942E0,6.594787051E0
6.840148333E0,-2.598186886E-1,-5.664983084E0,-1.002301056E0,5.758832043E0
6.850094333E0,-1.967773716E0,-6.957154593E0,3.087918679E0,7.861893868E0
6.860041333E0,-3.694401534E0,-7.387796178E0,8.591049664E0,1.191781311E1
6.869987333E0,-5.855689437E0,-6.330244197E0,1.288338893E1,1.550299328E1
6.879934333E0,-7.876965469E0,-4.911313239E0,1.169544521E1,1.493154451E1
6.889880333E0,-8.391138039E0,-5.024674378E0,8.895884312E0,1.322101766E1
6.899826333E0,-7.403547993E0,-8.114749510E0,8.628890505E0,1.396851581E1
6.909773333E0,-5.538724741E0,-1.361733495E1,8.870421442E0,1.716955618E1
6.919719333E0,-3.905740081E0,-2.014128863E1,8.535352596E0,2.222112862E1
6.929666333E0,-9.492632284E-1,-2.622912189E1,7.173943622E0,2.720906839E1
6.939612333E0,3.148708087E0,-2.887351815E1,5.356617887E0,2.953451825E1
6.949559333E0,6.835602674E0,-2.712563804E1,3.187409346E0,2.815466713E1
6.959505333E0,9.422312061E0,-2.359569734E1,3.710961726E-1,2.541012810E1
6.969452333E0,1.082648816E1,-2.055301447E1,-1.466336967E0,2.327636986E1
6.979398333E0,1.229091396E1,-1.917182963E1,-1.051109227E0,2.279759742E1
6.989345333E0,1.282314741E1,-1.999198583E1,2.627292279E0,2.389592583E1
6.999291333E0,1.229603027E1,-2.088260565E1,6.579142626E0,2.511096766E1
7.009237333E0,1.078282583E1,-1.916670513E1,8.809517428E0,2.369049421E1
7.019184333E0,7.536187987E0,-1.485774223E1,1.102531805E1,1.997759424E1
7.029130333E0,4.400157833E0,-9.814784192E0,1.270743920E1,1.664843502E1
7.039077333E0,1.045046176E0,-5.245519035E0,1.382795166E1,1.482632249E1
7.049023333E0,-3.341162174E0,-2.045964146E0,1.393345531E1,1.447378702E1
7.058970333E0,-6.553065798E0,8.929850203E-1,1.346550030E1,1.500199293E1
7.068916333E0,-8.000430597E0,5.390359245E0,1.170096498E1,1.516494128E1
7.078863333E0,-9.369583039E0,9.415490114E0,7.737270809E0,1.537224447E1
7.088809333E0,-1.051641499E1,9.928181584E0,4.950204824E0,1.528621279E1
7.098756333E0,-1.092498684E1,8.356195078E0,3.166278678E0,1.411405875E1
7.108702333E0,-1.170852309E1,6.448840933E0,-5.859354472E-1,1.337984988E1
7.118649333E0,-1.429333272E1,9.434721606E0,-2.239277539E1,2.819130578E1
7.128595333E0,-7.648204266E0,1.013140039E1,-2.166542152E1,2.511037220E1
7.138541333E0,-3.321226969E0,1.247463698E1,-1.902485753E1,2.299113569E1
7.148488333E0,-1.400956764E0,1.512706966E1,-1.518557690E1,2.148005266E1
7.158434333E0,3.458686238E0,1.508922648E1,-5.935765886E0,1.657952300E1
7.168381333E0,9.342105803E0,1.314219956E1,-3.988043150E0,1.661014263E1
7.178327333E0,7.632771125E0,1.314796258E1,-4.253945282E0,1.578683519E1
7.188274333E0,4.380540424E0,1.180022615E1,-6.987009891E0,1.439627656E1
7.198220333E0,-1.912571907E0,1.095429543E1,-9.390890293E0,1.455483906E1
7.208167333E0,-5.970559158E0,9.563908235E0,-5.379728422E0,1.249229344E1
7.218113333E0,-7.522726527E0,6.701269911E0,-2.394639462E0,1.035532380E1
7.228060333E0,-9.898495270E0,5.014151729E0,-1.363664246E0,1.117951280E1
7.238006333E0,-1.042490723E1,2.281303466E0,-2.608096163E0,1.098568168E1
7.247953333E0,-7.738850727E0,-1.423995817E-1,-2.988075718E0,8.296908142E0
7.257899333E0,-4.591098075E0,-2.230844334E0,-3.092673635E0,5.968205609E0
7.267845333E0,-4.228668353E0,-7.738523283E0,-2.227736539E0,9.095558736E0
7.277792333E0,-7.698658136E0,-1.794125737E1,-2.977009277E0,1.974894016E1
7.287738333E0,-3.051314232E0,-1.860369545E1,-5.723423080E0,1.970191804E1
7.297685333E0,9.406553814E0,-4.712881544E0,-5.007413982E0,1.165198275E1
7.307631333E0,1.157347580E1,5.855300598E0,-5.443844896E0,1.406646133E1
7.317578333E0,8.213165166E0,1.137152701E1,-6.692077503E0,1.554193070E1
7.327524333E0,4.225298018E0,1.409818658E1,-9.895970442E0,1.773533871E1
7.337471333E0,1.977407589E0,1.705685314E1,-1.365155519E1,2.193652978E1
7.347417333E0,-3.218086763E-1,2.262569338E1,-1.700766285E1,2.830699838E1
7.357364333E0,-3.379732747E0,3.103666049E1,-1.655151688E1,3.533623635E1
7.367310333E0,-4.345363575E0,3.327979275E1,-3.629913470E0,3.375800738E1
7.377257333E0,-3.091076468E0,3.378504130E1,1.146001643E1,3.580943655E1
7.387203333E0,-3.299743422E0,3.218221658E1,1.576666384E1,3.598848509E1
7.397149333E0,-3.159510818E0,2.343513747E1,7.512843563E0,2.481191237E1
7.407096333E0,-1.214718998E0,2.020586294E1,3.244023550E0,2.050063726E1
7.417042333E0,-7.813338992E-1,1.833210865E1,6.881766441E0,1.959682116E1
7.426989333E0,-9.574113965E-1,4.805392681E0,1.158559123E1,1.257912396E1
7.436935333E0,4.972247073E-1,-7.631432698E0,9.468468812E0,1.217119136E1
7.446882333E0,6.016058682E0,-1.332374157E1,4.899628748E0,1.541821694E1
7.456828333E0,1.148022792E1,-2.629387395E1,2.472600389E-1,2.869189046E1
7.466775333E0,3.487370632E0,-4.239231816E1,-4.716966408E-1,4.253813454E1
7.476721333E0,-6.333458412E0,-5.010974001E1,6.865010076E0,5.097280748E1
7.486668333E0,5.780245153E0,-3.183302320E1,1.698394538E0,3.239810402E1
7.496614333E0,4.215780505E0,-4.000568470E0,-8.594323520E0,1.037495784E1
7.506561333E0,1.294340242E0,8.027273995E0,-1.134187811E1,1.395530880E1
7.516507333E0,5.742722400E0,7.418630885E0,-8.270243347E-1,9.418010089E0
7.526453333E0,9.349147021E0,1.807602984E0,1.069057898E1,1.431650996E1
7.536400333E0,8.031486914E0,-4.664463674E0,1.453805507E1,1.725158105E1
7.546346458E0,3.221368220E0,-9.046139043E0,1.153468771E1,1.500862637E1
7.556293458E0,5.247867277E-1,-1.072182884E1,4.029668308E0,1.146609094E1
7.566239458E0,-2.621774262E0,-1.302072015E1,2.151003528E-1,1.328379169E1
7.576186458E0,-6.426208701E0,-1.305635308E1,3.184868438E0,1.489657346E1
7.586132458E0,-6.716020682E0,-1.038674129E1,4.431959084E0,1.313893411E1
7.596079458E0,-4.848895966E0,-7.721990865E0,2.656056780E0,9.497134970E0
7.606025458E0,-2.653549201E0,-6.100945635E0,1.678387704E0,6.861475519E0
7.615972458E0,3.875961381E-1,-5.139864526E0,2.221450782E0,5.612778429E0
7.625918458E0,2.407004277E0,-4.742691818E0,3.539817232E0,6.388826286E0
7.635864458E0,4.185819080E0,-5.010273271E0,3.946505114E0,7.628815257E0
7.645811458E0,5.478767976E0,-5.850721643E0,2.083148929E0,8.281748109E0
7.655757458E0,5.357120748E0,-6.344930649E0,3.580975199E-1,8.311745994E0
7.665704458E0,4.462994058E0,-6.454793984E0,6.460676283E-1,7.874013254E0
7.675650458E0,3.360636910E0,-6.496799212E0,1.889875647E0,7.554727685E0
7.685597458E0,2.497803935E0,-6.262097238E0,3.244387831E0,7.481907424E0
7.695543458E0,1.745187466E0,-5.858712448E0,4.283181360E0,7.464303946E0
7.705490458E0,8.780950856E-1,-5.459256402E0,4.433830193E0,7.087551173E0
7.715436458E0,-5.689750135E-2,-5.059391052E0,3.552155442E0,6.182109949E0
7.725383458E0,-9.795015925E-1,-4.397852275E0,2.000921874E0,4.929930664E0
7.735329458E0,-1.594342750E0,-3.543469988E0,3.135762352E-1,3.898260948E0
7.745276458E0,-1.847001523E0,-2.962906963E0,-1.187088858E0,3.687738094E0
7.755222458E0,-1.670890989E0,-2.766505421E0,-2.098030093E0,3.853201164E0
7.765168458E0,-1.405862139E0,-2.659965643E0,-2.391959683E0,3.843609853E0
7.775115458E0,-1.206361865E0,-2.464200279E0,-2.170465985E0,3.498358837E0
7.785061458E0,-1.130635160E0,-2.065582724E0,-1.858476684E0,2.999817234E0
7.795008458E0,-1.109528466E0,-1.489724368E0,-1.795274130E0,2.583281113E0
7.804954458E0,-9.680540599E-1,-6.285277355E-1,-1.846850080E0,2.177850086E0
7.814901458E0,-7.114608416E-1,3.723694038E-1,-1.883071827E0,2.047143133E0
7.824847458E0,-4.451627071E-1,1.471951171E0,-1.797466251E0,2.365522143E0
7.834794458E0,-2.109059988E-1,2.690661187E0,-1.759388598E0,3.221736675E0
7.844740458E0,-1.119854356E-1,3.927133289E0,-1.715149734E0,4.286800114E0
7.854687458E0,-4.061797589E-2,5.256462100E0,-1.408977243E0,5.442174243E0
7.864633458E0,1.377647862E-2,6.521714782E0,-1.116320007E0,6.616579467E0
7.874580458E0,-9.924771488E-3,7.736446352E0,-7.793239188E-1,7.775605856E0
7.884526458E0,3.044089705E-2,8.902961197E0,-3.689189619E-1,8.910653507E0
7.894472458E0,4.609900966E-2,1.000098644E1,1.461637267E-1,1.000216070E1
7.904419458E0,-6.969018593E-2,1.102902986E1,6.816631383E-1,1.105029506E1
7.914365458E0,-1.868078689E-1,1.194617265E1,1.115501397E0,1.199959506E1
7.924312458E0,-3.133005390E-1,1.256161549E1,1.332177574E0,1.263594231E1
7.934258458E0,-2.997357295E-1,1.272509779E1,1.317721210E0,1.279665364E1
7.944205458E0,-2.325357266E-1,1.251731347E1,1.135507353E0,1.257086259E1
7.954151458E0,-3.702763930E-1,1.199888881E1,8.310752857E-1,1.203333384E1
7.964098458E0,-6.158345997E-1,1.112653335E1,5.363177294E-1,1.115646151E1
7.974044458E0,-9.621271759E-1,9.761662238E0,2.614886534E-1,9.812446925E0
7.983991458E0,-1.096266981E0,7.908987161E0,-2.080728766E-1,7.987313286E0
7.993937458E0,-1.138512675E0,5.758882935E0,-8.238183063E-1,5.927868114E0
8.003884458E0,-1.332304459E0,3.640463017E0,-1.539095918E0,4.170949819E0
8.013830458E0,-1.384996642E0,1.602022483E0,-2.297951074E0,3.124943339E0
8.023776458E0,-1.151262383E0,-4.158855522E-1,-2.825109140E0,3.078897127E0
8.033723458E0,-7.534337635E-1,-2.400970827E0,-2.869789469E0,3.816806904E0
8.043669458E0,-7.350343300E-1,-3.995949170E0,-2.363129402E0,4.700241037E0
8.053616458E0,-4.184723604E-1,-3.886840711E0,-1.683808658E0,4.256508126E0
8.063562458E0,6.712165028E-1,-1.422111844E0,-1.732714770E0,2.339921829E0
8.073509458E0,1.360914154E0,1.584752147E0,-2.599570922E0,3.334860669E0
8.083455458E0,1.108049705E0,3.614048220E0,-3.426028662E0,5.101645918E0
8.093402458E0,9.841695710E-1,4.949818323E0,-3.736404131E0,6.279331733E0
8.103348458E0,1.370334165E0,6.065856494E0,-3.994567473E0,7.391143351E0
8.113295458E0,5.395613261E-1,6.495229234E0,-2.736684621E0,7.068845163E0
8.123241458E0,-2.865276003E-1,5.595414081E0,-2.803222427E0,6.264887292E0
8.133187458E0,-5.500110313E-1,4.427505260E0,-3.839470078E0,5.886157103E0
8.143134458E0,-1.303558085E0,3.352906306E0,-3.682939530E0,5.148328657E0
8.153080458E0,-2.111878346E0,2.316276832E0,-3.293255351E0,4.546504077E0
8.163027458E0,-2.537143124E0,1.626791289E0,-2.861792232E0,4.156127995E0
8.172973458E0,-2.500162409E0,1.191086015E0,-2.826059897E0,3.956780573E0
8.182920458E0,-2.360170418E0,5.684323919E-1,-3.006674541E0,3.864403134E0
8.192866458E0,-1.991289171E0,1.194644630E-1,-3.285183270E0,3.843427304E0
8.202813458E0,-1.163666374E0,-3.451441830E-1,-3.688731197E0,3.883295222E0
8.212759458E0,-6.473642483E-1,-1.239962890E0,-3.867385855E0,4.112573621E0
8.222706458E0,-6.483088660E-1,-2.319702131E0,-2.814334475E0,3.704294926E0
8.232652458E0,-5.288870877E-1,-3.141418948E0,-1.218223527E0,3.410616238E0
8.242599458E0,-9.895365840E-1,-3.265848867E0,-6.132214791E-1,3.467130233E0
8.252545458E0,-1.461259245E0,-2.179281247E0,-9.610466105E-1,2.794307772E0
8.262491458E0,-1.371129386E0,-2.464613092E-1,-1.520625148E0,2.062289944E0
8.272438458E0,-1.343677878E0,1.777982744E0,-1.406494516E0,2.635321555E0
8.282384458E0,-1.705272617E0,3.551007634E0,-5.327480042E-1,3.975101301E0
8.292331458E0,-2.230528584E0,4.819321918E0,1.390794157E0,5.489574656E0
8.302277458E0,-3.384365496E0,5.460565009E0,1.577257186E0,6.615091856E0
8.312224458E0,-3.148132721E0,5.725246242E0,2.672130775E0,7.058999012E0
8.322170458E0,-1.916644785E0,4.909050951E0,5.347502663E0,7.507868752E0
8.332117458E0,-2.975881934E-1,2.983049451E0,7.571624452E0,8.143502908E0
8.342063458E0,7.369503164E-1,-2.646555054E-1,7.889980202E0,7.928740498E0
8.352010458E0,2.636427677E-1,-4.961286467E0,7.937999291E0,9.364598425E0
8.361956458E0,1.231887301E0,-1.004058612E1,8.328893843E0,1.310348765E1
8.371902458E0,5.518065358E0,-1.267239683E1,9.815372422E0,1.695229255E1
8.381849458E0,1.034154932E1,-1.192000519E1,1.211290951E1,1.989363574E1
8.391795458E0,1.228498956E1,-1.034711354E1,1.288650901E1,2.059237338E1
8.401742458E0,1.177181803E1,-8.709614825E0,1.039164125E1,1.795603793E1
8.411688458E0,1.346964130E1,-6.545844487E0,7.248845285E0,1.663806103E1
8.421635458E0,1.473087636E1,-6.905714298E0,4.104184640E0,1.677891355E1
8.431581458E0,1.172765518E1,-7.546466807E0,1.747028169E0,1.405486268E1
8.441528458E0,7.124417120E0,-5.451965509E0,5.196022940E-1,8.986169026E0
8.451474458E0,5.082772313E0,-2.585632914E0,-3.048913658E-1,5.710781969E0
8.461421458E0,4.834884283E0,-5.815744476E-1,1.051253361E-1,4.870871196E0
8.471367458E0,4.695272069E0,5.192853749E-1,1.447984604E0,4.940839657E0
8.481314458E0,4.309099728E0,5.799499449E-1,3.536101327E0,5.604346081E0
8.491260458E0,4.454790123E0,4.086864603E-1,5.207962954E0,6.865497636E0
8.501206458E0,4.831546108E0,9.441709614E-1,5.888470683E0,7.675244854E0
8.511153458E0,4.715440870E0,1.250102839E0,5.269280950E0,7.180770254E0
8.521099458E0,3.867986364E0,7.171905282E-1,3.390932504E0,5.193659982E0
8.531046458E0,2.311668057E0,-4.128347674E-1,6.398380047E-1,2.433851767E0
8.540992458E0,7.202109075E-1,-1.450676662E0,-2.133339089E0,2.678488790E0
8.550939125E0,-7.805243522E-1,-1.873236811E0,-4.360640595E0,4.809721490E0
8.560885125E0,-2.352206803E0,-1.425539482E0,-5.475007632E0,6.127050532E0
8.570832125E0,-3.585904986E0,-4.344788209E-1,-6.090507771E0,7.081085462E0
8.580778125E0,-4.668658467E0,7.883414948E-1,-5.894550033E0,7.560659646E0
8.590725125E0,-5.362499017E0,2.508461947E0,-5.204750494E0,7.882778999E0
8.600671125E0,-5.545255496E0,4.793535697E0,-4.617386572E0,8.663030749E0
8.610617125E0,-5.081764253E0,6.864897809E0,-4.395593496E0,9.605851968E0
8.620564125E0,-4.817930281E0,7.733018714E0,-4.482311212E0,1.015397186E1
8.630510125E0,-4.964041675E0,7.356971412E0,-3.878382128E0,9.685483263E0
8.640457125E0,-5.497933980E0,6.470722969E0,-3.044706001E0,9.020408439E0
8.650403125E0,-6.061526046E0,5.595866656E0,-2.533305012E0,8.629800457E0
8.660350125E0,-6.514998670E0,4.816465261E0,-2.219939861E0,8.400695107E0
8.670296125E0,-6.926871863E0,4.184459017E0,-2.098859813E0,8.360410491E0
8.680243125E0,-7.125590072E0,3.666805893E0,-2.059823216E0,8.274199116E0
8.690189125E0,-7.475693863E0,2.961483166E0,-2.064527301E0,8.301725980E0
8.700136125E0,-7.886612206E0,2.064523208E0,-1.994136180E0,8.392704407E0
8.710082125E0,-7.905706873E0,1.446764874E0,-1.615024352E0,8.197660241E0
8.720029125E0,-7.719494689E0,6.770900309E-1,-1.153153372E0,7.834463087E0
8.729975125E0,-7.147268039E0,-5.440313762E-1,-7.204611683E-1,7.204059609E0
8.739921125E0,-5.940621999E0,-2.329040719E0,-6.444567204E-2,6.381189047E0
8.749868125E0,-3.820723904E0,-4.591099829E0,9.764090002E-1,6.052231269E0
8.759814125E0,-9.559566092E-1,-6.990562075E0,2.317056851E0,7.426342546E0
8.769761125E0,2.598239511E0,-9.069929025E0,3.526278589E0,1.007219449E1
8.779707125E0,6.084147170E0,-9.868523612E0,3.392487863E0,1.207946932E1
8.789654125E0,8.283856249E0,-9.230314057E0,2.502087897E0,1.265232847E1
8.799600125E0,9.526045759E0,-7.683726686E0,1.850317479E0,1.237775740E1
8.809547125E0,8.864383607E0,-5.250044196E0,1.081340209E0,1.035903265E1
8.819493125E0,6.692635328E0,-2.482724258E0,-6.490467846E-2,7.138592297E0
8.829440125E0,4.767416770E0,-2.052472097E-1,-1.827836689E0,5.109929162E0
8.839386125E0,3.477270444E0,8.203836519E-1,-3.777097244E0,5.199125182E0
8.849332125E0,2.329289226E0,1.140952572E0,-4.597289692E0,5.278487812E0
8.859279125E0,1.160474086E0,1.087606085E0,-4.526096917E0,4.797409760E0
8.869225125E0,1.012461762E0,1.097696625E0,-3.970635989E0,4.242165350E0
8.879172125E0,8.225170085E-1,1.578245950E0,-2.853049767E0,3.362631036E0
8.889118125E0,1.056381369E0,1.963714287E0,-1.285922882E0,2.574046048E0
8.899065125E0,9.592570701E-1,1.690358709E0,1.668017668E0,2.561204723E0
8.909011125E0,3.273372187E0,1.864691690E0,7.986430024E0,8.830351357E0
8.918958125E0,4.639010452E0,1.829403158E0,1.064106710E1,1.175157193E1
8.928904125E0,4.763857277E0,1.605598056E0,7.906583955E0,9.369437076E0
8.938851125E0,6.004691695E0,1.509021934E0,7.938066534E0,1.006709342E1
8.948797125E0,6.071264584E0,6.469096273E-1,7.574625828E0,9.729013421E0
8.958744125E0,5.239129783E0,-3.140586305E-1,6.410665632E0,8.285152235E0
8.968690125E0,4.642396283E0,-1.438317987E0,3.950669501E0,6.263257250E0
8.978636125E0,3.214293674E0,-3.947083404E0,-2.295574180E0,5.583978155E0
8.988583125E0,-8.612665797E-1,-7.651908478E0,-7.466994960E0,1.072611287E1
8.998529125E0,-4.192341649E0,-9.005327817E0,-3.712138186E0,1.060432117E1
9.008476125E0,-6.090762125E0,-8.021269489E0,5.058423337E-1,1.008434549E1
9.018422125E0,-6.719965214E0,-4.349091759E0,2.489643853E0,8.382771506E0
9.028369125E0,-4.784806389E0,-7.123311996E-2,2.901025295E0,5.596015913E0
9.038315125E0,-1.672354255E0,1.983027640E0,2.873557707E0,3.871240275E0
9.048262125E0,1.233299988E0,2.718476391E0,2.898299907E0,4.160683250E0
9.058208125E0,4.381309040E0,3.074325657E0,2.779467528E0,6.030985566E0
9.068155125E0,7.063028957E0,3.516117883E0,2.490473573E0,8.273567648E0
9.078101125E0,8.234116910E0,4.449941611E0,1.495646720E0,9.478376482E0
9.088047125E0,7.971549445E0,5.748391276E0,-4.655988720E-1,9.839023586E0
9.097994125E0,6.632319544E0,6.547023286E0,-2.749785308E0,9.716609268E0
9.107940125E0,5.442142771E0,6.329765310E0,-4.289754215E0,9.385352314E0
9.117887125E0,4.114615488E0,4.466722535E0,-4.257950040E0,7.416994631E0
9.127833125E0,1.875587099E0,1.828394514E0,-3.283420042E0,4.200202452E0
9.137780125E0,-4.665873438E-1,-8.575023615E-1,-2.593840066E0,2.771465377E0
9.147726125E0,-1.929848091E0,-2.943563204E0,-1.504608455E0,3.827887745E0
9.157673125E0,-2.638389710E0,-4.170023119E0,2.532341391E-1,4.941084962E0
9.167619125E0,-2.676007772E0,-4.632430288E0,2.684656973E0,5.985633720E0
9.177566125E0,-2.631847260E0,-4.482188421E0,4.394107134E0,6.806233213E0
9.187512125E0,-2.065284808E0,-3.243818897E0,2.816219910E0,4.766430211E0
9.197458125E0,-1.154906660E0,-8.812087280E-1,5.686393833E-1,1.560028514E0
9.207405125E0,-7.041848588E-1,1.026251251E0,2.198661259E-1,1.263886490E0
9.217351125E0,-3.491732070E-1,1.938135642E0,1.096755808E0,2.254143961E0
9.227298125E0,-1.086095457E0,1.978853313E0,3.085324270E0,3.822916377E0
9.237244125E0,-1.772635465E0,1.557932723E0,3.680783077E0,4.372362625E0
9.247191125E0,-2.097247443E0,1.288880112E0,1.587084309E0,2.928906858E0
9.257137125E0,-2.730865180E0,1.398604867E0,6.994971460E-1,3.146905855E0
9.267084125E0,-2.638776211E0,1.580195997E0,5.088130116E-1,3.117539087E0
9.277030125E0,-2.189224730E0,1.658113654E0,8.013188052E-1,2.860796678E0
9.286977125E0,-1.715794097E0,1.716644867E0,1.272260278E0,2.740340344E0
9.296923125E0,-1.111059559E0,1.763598009E0,1.251522543E0,2.431263037E0
9.306869125E0,-4.703204986E-1,1.666665791E0,1.033709375E0,2.016812163E0
9.316816125E0,5.965124756E-2,1.355027908E0,8.804901052E-1,1.617071961E0
9.326762125E0,4.230328962E-1,7.995055836E-1,7.584592992E-1,1.180434885E0
9.336709125E0,5.592201036E-1,2.394475740E-1,7.161555710E-1,9.396494383E-1
9.346655125E0,2.669765577E-1,-2.776369089E-1,5.760837659E-1,6.929871867E-1
9.356602125E0,-1.017327815E-1,-6.664551151E-1,8.717789233E-2,6.797881760E-1
9.366548125E0,-2.976343864E-1,-7.160535371E-1,-5.701125893E-1,9.624693556E-1
9.376495125E0,-3.249493620E-1,-5.003731406E-1,-1.187105815E0,1.328602869E0
9.386441125E0,-3.362198702E-1,-4.892453045E-1,-1.605463277E0,1.711700063E0
9.396388125E0,-5.342729580E-1,-6.859871542E-1,-1.712404466E0,1.920509054E0
9.406334125E0,-1.104249015E0,-6.664825970E-1,-1.660508088E0,2.102582234E0
9.416280125E0,-1.842326090E0,-4.976682186E-2,-1.370104369E0,2.296481687E0
9.426227125E0,-2.223682372E0,7.886695236E-1,-1.308166275E0,2.697788337E0
9.436173125E0,-2.394945856E0,1.303460729E0,-1.577116853E0,3.149932236E0
9.446120125E0,-2.768126269E0,2.053239836E0,-1.890368860E0,3.930879201E0
9.456066125E0,-3.278708940E0,2.552314895E0,-1.918773464E0,4.576672945E0
9.466013125E0,-3.710645100E0,2.959427869E0,-1.463759222E0,4.966859312E0
9.475959125E0,-4.352318545E0,4.038324527E0,-7.107492355E-1,5.979624250E0
9.485906125E0,-3.954409673E0,6.340079214E0,9.496115032E-1,7.532311883E0
9.495852125E0,-4.618169295E-1,8.764415515E0,3.240133689E0,9.355571630E0
9.505799125E0,3.333292625E-1,7.806687784E0,3.783410190E0,8.681571011E0
9.515745125E0,8.009869757E-1,9.817821236E0,4.849408474E0,1.097943334E1
9.525692125E0,2.752063091E0,1.286975790E1,8.362787814E0,1.559297084E1
9.535638125E0,6.378172070E0,1.432846396E1,9.403094602E0,1.828672050E1
9.545584125E0,9.430299942E0,1.344861939E1,8.030042067E0,1.828325726E1
9.555531375E0,1.137224621E1,9.618915331E0,4.320077875E0,1.550853278E1
9.565477375E0,1.207365832E1,5.202477096E0,2.853616655E-1,1.314992108E1
9.575424375E0,1.283533535E1,7.891373008E-1,-2.772464318E0,1.315504198E1
9.585370375E0,1.265951191E1,-1.980789911E0,-6.544892560E0,1.438827262E1
9.595317375E0,9.487923083E0,-2.112154627E0,-8.574835335E0,1.296185491E1
9.605263375E0,4.539949264E0,-1.654040483E0,-8.596458338E0,9.861342972E0
9.615210375E0,2.283484185E0,-3.085469280E0,-6.790462754E0,7.800308014E0
9.625156375E0,1.699014342E0,-5.577350863E0,-3.762892018E0,6.939225369E0
9.635103375E0,9.034322405E-1,-7.767923083E0,-1.070136359E0,7.893162273E0
9.645049375E0,-4.181902322E-1,-8.117158563E0,1.211193420E0,8.217672159E0
9.654995375E0,-1.292899488E0,-5.129879821E0,3.961183965E0,6.608951087E0
9.664942375E0,-1.788533460E0,-2.591731560E0,6.820439674E0,7.512278068E0
9.674888375E0,-1.659525172E0,-1.545847698E0,9.863020213E0,1.012041682E1
9.684835375E0,-1.770432819E0,-2.078412684E0,1.217419652E1,1.247658978E1
9.694781375E0,-2.395790194E0,-4.783589584E0,1.137313148E1,1.256863794E1
9.704728375E0,-2.798944019E0,-8.752025265E0,9.245984010E0,1.303534634E1
9.714674375E0,-2.367454441E0,-1.247175314E1,7.545354667E0,1.476759438E1
9.724621375E0,-1.770591571E0,-1.611535318E1,5.258417993E0,1.704378369E1
9.734567375E0,-1.480758540E0,-2.048328292E1,3.139812718E0,2.077536880E1
9.744513375E0,-1.022876969E0,-2.340319530E1,1.639464544E0,2.348283781E1
9.754460375E0,2.266103044E-1,-2.208436985E1,4.622750223E-1,2.209036989E1
9.764406375E0,7.467414790E-1,-1.829346090E1,-7.411942255E-1,1.832369240E1
9.774353375E0,1.631141617E0,-1.480761288E1,-1.458111396E0,1.496837035E1
9.784299375E0,4.734564481E0,-1.353450563E1,-1.945254627E-1,1.434004127E1
9.794246375E0,7.968367975E0,-1.424363022E1,2.554181911E0,1.651967721E1
9.804192375E0,1.021533484E1,-1.583791567E1,9.532360752E0,2.112009801E1
9.814139375E0,1.115652255E1,-1.694354696E1,1.926134816E1,2.797411861E1
9.824085375E0,1.152669340E1,-1.757097191E1,1.966645964E1,2.878147580E1
9.834032375E0,1.013977361E1,-1.704654684E1,1.667671162E1,2.591355781E1
9.843978375E0,7.011627839E0,-1.524284570E1,1.379622233E1,2.172194790E1
9.853925375E0,2.969957828E0,-1.252415471E1,9.953235734E0,1.627089433E1
9.863871375E0,-4.382431487E-2,-8.523916612E0,6.488838812E0,1.071280095E1
9.873817375E0,-1.877300918E0,-4.232632180E0,4.345660906E0,6.350134063E0
9.883764375E0,-2.875992195E0,1.467580962E-1,4.173016309E0,5.070200603E0
9.893710375E0,-2.885788328E0,5.866866390E0,3.681302310E0,7.503324744E0
9.903657375E0,-4.113327054E0,1.026599160E1,9.961369210E-1,1.110415831E1
9.913603375E0,-1.023656608E1,1.236194360E1,-1.095830895E1,1.943423448E1
9.923550375E0,-1.091536116E1,1.116728961E1,-1.052078052E1,1.882924027E1
9.933496375E0,-7.645888184E0,7.163961840E0,-7.190091292E0,1.270745325E1
9.943443375E0,-5.715043436E0,4.788758522E0,-6.825240823E0,1.010830559E1
9.953389375E0,-3.720571041E0,5.588257089E0,-3.972030257E0,7.800531426E0
9.963336375E0,-3.499654682E-1,8.277572247E0,-5.515639933E0,9.953037828E0
9.973282375E0,1.276467057E0,1.233917454E1,-7.909250286E0,1.471192838E1
9.983228375E0,2.362299390E0,1.609591236E1,-4.545659362E0,1.689147336E1
9.993175375E0,5.152282843E0,1.786507867E1,-2.197649398E0,1.872262582E1
1.000312137E1,6.509419257E0,1.260501820E1,-9.685471264E-1,1.421960289E1
1.001306837E1,3.192224528E0,1.140312887E1,2.549715807E0,1.211291444E1
1.002301438E1,-3.622633687E-1,1.095860599E1,-4.048939562E-1,1.097206540E1
1.003296137E1,-3.522905915E0,8.485857670E0,-7.932926831E0,1.213886216E1
1.004290737E1,-6.634007635E0,7.484671678E0,-1.179728500E1,1.546629564E1
1.005285437E1,-8.180510806E0,5.193677621E0,-1.043684374E1,1.424158529E1
1.006280037E1,-9.583648435E0,2.534758630E0,-8.918048183E0,1.333427546E1
1.007274738E1,-9.888797078E0,-7.653853261E-1,-7.525734335E0,1.245033331E1
1.008269337E1,-7.996926945E0,-3.262791358E0,-6.509826223E0,1.081547435E1
1.009263938E1,-6.132712973E0,-4.918938008E0,-3.936480648E0,8.792155562E0
1.010258637E1,-6.886802648E0,-1.083711956E1,-1.870834190E-1,1.284158134E1
1.011253237E1,-7.012956326E0,-1.801249751E1,-8.566983694E-1,1.934852850E1
1.012247937E1,3.617334940E0,-1.070071572E1,-3.281320015E0,1.176254607E1
1.013242537E1,1.257973952E1,1.588021325E0,-3.866040410E0,1.325586385E1
1.014237238E1,9.959181182E0,9.413466977E0,-7.044026091E0,1.540834040E1
1.015231837E1,5.923438202E0,1.441406018E1,-1.002213581E1,1.852823406E1
1.016226537E1,4.427516370E0,1.632259605E1,-1.087427745E1,2.010671413E1
1.017221137E1,2.461291873E0,1.797369071E1,-1.140563732E1,2.142895420E1
1.018215837E1,3.814208937E-1,2.263182594E1,-1.322942599E1,2.621760361E1
1.019210437E1,-1.235322101E0,2.837578678E1,-1.316653801E1,3.130605403E1
1.020205037E1,-1.922859791E0,2.973135146E1,-5.385760410E0,3.027634497E1
1.021199738E1,-2.924400709E0,2.913577746E1,4.446232722E0,2.961780939E1
1.022194337E1,-4.063985032E0,2.620995003E1,6.701839430E0,2.735675615E1
1.023189037E1,-3.480961791E0,2.133098652E1,1.682409419E0,2.167852814E1
1.024183637E1,-4.307781181E0,1.850818235E1,-7.452352363E-1,1.901749637E1
1.025178337E1,-4.855765275E0,1.616910079E1,-1.049289865E0,1.691506092E1
1.026172937E1,-5.997487925E0,1.298093920E1,-2.078303341E0,1.444970549E1
1.027167637E1,-5.344259212E0,8.295772290E0,-3.140311486E-1,9.873173754E0
1.028162238E1,-3.258467634E-1,3.123577924E0,2.476951886E0,3.999775720E0
1.029156937E1,4.356385576E0,-2.100447916E0,8.570108446E0,9.840565813E0
1.030151537E1,3.631512099E0,-1.386577379E1,1.886118110E1,2.368948533E1
1.031146137E1,3.907431096E-1,-4.013731839E1,2.575838360E1,4.769330491E1
1.032140837E1,1.009860921E1,-6.931354455E1,2.484237985E1,7.432020723E1
1.033135437E1,2.163553991E1,-4.952196854E1,1.484626181E1,5.604403130E1
1.034130137E1,1.317113392E1,-1.649664076E1,-1.129527230E1,2.394161861E1
1.035124738E1,1.139863587E1,4.945235276E0,-2.983090849E1,3.231512576E1
1.036119437E1,6.010059439E0,8.259672750E0,-1.818706730E1,2.085934863E1
1.037114037E1,-3.816438480E0,5.414362650E0,-9.943735178E0,1.194815445E1
1.038108737E1,-1.084559335E1,1.169519144E-1,-1.637920879E0,1.096920041E1
1.039103337E1,-1.235702609E1,-2.850061548E0,5.086820925E0,1.366362659E1
1.040098038E1,-9.336084926E0,-5.916550766E0,1.046422976E1,1.522064910E1
1.041092637E1,-6.780444134E0,-1.171022113E1,1.366775432E1,1.923307593E1
1.042087238E1,-5.022718484E0,-1.774354430E1,1.583907225E1,2.430920144E1
1.043081937E1,-1.443113288E-1,-1.552208182E1,1.514552113E1,2.168738482E1
1.044076537E1,4.961866511E0,-8.493839119E0,9.606337970E0,1.374944186E1
1.045071237E1,4.568997646E0,-4.931980807E0,3.633059857E0,7.641943346E0
1.046065837E1,3.799146509E0,-4.151184559E0,8.025022817E-1,5.684176049E0
1.047060538E1,2.905487305E0,-4.718700693E0,-7.905073035E-1,5.597579343E0
1.048055137E1,2.362440600E0,-5.130670364E0,-1.566948545E0,5.861760121E0
1.049049837E1,2.141797671E0,-5.741191015E0,-1.267331368E0,6.257371679E0
1.050044437E1,2.121725934E0,-6.599995551E0,-6.436989212E-1,6.962471581E0
1.051039137E1,1.632828539E0,-7.089037372E0,3.734733582E-1,7.284233814E0
1.052033737E1,1.049997963E0,-7.229802073E0,1.772233762E0,7.517535915E0
1.053028337E1,5.510205531E-1,-7.188811337E0,2.981591740E0,7.802084426E0
1.054023038E1,8.115508479E-1,-6.831459337E0,3.578838626E0,7.754710656E0
1.055017633E1,1.192755979E0,-6.257134121E0,3.648744428E0,7.340826257E0
1.056012333E1,9.836667104E-1,-5.179303411E0,3.311138476E0,6.225465607E0
1.057006933E1,4.876927225E-1,-3.598810961E0,3.002156982E0,4.711924349E0
1.058001633E1,-1.106816527E-1,-2.269699082E0,2.480898757E0,3.364319098E0
1.058996233E1,-7.311394997E-1,-1.301089098E0,1.711525045E0,2.270840326E0
1.059990933E1,-1.296803235E0,-5.304015166E-1,9.075276303E-1,1.669320460E0
1.060985533E1,-1.825114226E0,2.837431562E-1,2.523067707E-1,1.864191734E0
1.061980233E1,-2.207670210E0,1.222448725E0,-5.507819867E-1,2.582934269E0
1.062974833E1,-2.544996520E0,2.269056473E0,-1.362860838E0,3.671922416E0
1.063969433E1,-2.699244314E0,3.337508833E0,-2.076381361E0,4.768253836E0
1.064964133E1,-2.600141611E0,4.267717813E0,-2.721510512E0,5.690410459E0
1.065958733E1,-2.403860960E0,5.054106923E0,-3.180840291E0,6.437413243E0
1.066953433E1,-2.271414655E0,5.608061609E0,-3.218956536E0,6.853565548E0
1.067948033E1,-2.077487509E0,6.181419110E0,-3.144836646E0,7.239882188E0
1.068942733E1,-1.777786131E0,6.731867221E0,-2.677482732E0,7.459723426E0
1.069937333E1,-1.508976179E0,7.186114016E0,-2.169139252E0,7.656527206E0
1.070932033E1,-1.157049080E0,7.680545801E0,-1.556063368E0,7.921545277E0
1.071926633E1,-7.223775932E-1,8.228468499E0,-9.055372381E-1,8.309604137E0
1.072921333E1,-2.244971207E-1,8.838230765E0,-2.163838166E-1,8.843729076E0
1.073915933E1,2.892882170E-1,9.704777600E0,4.682882988E-1,9.720374986E0
1.074910533E1,8.320398570E-1,1.063185189E1,1.136876478E0,1.072478685E1
1.075905233E1,1.462572822E0,1.141357316E1,1.592825983E0,1.161662026E1
1.076899833E1,2.166737508E0,1.192634357E1,1.902877224E0,1.227001891E1
1.077894533E1,2.818627209E0,1.198743060E1,2.045625592E0,1.248309801E1
1.078889133E1,3.455783388E0,1.143947867E1,1.915044402E0,1.210254131E1
1.079883833E1,3.998470782E0,1.001764164E1,1.460951389E0,1.088463558E1
1.080878433E1,3.652962610E0,7.561146242E0,6.534976852E-1,8.422714975E0
1.081873133E1,2.584038379E0,4.767778713E0,-5.116763932E-1,5.447089216E0
1.082867733E1,1.696459694E0,2.157741859E0,-2.271899681E0,3.563053969E0
1.083862433E1,5.152293076E-1,-2.930355513E-1,-4.346250013E0,4.386481534E0
1.084857033E1,-9.681780209E-1,-2.349664434E0,-5.445552283E0,6.009353650E0
1.085851633E1,-2.285498551E0,-3.148540857E0,-4.343185487E0,5.830958182E0
1.086846333E1,-3.425643330E0,-3.299805402E0,-2.056105556E0,5.181825738E0
1.087840933E1,-4.301096936E0,-2.616781032E0,-6.432703203E-1,5.075507317E0
1.088835633E1,-4.289319182E0,-7.674166489E-1,-5.845215905E-1,4.396459126E0
1.089830233E1,-3.463367227E0,1.936772071E0,-1.131470143E0,4.126284441E0
1.090824933E1,-2.779036296E0,4.776309800E0,-2.070233014E0,5.901020486E0
1.091819533E1,-2.723093353E0,6.897598947E0,-2.994848548E0,7.997576287E0
1.092814233E1,-2.350749823E0,7.746341595E0,-2.979828220E0,8.626193196E0
1.093808833E1,2.670250896E-1,7.974433876E0,-2.818072016E0,8.461939963E0
1.094803533E1,2.318138878E0,7.297011724E0,-3.033240196E0,8.235332054E0
1.095798133E1,2.681770203E0,6.617192797E0,-3.228400959E0,7.835923984E0
1.096792733E1,1.807469960E0,7.270403969E0,-1.549643710E0,7.650301769E0
1.097787433E1,8.094689468E-1,7.637359436E0,2.147846031E-1,7.683139433E0
1.098782033E1,1.005259893E0,7.200898116E0,-2.938167393E-2,7.270787056E0
1.099776733E1,1.435488373E0,5.807451078E0,-2.315845308E0,6.414846403E0
1.100771333E1,1.790848957E0,2.372462143E0,-5.426148883E0,6.186987013E0
1.101766033E1,2.323253438E0,-1.661491590E0,-9.604957443E0,1.002064211E1
1.102760633E1,2.959327590E0,-4.841479942E0,-1.012034565E1,1.160254041E1
1.103755333E1,2.054068679E0,-7.445639175E0,-4.732598940E0,9.058379192E0
1.104749933E1,4.146330786E-1,-9.582367310E0,-1.767134990E0,9.752766270E0
1.105744633E1,-1.422465016E0,-9.318202971E0,-1.035163577E0,9.482820095E0
1.106739233E1,-3.778930053E0,-7.080747775E0,4.023597729E-1,8.036118142E0
1.107733833E1,-4.264930153E0,-3.319683012E0,8.583765203E-1,5.472360986E0
1.108728533E1,-3.020516947E0,3.204385275E-1,-3.811104065E-1,3.061282186E0
1.109723133E1,-2.230811589E0,2.114856625E0,-1.944868126E0,3.637533631E0
1.110717833E1,-1.732824113E0,2.689676515E0,-2.078539569E0,3.815411630E0
1.111712433E1,-1.873659272E0,2.903524395E0,-9.491884571E-1,3.583575268E0
1.112707133E1,-2.685281456E0,3.122364042E0,2.540381312E-2,4.118317504E0
1.113701733E1,-3.529679038E0,3.679741103E0,9.942020774E-1,5.194955867E0
1.114696433E1,-5.336321617E0,4.552548552E0,5.285280687E-1,7.034299441E0
1.115691033E1,-6.039221258E0,6.446787976E0,2.254339031E0,9.116760010E0
1.116685733E1,-5.720795926E0,8.324086847E0,7.184665661E0,1.239505339E1
1.117680333E1,-4.916327811E0,8.280802249E0,1.170608364E1,1.515830990E1
1.118674933E1,-2.226142003E0,5.343709574E0,1.372019098E1,1.489142642E1
1.119669633E1,6.223957604E-1,-2.206189549E-1,1.396030923E1,1.397591797E1
1.120664233E1,2.769168243E0,-7.119060486E0,1.321300934E1,1.526214044E1
1.121658933E1,6.624581923E0,-1.208283144E1,1.214814951E1,1.837001464E1
1.122653533E1,1.122035660E1,-1.347021900E1,1.095844929E1,2.067439994E1
1.123648233E1,1.481444827E1,-1.193748252E1,8.823497536E0,2.097201648E1
1.124642833E1,1.674320381E1,-1.035951314E1,6.549540512E0,2.074971969E1
1.125637533E1,1.740187161E1,-1.021284743E1,4.941677245E0,2.077372287E1
1.126632133E1,1.647089313E1,-8.821518838E0,4.547226416E0,1.922984096E1
1.127626833E1,1.382040407E1,-7.628241287E0,4.742723978E0,1.648293252E1
1.128621433E1,8.833537205E0,-5.613825794E0,5.058825041E0,1.162489270E1
1.129616033E1,4.282981385E0,-2.922089889E0,4.767917876E0,7.043832745E0
1.130610733E1,1.997638662E0,-1.015269742E0,4.595164813E0,5.112423353E0
1.131605333E1,1.484798673E0,3.803110921E-1,4.993256704E0,5.223205542E0
1.132600033E1,1.463658650E0,1.053246969E0,5.105887526E0,5.414952746E0
1.133594633E1,1.564784490E0,1.053446651E0,4.675498540E0,5.041684931E0
1.134589333E1,1.869615045E0,9.433365637E-1,3.678386888E0,4.232714777E0
1.135583933E1,2.124879922E0,6.892276812E-1,2.498853802E0,3.351778603E0
1.136578633E1,2.504366557E0,-3.826417923E-3,1.319228915E0,2.830588530E0
1.137573233E1,2.904517252E0,-8.961308223E-1,-3.212577224E-1,3.056546653E0
1.138567933E1,3.069243842E0,-1.661179934E0,-2.307973786E0,4.184079293E0
1.139562533E1,2.920283684E0,-2.145233495E0,-3.968580108E0,5.373984706E0
1.140557133E1,2.493390749E0,-2.207558675E0,-5.033498411E0,6.035430306E0
1.141551833E1,1.788025922E0,-1.776403996E0,-5.054101660E0,5.647706742E0
1.142546433E1,9.380044878E-1,-9.917070705E-1,-4.650906905E0,4.847088855E0
1.143541133E1,-6.126946449E-2,8.812338710E-3,-4.408400652E0,4.408835211E0
1.144535733E1,-1.261074262E0,1.362825463E0,-4.304098604E0,4.687522409E0
1.145530433E1,-3.012221210E0,2.889641935E0,-4.030778110E0,5.802644165E0
1.146525033E1,-4.806780810E0,4.622917453E0,-3.395072333E0,7.483516799E0
1.147519733E1,-6.045287159E0,6.563937526E0,-3.147311187E0,9.462364419E0
1.148514333E1,-6.637240561E0,8.365969284E0,-2.971828644E0,1.108486219E1
1.149508933E1,-6.836128339E0,9.406570771E0,-2.924303645E0,1.199032010E1
1.150503633E1,-6.782248001E0,9.510611449E0,-2.664186164E0,1.198117298E1
1.151498233E1,-6.522477844E0,8.704673928E0,-2.276082487E0,1.111281319E1
1.152492933E1,-6.338456612E0,7.384224114E0,-2.239805776E0,9.985966548E0
1.153487533E1,-6.330848215E0,5.887702943E0,-2.528675187E0,9.007712432E0
1.154482233E1,-6.581773873E0,4.443338643E0,-2.945344266E0,8.469832257E0
1.155476821E1,-6.874255108E0,3.284066452E0,-3.283684629E0,8.295966520E0
1.156471521E1,-7.124631713E0,2.265150240E0,-3.447440581E0,8.232625900E0
1.157466121E1,-7.335327358E0,1.206561840E0,-3.283866477E0,8.126905805E0
1.158460821E1,-7.223685885E0,4.664703995E-2,-2.865649640E0,7.771471004E0
1.159455421E1,-6.976049870E0,-1.471209159E0,-2.410304738E0,7.525908391E0
1.160450021E1,-5.956669098E0,-3.279885693E0,-1.519603640E0,6.967693457E0
1.161444721E1,-4.049738292E0,-5.636466798E0,-6.030584335E-2,6.940733029E0
1.162439321E1,-1.434416724E0,-8.246767361E0,1.803939119E0,8.562763548E0
1.163434021E1,1.712772841E0,-1.017561587E1,3.280458135E0,1.082765694E1
1.164428621E1,4.474887587E0,-1.095893110E1,3.419667476E0,1.232140071E1
1.165423321E1,6.416016419E0,-1.018843180E1,2.555273001E0,1.230848607E1
1.166417921E1,6.952808357E0,-8.044712731E0,1.998287119E0,1.081906181E1
1.167412621E1,6.035341630E0,-5.466459002E0,1.474131013E0,8.275299684E0
1.168407221E1,4.683817958E0,-3.131476343E0,7.375198352E-1,5.682273335E0
1.169401921E1,3.890903064E0,-1.093484291E0,-7.135006428E-1,4.104134222E0
1.170396521E1,3.339125881E0,-1.105778646E-1,-2.771897723E0,4.341129588E0
1.171391121E1,2.864533406E0,1.093885410E-1,-4.129027120E0,5.026567661E0
1.172385821E1,2.314795148E0,2.798524189E-1,-4.187537284E0,4.792917948E0
1.173380421E1,1.493478865E0,6.422084659E-1,-2.802937667E0,3.240273199E0
1.174375121E1,4.569949865E-1,1.000837498E0,-4.962531924E-1,1.206974459E0
1.175369721E1,-2.623677823E-1,1.052149739E0,4.640350342E-1,1.179484819E0
1.176364421E1,2.385444716E-1,1.111667377E0,1.964580844E0,2.269864691E0
1.177359021E1,3.641295075E-1,1.346597393E0,4.889898396E0,5.084979957E0
1.178353721E1,4.811106580E-1,1.374451774E0,7.923713958E0,8.056415334E0
1.179348321E1,6.442599615E-1,1.225838356E0,8.306111337E0,8.420762205E0
1.180342921E1,1.189443532E0,1.029563114E0,7.363271202E0,7.529444794E0
1.181337621E1,1.007426725E0,5.467105705E-1,5.618966666E0,5.734682855E0
1.182332221E1,9.238513023E-1,-6.516669220E-1,3.165146657E0,3.361000501E0
1.183326921E1,1.346261470E0,-2.811191012E0,1.496194312E-1,3.120512911E0
1.184321521E1,1.616703234E0,-6.147736809E0,-6.176721457E0,8.863424010E0
1.185316221E1,1.369522279E0,-9.115142035E0,-9.901121839E0,1.352751342E1
1.186310821E1,2.160295192E0,-7.906333110E0,-3.999410137E0,9.119882675E0
1.187305521E1,2.532165097E0,-5.247494810E0,1.897091112E0,6.127562039E0
1.188300121E1,3.142076760E0,-2.614828062E0,5.939497579E0,7.210242968E0
1.189294821E1,3.282177801E0,-1.025878783E0,5.821031821E0,6.760882328E0
1.190289421E1,1.848114833E0,6.423751116E-3,3.202991298E0,3.697934959E0
1.191284021E1,3.373926754E-1,4.965397060E-1,2.024088542E0,2.111236587E0
1.192278721E1,-1.318124668E-1,-1.810426605E-1,3.229582096E0,3.237337098E0
1.193273321E1,3.286482375E-2,-7.919334394E-1,5.111571019E0,5.172658596E0
1.194268021E1,5.154604188E-1,-4.413671333E-1,4.793218778E0,4.841017522E0
1.195262621E1,2.494311977E0,1.719918138E0,2.355980888E0,3.838014668E0
1.196257321E1,4.160995310E0,5.183446748E0,1.297122931E-1,6.648219870E0
1.197251921E1,5.141143312E0,8.015216451E0,-3.115466666E-1,9.527439879E0
1.198246621E1,5.334907760E0,9.306161215E0,2.803617114E-1,1.073053960E1
1.199241221E1,5.190272203E0,9.205587351E0,8.887528056E-1,1.060526499E1
1.200235921E1,4.951425723E0,8.175455888E0,1.378581662E0,9.656872323E0
1.201230521E1,3.873846443E0,6.338599868E0,1.516154075E0,7.581771412E0
1.202225121E1,2.258132851E0,4.162243398E0,9.291699296E-1,4.825638905E0
1.203219821E1,4.329326709E-1,1.578305592E0,4.208749813E-1,1.689856500E0
1.204214421E1,-1.029976512E0,-1.068547086E0,3.403366023E-1,1.522653438E0
1.205209121E1,-5.240773143E-1,-3.094497381E0,-8.727437139E-2,3.139775134E0
1.206203721E1,7.962501463E-1,-3.911256929E0,-7.539832556E-1,4.062072846E0
1.207198421E1,1.644352378E0,-4.178130868E0,-1.424873776E0,4.710725801E0
1.208193021E1,1.864672832E0,-3.530105592E0,-1.150346709E0,4.154750030E0
1.209187721E1,1.511359943E0,-2.135317787E0,-7.398885423E-1,2.718680927E0
1.210182321E1,1.177432181E0,-1.123389291E0,-1.074258061E0,1.949969339E0
1.211176921E1,4.935215195E-1,-6.485924560E-1,-1.017717240E0,1.303834362E0
1.212171621E1,-3.391787075E-1,-3.617847741E-2,-4.862798890E-1,5.939858654E-1
1.213166221E1,-1.031026818E0,5.211424506E-1,8.812183759E-1,1.452980241E0
1.214160921E1,-1.546505071E0,8.653914249E-1,1.898236289E0,2.596898393E0
1.215155521E1,-1.849223465E0,9.961000836E-1,1.920769996E0,2.846260736E0
1.216150221E1,-2.083564374E0,9.450726020E-1,1.716760642E0,2.860361834E0
1.217144821E1,-2.231792752E0,9.734047008E-1,1.546653444E0,2.884536787E0
1.218139521E1,-2.337632910E0,1.043190050E0,9.014020872E-1,2.713908404E0
1.219134121E1,-2.333645986E0,1.086540722E0,5.339867368E-1,2.628995277E0
1.220128821E1,-2.514216192E0,9.548473924E-1,9.916962531E-1,2.866439963E0
1.221123421E1,-2.403888296E0,1.000236404E0,1.351784750E0,2.933679228E0
1.222118021E1,-2.199387191E0,9.442680252E-1,1.849790353E0,3.025007515E0
1.223112721E1,-1.636878905E0,2.883326358E-1,2.237937883E0,2.787628783E0
1.224107321E1,-1.104909166E0,-1.374709636E-1,1.415008646E0,1.800547694E0
1.225102021E1,-9.541024572E-1,-4.367852551E-1,9.934214741E-1,1.444984112E0
1.226096621E1,-3.915558726E-1,-5.707923281E-1,3.217830947E-1,7.633244678E-1
1.227091321E1,1.231718901E-1,-2.776632214E-1,-8.021853626E-2,3.141706424E-1
1.228085921E1,4.388540000E-1,1.589489561E-1,-3.615479618E-1,5.904020094E-1
1.229080621E1,6.285397223E-1,5.540102345E-1,-7.388825288E-1,1.117110968E0
1.230075221E1,4.683151960E-1,6.740985954E-1,-8.269845736E-1,1.165174461E0
1.231069821E1,3.092656678E-1,6.702926427E-1,-8.547918847E-1,1.129427575E0
1.232064521E1,2.453748965E-1,6.752750552E-1,-1.054710234E0,1.276173546E0
1.233059121E1,2.150114751E-1,5.680593395E-1,-1.173112843E0,1.321028043E0
1.234053821E1,9.775579780E-2,1.515569061E-1,-1.110390345E0,1.124941070E0
1.235048421E1,4.338019143E-2,-4.650243831E-1,-1.068315828E0,1.165945207E0
1.236043121E1,-2.633527640E-1,-8.599973685E-1,-1.178582036E0,1.482567290E0
1.237037721E1,-9.898190045E-1,-6.754200661E-1,-1.455724855E0,1.885489003E0
1.238032421E1,-1.690975590E0,1.250742817E-1,-1.807766706E0,2.478520221E0
1.239027021E1,-2.431020253E0,1.474316370E0,-2.146333064E0,3.562332642E0
1.240021721E1,-3.139060474E0,2.985241572E0,-2.566121633E0,5.034912922E0
1.241016321E1,-3.541127886E0,4.316026340E0,-2.500005704E0,6.117000784E0
1.242010921E1,-4.189110770E0,5.223208984E0,-1.988148047E0,6.984503833E0
1.243005621E1,-4.723889219E0,6.527779514E0,-1.216094556E0,8.148982802E0
1.244000221E1,-3.779429698E0,8.959204395E0,-3.625273705E-4,9.723756083E0
1.244994921E1,-1.393118133E0,1.108793003E1,3.027883562E0,1.157804169E1
1.245989521E1,4.320249637E-1,1.076827445E1,5.546910843E0,1.212066830E1
1.246984221E1,1.724431897E0,1.243159914E1,9.597357817E0,1.579960758E1
1.247978821E1,4.490318974E0,1.463200228E1,1.215781613E1,1.954663522E1
1.248973521E1,6.580803820E0,1.286476672E1,1.169558438E1,1.859020967E1
1.249968121E1,7.251544944E0,7.898604260E0,7.374772090E0,1.301384327E1
1.250962821E1,7.006914398E0,3.488010902E0,2.106657952E0,8.105620097E0
1.251957421E1,6.664889120E0,-1.796587999E0,-1.768293323E0,7.125681490E0
1.252952021E1,8.399154571E0,-5.378823858E0,-4.024080124E0,1.075503438E1
1.253946721E1,9.174951450E0,-7.684396192E0,-6.957524722E0,1.384329546E1
1.254941346E1,8.190403710E0,-8.149209491E0,-7.281859249E0,1.365715206E1
1.255936046E1,5.333752935E0,-6.668808509E0,-4.489843011E0,9.647829681E0
1.256930646E1,3.682527301E0,-4.153604722E0,-7.928485286E-1,5.607320956E0
1.257925346E1,1.894189723E0,-1.868510506E0,2.272462476E0,3.499053004E0
1.258919946E1,5.296122886E-2,-2.339242941E-1,4.962208573E0,4.968001549E0
1.259914646E1,-1.680787694E0,5.812208372E-1,6.637237052E0,6.871373998E0
1.260909246E1,-3.052493031E0,3.985824716E-1,6.477764186E0,7.172029736E0
1.261903846E1,-4.176860853E0,-6.546104103E-1,5.365582838E0,6.831117080E0
1.262898546E1,-4.310742503E0,-2.912953030E0,4.651422629E0,6.978791354E0
1.263893146E1,-4.274529819E0,-6.237935373E0,3.963025838E0,8.537506468E0
1.264887846E1,-4.227466458E0,-1.005004107E1,3.038506199E0,1.131845034E1
1.265882446E1,-4.207799640E0,-1.463608130E1,2.132459668E0,1.537751078E1
1.266877146E1,-3.357106069E0,-2.018267756E1,1.210235061E0,2.049573867E1
1.267871746E1,-9.931994261E-1,-2.461461443E1,6.771923572E-1,2.464395013E1
1.268866446E1,1.808232291E0,-2.445081521E1,3.786808884E-1,2.452051116E1
1.269861046E1,1.796857410E0,-2.112802966E1,-8.718081594E-2,2.120447911E1
1.270855646E1,1.412054341E0,-1.682750546E1,-2.284261572E-1,1.688819161E1
1.271850346E1,4.236633430E0,-1.447270425E1,6.843370700E-1,1.509558042E1
1.272844946E1,8.812211241E0,-1.490783766E1,7.312751259E0,1.879827178E1
1.273839646E1,1.246083288E1,-1.619430346E1,1.869144227E1,2.769292030E1
1.274834246E1,1.423225271E1,-1.615424769E1,2.170085565E1,3.056867468E1
1.275828946E1,1.427979759E1,-1.665179546E1,1.871128188E1,2.883239464E1
1.276823546E1,1.426072748E1,-1.868045185E1,1.449031255E1,2.760972269E1
1.277818246E1,1.313017301E1,-1.856560668E1,1.057324057E1,2.507741236E1
1.278812846E1,1.015238254E1,-1.619531035E1,9.205299668E0,2.121547762E1
1.279807546E1,6.016684334E0,-1.203755995E1,7.468533947E0,1.539098240E1
1.280802146E1,1.431945106E0,-8.214550956E0,4.861620677E0,9.652184717E0
1.281796746E1,-1.979913413E0,-4.856402037E0,4.580897022E0,6.963426986E0
1.282791446E1,-4.346235102E0,3.121980464E-1,8.900978406E0,9.910330154E0
1.283786046E1,-5.569313865E0,6.097950107E0,6.524018585E0,1.052449861E1
1.284780746E1,-6.469961076E0,8.992510720E0,2.176431168E0,1.128992905E1
1.285775346E1,-8.121494274E0,9.178293133E0,-6.432931244E-1,1.227247164E1
1.286770046E1,-1.046406136E1,8.484112276E0,-6.860538710E0,1.511766293E1
1.287764646E1,-1.030069015E1,7.387916631E0,-1.126859613E1,1.696074257E1
1.288759346E1,-7.679956986E0,6.957134128E0,-1.108262544E1,1.517260825E1
1.289753946E1,-6.137963773E0,8.087915468E0,-1.210736518E1,1.580117931E1
1.290748646E1,-4.803273943E0,1.130529676E1,-1.092732807E1,1.644042804E1
1.291743246E1,-4.040573658E0,1.624761019E1,-8.549167812E0,1.879891865E1
1.292737846E1,-2.544983071E0,1.960502645E1,-5.354261459E0,2.048175082E1
1.293732546E1,-1.423107040E-1,2.211043674E1,-2.946370452E0,2.230633909E1
1.294727146E1,3.586946960E0,2.336305066E1,2.882051665E-1,2.363855721E1
1.295721846E1,6.569657857E0,2.042345187E1,2.356672614E0,2.158313454E1
1.296716446E1,5.796703895E0,1.551568263E1,3.307376085E0,1.689014269E1
1.297711146E1,-1.845895815E-1,1.159130747E1,-3.345570390E0,1.206587433E1
1.298705746E1,-4.447334338E0,8.652554187E0,-8.783141808E0,1.310683244E1
1.299700446E1,-6.663541337E0,5.745753597E0,-9.704853029E0,1.309964274E1
1.300695046E1,-7.207462201E0,4.040388594E0,-7.820900611E0,1.137711465E1
1.301689646E1,-6.888097222E0,3.354326010E0,-4.645892918E0,8.960005989E0
1.302684346E1,-6.927938980E0,2.116972733E0,-3.077915847E0,7.870926122E0
1.303678946E1,-5.723607268E0,-8.362705368E-1,-3.996825668E0,7.030906342E0
1.304673646E1,-5.901079034E0,-7.587764522E0,-8.007644892E-1,9.645627401E0
1.305668246E1,-9.707732198E0,-1.940550074E1,5.808648003E0,2.246227760E1
1.306662946E1,-3.911779378E0,-2.534447558E1,9.459092801E0,2.733347576E1
1.307657546E1,1.121266284E1,-1.096740956E1,6.554543390E0,1.699911525E1
1.308652246E1,1.221994630E1,4.289438465E0,-5.624036202E0,1.411935385E1
1.309646846E1,7.037863711E0,1.081789626E1,-1.720790777E1,2.150977673E1
1.310641546E1,3.583463189E0,1.248943161E1,-2.168133531E1,2.527661787E1
1.311636146E1,1.782752610E0,1.392381325E1,-2.068704669E1,2.500009366E1
1.312630746E1,5.075032353E-1,1.702902858E1,-2.018612274E1,2.641448325E1
1.313625446E1,-1.897295910E0,2.331729269E1,-1.923574672E1,3.028712304E1
1.314620046E1,-5.089210682E0,2.973725949E1,-1.023660350E1,3.185895037E1
1.315614746E1,-5.169864836E0,3.109407080E1,4.663732772E0,3.186407294E1
1.316609346E1,-5.090507010E0,3.107800967E1,1.323847865E1,3.416157583E1
1.317604046E1,-5.833082348E0,2.417017224E1,9.839219706E0,2.674008826E1
1.318598646E1,-5.567650917E0,1.618909242E1,2.985678944E0,1.737813940E1
1.319593346E1,-6.034731181E0,1.306692952E1,4.314672124E-1,1.439961081E1
1.320587946E1,-6.618224246E0,1.043555852E1,-2.504885790E0,1.260857750E1
1.321582646E1,-8.155101730E0,5.941717182E0,-3.997713275E0,1.085317459E1
1.322577246E1,-3.500678310E0,2.163674444E-1,-9.725784892E-1,3.639707738E0
1.323571846E1,3.957649323E0,-5.946908925E0,2.928001424E0,7.720227086E0
1.324566546E1,2.796960059E0,-1.774667840E1,1.207508037E1,2.164659663E1
1.325561146E1,-2.836089626E0,-3.916875519E1,2.044800784E1,4.427590554E1
1.326555846E1,8.022762283E0,-5.363004918E1,2.441199905E1,5.946841672E1
1.327550446E1,2.909931423E1,-3.064974322E1,1.321894544E1,4.428224663E1
1.328545146E1,2.356325933E1,1.292205423E-1,-1.509878551E1,2.798601815E1
1.329539746E1,1.632970509E1,1.003464535E1,-1.906274632E1,2.703223396E1
1.330534446E1,3.652041673E0,3.036663156E0,-7.881122255E0,9.201674820E0
1.331529046E1,-6.472996951E0,-5.220742629E0,-2.244618620E0,8.613602955E0
1.332523646E1,-1.033660024E1,-1.102018536E1,3.921042244E0,1.560975215E1
1.333518346E1,-1.303158194E1,-1.751751667E1,8.425185206E0,2.340233458E1
1.334512946E1,-1.032696169E1,-1.805227962E1,8.415882286E0,2.243564156E1
1.335507646E1,-5.382330433E0,-1.008691010E1,7.119708942E0,1.346868560E1
1.336502246E1,-3.012731380E0,-2.754344966E0,7.765877727E0,8.773358732E0
1.337496946E1,-2.720598346E-1,-5.468088037E-1,7.976430700E0,7.999778943E0
1.338491546E1,3.535179221E0,-2.367288526E0,7.219567106E0,8.379958013E0
1.339486246E1,6.855575008E0,-4.650242661E0,7.216431829E0,1.098638038E1
1.340480846E1,8.714663896E0,-5.578544279E0,6.691466469E0,1.232238802E1
1.341475446E1,7.840913876E0,-6.840616077E0,4.182289408E0,1.121452199E1
1.342470146E1,4.972479208E0,-8.231165235E0,8.793651009E-1,9.656651261E0
1.343464746E1,1.853061870E0,-9.070571049E0,-5.928953880E-1,9.276886460E0
1.344459446E1,-3.320484665E-1,-9.163293856E0,2.896774954E-1,9.173882685E0
1.345454046E1,-1.298404934E0,-8.471754770E0,1.766050331E0,8.750738142E0
1.346448746E1,-1.511595878E0,-7.509895982E0,2.695243649E0,8.120824963E0
1.347443346E1,-1.442487929E0,-6.232502140E0,3.409050102E0,7.248894878E0
1.348438046E1,-1.332814628E0,-4.952257197E0,3.854734819E0,6.415623641E0
1.349432646E1,-1.154805796E0,-4.002716153E0,3.933472840E0,5.729530662E0
1.350427346E1,-7.828547600E-1,-3.398378933E0,3.591057553E0,5.005750223E0
1.351421946E1,-1.890027675E-1,-3.061119136E0,2.733630620E0,4.108394915E0
1.352416546E1,2.590566503E-1,-2.809225763E0,1.413786578E0,3.155574785E0
1.353411246E1,4.659134522E-1,-2.592974678E0,-2.145390201E-1,2.643221523E0
1.354405846E1,3.489461888E-1,-2.344500173E0,-1.749450670E0,2.946018016E0
1.355400508E1,1.386560480E-1,-1.818933719E0,-2.759760073E0,3.308174879E0
1.356395108E1,-1.967485741E-2,-1.060384957E0,-3.169173342E0,3.341925048E0
1.357389808E1,-1.373703915E-1,2.877239406E-2,-3.129247384E0,3.132393281E0
1.358384408E1,-4.264872850E-1,1.341139017E0,-2.815320316E0,3.147471008E0
1.359379108E1,-8.138175210E-1,2.638996943E0,-2.387418151E0,3.650529996E0
1.360373708E1,-1.046725277E0,3.867386439E0,-2.098020152E0,4.522609892E0
1.361368308E1,-1.203100727E0,5.069057668E0,-1.881980152E0,5.539372374E0
1.362363008E1,-1.243601905E0,6.179176118E0,-1.577390503E0,6.497455194E0
1.363357608E1,-1.264395042E0,7.157845067E0,-1.284607551E0,7.381304586E0
1.364352308E1,-1.257616950E0,8.034419877E0,-1.269832222E0,8.230794435E0
1.365346908E1,-1.283833672E0,8.907108627E0,-1.108166065E0,9.067129922E0
1.366341608E1,-1.219204251E0,9.628557390E0,-9.598806757E-1,9.752791771E0
1.367336208E1,-1.046859470E0,1.023572875E1,-1.033459699E0,1.034089439E1
1.368330908E1,-8.995663539E-1,1.071988406E1,-1.099367759E0,1.081359068E1
1.369325508E1,-7.860542102E-1,1.094715714E1,-1.257711529E0,1.104717018E1
1.370320108E1,-6.499819006E-1,1.089256988E1,-1.466861170E0,1.101009703E1
1.371314808E1,-4.380647720E-1,1.057230969E1,-1.649425861E0,1.070916610E1
1.372309408E1,-1.296173490E-1,9.857664163E0,-1.664439756E0,9.998034963E0
1.373304108E1,1.152635309E-1,8.793580257E0,-1.630010766E0,8.944119550E0
1.374298708E1,2.304374532E-1,7.534255482E0,-1.632097637E0,7.712447717E0
1.375293408E1,4.159589347E-1,6.220098442E0,-1.676050572E0,6.455369237E0
1.376288008E1,6.313452163E-1,4.719093626E0,-1.679018034E0,5.048518891E0
1.377282708E1,7.828956905E-1,3.183346993E0,-1.530586465E0,3.617916343E0
1.378277308E1,5.311373886E-1,1.831200008E0,-1.364088753E0,2.344384465E0
1.379272008E1,-3.218266565E-1,9.247839332E-1,-1.177975388E0,1.531804078E0
1.380266608E1,-7.803122444E-1,5.724646318E-1,-9.633989453E-1,1.365555009E0
1.381261208E1,-6.334328185E-1,7.235128301E-1,-6.569183064E-1,1.164581303E0
1.382255908E1,-2.915355943E-1,1.005916974E0,-5.050555909E-1,1.162730885E0
1.383250508E1,-8.580423519E-2,1.249036015E0,-9.396767914E-1,1.565389985E0
1.384245208E1,-2.740597285E-1,2.051503213E0,-1.305786751E0,2.447213355E0
1.385239808E1,-2.844480380E-1,3.144753031E0,-2.210037017E0,3.854172534E0
1.386234508E1,4.133686182E-1,4.065205346E0,-4.080111653E0,5.774433238E0
1.387229108E1,1.584682858E0,4.853150400E0,-5.850013545E0,7.764466952E0
1.388223808E1,1.407748159E0,5.293150454E0,-5.140973158E0,7.511910651E0
1.389218408E1,3.042560658E-1,4.537422974E0,-4.297221694E0,6.256747820E0
1.390213008E1,-7.617843184E-1,4.711870560E0,-2.686395058E0,5.477112189E0
1.391207708E1,-2.205558927E0,4.864730811E0,-1.875297954E0,5.660992709E0
1.392202308E1,-3.001774575E0,5.181370987E0,-1.813667132E0,6.256727928E0
1.393197008E1,-2.767402091E0,5.018055330E0,-2.771981923E0,6.365789614E0
1.394191608E1,-1.982383569E0,4.118916700E0,-3.376981632E0,5.683249453E0
1.395186308E1,-1.064841705E0,2.352560560E0,-3.478669390E0,4.332386152E0
1.396180908E1,-2.560907963E-1,5.586909306E-1,-3.883664503E0,3.931992882E0
1.397175608E1,3.729079324E-1,-7.937004679E-1,-4.456672341E0,4.542130460E0
1.398170208E1,5.110039634E-1,-2.137827412E0,-3.874967939E0,4.454975603E0
1.399164808E1,2.370089927E-1,-3.389582382E0,-2.915046918E0,4.476934277E0
1.400159508E1,-6.328690007E-1,-4.154547878E0,-2.096142612E0,4.696233074E0
1.401154108E1,-2.302347303E0,-3.982861932E0,-6.940937340E-1,4.652500229E0
1.402148808E1,-3.562186341E0,-2.706031178E0,1.216138995E-1,4.475105161E0
1.403143408E1,-3.533644035E0,-3.835124427E-1,4.143629372E-1,3.578465956E0
1.404138108E1,-3.209027964E0,1.559614382E0,1.005201859E0,3.706843438E0
1.405132708E1,-2.287590977E0,2.742958391E0,2.504184709E0,4.362090585E0
1.406127408E1,-1.721202187E0,3.190971762E0,4.114797921E0,5.484195446E0
1.407122008E1,-7.094251335E-1,3.319138636E0,3.731277292E0,5.044045553E0
1.408116608E1,8.497641563E-1,3.297724670E0,3.196451772E0,4.670587871E0
1.409111308E1,2.720082037E0,2.729171534E0,3.278934351E0,5.059509267E0
1.410105908E1,3.846855111E0,9.628665563E-1,4.189846349E0,5.768900994E0
1.411100608E1,2.965586742E0,-1.926129554E0,5.328918457E0,6.395471187E0
1.412095208E1,1.482702447E0,-5.943842645E0,6.526218892E0,8.950933190E0
1.413089908E1,1.101908959E0,-1.039704408E1,8.107066269E0,1.323016449E1
1.414084508E1,3.354808406E0,-1.182237657E1,1.067493066E1,1.627812864E1
1.415079208E1,7.485929414E0,-8.312071989E0,1.314000569E1,1.725657641E1
1.416073808E1,8.542211380E0,-5.499097576E0,1.273574323E1,1.629136597E1
1.417068508E1,8.538857417E0,-5.556043609E0,1.093526040E1,1.494528777E1
1.418063108E1,8.887222831E0,-5.484184252E0,8.844681998E0,1.368529891E1
1.419057708E1,8.907495128E0,-4.188533942E0,4.916617833E0,1.100274588E1
1.420052408E1,1.045720725E1,-3.101967784E0,1.679978147E0,1.103620017E1
1.421047008E1,1.249485666E1,-4.318529825E0,9.067686617E-1,1.325116493E1
1.422041708E1,1.087623744E1,-5.775087909E0,2.590577905E0,1.258392923E1
1.423036308E1,8.512125117E0,-4.597925869E0,3.835223830E0,1.040702350E1
1.424031008E1,6.507614806E0,-2.778503907E0,4.243800947E0,8.250998782E0
1.425025608E1,4.328265147E0,-1.481578173E0,4.218169093E0,6.222692629E0
1.426020308E1,2.628169069E0,-6.664466366E-1,3.802685244E0,4.670314641E0
1.427014908E1,1.800700931E0,5.208831266E-2,3.430935645E0,3.875120183E0
1.428009508E1,1.717303264E0,7.825441267E-1,3.264856009E0,3.771046350E0
1.429004208E1,1.922372133E0,1.031059709E0,3.129800531E0,3.815003290E0
1.429998808E1,1.907864606E0,8.903688298E-1,2.140899539E0,3.002691267E0
1.430993508E1,1.563989269E0,5.405753794E-1,1.021005714E-1,1.657923008E0
1.431988108E1,1.010512885E0,-2.570289820E-3,-2.049695839E0,2.285256206E0
1.432982808E1,5.210921645E-2,-6.153522044E-1,-3.979830151E0,4.027458471E0
1.433977408E1,-1.141326209E0,-9.755020970E-1,-5.356945916E0,5.563371226E0
1.434972108E1,-2.242213660E0,-1.050266351E0,-5.992068726E0,6.483476623E0
1.435966708E1,-3.173188625E0,-8.178269568E-1,-6.103223711E0,6.927287106E0
1.436961308E1,-3.972802382E0,-1.163248006E-1,-5.907013958E0,7.119656180E0
1.437956008E1,-4.920026760E0,1.054504997E0,-5.478818262E0,7.438823405E0
1.438950608E1,-6.036619247E0,2.367317762E0,-4.877450843E0,8.113845700E0
1.439945308E1,-6.863885071E0,3.572247937E0,-4.091660489E0,8.753031426E0
1.440939908E1,-7.504855682E0,4.541787044E0,-3.400109124E0,9.408051361E0
1.441934608E1,-7.884500191E0,5.151268936E0,-2.976603481E0,9.877301413E0
1.442929208E1,-7.719519247E0,5.281101682E0,-2.726317508E0,9.742372377E0
1.443923908E1,-7.030983877E0,5.042480319E0,-2.834016788E0,9.104558924E0
1.444918508E1,-6.104480277E0,4.672826362E0,-3.105060961E0,8.291042711E0
1.445913108E1,-5.144910089E0,4.318624842E0,-3.473406311E0,7.562087791E0
1.446907808E1,-4.325255000E0,3.960994807E0,-3.783623321E0,6.979478212E0
1.447902408E1,-3.833756179E0,3.475722393E0,-4.045502568E0,6.568441491E0
1.448897108E1,-3.666993003E0,2.919305737E0,-4.171921125E0,6.274879246E0
1.449891708E1,-3.686894587E0,2.349078543E0,-4.062624385E0,5.967937549E0
1.450886408E1,-3.838636850E0,1.741890805E0,-3.668587539E0,5.588188523E0
1.451881008E1,-3.812961141E0,8.645704758E-1,-2.960373364E0,4.904076389E0
1.452875708E1,-3.384010570E0,-4.604407507E-1,-1.767096398E0,3.845278001E0
1.453870308E1,-2.171444516E0,-2.320834737E0,-2.259229642E-1,3.186296651E0
1.454865008E1,1.258408517E-2,-4.687381251E0,1.303372436E0,4.865231861E0
1.455859650E1,2.836500685E0,-7.167112319E0,2.696387950E0,8.166011457E0
1.456854250E1,4.657232130E0,-8.874502214E0,3.524916773E0,1.062410650E1
1.457848950E1,5.281384102E0,-9.089599643E0,3.541974270E0,1.109321511E1
1.458843550E1,5.342827229E0,-8.222963930E0,3.327941034E0,1.035558449E1
1.459838250E1,5.178132214E0,-6.627144173E0,3.022803501E0,8.936970075E0
1.460832850E1,4.177587369E0,-5.044251441E0,2.159287278E0,6.896320060E0
1.461827550E1,2.364140385E0,-4.015518047E0,8.762532127E-1,4.741451744E0
1.462822150E1,1.386380971E0,-3.609790277E0,-8.646540910E-1,3.962355958E0
1.463816850E1,1.468100195E0,-2.937033618E0,-1.863973652E0,3.775696284E0
1.464811450E1,1.358228674E0,-2.249072444E0,-7.950166762E-1,2.745025228E0
1.465806050E1,1.300436549E0,-1.848114833E0,2.381176248E0,3.282782962E0
1.466800750E1,1.887233583E0,-1.166676228E0,6.571212047E0,6.935676736E0
1.467795350E1,2.032270844E0,-3.015338945E-1,8.806208489E0,9.042696247E0
1.468790050E1,2.551807356E0,6.950064844E-1,9.717251465E0,1.007073636E1
1.469784650E1,3.137778179E0,1.658996583E0,8.436462146E0,9.152694418E0
1.470779350E1,3.581351175E0,2.411872376E0,4.686642748E0,6.372426919E0
1.471773950E1,3.877405059E0,2.528621392E0,1.755592001E0,4.950787756E0
1.472768650E1,2.993051113E0,1.299862937E0,3.183873242E-1,3.278623051E0
1.473763250E1,1.023345989E0,-1.371645695E0,-4.922361553E0,5.211361836E0
1.474757850E1,1.433628227E0,-2.373460847E0,-5.718064107E0,6.354908609E0
1.475752550E1,2.532641353E0,-9.747197396E-1,-1.153208921E0,2.948599940E0
1.476747150E1,3.088679987E0,7.280081695E-1,2.503444451E0,4.041927025E0
1.477741850E1,3.174953607E0,1.180351696E0,4.072811697E0,5.297297014E0
1.478736450E1,1.737337871E0,3.283503950E-1,3.148100561E0,3.610636233E0
1.479731150E1,-8.104477707E-1,-7.533032244E-1,1.178679685E0,1.616656159E0
1.480725750E1,-2.480692643E0,-6.927348411E-1,1.079367943E0,2.792624698E0
1.481720450E1,-2.441275392E0,5.535898197E-1,2.444901543E0,3.499118573E0
1.482715050E1,-1.378725504E0,2.328559493E0,2.842043261E0,3.924319460E0
1.483709650E1,-1.413757342E-1,4.292342777E0,2.568125766E0,5.003944800E0
1.484704350E1,1.617555612E0,5.659563299E0,2.334859576E0,6.332354391E0
1.485698950E1,3.324499071E0,5.945701475E0,1.602181528E0,6.997902954E0
1.486693650E1,4.741123595E0,5.122780132E0,4.987759736E-1,6.997850148E0
1.487688250E1,5.826585506E0,3.652986583E0,-3.650492746E-1,6.886702448E0
1.488682950E1,6.274155951E0,2.144640588E0,-8.114593390E-1,6.680043593E0
1.489677550E1,5.780205392E0,1.093537501E0,-9.244538578E-1,5.954931869E0
1.490672150E1,4.868647568E0,5.703146106E-1,-1.086025290E0,5.020800616E0
1.491666850E1,3.719323245E0,3.019239038E-1,-9.929405406E-1,3.861405749E0
1.492661450E1,2.163543759E0,-1.905935025E-1,-2.731649584E-1,2.189033251E0
1.493656150E1,5.872124791E-1,-5.295308661E-1,4.888558799E-1,9.296243893E-1
1.494650750E1,-3.027074307E-1,-8.600213420E-1,8.541226709E-1,1.249317427E0
1.495645450E1,-4.959251636E-1,-9.285419387E-1,1.401010997E0,1.752416535E0
1.496640050E1,-4.462369868E-1,-8.734026951E-1,1.820884642E0,2.068231273E0
1.497634750E1,-3.239068034E-1,-8.002592897E-1,1.693480538E0,1.900843728E0
1.498629350E1,-3.110631019E-2,-4.491591328E-1,8.783032465E-1,9.869792916E-1
1.499624050E1,1.786572888E-1,7.087527037E-2,-1.411313206E-2,1.927197740E-1
1.500618650E1,4.102675474E-1,5.304582345E-1,-2.811481619E-1,7.271517640E-1
1.501613250E1,6.674175668E-1,4.809890360E-1,-4.671439987E-1,9.460550601E-1
1.502607950E1,6.775949380E-1,2.199704987E-1,-6.744096673E-1,9.809945563E-1
1.503602550E1,2.514808515E-1,-8.629730165E-2,-6.899047887E-1,7.393635509E-1
1.504597250E1,-3.182727188E-1,-3.871137428E-1,-3.207823437E-1,5.950259536E-1
1.505591850E1,-7.676043445E-1,-5.845601821E-1,-2.438347399E-2,9.651536613E-1
1.506586550E1,-1.106894588E0,-5.940923131E-1,4.952767074E-2,1.257224839E0
1.507581150E1,-1.179842111E0,-5.013326687E-1,2.308232233E-1,1.302551808E0
1.508575850E1,-1.285693671E0,-3.883030665E-1,4.448345321E-1,1.414802194E0
1.509570450E1,-1.432334531E0,-3.531051672E-1,5.481536633E-1,1.573765518E0
1.510565050E1,-1.903337107E0,-2.148191017E-1,1.407900186E0,2.377187903E0
1.511559750E1,-1.739909769E0,-1.108491755E-1,1.247884113E0,2.144012197E0
1.512554350E1,-1.710852323E0,1.773442966E-1,8.876228312E-1,1.935546683E0
1.513549050E1,-1.638449175E0,4.151721919E-1,8.143005010E-1,1.876158030E0
1.514543650E1,-1.500166618E0,3.925382048E-1,6.520879215E-1,1.682202360E0
1.515538350E1,-1.431261859E0,5.199016714E-1,6.994796044E-1,1.675732668E0
1.516532950E1,-1.181656795E0,6.904415631E-1,5.861073554E-1,1.488806288E0
1.517527550E1,-9.807210293E-1,7.411223048E-1,7.295287380E-1,1.429436318E0
1.518522250E1,-8.116446957E-1,7.129527587E-1,6.949708164E-1,1.284543959E0
1.519516850E1,-6.025541112E-1,7.259242219E-1,5.409525248E-1,1.087504973E0
1.520511550E1,-3.305758452E-1,8.150141537E-1,3.614754564E-1,9.508906171E-1
1.521506150E1,-2.195395589E-2,9.006226534E-1,1.449653399E-1,9.124790900E-1
1.522500850E1,1.846451300E-1,9.500526756E-1,6.152060241E-2,9.697828082E-1
1.523495450E1,2.022569436E-1,9.074422610E-1,1.111655098E-1,9.363317248E-1
1.524490150E1,6.995666365E-2,6.652336317E-1,7.741333455E-2,6.733665747E-1
1.525484750E1,-2.293675590E-1,4.307158452E-1,-8.246182054E-2,4.948995537E-1
1.526479350E1,-5.119684616E-1,3.791597754E-1,-2.999224019E-1,7.041500466E-1
1.527474050E1,-7.089696354E-1,5.051444685E-1,-5.837898114E-1,1.048150477E0
1.528468650E1,-7.004195443E-1,7.557339120E-1,-8.846293491E-1,1.358046527E0
1.529463350E1,-4.817088282E-1,1.111948628E0,-1.278547497E0,1.761577943E0
1.530457950E1,-2.610789098E-1,1.403249896E0,-1.875742927E0,2.357049850E0
1.531452650E1,-2.106360036E-1,1.427459707E0,-2.380692683E0,2.783829448E0
1.532447250E1,-3.292346402E-1,1.356278043E0,-2.639872271E0,2.986103010E0
1.533441950E1,-7.474334239E-1,1.349885282E0,-2.792101023E0,3.190090143E0
1.534436550E1,-1.611647146E0,1.220168896E0,-2.910557426E0,3.543665219E0
1.535431150E1,-2.804532495E0,1.085379465E0,-2.614427235E0,3.984806253E0
1.536425850E1,-3.809905678E0,1.375489070E0,-2.062879848E0,4.545637989E0
1.537420450E1,-4.364755281E0,2.118505288E0,-1.346771640E0,5.035171016E0
1.538415150E1,-4.883913186E0,3.913243228E0,-9.052352294E-1,6.323411373E0
1.539409750E1,-5.276181250E0,6.538171186E0,2.099454474E-1,8.404156598E0
1.540404450E1,-3.943035961E0,9.332821594E0,2.785591610E0,1.050755024E1
1.541399050E1,-1.587123193E0,9.425684150E0,4.783820256E0,1.068865838E1
1.542393750E1,-2.386973032E-1,9.781265613E0,6.444245607E0,1.171573450E1
1.543388350E1,5.808081700E-1,1.061159713E1,8.464508316E0,1.358643562E1
1.544382950E1,3.116015427E0,8.805651249E0,1.010449969E1,1.376044913E1
1.545377650E1,6.501689238E0,5.635568081E0,8.057992927E0,1.178825011E1
1.546372250E1,8.303103529E0,2.492858652E0,5.185795575E0,1.010189825E1
1.547366950E1,9.826662226E0,2.543842864E-1,2.566858674E0,1.015956521E1
1.548361550E1,1.115922279E1,-6.696453559E-1,3.231873035E-1,1.118396747E1
1.549356250E1,1.168285733E1,-1.557672522E0,-1.728259192E0,1.191227849E1
1.550350850E1,1.162598614E1,-2.517895260E0,-3.686496976E0,1.245365851E1
1.551345550E1,1.022441322E1,-2.870451958E0,-5.388351311E0,1.190850327E1
1.552340150E1,6.056763489E0,-1.728069157E0,-5.580433515E0,8.414977432E0
1.553334750E1,2.023522824E0,-5.106823665E-1,-5.104799944E0,5.514927340E0
1.554329450E1,-9.010277192E-1,-8.121981347E-1,-3.541647411E0,3.743632346E0
1.555323996E1,-2.517853452E0,-2.153424275E0,-8.473469174E-1,3.419768839E0
1.556318696E1,-3.028070673E0,-3.586214304E0,1.929185309E0,5.074633089E0
1.557313296E1,-3.189728644E0,-4.140371888E0,4.546298463E0,6.927183981E0
1.558307996E1,-3.764597358E0,-4.051078473E0,7.096051108E0,8.996519960E0
1.559302596E1,-4.159929070E0,-4.252326772E0,9.396577295E0,1.112128400E1
1.560297296E1,-3.826248646E0,-6.498537004E0,9.242990236E0,1.192912530E1
1.561291896E1,-3.647508911E0,-9.711441672E0,7.660105104E0,1.289548878E1
1.562286496E1,-2.893220431E0,-1.376728796E1,5.542727160E0,1.512054122E1
1.563281196E1,-1.849936972E0,-1.884782606E1,3.778858425E0,1.931172144E1
1.564275796E1,-9.226643175E-2,-2.292331198E1,2.500262981E0,2.305944622E1
1.565270496E1,2.535143961E0,-2.291971477E1,1.787538849E0,2.312867431E1
1.566265096E1,3.937923156E0,-2.003348235E1,1.139804764E0,2.044863831E1
1.567259796E1,4.996888994E0,-1.717805072E1,9.766545832E-2,1.789032880E1
1.568254396E1,7.404011092E0,-1.560131393E1,2.517471921E-1,1.727089324E1
1.569249096E1,1.023925580E1,-1.594772404E1,4.259216254E0,1.942455107E1
1.570243696E1,1.195165500E1,-1.765963675E1,1.349131108E1,2.523331730E1
1.571238296E1,1.221121407E1,-1.921189826E1,1.873058704E1,2.947958064E1
1.572232996E1,1.288126639E1,-1.956756451E1,1.939487284E1,3.041344599E1
1.573227596E1,1.321266436E1,-1.839536851E1,1.973396223E1,3.003986264E1
1.574222296E1,9.541229224E0,-1.595014362E1,1.699387278E1,2.518399985E1
1.575216896E1,4.442894547E0,-1.248345692E1,1.387901890E1,1.918862096E1
1.576211596E1,1.640550372E-1,-7.995072209E0,1.094554331E1,1.355555281E1
1.577206196E1,-3.256993843E0,-4.449217726E0,6.611153208E0,8.608768437E0
1.578200796E1,-7.677444438E0,-2.254470593E0,-9.495825595E0,1.241758811E1
1.579195496E1,-1.215796699E1,2.070233014E0,-3.332801357E1,3.553672065E1
1.580190096E1,-6.110902274E0,7.834169698E0,-1.643459011E1,1.920450711E1
1.581184796E1,-3.858367694E0,9.501740053E0,-4.631642084E0,1.125265185E1
1.582179396E1,-3.020879767E0,9.213295736E0,7.975735174E-1,9.728651314E0
1.583174096E1,-2.833416279E0,8.656903930E0,2.476700749E0,9.439506347E0
1.584168696E1,-2.558493648E0,9.020153432E0,1.128858776E0,9.443695242E0
1.585163396E1,-1.993401770E0,1.037620226E1,-2.293529409E0,1.081200727E1
1.586157996E1,-1.171043221E0,1.391854959E1,-4.196042936E0,1.458438004E1
1.587152596E1,-1.190683507E-1,1.951359471E1,-4.085867360E0,1.993712286E1
1.588147296E1,2.550028341E0,2.368275069E1,-1.066129847E0,2.384348878E1
1.589141896E1,4.920827243E0,2.291896399E1,2.861145237E0,2.361524091E1
1.590136596E1,4.221915696E0,1.891356630E1,4.956529757E0,2.000286854E1
1.591131196E1,1.699559741E0,1.340527632E1,1.025833175E0,1.355146746E1
1.592125896E1,8.304641055E-1,9.800003015E0,-3.746530631E0,1.052455327E1
1.593120496E1,-6.795943934E-1,7.942726765E0,-4.704744558E0,9.256531659E0
1.594115196E1,-2.839510247E0,6.761769882E0,-5.116628276E0,8.942272379E0
1.595109796E1,-6.058970228E0,3.746309899E0,-7.890950840E0,1.063076024E1
1.596104396E1,-7.697893905E0,1.164249049E0,-1.244939455E1,1.468333992E1
1.597099096E1,-6.633751527E0,-3.619525892E-1,-1.374517146E1,1.526654536E1
1.598093696E1,-4.984870042E0,-1.713252897E0,-1.011119125E1,1.140264677E1
1.599088396E1,-3.782770212E0,-4.128489177E0,-6.548385102E0,8.615980548E0
1.600082996E1,-3.590160005E0,-8.266014056E0,-3.172912636E0,9.554245749E0
1.601077696E1,-4.834968775E0,-1.634703741E1,1.544045001E-1,1.704776806E1
1.602072296E1,-1.597330093E0,-1.841640445E1,2.052510104E0,1.859914552E1
1.603066996E1,7.427511637E0,-5.071241603E0,1.690513076E0,9.151134081E0
1.604061596E1,9.729534127E0,7.879894924E0,-3.528407561E0,1.300792982E1
1.605056196E1,7.156182704E0,1.477598880E1,-8.210146249E0,1.835612424E1
1.606050896E1,5.564387586E0,1.735282867E1,-1.006805634E1,2.081943396E1
1.607045496E1,2.761147032E0,1.831743682E1,-1.136013663E1,2.173028138E1
1.608040196E1,-1.563851275E0,1.932430163E1,-1.269353335E1,2.317326160E1
1.609034796E1,-6.117047113E0,2.177849966E1,-1.359256147E1,2.639088934E1
1.610029496E1,-1.004429325E1,2.433947019E1,-1.013190092E1,2.821263993E1
1.611024096E1,-9.279196780E0,2.532010438E1,-3.200737782E0,2.715613929E1
1.612018796E1,-6.827770329E0,2.506828820E1,9.386529440E-1,2.599843438E1
1.613013396E1,-5.816655765E0,2.224950925E1,3.102655417E-1,2.299935675E1
1.614008096E1,-4.882150543E0,1.776159816E1,-2.948187767E0,1.865480030E1
1.615002696E1,-4.819177785E0,1.472477187E1,-4.858479552E0,1.623724745E1
1.615997296E1,-4.399951426E0,1.317188938E1,-4.470353072E0,1.458911577E1
1.616991996E1,-3.343919428E0,1.205972324E1,-3.384994656E0,1.296444795E1
1.617986596E1,-5.079656332E0,9.263240898E0,-1.218751531E0,1.063465541E1
1.618981296E1,-4.321909223E0,2.574803286E0,1.280042630E0,5.191051958E0
1.619975896E1,2.911404687E-1,-3.986548601E0,4.459527537E0,5.988715920E0
1.620970596E1,2.618366797E0,-1.264288477E1,1.061216080E1,1.671275970E1
1.621965196E1,9.173807734E-1,-2.776410019E1,1.874811349E1,3.351385693E1
1.622959896E1,4.324620577E0,-4.436186621E1,2.435308718E1,5.079124307E1
1.623954496E1,2.283132826E1,-3.867528995E1,2.048995576E1,4.936482442E1
1.624949096E1,2.576149900E1,-1.347088793E1,9.468139029E-1,2.908635606E1
1.625943796E1,1.862344734E1,3.345697859E0,-2.344415388E1,3.012731047E1
1.626938396E1,1.157705196E1,2.448270124E0,-1.804984952E1,2.158284565E1
1.627933096E1,-1.162648666E0,-3.409254754E0,-7.938472331E0,8.717460229E0
1.628927696E1,-7.774475473E0,-5.677396138E0,-1.690435892E0,9.774091738E0
1.629922396E1,-9.030816414E0,-6.947996099E0,3.966037738E0,1.206481455E1
1.630916996E1,-7.149275973E0,-9.243563263E0,7.289885137E0,1.377309094E1
1.631911596E1,-6.425959609E0,-1.087903123E1,7.275389889E0,1.458004031E1
1.632906296E1,-4.697438170E0,-8.279609417E0,7.901083480E0,1.237113486E1
1.633900896E1,-1.488012888E0,-4.185575543E0,9.032922581E0,1.006612713E1
1.634895596E1,6.604810148E-1,-2.398387527E0,8.489439674E0,8.846416443E0
1.635890196E1,1.866721258E0,-2.195605504E0,6.168519568E0,6.808521531E0
1.636884896E1,2.441426251E0,-1.437681810E0,4.141029115E0,5.017530594E0
1.637879496E1,2.761241173E0,-3.476473761E-1,3.374449203E0,4.374039201E0
1.638874196E1,2.392956634E0,-6.388925099E-1,2.828899890E0,3.759933467E0
1.639868796E1,2.204404979E0,-2.326320595E0,2.171047783E0,3.870996938E0
1.640863396E1,2.214322441E0,-4.862102487E0,1.460076646E0,5.538509572E0
1.641858096E1,2.606021278E0,-6.849401518E0,2.456368518E0,7.729126364E0
1.642852696E1,2.319340773E0,-7.418368345E0,4.360792038E0,8.912240893E0
1.643847396E1,1.876908277E0,-6.894359005E0,4.789954863E0,8.602246123E0
1.644841996E1,1.659277250E0,-5.938891223E0,4.404368412E0,7.577736540E0
1.645836696E1,1.451101170E0,-4.996493722E0,4.677099507E0,6.996134927E0
1.646831296E1,1.356040353E0,-4.224881111E0,4.690616516E0,6.456806420E0
1.647825996E1,1.204835742E0,-3.711503763E0,4.241533397E0,5.763462059E0
