"Time (s)","Linear Acceleration x (m/s^2)","Linear Acceleration y (m/s^2)","Linear Acceleration z (m/s^2)","Absolute acceleration (m/s^2)"
1.043875003E-3,-3.452669746E-1,-4.360467517E-1,-2.057050467E-1,5.930097973E-1
1.099087496E-2,-8.740227923E-1,-2.306831825E-1,-1.233785892E-1,9.123337374E-1
2.093687491E-2,-1.636819556E0,1.833102107E-2,-1.911367089E-1,1.648043545E0
3.088287497E-2,-2.313901401E0,1.860613257E-1,-3.289093888E-1,2.344555373E0
4.082887492E-2,-2.781904940E0,3.005673498E-1,-2.162177557E-1,2.806436521E0
5.077487498E-2,-2.837647032E0,2.106897980E-1,2.636591399E-1,2.857647111E0
6.072087493E-2,-2.494022248E0,-2.078106290E-1,7.087924647E-1,2.601099573E0
7.066787500E-2,-2.276436828E0,-5.839625967E-1,9.756780982E-1,2.544626633E0
8.061387495E-2,-2.039973673E0,-8.289632714E-1,1.274433981E0,2.544180549E0
9.055987501E-2,-1.451434753E0,-9.239933896E-1,1.346778949E0,2.185003470E0
1.005058750E-1,-6.587443918E-1,-8.836411697E-1,1.153825510E0,1.595643819E0
1.104518749E-1,-1.388959301E-1,-8.362933409E-1,7.923117542E-1,1.160360525E0
1.203978750E-1,4.325653195E-1,-6.179863751E-1,5.651667219E-1,9.425674188E-1
1.303448749E-1,9.140352890E-1,-4.109487480E-1,3.004205847E-1,1.046227466E0
1.402908750E-1,1.071730894E0,-1.481380391E-1,-3.244619966E-3,1.081925375E0
1.502368749E-1,1.183567665E0,1.551412493E-1,-1.188721400E-1,1.199596520E0
1.601828750E-1,1.056782195E0,2.964064711E-1,-3.234387338E-2,1.098039858E0
1.701288749E-1,5.570759296E-1,2.788192159E-1,-1.394268572E-2,6.231116634E-1
1.800758749E-1,7.186169565E-2,2.431395060E-1,-7.531798482E-3,2.536486757E-1
1.900218750E-1,-3.997551307E-1,9.299821079E-2,1.095089936E-1,4.247882430E-1
1.999678749E-1,-7.651651785E-1,-2.366081661E-1,2.595137563E-1,8.419076935E-1
2.099138750E-1,-1.020775041E0,-5.383554840E-1,3.339511505E-1,1.201387399E0
2.198599583E-1,-1.142457061E0,-9.315789825E-1,3.599522567E-1,1.517436379E0
2.298059583E-1,-1.184112917E0,-1.183549538E0,3.255870008E-1,1.705555571E0
2.397529583E-1,-1.181051315E0,-1.280412174E0,2.658816665E-1,1.762109703E0
2.496989582E-1,-1.155986348E0,-1.244816079E0,1.738418144E-1,1.707657016E0
2.596449583E-1,-1.126618708E0,-1.122203475E0,-3.494237602E-2,1.590544348E0
2.695909583E-1,-1.058836907E0,-9.244243294E-1,-2.072533894E-1,1.420791999E0
2.795369583E-1,-9.457783610E-1,-6.510892171E-1,-2.738356340E-1,1.180423581E0
2.894839583E-1,-8.172053978E-1,-4.228548485E-1,-2.640421325E-1,9.572612667E-1
2.994299583E-1,-7.557005829E-1,-2.267211092E-1,-3.001954669E-1,8.441582497E-1
3.093759583E-1,-7.187508577E-1,8.145639181E-2,-3.172523797E-1,7.898651857E-1
3.193219583E-1,-5.888812745E-1,2.290067858E-1,-3.628834659E-1,7.286354872E-1
3.292679583E-1,-4.633029628E-1,8.710480213E-2,-4.338712952E-1,6.406880541E-1
3.392139582E-1,-4.157884884E-1,-4.116030514E-2,-3.351659095E-1,5.356402008E-1
3.491609583E-1,-4.585158473E-1,-8.723987281E-2,-1.678232753E-1,4.959961990E-1
3.591069583E-1,-5.515131810E-1,-1.165016788E-1,-1.477948076E-1,5.827372780E-1
3.690529583E-1,-5.748543888E-1,-2.645689666E-1,-2.340146336E-1,6.746978251E-1
3.789989583E-1,-6.621056637E-1,-4.697343153E-1,-3.711464587E-1,8.926275431E-1
3.889449583E-1,-7.216633558E-1,-6.408875799E-1,-5.320393217E-1,1.102089256E0
3.988919583E-1,-7.790049532E-1,-6.850439984E-1,-6.305771846E-1,1.213985825E0
4.088379582E-1,-9.148790422E-1,-6.198452049E-1,-7.265329170E-1,1.322521009E0
4.187839583E-1,-1.016087913E0,-4.300510168E-1,-8.565413716E-1,1.396796924E0
4.287299583E-1,-1.066547922E0,-1.337854636E-1,-9.811610323E-1,1.455369366E0
4.386759583E-1,-1.000146942E0,1.785803980E-1,-1.066393264E0,1.472881345E0
4.486219583E-1,-8.411810285E-1,4.234647131E-1,-1.144866114E0,1.482439309E0
4.585689583E-1,-5.930164254E-1,6.229015446E-1,-1.156233686E0,1.441024341E0
4.685149583E-1,-3.157698181E-1,7.781474590E-1,-1.132317989E0,1.409740428E0
4.784609583E-1,-5.950243592E-2,9.451199645E-1,-1.204447487E0,1.532150788E0
4.884069583E-1,1.782161164E-1,1.115651085E0,-1.384040330E0,1.786618584E0
4.983529582E-1,4.220420855E-1,1.131761919E0,-1.588192357E0,1.995334439E0
5.082989583E-1,6.343290505E-1,9.644607997E-1,-1.626129969E0,1.994205770E0
5.182459583E-1,8.145826292E-1,6.473469990E-1,-1.560284766E0,1.875391038E0
5.281919583E-1,9.412052536E-1,2.077235055E-1,-1.521775880E0,1.801337896E0
5.381379583E-1,9.576245275E-1,-2.234162629E-1,-1.458383877E0,1.758932373E0
5.480839583E-1,8.443493423E-1,-5.284099549E-1,-1.351051509E0,1.678535991E0
5.580299583E-1,6.824571902E-1,-7.658525187E-1,-1.292612974E0,1.650189746E0
5.679759583E-1,4.042183104E-1,-9.467109919E-1,-1.330085440E0,1.681898161E0
5.779229583E-1,1.310556909E-1,-1.064400825E0,-1.399877222E0,1.763457101E0
5.878689582E-1,-1.570605978E-1,-1.068588016E0,-1.324089705E0,1.708731087E0
5.978149583E-1,-3.736394191E-1,-1.121223482E0,-1.177083687E0,1.668015143E0
6.077609583E-1,-5.369486439E-1,-1.062454872E0,-9.424211821E-1,1.518315476E0
6.177069583E-1,-5.767716908E-1,-9.180882865E-1,-8.787850571E-1,1.395641380E0
6.276539583E-1,-6.356338567E-1,-7.927374315E-1,-8.952739128E-1,1.354244592E0
6.375999583E-1,-5.917142504E-1,-7.525272989E-1,-8.548749152E-1,1.283446224E0
6.475459583E-1,-4.664347315E-1,-6.365571320E-1,-7.323473883E-1,1.076614619E0
6.574919582E-1,-3.258220589E-1,-5.159056842E-1,-6.067184982E-1,8.604801131E-1
6.674379583E-1,-6.243773818E-2,-5.573267752E-1,-4.883673450E-1,7.436492918E-1
6.773849583E-1,1.264097857E-1,-6.171817982E-1,-3.645312113E-1,7.278569983E-1
6.873309583E-1,3.311114502E-1,-6.332037538E-1,-3.576072308E-1,7.990398725E-1
6.972769583E-1,7.361434007E-1,-7.663202959E-1,-4.788366759E-1,1.165520684E0
7.072229583E-1,1.128617871E0,-1.060857997E0,-5.935938379E-1,1.658780164E0
7.171689583E-1,1.458895508E0,-1.299945382E0,-8.477082753E-1,2.129986718E0
7.271149583E-1,1.787096214E0,-1.618109343E0,-9.855563843E-1,2.604479240E0
7.370619583E-1,2.007829775E0,-2.017077146E0,-1.015634754E0,3.021836291E0
7.470079582E-1,2.201184332E0,-2.398634280E0,-1.068283961E0,3.426352214E0
7.569539583E-1,2.472190499E0,-2.788252385E0,-1.001356584E0,3.858599776E0
7.668999583E-1,2.864488383E0,-3.200869929E0,-8.092217557E-1,4.371006960E0
7.768459583E-1,3.185685879E0,-3.607956591E0,-4.070490937E-1,4.830283040E0
7.867919583E-1,3.437206199E0,-3.895101657E0,-2.261046664E-1,5.199742945E0
7.967389583E-1,3.622420263E0,-4.070272543E0,-1.663918038E-1,5.451305658E0
8.066849583E-1,3.840979829E0,-4.252585804E0,-1.322101506E-1,5.731936112E0
8.166309583E-1,4.095956438E0,-4.459905267E0,-1.880500368E-1,6.058298189E0
8.265769583E-1,4.212369239E0,-4.592847562E0,-1.060100198E-1,6.232940033E0
8.365229582E-1,4.301255688E0,-4.580703480E0,-7.205173016E-2,6.284014347E0
8.464699583E-1,4.268889011E0,-4.259248121E0,-3.202402155E-2,6.030392482E0
8.564159583E-1,4.251225742E0,-3.799748772E0,-1.023960751E-2,5.701851970E0
8.663619583E-1,4.194220067E0,-3.210773942E0,-9.788476545E-2,5.283004136E0
8.763079583E-1,3.855092084E0,-2.191520054E0,-1.776859201E-2,4.434502322E0
8.862539583E-1,3.238977402E0,-1.169237309E0,1.531479335E-1,3.446961675E0
8.961999583E-1,2.451386690E-2,-3.953401905E-1,7.435829593E-1,8.425024708E-1
9.061469582E-1,-3.131356475E0,6.417319179E-3,-1.623771787E-2,3.131405151E0
9.160929583E-1,-3.440862463E0,2.600315273E-1,-3.325729617E-1,3.466663477E0
9.260389582E-1,-2.257577804E0,5.591674787E-1,4.107999364E-1,2.361796434E0
9.359849583E-1,-1.849776027E0,1.132910897E0,8.352238852E-1,2.324383228E0
9.459309583E-1,-1.528662731E0,1.259755715E0,1.344920996E0,2.394286259E0
9.558779583E-1,-1.648628300E0,5.796859431E-1,2.771825218E0,3.276740164E0
9.658239583E-1,-7.692614454E-1,6.882938808E-1,3.782629879E0,3.920943820E0
9.757699583E-1,-7.435635173E-1,1.578927151E0,3.788848978E0,4.171483457E0
9.857159583E-1,-1.291772729E0,1.712551816E0,3.980868616E0,4.522037754E0
9.956619582E-1,-1.415139624E0,2.066552777E0,5.374709172E0,5.929650851E0
1.005607958E0,-2.184672965E0,3.034556404E0,6.423406715E0,7.432461393E0
1.015554958E0,-3.337364407E0,4.276126694E0,6.497164078E0,8.463829024E0
1.025500958E0,-5.038400717E0,6.011984342E0,5.978530083E0,9.862669997E0
1.035446958E0,-6.758235240E0,8.229891127E0,5.286089357E0,1.188896935E1
1.045392958E0,-7.748624933E0,1.051570046E1,4.353415775E0,1.376856468E1
1.055338958E0,-9.174563195E0,1.267637879E1,3.838263212E0,1.611196616E1
1.065285958E0,-1.086797883E1,1.448515063E1,3.648413183E0,1.847277649E1
1.075231958E0,-1.225429753E1,1.571911896E1,3.429294039E0,2.022420743E1
1.085177958E0,-1.361974400E1,1.729254154E1,3.026327033E0,2.221909257E1
1.095123958E0,-1.376055665E1,1.800763262E1,1.936048771E0,2.274590154E1
1.105069958E0,-1.365330000E1,1.789158995E1,6.480135816E-1,2.251536172E1
1.115015958E0,-1.220141531E1,1.615515518E1,-6.013533124E-1,2.025401689E1
1.124962958E0,-1.069764944E1,1.408886495E1,-2.340827537E0,1.784419492E1
1.134908958E0,-9.204766987E0,1.166348550E1,-3.598423290E0,1.528768392E1
1.144854958E0,-7.258880861E0,8.857365194E0,-3.403505187E0,1.194688734E1
1.154800958E0,-5.636221799E0,7.113144273E0,-1.932951793E0,9.279015048E0
1.164746958E0,-4.077437137E0,6.600002568E0,-3.557237257E0,8.534603939E0
1.174692958E0,-1.708746156E0,6.305393531E0,-1.047375487E1,1.234412176E1
1.184639958E0,-1.474242110E0,3.999387918E0,-9.350501236E0,1.027620391E1
1.194585958E0,-1.312917430E0,1.731339505E0,-4.479271830E0,4.978470125E0
1.204531958E0,-1.871507789E0,7.066020977E-1,-2.850637498E0,3.482522373E0
1.214477958E0,-2.237011100E0,8.078174007E-1,-5.646267316E-1,2.444502190E0
1.224424375E0,-3.231394148E0,1.487052190E0,5.888210481E-1,3.605543314E0
1.234371375E0,-3.937161849E0,1.990708542E0,1.601956995E0,4.693658502E0
1.244317375E0,-4.248391011E0,1.508222619E0,2.330562165E0,5.074946469E0
1.254263375E0,-3.405178660E0,-1.225181129E0,2.124118030E0,4.196211138E0
1.264209375E0,-9.296295208E-1,-4.694149404E0,1.831629778E0,5.123877176E0
1.274155375E0,1.245420097E0,-6.471593034E0,2.110737554E0,6.920101202E0
1.284101375E0,2.571974403E0,-7.162008870E0,2.492451686E0,8.007605059E0
1.294048375E0,4.074947977E0,-7.616595388E0,2.035643810E0,8.874771661E0
1.303994375E0,5.030929729E0,-7.500721115E0,5.477006502E-1,9.048262109E0
1.313940375E0,6.017367289E0,-7.405830161E0,1.007383163E-1,9.542807641E0
1.323886375E0,6.713541462E0,-7.237853104E0,-2.747758663E-1,9.875913036E0
1.333832375E0,6.876369461E0,-6.864860972E0,-7.719575965E-1,9.747137614E0
1.343779375E0,6.743859276E0,-6.322270934E0,-1.091726618E0,9.308201475E0
1.353725375E0,7.243923098E0,-5.808447443E0,-2.727356558E0,9.677342474E0
1.363671375E0,1.010378984E1,-5.763072465E0,-9.784497954E0,1.519986755E1
1.373617375E0,1.170378217E1,-6.468105755E0,-1.003201293E1,1.671694328E1
1.383563375E0,1.390005017E1,-7.133266296E0,-8.428984727E0,1.775225806E1
1.393509375E0,1.760210015E1,-7.996273227E0,-1.024652155E1,2.188071112E1
1.403456375E0,1.825531366E1,-8.487033545E0,-1.031327453E1,2.261967831E1
1.413402375E0,1.761467517E1,-9.709485778E0,-9.708645533E0,2.233402547E1
1.423348375E0,1.720614308E1,-9.940722692E0,-9.354680825E0,2.196313686E1
1.433294375E0,1.693444870E1,-9.896691989E0,-9.439266647E0,2.176740269E1
1.443240375E0,1.645514073E1,-9.545661414E0,-8.850143883E0,2.098133349E1
1.453187375E0,1.540770794E1,-8.547066323E0,-7.304927099E0,1.907385034E1
1.463133375E0,1.354652517E1,-7.471417210E0,-5.650641618E0,1.646997784E1
1.473079375E0,1.187548215E1,-6.755543182E0,-4.297972476E0,1.432260477E1
1.483025375E0,1.062378975E1,-6.157609833E0,-3.180102665E0,1.268440461E1
1.492971375E0,1.007924323E1,-5.647218658E0,-2.746061801E0,1.187531381E1
1.502917375E0,9.706141756E0,-5.316922309E0,-2.901224685E0,1.144097703E1
1.512864375E0,9.434514030E0,-5.014915375E0,-2.946141826E0,1.108328394E1
1.522810375E0,9.193964256E0,-4.644754757E0,-3.116902742E0,1.076186825E1
1.532756375E0,8.879056025E0,-4.120237586E0,-3.425561762E0,1.037055770E1
1.542702375E0,8.526415712E0,-3.504004206E0,-2.957138684E0,9.681037112E0
1.552648375E0,8.107194323E0,-3.418239586E0,6.130907938E-1,8.819684914E0
1.562594375E0,8.134814231E0,-3.574723063E0,2.152029422E0,9.142487527E0
1.572541375E0,3.388841540E0,-5.393701513E0,1.475981774E1,1.607571095E1
1.582487375E0,1.641142695E0,-8.956362648E0,2.520583108E1,2.680006906E1
1.592433375E0,5.418742214E0,-1.224843511E1,4.492201076E1,4.687615578E1
1.602379375E0,6.893215874E0,-1.725682441E1,5.855714697E1,6.143495646E1
1.612325375E0,6.671898762E0,-7.153896443E0,-1.080277302E1,1.457368767E1
1.622272375E0,6.008188915E0,-3.489511882E0,-3.631902108E0,7.840008937E0
1.632218375E0,4.735359410E0,-2.386382901E0,6.457349217E-1,5.341856015E0
1.642164375E0,4.003748186E0,-1.870025227E0,3.625752007E0,5.716036346E0
1.652110375E0,3.587452744E0,-1.573518184E0,8.512748430E0,9.370841077E0
1.662056375E0,3.082227584E0,-1.030572343E0,1.178540229E1,1.222529809E1
1.672002375E0,3.335790921E0,-1.030312727E0,7.211175182E0,8.011871997E0
1.681949375E0,-1.316594744E0,-2.214127437E0,4.243496892E0,4.964176457E0
1.691895375E0,-9.351107592E0,-4.493364497E0,3.054653285E0,1.081501014E1
1.701841375E0,-1.402581793E1,-6.018070709E0,3.239377352E0,1.560238152E1
1.711787375E0,-1.889052710E1,-4.158245949E0,1.142045417E0,1.937646230E1
1.721733375E0,-1.688799140E1,3.252864247E0,3.349349445E-1,1.720167319E1
1.731680375E0,2.010066335E0,1.152092337E1,6.511373397E0,1.338544080E1
1.741626375E0,5.897749044E0,7.099014477E0,9.443816366E0,1.320473846E1
1.751572375E0,-1.227749226E0,5.144665675E0,6.191381596E0,8.142982202E0
1.761518375E0,-6.491130336E0,4.404455536E0,1.848784339E0,8.059280684E0
1.771464375E0,-1.037808039E1,4.908047569E0,3.590833604E0,1.202861461E1
1.781410375E0,-1.531343679E1,5.493723400E0,6.658564187E0,1.757893115E1
1.791357375E0,-1.699595673E1,5.446376156E0,5.491885035E0,1.867314541E1
1.801303375E0,-1.633594641E1,5.314583423E0,3.682378197E0,1.756894565E1
1.811249375E0,-1.336861778E1,5.351508590E0,2.221377692E0,1.457028155E1
1.821195375E0,-1.166283763E1,5.000028949E0,1.756284896E0,1.281041013E1
1.831141375E0,-7.859265947E0,3.708552089E0,1.740580444E0,8.862902465E0
1.841087375E0,-1.407201444E0,1.121529291E0,2.341617495E0,2.953170559E0
1.851034375E0,1.326135646E0,1.069479132E-1,2.873463274E0,3.166522508E0
1.860980375E0,1.904262722E0,1.839545739E-1,2.081236889E0,2.826942304E0
1.870926375E0,2.487409632E0,1.749969319E-1,8.620099801E-1,2.638350206E0
1.880872375E0,2.389782765E0,1.366789582E-1,-4.332932979E-1,2.432588309E0
1.890818375E0,2.353264564E0,1.187750763E-1,-9.851973653E-1,2.553933334E0
1.900765375E0,2.180267673E0,-8.428761363E-4,-1.226599663E0,2.501622387E0
1.910711375E0,2.534650456E0,-5.000012577E-2,-1.470303426E0,2.930656089E0
1.920657375E0,2.851215788E0,-2.871336642E-1,-1.670291650E0,3.316888814E0
1.930603375E0,3.272180232E0,-6.593899244E-1,-1.772933673E0,3.779583621E0
1.940549375E0,3.816461869E0,-1.007363283E0,-1.863745610E0,4.365055518E0
1.950495375E0,4.136133826E0,-1.343472348E0,-1.938627977E0,4.761386291E0
1.960442375E0,4.552124628E0,-1.621279703E0,-2.090919294E0,5.265199901E0
1.970388375E0,5.086886998E0,-1.748412497E0,-2.041761752E0,5.753447371E0
1.980334375E0,5.501624157E0,-1.765575537E0,-1.895728126E0,6.081028735E0
1.990280375E0,5.957874209E0,-1.836057875E0,-1.916723138E0,6.522361627E0
2.000226375E0,6.336883126E0,-2.046102140E0,-2.060923077E0,6.970654607E0
2.010173375E0,6.646042959E0,-2.394399142E0,-2.202109362E0,7.399481056E0
2.020119375E0,6.852634444E0,-2.837727139E0,-2.231061265E0,7.745251997E0
2.030065375E0,6.865580764E0,-3.289204985E0,-1.849063252E0,7.834162595E0
2.040011375E0,6.714343700E0,-3.751903346E0,-1.934489318E0,7.931042741E0
2.049957375E0,6.624167941E0,-4.202543871E0,-2.264306195E0,8.165051037E0
2.059903375E0,6.280285002E0,-4.692205204E0,-2.481421498E0,8.222908369E0
2.069850375E0,5.527702739E0,-5.057220565E0,-2.596815130E0,7.929339584E0
2.079796375E0,4.808217471E0,-5.126126493E0,-2.307705399E0,7.397407132E0
2.089742375E0,4.448906069E0,-4.739256579E0,-1.758349548E0,6.733877878E0
2.099688375E0,4.168568916E0,-4.326952154E0,-1.371822281E0,6.162903384E0
2.109634375E0,3.627160016E0,-3.991360568E0,-1.351835913E0,5.560099756E0
2.119580375E0,3.166477776E0,-3.726147238E0,-1.464883057E0,5.104570218E0
2.129527375E0,2.727744813E0,-3.424906289E0,-1.667299629E0,4.685132112E0
2.139473375E0,2.406454931E0,-3.117059740E0,-1.922510127E0,4.382137829E0
2.149419375E0,2.169855536E0,-2.649492988E0,-2.170640232E0,4.054598026E0
2.159365375E0,2.180795676E0,-2.102875973E0,-2.357936490E0,3.838987057E0
2.169311375E0,2.432468609E0,-1.773212878E0,-2.597932532E0,3.976234511E0
2.179258375E0,2.913803800E0,-1.719422879E0,-2.749559020E0,4.359672284E0
2.189204375E0,3.781902485E0,-1.775628363E0,-2.604727582E0,4.923438663E0
2.199150375E0,3.891620225E0,-1.906074774E0,-2.447427540E0,4.976718857E0
2.209096375E0,3.873312008E0,-1.943452807E0,-2.253330971E0,4.884368453E0
2.219041958E0,4.075933818E0,-2.036141700E0,-1.960605907E0,4.960149699E0
2.228987958E0,4.282777317E0,-2.225863675E0,-1.770360898E0,5.141092137E0
2.238934958E0,4.625508354E0,-2.499928813E0,-1.745204130E0,5.539919590E0
2.248880958E0,4.929418557E0,-2.779146809E0,-1.804614765E0,5.939651399E0
2.258826958E0,5.052271482E0,-2.854381471E0,-1.823137282E0,6.082497041E0
2.268772958E0,5.097268145E0,-2.818717548E0,-1.687557893E0,6.064252864E0
2.278718958E0,4.980188177E0,-2.548916493E0,-1.217937598E0,5.725611020E0
2.288664958E0,4.627945474E0,-2.212376488E0,-4.970451978E-1,5.153595149E0
2.298611958E0,4.199605352E0,-1.924684122E0,2.438686538E-1,4.626074578E0
2.308557958E0,3.690240948E0,-1.763691564E0,8.169829112E-1,4.170844910E0
2.318503958E0,3.452090871E0,-1.555040106E0,9.995581269E-1,3.915890392E0
2.328449958E0,3.530117871E0,-1.406338395E0,8.102498424E-1,3.885360301E0
2.338395958E0,3.835637813E0,-1.216693895E0,2.457868329E-1,4.031485165E0
2.348342958E0,3.977021148E0,-1.118189069E0,-3.628556916E-1,4.147132535E0
2.358288958E0,3.937137290E0,-1.376310311E0,-5.058309317E-1,4.201326582E0
2.368234958E0,3.717937455E0,-1.918587815E0,-2.256919992E-1,4.189865750E0
2.378180958E0,3.519644923E0,-2.338244529E0,2.360333848E-1,4.232138894E0
2.388126958E0,3.178401418E0,-2.639298367E0,7.941056800E-1,4.206986484E0
2.398072958E0,2.858362840E0,-2.717241752E0,1.523946659E0,4.228008312E0
2.408019958E0,2.619453794E0,-2.506540844E0,2.183639177E0,4.232323858E0
2.417965958E0,2.351333814E0,-1.551902197E0,3.260909139E0,4.309373452E0
2.427911958E0,1.654632806E0,-7.581827259E-1,4.002544829E0,4.396932553E0
2.437857958E0,7.294758207E-1,1.273871478E-1,3.603517092E0,3.678817458E0
2.447803958E0,1.605089933E-1,1.546158477E0,3.918600155E0,4.215660843E0
2.457749958E0,-1.341995634E0,3.354441785E0,4.102325518E0,5.466471131E0
2.467696958E0,-3.571163571E0,5.056458088E0,3.614660131E0,7.168454890E0
2.477642958E0,-6.165391892E0,6.535033570E0,2.528845048E0,9.333476213E0
2.487588958E0,-8.836680084E0,7.639301881E0,1.950601906E-2,1.168102002E1
2.497534958E0,-1.492130965E1,7.265506926E0,-1.120489949E0,1.663395835E1
2.507480958E0,-1.773800348E1,6.092765965E0,-5.095395282E-1,1.876214793E1
2.517427958E0,-1.987594900E1,6.783132684E0,1.581257559E0,2.106097370E1
2.527373958E0,-2.217760955E1,7.646961148E0,2.506231819E0,2.359244748E1
2.537319958E0,-1.833223963E1,8.306109583E0,1.238203755E0,2.016421620E1
2.547265958E0,-1.441622716E1,7.667483121E0,-1.395133960E-1,1.632903448E1
2.557211958E0,-1.211900465E1,5.476160703E0,-1.296947223E0,1.336191161E1
2.567157958E0,-1.056187709E1,2.933153113E0,-2.300966190E0,1.120049464E1
2.577104958E0,-1.001483498E1,9.360921559E-1,-2.618382000E0,1.039370543E1
2.587050958E0,-9.427869839E0,-1.305905449E-1,-1.860996834E0,9.610675981E0
2.596996958E0,-8.254404409E0,-9.219217211E-2,-6.472551978E-1,8.280255481E0
2.606942958E0,-7.019414576E0,3.063093156E-2,3.395595074E-2,7.019563537E0
2.616888958E0,-5.439577013E0,3.159674540E-1,1.569883847E-1,5.451007143E0
2.626835958E0,-3.490248047E0,8.872047552E-1,-3.988116825E-1,3.623260198E0
2.636781958E0,-1.598592507E0,1.175748475E0,-1.345717971E0,2.397673735E0
2.646727958E0,1.643710792E-1,9.417358884E-1,-2.198453683E0,2.397307433E0
2.656673958E0,1.443736017E0,5.436904836E-1,-2.774165858E0,3.174266724E0
2.666619958E0,2.491120859E0,2.154698968E-1,-2.945730182E0,3.863862927E0
2.676565958E0,3.445448434E0,1.044555375E-1,-2.895907812E0,4.502033754E0
2.686512958E0,4.157377346E0,1.177602920E-1,-2.653771688E0,4.933574571E0
2.696458958E0,4.604068953E0,2.712599355E-1,-2.253705193E0,5.133246534E0
2.706404958E0,5.108983626E0,3.336339390E-1,-1.725904518E0,5.402941024E0
2.716350958E0,5.105713863E0,4.470860025E-1,-1.156765198E0,5.254170312E0
2.726296958E0,4.985161818E0,5.880658802E-1,-7.145554805E-1,5.070330302E0
2.736242958E0,4.873670619E0,8.172293714E-1,-2.374215138E-1,4.947413276E0
2.746189958E0,4.520409915E0,1.084592722E0,8.980500977E-2,4.649571176E0
2.756135958E0,4.131170125E0,1.093185790E0,2.252044145E-1,4.279291858E0
2.766081958E0,3.843857828E0,7.546767354E-1,2.262217569E-1,3.923768120E0
2.776027958E0,3.900973431E0,5.125762796E-1,2.288530771E-1,3.941154892E0
2.785973958E0,3.962630566E0,3.352577108E-1,1.343925507E-1,3.979057689E0
2.795920958E0,3.920096750E0,1.722847009E-1,1.008293867E-2,3.923893756E0
2.805866958E0,3.549240605E0,-3.794229001E-2,1.454975827E-1,3.552424248E0
2.815812958E0,3.066690363E0,-2.044975966E-1,3.471114787E-1,3.093039836E0
2.825758958E0,2.265239410E0,-2.243947944E-1,6.041882618E-1,2.355144596E0
2.835704958E0,1.422496591E0,5.326754987E-2,6.380866174E-1,1.559964267E0
2.845650958E0,5.867464560E-1,6.065705636E-1,4.088865812E-1,9.377566255E-1
2.855597958E0,-4.007272303E-2,1.122380061E0,-9.984237671E-2,1.127524423E0
2.865543958E0,-3.567912519E-1,1.556865314E0,-4.168341167E-1,1.650721141E0
2.875489958E0,-8.311407745E-1,2.065294456E0,-5.987409957E-1,2.305369158E0
2.885435958E0,-8.844615340E-1,2.706594557E0,-8.251334913E-1,2.964586241E0
2.895381958E0,-1.123064185E0,3.266084802E0,-9.266746303E-1,3.575934698E0
2.905328958E0,-1.211126761E0,3.511523433E0,-1.167665431E0,3.893721537E0
2.915274958E0,-8.746037132E-1,3.753411927E0,-1.348316035E0,4.083012231E0
2.925220958E0,-4.175619489E-1,3.854753822E0,-1.278320040E0,4.082595637E0
2.935166958E0,5.550989860E-1,4.000646238E0,-2.680346698E0,4.847428559E0
2.945112958E0,1.615722510E0,3.791654179E0,-3.091159791E0,5.151938421E0
2.955058958E0,2.350660214E0,3.217759903E0,-2.949514208E0,4.957743065E0
2.965005958E0,2.985702333E0,2.839288345E0,-3.186577579E0,5.208670982E0
2.974951958E0,3.911739324E0,2.588644230E0,-3.181808590E0,5.668041055E0
2.984897958E0,4.828461117E0,2.577598548E0,-1.944480748E0,5.808533068E0
2.994843958E0,5.776308807E0,2.220347997E0,-3.282843214E-1,6.197052465E0
3.004789958E0,5.138082295E0,1.529609249E0,-1.826959607E-1,5.364044364E0
3.014735958E0,4.169265320E0,1.342705632E0,-1.769149355E0,4.723930690E0
3.024682958E0,2.135448180E0,8.907774040E-1,-3.140317917E0,3.900669165E0
3.034628958E0,7.836789250E-2,-2.862358242E-1,-4.062012767E0,4.072839328E0
3.044574958E0,-1.336557723E0,-1.756277441E0,-3.021107224E0,3.741388225E0
3.054520958E0,-5.490743074E0,-3.425539834E0,-5.329242977E-1,6.493580751E0
3.064466958E0,-1.124297246E1,-6.205996127E0,1.369591568E0,1.291489833E1
3.074412958E0,-1.245802972E1,-8.232932264E0,1.814950303E0,1.504253047E1
3.084359958E0,-1.018231444E1,-8.999586436E0,1.304437798E0,1.365187318E1
3.094305958E0,-6.575712649E0,-8.482660997E0,-3.173216692E-1,1.073760809E1
3.104251958E0,-3.362325001E0,-6.906438768E0,-2.417638316E0,8.052893945E0
3.114197958E0,-1.681318914E0,-4.646986347E0,-3.281921693E0,5.932311977E0
3.124143958E0,-2.129058927E-1,-2.327040825E0,-3.975922164E0,4.611768097E0
3.134090958E0,1.089680092E0,-1.986750855E-1,-3.920419224E0,4.073887748E0
3.144036958E0,1.954653441E0,1.200485998E0,-2.581721127E0,3.453566372E0
3.153982958E0,2.266429319E0,1.800290749E0,-2.188233919E0,3.628514341E0
3.163928958E0,1.665613292E0,2.075612891E0,-1.974703251E0,3.313893397E0
3.173874958E0,1.111303681E0,1.882795693E0,-6.569349709E-1,2.282866410E0
3.183820958E0,-4.408332825E-2,8.867548120E-1,-2.690923727E-1,9.277327964E-1
3.193767958E0,-9.038666886E-1,-2.124499561E-1,-6.142567286E-1,1.113293000E0
3.203713958E0,-8.334784913E-1,-1.005276119E0,-8.419709873E-1,1.553763693E0
3.213659958E0,2.384395140E-1,-1.405790803E0,-9.134707403E-1,1.693378274E0
3.223605833E0,1.379042423E0,-1.669620536E0,-1.072725798E0,2.416636376E0
3.233551833E0,2.311388560E0,-1.893561294E0,-1.170502354E0,3.209075756E0
3.243497833E0,2.987563502E0,-1.981078324E0,-1.023278819E0,3.727909139E0
3.253444833E0,3.300188395E0,-2.086351595E0,-7.885826924E-1,3.983210901E0
3.263390833E0,3.364898361E0,-2.309778383E0,-5.823946658E-1,4.122717636E0
3.273336833E0,3.143447347E0,-2.561409069E0,-3.653350572E-1,4.071307818E0
3.283282833E0,2.579506202E0,-2.885835983E0,-4.162252754E-2,3.870869928E0
3.293228833E0,2.166318555E0,-3.178689685E0,5.562526417E-1,3.886697981E0
3.303175833E0,2.016952600E0,-3.530712241E0,1.237647393E0,4.250387957E0
3.313121833E0,2.151970657E0,-3.684706266E0,1.720104665E0,4.600738857E0
3.323067833E0,2.655529361E0,-3.711249409E0,1.890470455E0,4.939543188E0
3.333013833E0,3.594420286E0,-3.501745427E0,1.794377313E0,5.329340313E0
3.342959833E0,4.680131289E0,-3.066126106E0,1.138081078E0,5.709639806E0
3.352905833E0,5.908811976E0,-2.680424466E0,4.068516771E-1,6.501097029E0
3.362852833E0,6.925959113E0,-2.275487679E0,-2.448954614E-1,7.294294181E0
3.372798833E0,7.689920057E0,-2.062931157E0,-8.513487518E-1,8.007206138E0
3.382744833E0,8.133613797E0,-1.879928072E0,-1.266812135E0,8.443613915E0
3.392690833E0,8.318034394E0,-1.813639942E0,-1.646200536E0,8.671156914E0
3.402636833E0,8.240486866E0,-1.779121343E0,-1.778878537E0,8.615991260E0
3.412583833E0,7.789665955E0,-1.743832958E0,-1.530291181E0,8.127831209E0
3.422529833E0,7.042705205E0,-1.740976008E0,-9.962487490E-1,7.322786740E0
3.432475833E0,6.209181690E0,-1.566926033E0,-5.639534247E-1,6.428626441E0
3.442421833E0,5.405255027E0,-1.337907261E0,-6.680128133E-1,5.608299106E0
3.452367833E0,4.126732088E0,-1.147046833E0,-1.150921490E0,4.435116057E0
3.462313833E0,2.475732157E0,-7.112846942E-1,-2.073077977E0,3.306482713E0
3.472260833E0,1.533141114E0,2.827678406E-1,-3.554792536E0,3.881627146E0
3.482206833E0,1.863156796E-1,1.552770509E0,-2.552477447E0,2.993484743E0
3.492152833E0,-2.494457865E0,2.700360548E0,6.472669507E0,7.443770394E0
3.502098833E0,-5.876114346E0,5.159014158E0,2.677539216E1,2.789383036E1
3.512044833E0,-1.033417248E1,5.795998721E0,2.383999167E1,2.662205711E1
3.521990833E0,-9.227525520E0,3.993594496E0,6.471722842E0,1.195739189E1
3.531937833E0,-1.024458846E1,3.672571540E0,2.797378135E-1,1.088658016E1
3.541883833E0,-1.428333164E1,3.377004436E0,-1.175755200E0,1.472413400E1
3.551829833E0,-1.973371197E1,2.573291196E0,3.853715649E-1,1.990451524E1
3.561775833E0,-2.494050782E1,2.473914258E0,2.564853956E0,2.519380198E1
3.571721833E0,-2.724433418E1,3.683489168E0,2.527618595E0,2.760816352E1
3.581668833E0,-2.362273720E1,5.280778331E0,2.634243157E0,2.434870776E1
3.591614833E0,-2.173328899E1,5.517727389E0,4.093124632E0,2.279330680E1
3.601560833E0,-2.215865521E1,4.733422228E0,5.916230924E0,2.341822101E1
3.611506833E0,-2.281764577E1,3.833853242E0,6.639764804E0,2.407134948E1
3.621452833E0,-2.192887835E1,3.777005442E0,5.725178415E0,2.297649111E1
3.631398833E0,-2.017593455E1,4.006892234E0,4.196311908E0,2.099363127E1
3.641345833E0,-1.723319581E1,4.726681265E0,2.385731229E0,1.802820754E1
3.651291833E0,-1.360597966E1,4.791813985E0,1.320089625E0,1.448539956E1
3.661237833E0,-9.668207359E0,4.538570783E0,1.560011116E0,1.079381735E1
3.671183833E0,-6.389395800E0,3.124502369E0,2.640833846E0,7.586889820E0
3.681129833E0,-3.413502172E0,1.683755156E0,4.052658391E0,5.559772346E0
3.691075833E0,-3.431146145E-1,3.567804345E-1,5.453557706E0,5.475975855E0
3.701022833E0,1.840335698E0,-4.672382851E-1,6.116670552E0,6.404592551E0
3.710968833E0,2.939797597E0,-1.270034974E0,7.429793805E0,8.090564549E0
3.720914833E0,3.060857180E0,-2.404537044E0,9.373856184E0,1.014986822E1
3.730860833E0,2.790144544E0,-2.843775791E0,1.044434338E1,1.117838431E1
3.740806833E0,3.331798443E0,-2.384111843E0,9.398088216E0,1.025226474E1
3.750753833E0,3.902392550E0,-2.622217773E0,5.455414782E0,7.201822277E0
3.760699833E0,5.199378072E0,-2.392793642E0,1.155834613E0,5.839087891E0
3.770645833E0,6.075022005E0,-1.531842739E0,-2.118502949E0,6.613659296E0
3.780591833E0,6.833817519E0,-1.239446581E0,-4.421719440E0,8.233401030E0
3.790537833E0,7.696212831E0,-1.332891227E0,-4.509565669E0,9.019117112E0
3.800483833E0,7.949542279E0,-1.559373477E0,-4.205185935E0,9.127456208E0
3.810430833E0,8.128489882E0,-1.732725149E0,-4.023159480E0,9.233661051E0
3.820376833E0,8.065996011E0,-1.684577128E0,-3.873446201E0,9.105035817E0
3.830322833E0,7.633689138E0,-1.827508514E0,-4.274999643E0,8.938043364E0
3.840268833E0,6.477282375E0,-2.206574880E0,-5.596520959E0,8.839977744E0
3.850214833E0,5.172872643E0,-2.521093687E0,-4.909867807E0,7.564477949E0
3.860160833E0,5.998201870E0,-3.680414118E0,-2.593238680E0,7.499917373E0
3.870107833E0,8.567681851E0,-4.115218336E0,-2.861272999E0,9.926080668E0
3.880053833E0,1.091033840E1,-3.600587345E0,-4.239538912E0,1.224636286E1
3.889999833E0,1.226950146E1,-2.734600966E0,-9.294363288E0,1.563342245E1
3.899945833E0,1.032509760E1,-2.590457452E0,-2.380496919E1,2.607670739E1
3.909891833E0,1.762646082E1,-3.852773955E0,-1.912306034E1,2.629120433E1
3.919838833E0,2.193039863E1,-3.683365792E0,-8.514310806E0,2.381182597E1
3.929784833E0,2.053357833E1,-2.785803864E0,-6.754442736E0,2.179474796E1
3.939730833E0,1.801904405E1,-2.398025877E0,-6.114612333E0,1.917876327E1
3.949676833E0,1.600036652E1,-2.033523902E0,-5.968476380E0,1.719795507E1
3.959622833E0,1.486246912E1,-2.289241061E0,-5.575489694E0,1.603807028E1
3.969568833E0,1.289699423E1,-2.668666300E0,-4.632281184E0,1.396109842E1
3.979515833E0,1.092923894E1,-2.944084483E0,-4.310810623E0,1.211193566E1
3.989461833E0,1.054015702E1,-2.879742891E0,-3.975407317E0,1.162719624E1
3.999407833E0,1.012812595E1,-2.380265544E0,-3.684670891E0,1.103727317E1
4.009353833E0,9.637306579E0,-2.000754644E0,-3.563094413E0,1.046787175E1
4.019299833E0,9.190540711E0,-2.065801263E0,-3.539439795E0,1.006286279E1
4.029246833E0,8.990597511E0,-1.935663293E0,-3.381314127E0,9.798516276E0
4.039192833E0,8.022455889E0,-1.788619999E0,-2.105513359E0,8.484818589E0
4.049138833E0,6.928250052E0,-1.694967192E0,-1.013406672E0,7.204204026E0
4.059084833E0,7.391997403E0,-1.713133322E0,-2.244037406E0,7.912784293E0
4.069030833E0,7.856289715E0,-1.813404007E0,-2.317088426E0,8.389196681E0
4.078976833E0,7.900191779E0,-1.978748063E0,9.371595651E-1,8.197971828E0
4.088923833E0,8.739985263E0,-1.597522028E0,2.030905460E1,2.216747884E1
4.098869833E0,1.005522989E1,3.053240597E-2,4.921938214E1,5.023600461E1
4.108815833E0,1.311239981E1,2.742699067E0,5.174317140E1,5.344916476E1
4.118761833E0,7.854342007E0,2.529664828E-1,-1.025109290E0,7.924993972E0
4.128707833E0,4.341938276E0,-9.502335007E-1,2.765470464E0,5.234806451E0
4.138653833E0,4.616663856E0,-1.260954541E0,3.063849201E0,5.682496233E0
4.148600833E0,4.433936613E0,-9.428842816E-1,3.136212587E0,5.512227685E0
4.158546833E0,4.465342593E0,-4.535107769E-1,2.889503356E0,5.337994580E0
4.168492833E0,3.564723448E0,1.041722691E0,4.364773407E0,5.730941137E0
4.178438833E0,-5.046060569E0,3.443934883E0,9.760041389E0,1.151441803E1
4.188384833E0,-1.454417710E1,6.730256313E0,5.342002187E0,1.689279210E1
4.198331833E0,-1.068667187E1,1.459464734E0,1.443578142E0,1.088204535E1
4.208277833E0,-4.712959312E0,8.963224648E-1,5.949609169E0,7.642854748E0
4.218223625E0,-4.219179491E0,3.222580056E0,8.455111840E0,9.983757511E0
4.228169625E0,-3.122549399E0,3.053665690E0,6.892398434E0,8.159678000E0
4.238115625E0,-3.441130850E0,4.019424571E0,4.788420553E0,7.136254396E0
4.248061625E0,-4.592797276E0,4.363281782E0,1.905206462E0,6.615272208E0
4.258008625E0,-5.585538134E0,2.425230048E0,2.799354494E0,6.701967070E0
4.267954625E0,-6.514008737E0,1.378870515E0,4.685613053E0,8.141778884E0
4.277900625E0,-8.550868183E0,2.210014797E0,4.890089600E0,1.009527059E1
4.287846625E0,-1.048272216E1,2.729809757E0,4.450366704E0,1.171089617E1
4.297792625E0,-1.112572292E1,2.001127988E0,4.093094811E0,1.202246435E1
4.307738625E0,-1.026997707E1,1.531579615E0,3.680552697E0,1.101656177E1
4.317685625E0,-1.042047738E1,1.336528195E0,2.440893862E0,1.078566731E1
4.327631625E0,-1.047297134E1,8.220869458E-1,6.367155915E-1,1.052446495E1
4.337577625E0,-9.047572196E0,1.758003393E-1,-7.443739414E-1,9.079843664E0
4.347523625E0,-7.442710304E0,-5.354886673E-1,-9.603396821E-1,7.523492347E0
4.357469625E0,-4.527208473E0,-9.050765506E-1,-7.038182384E-1,4.670132785E0
4.367416625E0,-6.976605356E-2,-7.422528639E-1,-5.346366549E-1,9.174110142E-1
4.377362625E0,3.199115764E0,-5.549095362E-1,-4.703278077E-1,3.280773462E0
4.387308625E0,4.623205136E0,-4.646686531E-1,-8.032150573E-1,4.715410599E0
4.397254625E0,5.164070245E0,-4.155733109E-1,-1.109981625E0,5.298337653E0
4.407200625E0,5.506184986E0,-5.638455436E-1,-1.304479898E0,5.686621378E0
4.417146625E0,5.927920092E0,-8.666471145E-1,-1.674602217E0,6.220579268E0
4.427093625E0,6.227258357E0,-1.130672875E0,-2.058053849E0,6.655280118E0
4.437039625E0,6.281486605E0,-1.182445511E0,-2.327905775E0,6.802528695E0
4.446985625E0,6.419497851E0,-1.163873073E0,-2.353844023E0,6.935786536E0
4.456931625E0,6.526204274E0,-1.112053878E0,-2.328909157E0,7.017964371E0
4.466877625E0,6.534801435E0,-1.127364520E0,-2.520522999E0,7.094195990E0
4.476823625E0,6.514708648E0,-1.283676090E0,-2.653787475E0,7.150653190E0
4.486770625E0,6.549061625E0,-1.538871677E0,-2.746486893E0,7.266465748E0
4.496716625E0,6.608214397E0,-1.818942490E0,-2.644819601E0,7.346571991E0
4.506662625E0,6.582734571E0,-2.185464970E0,-2.535829255E0,7.385057994E0
4.516608625E0,6.488582704E0,-2.547466676E0,-2.284452776E0,7.335531096E0
4.526554625E0,6.275428305E0,-2.893231541E0,-1.868454373E0,7.158415390E0
4.536501625E0,5.936503805E0,-3.146907437E0,-1.536579276E0,6.892472685E0
4.546447625E0,5.503506376E0,-3.311923757E0,-1.296828817E0,6.552799889E0
4.556393625E0,4.866989005E0,-3.265532532E0,-1.277156444E0,5.998534261E0
4.566339625E0,3.977246266E0,-2.757277930E0,-1.317872946E0,5.015761013E0
4.576285625E0,3.217209388E0,-2.340153353E0,-1.371010103E0,4.207900030E0
4.586231625E0,3.057316691E0,-2.044709041E0,-1.590620998E0,4.007255366E0
4.596178625E0,2.890106789E0,-1.730488150E0,-1.826405291E0,3.831848480E0
4.606124625E0,2.373781275E0,-1.708886197E0,-1.950605999E0,3.515678218E0
4.616070625E0,1.928260864E0,-1.730112467E0,-2.114618644E0,3.344112904E0
4.626016625E0,1.596763498E0,-1.658174465E0,-2.247129414E0,3.216953035E0
4.635962625E0,1.491084430E0,-1.641056449E0,-2.271538031E0,3.174316316E0
4.645908625E0,1.572190574E0,-1.713399370E0,-2.233510079E0,3.224296493E0
4.655855625E0,1.809605071E0,-1.834460708E0,-2.238521728E0,3.413340904E0
4.665801625E0,2.387073165E0,-1.821123501E0,-2.255674535E0,3.755353074E0
4.675747625E0,3.382035381E0,-1.665917055E0,-2.157244261E0,4.343632783E0
4.685693625E0,4.418560190E0,-1.731054453E0,-1.842386901E0,5.090639759E0
4.695639625E0,4.924468889E0,-2.068866812E0,-1.406828392E0,5.523564959E0
4.705586625E0,5.134122561E0,-2.218375146E0,-1.143820047E0,5.708653699E0
4.715532625E0,5.182410622E0,-2.126289978E0,-1.085197032E0,5.705798938E0
4.725478625E0,5.277678722E0,-1.939760291E0,-1.279231036E0,5.766540966E0
4.735424625E0,5.635444120E0,-1.679352203E0,-1.641097087E0,6.105051506E0
4.745370625E0,5.851605742E0,-1.435956881E0,-2.044145662E0,6.362530425E0
4.755316625E0,5.957926834E0,-1.218096058E0,-2.292758746E0,6.499030145E0
4.765263625E0,6.026982450E0,-8.238612834E-1,-2.211002977E0,6.472387429E0
4.775209625E0,5.621672173E0,-4.109969875E-1,-1.845056739E0,5.930965428E0
4.785155625E0,4.986684433E0,-1.694438311E-1,-1.489377043E0,5.207108298E0
4.795101625E0,4.588815907E0,-8.642367460E-2,-1.123144877E0,4.725056073E0
4.805047625E0,4.507953007E0,-6.963244468E-2,-6.305573040E-1,4.552372075E0
4.814993625E0,4.395577124E0,-7.757910311E-2,-9.672464132E-3,4.396272321E0
4.824940625E0,4.300051746E0,-9.391125351E-2,6.339978057E-1,4.347553055E0
4.834886625E0,4.198178047E0,-5.021471858E-2,9.272608137E-1,4.299654992E0
4.844832625E0,4.143640482E0,-1.024652184E-1,7.898290265E-1,4.219488767E0
4.854778625E0,4.253956976E0,-2.280130515E-1,2.149670362E-1,4.265483646E0
4.864724625E0,4.479493439E0,-3.897675017E-1,-4.941166198E-1,4.523486643E0
4.874671625E0,4.780392326E0,-5.280613147E-1,-1.104866481E0,4.934747155E0
4.884617625E0,5.428953792E0,-5.201314670E-1,-1.479332696E0,5.650884996E0
4.894563625E0,5.829081098E0,-2.623914635E-1,-1.490478659E0,6.022338612E0
4.904509625E0,5.791711543E0,1.798109445E-1,-8.922424239E-1,5.862793797E0
4.914455625E0,4.880239965E0,9.499269605E-1,8.767461330E-1,5.048543070E0
4.924401625E0,3.313134715E0,1.675357677E0,2.547214076E0,4.502442064E0
4.934348625E0,1.203197937E0,2.439571221E0,3.832456343E0,4.699671759E0
4.944294625E0,-1.525477753E0,3.859342133E0,4.150927867E0,5.869566102E0
4.954240625E0,-3.912794162E0,5.195197898E0,3.595122537E0,7.431348828E0
4.964186625E0,-6.270130143E0,5.486023786E0,2.039547704E0,8.577338971E0
4.974132625E0,-7.402889596E0,4.436026992E0,2.085701823E-1,8.632763831E0
4.984078625E0,-7.862949693E0,3.623787050E0,-9.361708009E-1,8.708284919E0
4.994025625E0,-9.721418191E0,3.393032239E0,-1.280859486E0,1.037589709E1
5.003971625E0,-1.170772553E1,3.021745155E0,-1.131336826E0,1.214420454E1
5.013917625E0,-1.416446243E1,2.953706954E0,-8.332127354E-1,1.449312334E1
5.023863625E0,-1.880808253E1,3.019936026E0,-9.967754370E-1,1.907505029E1
5.033809625E0,-2.408768206E1,2.825306483E0,-3.879428780E-1,2.425591234E1
5.043756625E0,-2.797089984E1,2.942514798E0,5.696063666E-1,2.813101638E1
5.053702625E0,-2.671671886E1,2.642816052E0,-1.951315266E-1,2.684782337E1
5.063648625E0,-2.059291821E1,1.622109277E0,-1.443414420E0,2.070707522E1
5.073594625E0,-1.406328572E1,3.230442660E-1,-1.793600657E0,1.418088030E1
5.083540625E0,-7.897948202E0,-7.325087714E-1,-1.082753481E0,8.005405050E0
5.093486625E0,-5.340450336E0,-1.399895640E0,-5.143971026E-1,5.544792329E0
5.103433625E0,-4.579172094E0,-1.640283739E0,-2.569266558E-1,4.870868415E0
5.113379625E0,-4.215332024E0,-1.653653836E0,-1.311108010E-1,4.529987320E0
5.123325625E0,-3.620835668E0,-1.871664787E0,-9.033129573E-2,4.076976790E0
5.133271625E0,-2.413224837E0,-2.167934287E0,6.870215267E-2,3.244736225E0
5.143217625E0,-1.193665806E0,-2.388089265E0,3.560273132E-1,2.693429754E0
5.153164625E0,-4.043033874E-1,-2.287109605E0,5.123695806E-1,2.378414211E0
5.163110625E0,7.935630584E-1,-1.818887964E0,-1.927806535E0,2.766682814E0
5.173056625E0,1.619710311E0,-8.045580165E-1,-2.528944743E0,3.109073271E0
5.183002625E0,1.671443551E0,3.974622913E-1,-2.090014145E0,2.705523784E0
5.192948625E0,2.413497902E0,8.971619788E-1,-2.635718994E0,3.684682667E0
5.202894625E0,3.549775625E0,1.164425196E0,-2.446583202E0,4.465709618E0
5.212841625E0,4.187022729E0,1.544198198E0,-1.236543438E0,4.630847340E0
5.222788333E0,3.997813262E0,1.534540206E0,-7.097683650E-1,4.340633094E0
5.232734333E0,3.945069623E0,1.293290813E0,-9.209405583E-1,4.252564752E0
5.242680333E0,4.898434162E0,1.109542645E0,5.167184472E-3,5.022526139E0
5.252626333E0,5.669908193E0,7.409446956E-1,1.066253223E0,5.816678941E0
5.262572333E0,5.843201539E0,2.127579582E-1,1.591561815E0,6.059813461E0
5.272519333E0,6.060372391E0,-9.469814256E-2,2.091273635E0,6.411747552E0
5.282465333E0,6.169165100E0,-3.374125560E-1,2.481792796E0,6.658208524E0
5.292411333E0,5.994637408E0,-5.596415417E-1,2.496068189E0,6.517609432E0
5.302357333E0,5.774223690E0,-6.575069748E-1,2.307546355E0,6.252898914E0
5.312303333E0,5.397364794E0,-7.693913998E-1,1.939020326E0,5.786476447E0
5.322250333E0,4.658144588E0,-7.730745609E-1,1.447016889E0,4.938604374E0
5.332196333E0,3.641275780E0,-5.600543551E-1,8.785096532E-1,3.787390843E0
5.342142333E0,2.351978762E0,-3.431986682E-1,-6.665241122E-3,2.376895843E0
5.352088333E0,9.480277848E-1,-6.401107773E-2,-8.772150797E-1,1.293197740E0
5.362034333E0,-8.090868312E-1,4.271795954E-1,-2.001257504E0,2.200485289E0
5.371980333E0,-3.074137961E0,1.392043999E0,-2.946374545E0,4.479869826E0
5.381927333E0,-4.875639961E0,2.660863483E0,-2.166505666E0,5.962030384E0
5.391873333E0,-5.854773763E0,3.449952545E0,-9.231508058E-1,6.858043146E0
5.401819333E0,-5.841014096E0,3.355305711E0,-5.124219131E-1,6.755597553E0
5.411765333E0,-4.202930079E0,2.420505644E0,-5.601837248E-1,4.882343149E0
5.421711333E0,-1.837082891E0,9.515849385E-1,-8.848614836E-1,2.250192723E0
5.431657333E0,1.070198339E-1,-2.754735853E-1,-1.303703388E0,1.336780260E0
5.441604333E0,1.591490479E0,-7.231849475E-1,-2.283226030E0,2.875579858E0
5.451550333E0,2.585781434E0,-7.839158835E-1,-3.258156855E0,4.232774010E0
5.461496333E0,3.375456094E0,-5.971134232E-1,-3.799872149E0,5.117545957E0
5.471442333E0,3.781997210E0,-9.379723281E-2,-4.192898011E0,5.647361734E0
5.481388333E0,4.384182655E0,2.674839498E-1,-4.008022501E0,5.946162593E0
5.491334333E0,4.875096170E0,4.135300013E-1,-3.218892217E0,5.856520881E0
5.501281333E0,5.192295924E0,5.581562027E-1,-2.234145087E0,5.680042217E0
5.511227333E0,5.070172732E0,7.624023691E-1,-1.270958980E0,5.282352283E0
5.521173333E0,4.481590835E0,9.915410095E-1,-4.931798959E-1,4.616387809E0
5.531119333E0,3.475577967E0,1.458334029E0,-4.805300295E-2,3.769441529E0
5.541065333E0,2.265586150E0,2.063721993E0,4.411753446E-1,3.096201666E0
5.551012333E0,1.075763134E0,2.415725837E0,6.166935557E-1,2.715383690E0
5.560958333E0,-3.558182752E-1,2.449815689E0,3.091908234E-1,2.494755003E0
5.570904333E0,-1.860255992E0,1.969234351E0,-2.154348135E-2,2.709040495E0
5.580850333E0,-2.970388475E0,1.215135832E0,-3.306290549E-1,3.226310331E0
5.590796333E0,-4.194880802E0,1.189557187E0,-5.693030423E-1,4.397292030E0
5.600742333E0,-5.823450229E0,1.000329959E0,-2.331939769E-1,5.913341867E0
5.610689333E0,-7.485410766E0,-2.691336686E-1,-6.982224530E-1,7.522720376E0
5.620635333E0,-7.868682303E0,-1.416609322E0,-1.830120612E0,8.201968338E0
5.630581333E0,-6.064746108E0,-2.232499973E0,-1.552123514E0,6.646374116E0
5.640527333E0,-3.222885865E0,-2.653873722E0,-1.238980558E0,4.354895160E0
5.650473333E0,-7.977356315E-2,-2.605643840E0,-1.597693205E-2,2.606913675E0
5.660420333E0,2.026596413E0,-1.793127910E0,3.334468281E-1,2.726460619E0
5.670366333E0,3.803541276E0,-1.432060004E0,6.715129566E-1,4.119302338E0
5.680312333E0,4.608303507E0,-1.367253851E0,7.471540001E-1,4.864574329E0
5.690258333E0,4.613627397E0,-9.573383063E-1,5.138509727E-1,4.739841475E0
5.700204333E0,4.119231280E0,-6.240681372E-1,6.097833163E-1,4.210625021E0
5.710150333E0,3.045945611E0,-3.725093716E-1,3.925627631E-1,3.093647268E0
5.720097333E0,1.741274509E0,1.772276081E-1,-1.081676424E-2,1.750303843E0
5.730043333E0,7.653367943E-1,9.049937394E-1,-7.093394718E-1,1.381273529E0
5.739989333E0,5.028617156E-1,1.109392518E0,-1.711009321E0,2.100279638E0
5.749935333E0,4.314093250E-1,7.412427574E-1,-2.451033226E0,2.596751568E0
5.759881333E0,1.220313907E-2,2.559282437E-1,-2.554202961E0,2.567021805E0
5.769827333E0,-8.745177591E-1,-4.433150966E-1,-2.041043714E0,2.264325292E0
5.779774333E0,-1.757621570E0,-1.106304311E0,-1.289782922E0,2.444725505E0
5.789720333E0,-2.260675074E0,-1.728611779E0,-6.617329037E-1,2.921753054E0
5.799666333E0,-2.276120494E0,-1.974939771E0,-3.569722232E-1,3.034557756E0
5.809612333E0,-1.697109904E0,-1.881668788E0,-1.347619486E-1,2.537522460E0
5.819558333E0,-1.169019792E0,-1.669619220E0,1.146992746E-1,2.041419001E0
5.829505333E0,-8.052621675E-1,-1.536901750E0,-4.780867705E-1,1.799744734E0
5.839451333E0,-1.823916131E-1,-1.531135811E0,-1.102613841E0,1.895626771E0
5.849397333E0,6.368927622E-1,-1.656381708E0,-1.367730399E0,2.240517619E0
5.859343333E0,1.352766205E0,-1.881800350E0,-1.638621960E0,2.838350030E0
5.869289333E0,2.092089906E0,-1.946590716E0,-1.211423800E0,3.103804635E0
5.879235333E0,2.854139396E0,-1.897122102E0,-5.894809064E-1,3.477451898E0
5.889182333E0,3.542588813E0,-1.796873051E0,-1.887147921E-1,3.976719946E0
5.899128333E0,4.019526898E0,-1.511491798E0,5.735621542E-2,4.294705307E0
5.909074333E0,4.497156708E0,-1.111514765E0,3.767454600E-1,4.647775885E0
5.919020333E0,4.981637117E0,-9.450448278E-1,6.878877917E-1,5.116933428E0
5.928966333E0,5.300422052E0,-1.025047017E0,6.841707167E-1,5.441808971E0
5.938913333E0,5.351355393E0,-1.047426650E0,8.093471785E-1,5.512635484E0
5.948859333E0,5.332421524E0,-1.167576407E0,8.768412964E-1,5.528725408E0
5.958805333E0,5.580383813E0,-1.335537969E0,9.499024022E-1,5.816069097E0
5.968751333E0,6.130812628E0,-1.458273072E0,1.015937347E0,6.383224305E0
5.978697333E0,6.702479700E0,-1.674928492E0,1.122375237E0,6.999167504E0
5.988643333E0,7.258601949E0,-1.943529406E0,1.236805540E0,7.615398660E0
5.998590333E0,7.569880228E0,-2.059430868E0,1.566171889E0,7.999827283E0
6.008536333E0,7.793076051E0,-2.107049423E0,1.673248440E0,8.244480090E0
6.018482333E0,8.024570242E0,-1.986152392E0,1.553697585E0,8.411450831E0
6.028428333E0,7.943626066E0,-1.749042242E0,1.460678909E0,8.264013960E0
6.038374333E0,7.691509915E0,-1.412353426E0,1.399044578E0,7.944267915E0
6.048320333E0,7.482202983E0,-1.103581263E0,9.342540836E-1,7.620635392E0
6.058267333E0,7.540299749E0,-6.235806987E-1,-2.040619791E-1,7.568792141E0
6.068213333E0,6.381286882E0,5.776383944E-2,-1.291711187E0,6.510965882E0
6.078159333E0,2.634596329E0,-3.667586350E-1,-2.801287291E0,3.863006627E0
6.088105333E0,-2.885306225E0,-3.422904494E-1,-4.527600821E0,5.379714115E0
6.098051333E0,-7.157009500E0,2.234735656E-1,-2.659583820E0,7.638462641E0
6.107997333E0,-1.352896013E1,1.076340181E0,3.446223483E0,1.400241860E1
6.117944333E0,-2.778243238E1,2.632406254E0,1.011601637E1,2.968378175E1
6.127890333E0,-3.827837393E1,2.812885535E0,1.181615162E1,4.015927882E1
6.137836333E0,-4.003495937E1,3.285358686E0,1.087267063E1,4.161497952E1
6.147782333E0,-3.664072085E1,1.614772337E0,9.103638223E0,3.778923317E1
6.157728333E0,-2.605304585E1,7.557537925E-1,4.372261351E0,2.642818630E1
6.167675333E0,-2.297408218E1,3.980678435E-1,1.386091534E0,2.301929972E1
6.177621333E0,-2.585886216E1,2.267159051E0,7.985217896E-1,2.597033691E1
6.187567333E0,-2.900784272E1,5.634378757E0,2.197842356E0,2.963159926E1
6.197513333E0,-2.697424895E1,4.533767587E0,4.163739993E0,2.766770474E1
6.207459333E0,-2.005316407E1,1.785123071E0,3.480611835E0,2.043112118E1
6.217405333E0,-1.324956380E1,4.180265102E-1,2.568000636E0,1.350260398E1
6.227351583E0,-8.336488207E0,-6.896831793E-1,2.445047577E0,8.714984577E0
6.237297583E0,-4.843767958E0,-1.385593351E0,3.504742709E0,6.137196300E0
6.247243583E0,-2.309191761E0,-1.973458379E0,5.021463672E0,5.868730866E0
6.257189583E0,-2.184940767E-1,-2.272715368E0,6.404419636E0,6.799232727E0
6.267135583E0,1.134749261E0,-1.865479894E0,8.230785166E0,8.515485633E0
6.277082583E0,1.270517516E0,-1.261373055E-1,1.041036287E1,1.048836405E1
6.287028583E0,8.808309978E-1,1.660272738E0,1.187004073E1,1.201791312E1
6.296974583E0,1.454636396E0,2.384940686E0,1.225062664E1,1.256510097E1
6.306920583E0,3.329982297E0,2.113327286E0,9.716215339E0,1.048617065E1
6.316866583E0,5.291610882E0,9.310968795E-1,4.457856110E0,6.981444566E0
6.326812583E0,6.543921922E0,3.823456674E-1,4.051070872E-1,6.567588149E0
6.336759583E0,7.315843266E0,3.951168269E-1,-1.253026155E0,7.432883327E0
6.346705583E0,8.095465393E0,4.219613940E-2,-2.563212351E0,8.491666385E0
6.356651583E0,8.543165061E0,-2.103226294E-1,-3.588649377E0,9.268673541E0
6.366597583E0,8.614881161E0,-4.779400785E-1,-3.937977535E0,9.484317118E0
6.376543583E0,8.055009677E0,-9.797807971E-1,-3.767327131E0,8.946278837E0
6.386489583E0,6.517800071E0,-1.484841650E0,-3.558507273E0,7.572941734E0
6.396436583E0,5.611620224E0,-1.536893564E0,-3.977040152E0,7.047635897E0
6.406382583E0,5.372848004E0,-1.691611183E0,-4.287650094E0,7.079052719E0
6.416328583E0,5.343525971E0,-2.207544203E0,-4.722442326E0,7.465117731E0
6.426274583E0,5.101892123E0,-3.053989333E0,-5.333400933E0,7.987572822E0
6.436220583E0,4.461444254E0,-4.356388207E0,-4.272884998E0,7.559110348E0
6.446167583E0,6.519012199E0,-4.935565150E0,-8.749311572E0,1.197529859E1
6.456113583E0,9.883235207E0,-4.435875842E0,-1.214119483E1,1.627156860E1
6.466059583E0,1.375201153E1,-3.759031686E0,-7.367271282E0,1.604758008E1
6.476005583E0,1.433403519E1,-3.992809508E0,-1.546251273E1,2.145917968E1
6.485951583E0,1.416806782E1,-4.993235654E0,-2.107134675E1,2.587794818E1
6.495897583E0,2.287902283E1,-4.991227135E0,-1.484773413E1,2.772755385E1
6.505844583E0,2.242390831E1,-4.079272870E0,-1.498547816E0,2.284114219E1
6.515790583E0,1.905922629E1,-3.477180104E0,-2.245503888E0,1.950351702E1
6.525736583E0,1.661882418E1,-2.693842072E0,-1.661554155E0,1.691753128E1
6.535682583E0,1.411360685E1,-1.872067075E0,-1.457078778E0,1.431159013E1
6.545628583E0,1.267237461E1,-2.173282150E0,-1.896442655E0,1.299648908E1
6.555574583E0,1.171517372E1,-2.144040079E0,-1.775069661E0,1.204130705E1
6.565521583E0,1.111005589E1,-1.749910408E0,-2.075358830E0,1.143689830E1
6.575467583E0,1.041681702E1,-1.323551469E0,-2.002182534E0,1.068974276E1
6.585413583E0,9.549887196E0,-9.736869751E-1,-2.028787657E0,9.811441849E0
6.595359583E0,8.838633639E0,-7.399432138E-1,-1.814732494E0,9.053298547E0
6.605305583E0,8.003385780E0,-5.294308788E-1,-1.290826065E0,8.124082282E0
6.615252583E0,7.885476092E0,-1.884394248E-1,-1.738041876E0,8.076944482E0
6.625198583E0,8.144653925E0,-2.865934546E-1,-2.632362108E0,8.564277765E0
6.635144583E0,8.622298354E0,-4.660049977E-1,-3.430702049E0,9.291442628E0
6.645090583E0,8.980981765E0,-4.780110490E-1,-3.762299695E0,9.748919274E0
6.655036583E0,8.834518368E0,-2.824769416E-1,-3.731162102E0,9.594273222E0
6.664982583E0,8.547838156E0,-1.945564529E-1,-3.577592584E0,9.268363289E0
6.674929583E0,7.785990980E0,-1.598865572E-1,-2.912232068E0,8.314343923E0
6.684875583E0,-1.595960675E0,-6.451253495E-1,1.578439610E1,1.587798594E1
6.694821583E0,-1.306286337E1,4.932804680E-1,7.817285278E1,7.925829065E1
6.704767583E0,-2.687008431E0,6.833174325E0,7.519127332E1,7.554892368E1
6.714713583E0,3.262458651E0,9.443995875E-1,-3.433988476E0,4.829886529E0
6.724659583E0,-2.471199396E0,-2.388053451E0,-6.674624149E0,7.507345288E0
6.734606583E0,-3.238126633E0,-1.523958061E0,-5.022312688E0,6.166971460E0
6.744552583E0,7.637750030E-2,6.503229395E-1,-4.177118715E0,4.228128925E0
6.754498583E0,-7.233122706E-1,3.052017360E0,8.954887980E-1,3.261884546E0
6.764444583E0,-2.982090508E0,4.326998055E0,1.260612917E1,1.365760845E1
6.774390583E0,-6.128935087E0,3.686474172E0,1.969517180E1,2.095360899E1
6.784337583E0,-3.815480706E0,2.979578544E0,9.718443713E0,1.085743660E1
6.794283583E0,-2.478041807E0,2.490480882E0,3.144078262E0,4.714701935E0
6.804229583E0,-2.450072236E0,1.933059089E0,1.579173903E0,3.497622281E0
6.814175583E0,-3.311340204E0,1.550773685E0,2.530204818E0,4.446550280E0
6.824121583E0,-3.939257491E0,1.129275975E0,4.942562513E0,6.420431294E0
6.834067583E0,-5.381931653E0,1.232501843E0,6.597261978E0,8.602796912E0
6.844014583E0,-6.747824857E0,9.907039806E-1,5.871328400E0,8.999285075E0
6.853960583E0,-6.187286791E0,4.600983962E-1,4.189922363E0,7.486631938E0
6.863906583E0,-5.960028908E0,3.769164911E-1,3.211817670E0,6.780839430E0
6.873852583E0,-7.004084930E0,1.312009943E-1,3.247300329E0,7.721358614E0
6.883798583E0,-7.555422987E0,1.063365685E-1,3.017783666E0,8.136506759E0
6.893745583E0,-8.245758131E0,1.670634114E-1,2.814993457E0,8.714621363E0
6.903691583E0,-9.155372048E0,6.926083585E-2,2.612031924E0,9.520942452E0
6.913637583E0,-8.687442768E0,1.417224558E-1,1.896578895E0,8.893186078E0
6.923583583E0,-7.498014439E0,2.309734967E-1,1.043685309E0,7.573826530E0
6.933529583E0,-6.032882291E0,9.884250283E-2,1.454822338E-1,6.035445606E0
6.943475583E0,-3.630529182E0,-7.394447386E-2,-5.565315539E-1,3.673681709E0
6.953422583E0,5.756408393E-2,1.657713960E-2,-9.526120019E-1,9.544936100E-1
6.963368583E0,3.172168871E0,5.388852417E-2,-1.085775906E0,3.353277298E0
6.973314583E0,4.510258564E0,5.833445460E-2,-1.296984937E0,4.693400170E0
6.983260583E0,5.164414061E0,1.974557948E-1,-1.652652354E0,5.425994949E0
6.993206583E0,5.511972560E0,4.099339637E-1,-2.008791642E0,5.880912447E0
7.003152583E0,5.601942497E0,4.955521113E-1,-2.345230490E0,6.093228840E0
7.013099583E0,5.564718538E0,4.115752771E-1,-2.745950119E0,6.218981321E0
7.023045583E0,5.657488707E0,2.152386394E-1,-3.104508399E0,6.456893878E0
7.032991583E0,5.838791569E0,-4.299516141E-2,-3.325324405E0,6.719458160E0
7.042937583E0,6.139327928E0,-3.336321849E-1,-3.460702066E0,7.055431712E0
7.052883583E0,6.302120259E0,-6.128110045E-1,-3.401850425E0,7.187826056E0
7.062830583E0,6.447127115E0,-8.898167065E-1,-3.355698352E0,7.322426731E0
7.072776583E0,6.353875135E0,-1.115423921E0,-3.195103989E0,7.198929730E0
7.082722583E0,6.017121706E0,-1.364173246E0,-2.938522904E0,6.833859753E0
7.092668583E0,5.667962240E0,-1.649140517E0,-2.623060942E0,6.459559513E0
7.102614583E0,5.472917837E0,-1.947792318E0,-2.389679269E0,6.281503926E0
7.112560583E0,5.326624594E0,-2.352714634E0,-2.114448490E0,6.195085805E0
7.122507583E0,6.118707722E0,-3.572658704E0,-1.823299250E0,7.316207663E0
7.132453583E0,7.125141006E0,-2.941542991E0,-1.611035966E0,7.875007708E0
7.142399583E0,5.634629602E0,-2.310838629E0,-1.746210728E0,6.335477712E0
7.152345583E0,4.504501981E0,-2.212354561E0,-2.334741755E0,5.534985985E0
7.162291583E0,4.299633086E0,-1.948724365E0,-2.631866848E0,5.404728895E0
7.172237583E0,4.114538890E0,-1.710305316E0,-2.839985041E0,5.283946402E0
7.182184583E0,3.969510984E0,-1.555863686E0,-3.160593722E0,5.307266900E0
7.192130583E0,3.753699610E0,-1.524941271E0,-3.326706102E0,5.242392596E0
7.202076583E0,3.348070659E0,-1.617184898E0,-3.207829285E0,4.910705942E0
7.212022583E0,3.114841599E0,-1.634578611E0,-2.846247409E0,4.524954114E0
7.221968500E0,3.186257152E0,-1.222340259E0,-2.135026011E0,4.025504492E0
7.231915500E0,3.455831335E0,-3.276063002E-1,-1.751699510E0,3.888257615E0
7.241861500E0,3.788209292E0,-1.348338693E-1,-1.771363696E0,4.184069688E0
7.251807500E0,4.256395265E0,-2.928075099E-1,-1.623494629E0,4.564906538E0
7.261753500E0,4.639218321E0,-5.266324013E-1,-1.447602780E0,4.888275987E0
7.271699500E0,4.757272435E0,-7.791707949E-1,-1.315610073E0,4.996956876E0
7.281645500E0,4.819745257E0,-9.855850357E-1,-1.248485792E0,5.075434856E0
7.291592500E0,4.895383084E0,-1.085484715E0,-1.386809279E0,5.202527519E0
7.301538500E0,5.149767371E0,-9.503976613E-1,-1.666371092E0,5.495466523E0
7.311484500E0,5.441149914E0,-7.550386781E-1,-2.049637367E0,5.863208092E0
7.321430500E0,5.738932820E0,-6.402935028E-1,-2.296047805E0,6.214270770E0
7.331376500E0,5.881359299E0,-5.865715877E-1,-2.410464367E0,6.383164724E0
7.341322500E0,5.903241334E0,-6.214271691E-1,-2.264786251E0,6.353242222E0
7.351269500E0,5.813564926E0,-6.803799668E-1,-1.720046192E0,6.100738722E0
7.361215500E0,5.454725980E0,-8.435988522E-1,-9.067698312E-1,5.593561125E0
7.371161500E0,5.063495797E0,-9.411941439E-1,-1.820717704E-1,5.153444114E0
7.381107500E0,4.857077975E0,-7.445756704E-1,6.832354546E-1,4.961089605E0
7.391053500E0,4.960912830E0,-3.316236297E-1,1.240734723E0,5.124456361E0
7.401000500E0,4.804381113E0,4.170234203E-2,1.506221117E0,5.035128501E0
7.410946500E0,4.751912878E0,4.423515120E-1,1.080939090E0,4.893340390E0
7.420892500E0,4.842602608E0,5.213383323E-1,6.695354283E-2,4.871044698E0
7.430838500E0,5.069930073E0,4.627734974E-1,-9.095042816E-1,5.171609836E0
7.440784500E0,5.250252941E0,2.607752931E-1,-1.360895589E0,5.430027302E0
7.450730500E0,5.243563727E0,1.008469284E-2,-1.154681835E0,5.369204075E0
7.460677500E0,5.181022493E0,-2.912000190E-2,-4.511270133E-1,5.200707416E0
7.470623500E0,4.836950689E0,2.420908079E-1,9.326209563E-1,4.931985581E0
7.480569500E0,4.557835604E0,8.447896376E-1,2.585760384E0,5.307889570E0
7.490515500E0,2.848802058E0,1.861087174E0,3.419289161E0,4.823987665E0
7.500461500E0,-3.814296645E-1,2.805353152E0,3.524689609E0,4.520943677E0
7.510407500E0,-3.897875576E0,3.827054392E0,2.827704134E0,6.151072264E0
7.520354500E0,-3.157545569E0,4.049336295E0,1.609067793E0,5.381107471E0
7.530300500E0,-5.148976243E0,3.891243079E0,7.515709868E-1,6.497583243E0
7.540246500E0,-1.076116891E1,3.930281722E0,2.126138243E-1,1.145840632E1
7.550192500E0,-1.675736109E1,3.999572105E0,-2.241088656E-1,1.722950819E1
7.560138500E0,-1.980214778E1,3.945397359E0,-8.822501171E-1,2.021063043E1
7.570085500E0,-1.942238516E1,3.343011063E0,-3.167074192E-1,1.971053200E1
7.580031500E0,-2.164969018E1,2.134464093E0,1.388011467E0,2.179888982E1
7.589977500E0,-2.739252133E1,1.063179342E0,2.042500547E0,2.748913210E1
7.599923500E0,-2.981536192E1,8.807669708E-1,1.660891081E0,2.987457307E1
7.609869500E0,-2.545142115E1,1.215017499E0,1.212114941E0,2.550922047E1
7.619815500E0,-1.976269311E1,3.478081745E-1,4.795748869E-1,1.977157054E1
7.629762500E0,-1.297048087E1,-8.576239836E-1,-5.667682743E-1,1.301115365E1
7.639708500E0,-8.680119715E0,-1.461622942E0,-1.356403173E0,8.906214093E0
7.649654500E0,-6.150842265E0,-1.635917915E0,-1.713820223E0,6.591378290E0
7.659600500E0,-4.739540169E0,-1.809624367E0,-1.960833948E0,5.439011963E0
7.669546500E0,-3.943783236E0,-2.252291336E0,-2.277361858E0,5.080612119E0
7.679493500E0,-3.066023780E0,-2.585964451E0,-2.435495274E0,4.692478150E0
7.689439500E0,-1.901574757E0,-2.674938901E0,-1.963639442E0,3.824547625E0
7.699385500E0,-9.635299230E-1,-2.704884539E0,-1.339733931E0,3.168544979E0
7.709331500E0,2.059383506E-1,-2.277361858E0,-7.606069815E-1,2.409836222E0
7.719277500E0,1.588970913E0,-1.719615984E0,-3.219335874E-1,2.363376595E0
7.729223500E0,2.628266718E0,-1.197341585E0,1.808975764E-1,2.893810074E0
7.739170500E0,3.621650185E0,-7.836249845E-1,4.810015344E-1,3.736546622E0
7.749116500E0,4.591498609E0,-3.822802151E-1,6.817270191E-1,4.657547570E0
7.759062500E0,5.261112975E0,3.021000512E-2,1.017780097E0,5.358740403E0
7.769008500E0,5.724787821E0,2.519036783E-1,1.134408661E0,5.841535249E0
7.778954500E0,5.870766483E0,4.109170999E-1,1.449157847E0,6.060924882E0
7.788900500E0,6.018337342E0,4.563259189E-1,1.884799095E0,6.323059808E0
7.798847500E0,6.197849786E0,2.853668549E-1,2.190474865E0,6.579738319E0
7.808793500E0,6.506925420E0,2.461504566E-1,2.550111372E0,6.993120653E0
7.818739500E0,6.704896939E0,2.771286397E-1,2.734768781E0,7.246475249E0
7.828685500E0,6.727660734E0,1.944251829E-1,2.758971283E0,7.274004581E0
7.838631500E0,6.608270531E0,4.535582855E-2,2.626237734E0,7.111147671E0
7.848578500E0,6.413892710E0,-4.914482430E-2,2.263937235E0,6.801900228E0
7.858524500E0,6.298793778E0,-1.221661690E-1,2.003432668E0,6.610860012E0
7.868470500E0,5.792339534E0,7.909455523E-2,8.737546974E-1,5.858404262E0
7.878416500E0,4.895112943E0,3.261000209E-1,4.524604708E-2,4.906171537E0
7.888362500E0,2.826717709E0,6.123362106E-1,1.290199828E-1,2.895157128E0
7.898308500E0,-5.685247779E-3,8.629638802E-1,-1.322857405E0,1.579458988E0
7.908255500E0,-3.276080325E0,1.545003945E0,-3.680698292E0,5.164037122E0
7.918201500E0,-5.875670543E0,2.411379017E0,-5.446425857E0,8.366708296E0
7.928147500E0,-7.548578821E0,2.748914073E0,-6.067045818E0,1.006710563E1
7.938093500E0,-8.070999473E0,2.589871269E0,-6.136559857E0,1.046450345E1
7.948039500E0,-6.231547290E0,1.953958207E0,-5.178457319E0,8.334659832E0
7.957986500E0,-3.199400523E0,8.086979183E-1,-3.808195075E0,5.039097713E0
7.967932500E0,-7.597199589E-1,5.065369830E-2,-2.581226745E0,2.691184074E0
7.977878500E0,1.234012764E0,-7.338118965E-1,-2.492945775E0,2.876811784E0
7.987824500E0,2.547859901E0,-1.132044851E0,-2.313610502E0,3.622969662E0
7.997770500E0,3.348068905E0,-1.060909452E0,-2.368475511E0,4.236126828E0
8.007716500E0,3.579870075E0,-5.992267531E-1,-2.712839091E0,4.531449921E0
8.017663500E0,3.542213421E0,6.644629687E-4,-3.309557681E0,4.847726107E0
8.027609500E0,3.781942831E0,4.771447840E-1,-3.635681748E0,5.267726312E0
8.037555500E0,4.099256022E0,7.602982485E-1,-3.623652856E0,5.523840456E0
8.047501500E0,4.453144716E0,1.099998601E0,-3.444035162E0,5.736015427E0
8.057447500E0,4.514604800E0,1.429412385E0,-3.062030717E0,5.639229413E0
8.067393500E0,4.175254038E0,1.571855821E0,-2.934954348E0,5.340171723E0
8.077340500E0,3.546062059E0,1.736225146E0,-2.797775745E0,4.839068402E0
8.087286500E0,2.853364640E0,1.926529796E0,-2.451917325E0,4.226713308E0
8.097232500E0,2.230343227E0,2.137473071E0,-2.136510034E0,3.756048078E0
8.107178500E0,1.492426951E0,2.465756807E0,-1.812333382E0,3.404680179E0
8.117124500E0,7.229146600E-1,2.883732447E0,-1.090251365E0,3.166570143E0
8.127071500E0,2.349949193E-1,3.145428384E0,-4.328068095E-1,3.183750000E0
8.137017500E0,-6.081542820E-1,3.252476869E0,-1.995926598E-1,3.314859672E0
8.146963500E0,-1.389545192E0,2.860706111E0,8.737201989E-3,3.180338289E0
8.156909500E0,-2.284137611E0,2.002369060E0,-2.978507334E-1,3.052127379E0
8.166855500E0,-3.067944006E0,8.454828250E-1,-1.337383935E0,3.451915036E0
8.176801500E0,-3.647196670E0,-4.319729966E-1,-1.698178775E0,4.046289087E0
8.186748500E0,-4.875394378E0,-1.466125298E0,-9.352633131E-1,5.176264212E0
8.196694500E0,-5.709405550E0,-2.563126104E0,-3.452813002E-1,6.267866171E0
8.206640500E0,-5.365967585E0,-3.450131177E0,-1.688947776E-1,6.381656423E0
8.216586500E0,-3.510775867E0,-3.516735349E0,1.353203577E-1,4.971044789E0
8.226533625E0,-6.918928421E-1,-3.142072375E0,6.288534254E-1,3.278229879E0
8.236479625E0,1.526961776E0,-2.817376197E0,8.685471672E-1,3.320179977E0
8.246426625E0,3.026956778E0,-2.341697895E0,1.151198063E0,3.996407555E0
8.256372625E0,4.012472232E0,-1.895332854E0,1.352891920E0,4.639238794E0
8.266318625E0,4.365208440E0,-1.783736697E0,1.141666517E0,4.851820665E0
8.276264625E0,4.317911482E0,-1.688835509E0,8.168282524E-1,4.707837437E0
8.286210625E0,4.233257248E0,-1.579989882E0,5.827729806E-1,4.555925735E0
8.296157625E0,4.083205415E0,-1.627519852E0,2.948914576E-1,4.405490699E0
8.306103625E0,4.089051461E0,-1.431912654E0,-1.210981750E-1,4.334210478E0
8.316049625E0,4.180665636E0,-1.183431498E0,-5.193184116E-1,4.375861845E0
8.325995625E0,4.444982003E0,-8.207248369E-1,-9.748314214E-1,4.624040502E0
8.335941625E0,4.782498493E0,-4.437283120E-1,-1.249302209E0,4.962856301E0
8.345887625E0,5.075674378E0,-7.695670355E-2,-1.283695532E0,5.236054520E0
8.355834625E0,5.386801214E0,2.237960030E-1,-1.173274372E0,5.517633979E0
8.365780625E0,5.722040799E0,5.409539866E-1,-9.090596008E-1,5.819000900E0
8.375726625E0,5.849108981E0,9.231832579E-1,-7.488108087E-1,5.968673289E0
8.385672625E0,5.818965415E0,1.309209126E0,-4.332226197E-1,5.980139536E0
8.395618625E0,5.562065656E0,1.754061785E0,-1.602721810E-1,5.834294669E0
8.405565625E0,5.584476280E0,1.944399179E0,-1.907502262E-1,5.916371281E0
8.415511625E0,5.923120698E0,1.587743583E0,-4.417138731E-1,6.148121634E0
8.425457625E0,6.203105848E0,8.186806503E-1,-6.772783113E-1,6.293446280E0
8.435403625E0,6.192963853E0,-1.616083429E-1,-1.103449627E0,6.292576549E0
8.445349625E0,5.771359724E0,-1.487226437E0,-1.457897973E0,6.135625644E0
8.455295625E0,4.824569795E0,-2.755937163E0,-1.511405990E0,5.758125686E0
8.465242625E0,3.573483161E0,-3.693074217E0,-1.151147193E0,5.266281319E0
8.475188625E0,1.605551863E0,-4.638889415E0,-9.407971179E-1,4.998218783E0
8.485134625E0,-1.044680505E0,-5.610451950E0,-7.614460570E-1,5.757458514E0
8.495080625E0,-3.909339042E0,-5.429349064E0,-6.003608206E-1,6.717231284E0
8.505026625E0,-6.598326756E0,-3.608865833E0,-2.009553534E0,7.784608788E0
8.514972625E0,-7.860232492E0,-1.598668228E0,-3.026456841E0,8.573122882E0
8.524919625E0,-8.467758783E0,-1.735453606E-2,-8.944023854E-1,8.514880834E0
8.534865625E0,-7.941836818E0,1.910009073E0,6.947624801E0,1.072335755E1
8.544811625E0,-6.703114707E0,3.497814051E0,2.407707989E1,2.523632751E1
8.554757625E0,-1.032589282E1,3.115619863E0,1.736638953E1,2.044315619E1
8.564703625E0,-1.244585231E1,1.205983258E0,4.223099465E0,1.319803790E1
8.574649625E0,-1.434392868E1,2.803950405E-1,8.608493078E-1,1.437247275E1
8.584596625E0,-1.932988572E1,-2.823006481E-1,-7.627996874E-1,1.934699043E1
8.594542625E0,-2.367208536E1,-7.307800421E-1,-7.212546355E-1,2.369434264E1
8.604488625E0,-2.483080938E1,-1.169362439E0,-7.915171176E-2,2.485845466E1
8.614434625E0,-2.505510857E1,5.639913585E-3,4.714992973E-1,2.505954527E1
8.624380625E0,-2.540131753E1,9.416487649E-1,-4.572201043E-2,2.541880653E1
8.634327625E0,-2.558867869E1,8.453857613E-1,-1.537094416E0,2.564873903E1
8.644273625E0,-2.489829093E1,1.393975846E-1,-9.354951552E-1,2.491624919E1
8.654219625E0,-2.280676528E1,-1.938899069E-1,-6.666717544E-2,2.280768686E1
8.664165625E0,-1.870823197E1,-1.351294095E-1,-2.202093282E0,1.883787191E1
8.674111625E0,-1.390905956E1,2.485241703E-1,-1.899284694E0,1.404033420E1
8.684057625E0,-1.058973790E1,1.464063277E0,-1.277368990E0,1.076650833E1
8.694004625E0,-6.147774231E0,2.536344979E0,-8.665982902E-1,6.706650912E0
8.703950625E0,-1.420860540E0,2.279041178E0,3.978094697E-1,2.714981720E0
8.713896625E0,1.494439563E0,5.345404682E-1,3.020637107E0,3.412232649E0
8.723842625E0,3.599602089E0,-1.133732430E0,7.090260025E0,8.032077667E0
8.733788625E0,5.579001532E0,-2.612942627E0,1.216179925E1,1.363312467E1
8.743735625E0,6.271504823E0,-2.971061782E0,1.128712596E1,1.324983748E1
8.753681625E0,5.927494415E0,-3.308161658E0,1.083363462E1,1.278462994E1
8.763627625E0,4.460661896E0,-1.961733835E0,1.179727681E1,1.276407632E1
8.773573625E0,3.817566993E0,-1.504697041E0,9.156304679E0,1.003373541E1
8.783519625E0,3.653200006E0,-3.307072614E0,3.518466125E0,6.054932158E0
8.793465625E0,4.480496237E0,-3.497905560E0,-6.821145433E-1,5.724986470E0
8.803412625E0,5.852839504E0,-2.111897934E0,-2.658886832E0,6.766500006E0
8.813358625E0,7.280620224E0,-6.326745808E-1,-3.292180341E0,8.015370195E0
8.823304625E0,8.185874457E0,2.897763133E-2,-3.662005329E0,8.967701119E0
8.833250625E0,8.559985746E0,8.468463957E-2,-3.558517798E0,9.270575839E0
8.843196625E0,8.310604337E0,3.705088198E-3,-3.779375904E0,9.129613376E0
8.853142625E0,8.198750610E0,4.841377616E-2,-3.997450735E0,9.121483862E0
8.863089625E0,6.736339756E0,-2.490124677E-1,-3.998630703E0,7.837686395E0
8.873035625E0,3.913449050E0,-5.250282177E-1,-3.646336545E0,5.374617037E0
8.882981625E0,3.327880808E0,-3.561416262E-1,-3.628600770E0,4.936433032E0
8.892927625E0,5.059573485E0,-7.002663472E-1,-3.415506012E0,6.144537259E0
8.902873625E0,5.971409343E0,-1.128859068E0,-2.959024996E0,6.759281121E0
8.912820625E0,5.238588331E0,-1.933921846E0,-3.088046148E0,6.381135512E0
8.922766625E0,5.429573012E0,-3.453815215E0,-4.880391408E0,8.076343413E0
8.932712625E0,8.992480314E0,-3.558476282E0,-9.286005278E0,1.340736177E1
8.942658625E0,1.327625517E1,-1.875875367E0,-1.449599722E1,1.974618431E1
8.952604625E0,1.400014631E1,-2.182420471E0,-1.324788097E1,1.939776807E1
8.962550625E0,1.332463854E1,-3.474906999E0,-1.541779907E1,2.067194957E1
8.972497625E0,1.487938511E1,-2.327191976E0,-1.811809939E1,2.356008169E1
8.982443625E0,2.085590960E1,4.036406055E-1,-1.494455584E1,2.566070226E1
8.992389625E0,2.106189064E1,4.374986154E-1,-6.310381206E0,2.199126084E1
9.002335625E0,1.760172827E1,7.936485739E-1,-3.569285445E0,1.797750023E1
9.012281625E0,1.444693206E1,-4.566894695E-2,-1.890228673E0,1.457013713E1
9.022228625E0,1.237218675E1,-1.158266616E0,-2.508444990E0,1.267694296E1
9.032174625E0,1.093988906E1,-1.198409360E0,-2.468538913E0,1.127878725E1
9.042120625E0,9.822242900E0,-9.590970026E-1,-2.187112716E0,1.010840169E1
9.052066625E0,9.321815380E0,-1.029985283E0,-2.528440129E0,9.713399053E0
9.062012625E0,9.046492800E0,-9.129135007E-1,-2.842674176E0,9.526449470E0
9.071958625E0,8.678528688E0,-6.362621400E-1,-2.591219344E0,9.079433209E0
9.081905625E0,8.773314977E0,-5.045343847E-1,-2.289766434E0,9.081224640E0
9.091851625E0,8.747387838E0,-3.879627585E-1,-2.816716046E0,9.197890975E0
9.101797625E0,8.610554221E0,-3.710619664E-1,-3.664705573E0,9.365329568E0
9.111743625E0,8.675411537E0,-4.704164661E-1,-4.056761382E0,9.588606255E0
9.121689625E0,8.630741733E0,-4.781048968E-1,-4.399509376E0,9.699173672E0
9.131635625E0,8.566795413E0,-4.178089938E-1,-4.624162325E0,9.744096942E0
9.141582625E0,8.456349696E0,-3.506417352E-1,-4.806866180E0,9.733383907E0
9.151528625E0,8.291120830E0,-2.740034491E-1,-4.836135002E0,9.602393674E0
9.161474625E0,6.759492976E0,-3.042131070E-1,-3.935028200E0,7.827371068E0
9.171420625E0,-2.023911372E0,6.480466184E-1,1.063826745E1,1.084845224E1
9.181366625E0,-5.572314656E-1,3.592439834E0,8.914220595E1,8.921630464E1
9.191313625E0,2.818580139E-1,3.687299799E0,4.936695651E1,4.950527264E1
9.201259625E0,4.777009127E0,1.498033261E-1,-1.045317150E1,1.149395718E1
9.211205625E0,4.890307117E0,1.111374432E-1,-2.710500205E0,5.592339992E0
9.221151625E0,3.953261572E0,7.094368279E-2,9.880110455E-1,4.075472474E0
9.231096583E0,2.441108454E0,-2.217898598E-1,7.394765475E0,7.790427309E0
9.241042583E0,-3.006662847E0,-1.109835152E0,1.173215169E1,1.216203679E1
9.250989583E0,-1.542718853E1,-4.090964378E0,1.355050595E1,2.093681798E1
9.260935583E0,-3.564861442E0,-2.517971566E0,9.216389498E0,1.019756114E1
9.270881583E0,-9.359357429E-1,-9.788779870E-1,6.521459259E0,6.660601226E0
9.280827583E0,-2.714425440E0,1.286486846E-1,5.692186670E0,6.307586308E0
9.290773583E0,-1.777656469E0,2.648551878E-1,4.783059826E0,5.109586294E0
9.300719583E0,-2.567262132E0,-3.323069134E-1,6.481101776E0,6.978964320E0
9.310666583E0,-3.458202966E0,-4.499262875E-1,8.167366850E0,8.880736607E0
9.320612583E0,-3.463170176E0,1.771311656E-1,8.239683459E0,8.939648014E0
9.330558583E0,-3.199022208E0,4.847058186E-1,7.081989139E0,7.786093564E0
9.340504583E0,-2.898826157E0,4.120220044E-1,6.105975995E0,6.771698315E0
9.350450583E0,-2.962129868E0,2.698627433E-1,5.344770843E0,6.116666954E0
9.360397583E0,-4.326399300E0,5.512024015E-2,4.610091001E0,6.322476428E0
9.370343583E0,-4.642432535E0,1.133970997E-1,4.616224730E0,6.547867554E0
9.380289583E0,-5.266038669E0,2.025916967E-1,4.859929662E0,7.168760212E0
9.390235583E0,-5.944582318E0,3.325662374E-2,5.249720260E0,7.930871815E0
9.400181583E0,-5.937001988E0,-2.582729772E-1,5.094821670E0,7.827637280E0
9.410127583E0,-5.889883370E0,-3.337652090E-1,3.760422154E0,6.995920247E0
9.420074583E0,-4.952373556E0,-2.779745856E-1,2.289534591E0,5.463079933E0
9.430020583E0,-3.974522633E0,-4.774807066E-2,1.555996710E0,4.268516815E0
9.439966583E0,-3.692506744E0,7.645645598E-2,1.550923666E0,4.005722889E0
9.449912583E0,-3.864245900E0,4.246148604E-1,1.558858337E0,4.188404645E0
9.459858583E0,-3.996987635E0,5.427268624E-1,1.298822717E0,4.237617616E0
9.469805583E0,-3.692654679E0,9.981930944E-1,7.459637994E-1,3.897249032E0
9.479751583E0,-2.624947253E0,1.216110051E0,1.859695244E-1,2.898940566E0
9.489697583E0,-1.925213880E0,1.005367336E0,-5.927743506E-1,2.251353680E0
9.499643583E0,-1.466629620E0,6.071506440E-1,-1.432052695E0,2.137851554E0
9.509589583E0,-1.854093611E-2,5.153922987E-1,-2.149546986E0,2.210548627E0
9.519535583E0,2.057694245E0,4.171693084E-1,-2.697798298E0,3.418515978E0
9.529482583E0,3.967529363E0,4.214620417E-1,-3.215108483E0,5.124045478E0
9.539428583E0,5.080652697E0,3.561179450E-1,-3.520499786E0,6.191427183E0
9.549374583E0,5.731654206E0,2.964652357E-1,-3.725130699E0,6.842247460E0
9.559320583E0,5.853198524E0,1.970269015E-1,-3.922812781E0,7.048915709E0
9.569266583E0,5.805706269E0,8.709456950E-2,-4.045728856E0,7.076844828E0
9.579212583E0,5.951691363E0,-6.564347416E-2,-4.003010268E0,7.172937358E0
9.589159583E0,6.107457095E0,-1.895462662E-1,-3.946575281E0,7.274092136E0
9.599105583E0,6.241134385E0,-2.859952113E-1,-4.104400987E0,7.475269837E0
9.609051583E0,6.429062142E0,-3.480291627E-1,-4.068701397E0,7.616317704E0
9.618997583E0,6.495573635E0,-4.443524292E-1,-3.914107447E0,7.596720545E0
9.628943583E0,6.499131081E0,-5.720810544E-1,-3.771190971E0,7.535772215E0
9.638890583E0,6.484876739E0,-7.555584955E-1,-3.551521604E0,7.432213712E0
9.648836583E0,6.428320715E0,-9.679188430E-1,-3.325699212E0,7.302085274E0
9.658782583E0,6.360827474E0,-1.243295803E0,-3.065690489E0,7.169684008E0
9.668728583E0,6.366489333E0,-1.539585915E0,-3.072804211E0,7.234959360E0
9.678674583E0,6.360690649E0,-1.589070316E0,-3.043077552E0,7.227990799E0
9.688620583E0,6.555907545E0,-1.559893587E0,-3.248033570E0,7.480836438E0
9.698567583E0,6.778482394E0,-1.483802308E0,-3.580742480E0,7.808406339E0
9.708513583E0,6.945098219E0,-1.318058595E0,-3.784792764E0,8.018498862E0
9.718459583E0,6.071744640E0,-1.289105229E0,-3.675149869E0,7.213501357E0
9.728405583E0,5.363370252E0,-1.406667301E0,-3.476292497E0,6.544391712E0
9.738351583E0,5.190331260E0,-1.386501716E0,-3.129260248E0,6.217249818E0
9.748298583E0,4.732822888E0,-1.402377491E0,-2.787387582E0,5.668845089E0
9.758244583E0,4.344749617E0,-1.352586696E0,-2.424049788E0,5.155808121E0
9.768190583E0,4.443505581E0,-9.374297065E-1,-2.374893415E0,5.124805853E0
9.778136583E0,4.620768017E0,-7.354607382E-1,-2.630964038E0,5.367901949E0
9.788082583E0,4.642195138E0,-7.430764443E-1,-2.779215513E0,5.461334743E0
9.798028583E0,4.655955976E0,-6.934020084E-1,-2.739157993E0,5.446257330E0
9.807975583E0,4.545706140E0,-7.955408791E-1,-2.714729496E0,5.354071893E0
9.817921583E0,4.429779242E0,-1.076505731E0,-2.674380784E0,5.285274004E0
9.827867583E0,4.464321084E0,-1.387353070E0,-2.522939653E0,5.312262774E0
9.837813583E0,4.481044706E0,-1.699631808E0,-2.292611396E0,5.312680769E0
9.847759583E0,4.520885294E0,-1.847429832E0,-2.022413900E0,5.285977564E0
9.857705583E0,4.584449206E0,-1.862509216E0,-1.865196889E0,5.288201446E0
9.867652583E0,4.653149897E0,-1.817362280E0,-1.774622349E0,5.301310602E0
9.877598583E0,4.719271381E0,-1.787901668E0,-1.637471228E0,5.305603337E0
9.887544583E0,4.627909806E0,-1.761578673E0,-1.412577374E0,5.149376994E0
9.897490583E0,4.389169160E0,-1.757278046E0,-9.386330634E-1,4.820151872E0
9.907436583E0,4.318409665E0,-1.770329616E0,-1.631145126E-1,4.670046608E0
9.917383583E0,4.608474830E0,-1.716274738E0,5.489570707E-1,4.948231311E0
9.927329583E0,5.029381971E0,-1.413046613E0,8.573058951E-1,5.293992552E0
9.937275583E0,5.479767850E0,-8.938524547E-1,7.053010923E-1,5.596809585E0
9.947221583E0,5.651100624E0,-3.649112803E-1,2.973084041E-1,5.670669343E0
9.957167583E0,5.551926000E0,-1.445840786E-2,2.703047928E-1,5.558521029E0
9.967113583E0,5.516542743E0,3.494509497E-1,1.007392226E0,5.618647427E0
9.977060583E0,5.210410599E0,7.430515936E-1,3.675878140E0,6.419702826E0
9.987006583E0,4.669044968E0,1.294617984E0,4.238967346E0,6.437768309E0
9.996952583E0,4.049603806E0,1.075015568E0,2.470859965E0,4.864164720E0
1.000689858E1,-8.892059648E-1,1.514540828E0,2.484328734E0,3.042434950E0
1.001684458E1,-5.735299945E0,4.557104410E0,2.262376029E0,7.666760160E0
1.002679158E1,-3.061711459E0,5.634769936E0,1.256900520E0,6.534868644E0
1.003673758E1,-3.523847902E0,5.370629570E0,3.760361928E-1,6.434482825E0
1.004668358E1,-9.076670280E0,5.100132696E0,9.309059680E-2,1.041181842E1
1.005662958E1,-2.046383742E1,6.817682712E0,2.241424870E-1,2.157080618E1
1.006657558E1,-3.153907197E1,8.703012149E0,1.173584713E0,3.273885738E1
1.007652158E1,-3.407798914E1,9.124482962E0,2.180907943E0,3.534574788E1
1.008646858E1,-3.347056401E1,6.811737848E0,3.575630844E0,3.434331905E1
1.009641458E1,-2.960483409E1,3.904150515E0,2.668623616E0,2.998016252E1
1.010636058E1,-1.939027225E1,1.385053653E0,1.016663279E0,1.946624350E1
1.011630658E1,-9.541227470E0,-1.626821987E0,5.066027641E-1,9.692173016E0
1.012625258E1,-5.121875567E0,-5.289716969E0,-1.416917762E-1,7.364427439E0
1.013619958E1,-4.950939819E0,-8.161487474E0,-1.512990147E0,9.664927422E0
1.014614558E1,-5.556591493E0,-9.733535961E0,-1.434450638E0,1.129933980E1
1.015609158E1,-5.710807128E0,-9.881130209E0,-3.444603512E-1,1.141791160E1
1.016603758E1,-6.015041267E0,-7.671983138E0,-4.082352014E-1,9.757392208E0
1.017598358E1,-5.875254221E0,-5.138330802E0,-1.952977629E0,8.045817374E0
1.018592958E1,-4.518965068E0,-3.595348240E0,-3.000002283E0,6.507502436E0
1.019587658E1,-2.923035384E0,-2.311216944E0,-3.313904209E0,4.986764554E0
1.020582258E1,-1.690903085E0,-7.442406249E-1,-3.595616627E0,4.042462897E0
1.021576858E1,-3.334088212E-1,3.316821019E-1,-3.145619588E0,3.180581244E0
1.022571496E1,1.333196159E0,1.147947962E0,-2.726873285E0,3.245155533E0
1.023566096E1,3.106527443E0,1.628258063E0,-2.472384626E0,4.291202956E0
1.024560696E1,4.235411947E0,1.795025039E0,-2.503951989E0,5.237423490E0
1.025555396E1,4.822876441E0,1.877181635E0,-2.804156227E0,5.886190636E0
1.026549996E1,5.179826152E0,1.841756571E0,-2.824189957E0,6.180510913E0
1.027544596E1,5.518793921E0,1.802630804E0,-2.649616949E0,6.381773589E0
1.028539196E1,5.369587596E0,1.880609857E0,-2.454240424E0,6.196164979E0
1.029533796E1,5.394581519E0,2.029193454E0,-2.158373358E0,6.154487095E0
1.030528496E1,5.555327910E0,2.100274546E0,-1.761366127E0,6.194774571E0
1.031523096E1,5.441179735E0,2.139941180E0,-1.493925154E0,6.034699456E0
1.032517696E1,5.072227444E0,2.022968654E0,-1.302673401E0,5.613987122E0
1.033512296E1,4.671228318E0,1.836063137E0,-1.211596878E0,5.163280821E0
1.034506896E1,4.151771035E0,1.637558352E0,-1.337778768E0,4.659232997E0
1.035501496E1,3.276590202E0,1.434726042E0,-1.617651068E0,3.925719952E0
1.036496196E1,2.352639497E0,1.213800255E0,-1.810708733E0,3.207318159E0
1.037490796E1,1.405427983E0,8.347914105E-1,-1.919608300E0,2.521309291E0
1.038485396E1,2.041216207E-1,3.746131998E-1,-1.871948961E0,1.919946249E0
1.039479996E1,-1.253957616E0,1.432076669E-1,-1.864293494E0,2.251334798E0
1.040474596E1,-2.488374422E0,8.290876709E-2,-1.595529881E0,2.957126431E0
1.041469296E1,-3.241923814E0,5.049991652E-2,-8.596137911E-1,3.354333932E0
1.042463896E1,-3.807894529E0,-8.718381263E-2,2.121460471E-1,3.814795893E0
1.043458496E1,-3.419438850E0,5.619934380E-2,9.686912602E-1,3.554445550E0
1.044453096E1,-2.467064829E0,3.379768854E-1,1.288928351E0,2.803921101E0
1.045447696E1,-1.411559958E0,5.424666613E-1,1.068402075E0,1.851554641E0
1.046442296E1,-6.311326700E-1,6.609747391E-1,7.881178388E-1,1.206791523E0
1.047436996E1,-4.429920745E-1,8.261492258E-1,3.765644887E-1,1.010230338E0
1.048431596E1,-8.234855998E-1,1.051937119E0,-2.928142342E-1,1.367640454E0
1.049426196E1,-1.487811744E0,1.041443048E0,-1.028871388E0,2.087286214E0
1.050420796E1,-1.690758659E0,1.068479769E0,-1.796297685E0,2.688307875E0
1.051415396E1,-1.683878825E0,1.050665350E0,-2.615478565E0,3.283302255E0
1.052409996E1,-1.721032033E0,9.970075715E-1,-3.401843993E0,3.940624051E0
1.053404696E1,-1.433698102E0,9.805317988E-1,-3.929513983E0,4.296278971E0
1.054399296E1,-1.045512564E0,1.073906936E0,-4.067279938E0,4.334644014E0
1.055393896E1,-4.909947914E-1,1.251589494E0,-3.727276043E0,3.962340072E0
1.056388496E1,3.133856159E-1,1.434412339E0,-3.064181322E0,3.397786997E0
1.057383096E1,7.971088099E-1,1.537027465E0,-2.339202303E0,2.910275468E0
1.058377796E1,1.081080008E0,1.634711927E0,-1.858033173E0,2.700611845E0
1.059372396E1,1.342005574E0,1.677552722E0,-1.667632482E0,2.719588239E0
1.060366996E1,1.479542027E0,1.716652176E0,-1.730501745E0,2.851416418E0
1.061361596E1,1.437129833E0,1.809936023E0,-1.993928750E0,3.052369969E0
1.062356196E1,1.323674553E0,1.914689184E0,-2.261269882E0,3.245225797E0
1.063350896E1,1.043302317E0,2.090618455E0,-2.570328412E0,3.473579334E0
1.064345496E1,2.080176204E-1,2.234312902E0,-2.800430381E0,3.588570160E0
1.065340096E1,-8.480725569E-1,2.390475660E0,-2.970930512E0,3.906408715E0
1.066334696E1,-1.643342417E0,2.357244179E0,-3.111781751E0,4.235606224E0
1.067329296E1,-1.901408111E0,1.820464812E0,-3.104972084E0,4.070662916E0
1.068323896E1,-2.275607108E0,1.323062350E0,-2.896501304E0,3.913898504E0
1.069318596E1,-2.654790857E0,9.928057623E-1,-2.286045119E0,3.641370630E0
1.070313196E1,-2.983911915E0,3.771480408E-1,-1.402420322E0,3.318546929E0
1.071307796E1,-3.205607343E0,-5.292119005E-1,-7.944588518E-1,3.344719501E0
1.072302396E1,-3.097935544E0,-1.694547070E0,3.812834841E-1,3.551629415E0
1.073296996E1,-3.030273319E0,-2.784394977E0,2.090580740E0,4.615835743E0
1.074291596E1,-1.444590880E0,-3.316446578E0,3.074298175E0,4.747311869E0
1.075286296E1,8.212806147E-1,-3.315004362E0,3.260667649E0,4.721833255E0
1.076280896E1,2.188362558E0,-3.120297636E0,3.122234818E0,4.926818272E0
1.077275496E1,2.635738875E0,-3.090378603E0,2.608278011E0,4.827077118E0
1.078270096E1,1.932732230E0,-2.719413700E0,2.065537115E0,3.923914923E0
1.079264696E1,5.604819328E-1,-1.615692981E0,1.613954019E0,2.351478552E0
1.080259396E1,-6.926500565E-1,-6.981908780E-1,9.525541145E-1,1.369158115E0
1.081253996E1,-1.116921101E0,-2.869605135E-2,-2.371390933E-1,1.142178251E0
1.082248596E1,-8.491396737E-1,6.731621638E-1,-1.558597552E0,1.898265475E0
1.083243196E1,-9.704530263E-1,7.651262945E-1,-2.623525211E0,2.900014113E0
1.084237796E1,-1.300120214E0,3.594587517E-1,-3.225142890E0,3.495864675E0
1.085232396E1,-1.450001893E0,-5.063454866E-2,-3.525778068E0,3.812634303E0
1.086227096E1,-1.294913853E0,-4.604606313E-1,-3.372430159E0,3.641718147E0
1.087221696E1,-8.596149606E-1,-9.550749953E-1,-2.753301823E0,3.038383955E0
1.088216296E1,-6.081899500E-1,-1.446080750E0,-1.873788788E0,2.443793971E0
1.089210896E1,-2.331343353E-1,-2.016284264E0,-9.848722601E-1,2.256042380E0
1.090205496E1,6.316864014E-2,-2.540944984E0,-6.678134233E-1,2.627996662E0
1.091200196E1,-1.413219398E-1,-3.109543144E0,-6.984844083E-1,3.190158448E0
1.092194796E1,-4.412460959E-1,-3.514417805E0,-7.260429204E-1,3.615656088E0
1.093189396E1,-6.778390592E-1,-3.577491428E0,-6.716684926E-1,3.702573331E0
1.094183996E1,-9.824029809E-1,-3.352795794E0,-8.340012324E-1,3.591923344E0
1.095178596E1,-9.092572367E-1,-2.669650387E0,-1.301509513E0,3.106076129E0
1.096173196E1,-5.101227880E-1,-1.917367501E0,-2.082575902E0,2.876394580E0
1.097167896E1,-1.627280116E-2,-1.566463226E0,-2.990367242E0,3.375850720E0
1.098162496E1,9.958486533E-1,-1.282575351E0,-3.762064052E0,4.097540726E0
1.099157096E1,1.958362330E0,-1.003517861E0,-4.274363759E0,4.807537483E0
1.100151696E1,3.203684778E0,-5.748470067E-1,-4.817172482E0,5.813707592E0
1.101146296E1,4.391588738E0,-1.435757491E-1,-5.123525652E0,6.749605969E0
1.102140896E1,5.273648236E0,1.018632110E-1,-5.352183359E0,7.514493232E0
1.103135596E1,5.667356468E0,3.007328260E-1,-5.658939402E0,8.014547069E0
1.104130196E1,5.989086646E0,4.308205104E-1,-6.018560706E0,8.501637380E0
1.105124796E1,6.300546774E0,4.649205950E-1,-6.162586398E0,8.825560148E0
1.106119396E1,6.571650004E0,4.762390503E-1,-6.105663754E0,8.982901384E0
1.107113996E1,6.802065384E0,5.288841641E-1,-5.951794274E0,9.053820576E0
1.108108696E1,6.860504796E0,5.275501218E-1,-5.622677894E0,8.885906925E0
1.109103296E1,7.044617829E0,4.900767785E-1,-4.976448298E0,8.638972929E0
1.110097896E1,7.368254199E0,5.614449692E-1,-3.400183384E0,8.134349233E0
1.111092496E1,7.753437191E0,7.598249164E-1,-1.552704143E0,7.943803392E0
1.112087096E1,7.548959475E0,1.138180700E0,-2.158441186E-2,7.634311387E0
1.113081796E1,5.158107255E0,1.554417962E0,2.178638638E0,5.811088707E0
1.114076396E1,1.680925981E0,1.934412135E0,6.999348101E0,7.453746461E0
1.115070996E1,-2.085170896E0,1.665535817E0,1.133314237E1,1.164311227E1
1.116065596E1,-5.026073032E0,1.066680362E0,6.019552394E0,7.914178930E0
1.117060196E1,-4.853318800E0,8.612074497E-1,1.691410038E0,5.211261801E0
1.118054796E1,-3.744348743E0,1.699587954E0,4.703237146E-1,4.138834512E0
1.119049496E1,-8.882153295E0,3.841566597E0,1.727817142E0,9.830342474E0
1.120044096E1,-1.344105543E1,3.899484437E0,4.616905346E0,1.473715593E1
1.121038696E1,-1.828594372E1,1.329209235E0,8.521883535E0,2.021793841E1
1.122033296E1,-2.590449851E1,-3.878990239E-1,9.032889252E0,2.743695677E1
1.123027912E1,-2.977257667E1,-2.208281098E0,6.819884189E0,3.062341665E1
1.124022512E1,-2.781541068E1,-4.817028348E0,4.755834020E0,2.862723861E1
1.125017212E1,-2.270645044E1,-7.043291681E0,5.419940309E0,2.438373643E1
1.126011813E1,-2.381678992E1,-8.656254305E0,6.202025868E0,2.608898897E1
1.127006412E1,-2.602132120E1,-6.107607368E0,6.975263420E0,2.762365516E1
1.128001012E1,-2.645160610E1,-1.918680201E0,6.478097477E0,2.730081585E1
1.128995612E1,-2.399540832E1,9.941456518E-1,4.898236818E0,2.451041962E1
1.129990312E1,-2.226942487E1,2.351609510E0,3.731898267E0,2.270207955E1
1.130984912E1,-1.895089376E1,2.124012780E0,3.237517937E0,1.934242298E1
1.131979512E1,-1.338569984E1,5.452116367E-1,2.945419695E0,1.371676759E1
1.132974112E1,-8.337483403E0,-1.888148380E0,3.174163356E0,9.118884077E0
1.133968712E1,-3.930070345E0,-3.323840090E0,3.231729194E0,6.077617909E0
1.134963313E1,-3.107005745E-1,-3.334618847E0,3.567231903E0,4.892991023E0
1.135958012E1,2.909321909E0,-2.857750929E0,4.613598745E0,6.157612177E0
1.136952612E1,5.443333849E0,-2.153571040E0,6.177460545E0,8.510509409E0
1.137947212E1,7.329157376E0,-5.641460904E-1,7.934782737E0,1.081644978E1
1.138941812E1,6.778871818E0,1.328204976E0,9.302743517E0,1.158698703E1
1.139936412E1,6.100089018E0,2.011330503E0,9.677907890E0,1.161543962E1
1.140931112E1,6.566349503E0,2.239805192E0,9.148595710E0,1.148174536E1
1.141925713E1,8.311156899E0,1.807130529E0,6.492923677E0,1.070042558E1
1.142920312E1,8.688997543E0,2.655562690E-1,2.204134253E0,8.968132818E0
1.143914913E1,8.599603556E0,2.485198215E-1,-3.841784406E-1,8.611767327E0
1.144909512E1,8.793717667E0,4.480102281E-1,-2.286360430E0,9.097121940E0
1.145904112E1,8.530053264E0,5.366496319E-1,-3.568494025E0,9.261962596E0
1.146898812E1,7.676133492E0,4.338812354E-1,-4.527496741E0,8.922415875E0
1.147893412E1,6.484394343E0,1.721362547E-1,-4.707798851E0,8.015009103E0
1.148888012E1,5.502321730E0,2.176574863E-2,-4.606812175E0,7.176262020E0
1.149882612E1,6.105591833E0,1.310542657E-1,-4.528949482E0,7.603078999E0
1.150877213E1,7.064242254E0,2.544275558E-1,-4.908455120E0,8.605880761E0
1.151871912E1,7.144662520E0,1.605809140E-1,-5.318692846E0,8.908450053E0
1.152866512E1,6.599388025E0,-1.927592747E-1,-5.712515684E0,8.730516244E0
1.153861112E1,6.208637899E0,-5.449812564E-1,-6.565213389E0,9.052414925E0
1.154855712E1,5.879749560E0,-9.522012350E-1,-8.865688121E0,1.068075690E1
1.155850312E1,6.222813304E0,-9.324139649E-1,-8.343922942E0,1.045054311E1
1.156844912E1,8.672066345E0,-5.025506437E-2,-5.677524192E0,1.036540116E1
1.157839612E1,1.100879615E1,1.259303323E-1,-6.089254128E0,1.258127446E1
1.158834212E1,1.186397015E1,-5.577843198E-1,-5.996330761E0,1.330491991E1
1.159828813E1,1.269959457E1,-3.761388114E-1,-5.970700661E0,1.403817827E1
1.160823412E1,1.395479882E1,-6.515739512E-1,-9.850748076E0,1.709380579E1
1.161818012E1,1.481404131E1,4.548978826E-1,-1.419002528E1,2.051876140E1
1.162812712E1,1.805507342E1,1.528849550E0,-1.435735973E1,2.311832251E1
1.163807312E1,1.552300334E1,-7.590469444E-1,-4.872324005E0,1.628739777E1
1.164801912E1,1.164985915E1,-1.036852253E0,-4.451674726E0,1.251445918E1
1.165796512E1,1.056478432E1,-8.825997806E-1,-4.857017748E0,1.166122942E1
1.166791112E1,1.017459728E1,-6.127797219E-1,-4.261792245E0,1.104811305E1
1.167785712E1,9.907372513E0,-3.330307987E-1,-3.797274231E0,1.061537711E1
1.168780413E1,9.273056619E0,8.207678139E-2,-3.925531444E0,1.007006022E1
1.169775012E1,9.610642691E0,2.374846637E-1,-3.974891592E0,1.040291378E1
1.170769612E1,9.593629047E0,2.928911251E-1,-4.299310319E0,1.051701349E1
1.171764212E1,9.414852768E0,3.279095149E-1,-4.715954548E0,1.053504649E1
1.172758812E1,9.209413769E0,3.426307574E-1,-5.137663634E0,1.055112721E1
1.173753512E1,9.033500286E0,3.334164226E-1,-5.579254131E0,1.062277603E1
1.174748112E1,8.678081376E0,4.075640872E-1,-5.804060277E0,1.044807736E1
1.175742713E1,8.102580870E0,5.321262259E-1,-5.728623594E0,9.937409288E0
1.176737312E1,7.635885937E0,6.299790875E-1,-5.668157537E0,9.530563339E0
1.177731913E1,4.257239603E0,-1.775852019E0,1.725514508E1,1.786106859E1
1.178726512E1,-8.644873284E0,-1.167612601E1,1.242102971E2,1.250570416E2
1.179721212E1,-3.595792043E-1,-2.134579868E0,2.160832229E1,2.171647579E1
1.180715812E1,6.954881780E0,2.080365070E0,-1.053331929E1,1.279254137E1
1.181710412E1,6.609628254E0,5.360557741E-1,-4.178529063E0,7.838025682E0
1.182705012E1,6.120640227E0,8.939623824E-1,-3.263515243E0,6.993706976E0
1.183699612E1,4.547765529E0,1.006450240E0,1.971753623E0,5.057956677E0
1.184694213E1,-3.455800930E0,-5.871744722E-1,9.478279270E0,1.010569700E1
1.185688912E1,-2.607773279E1,-5.470250337E0,1.149308010E1,2.901831622E1
1.186683512E1,-8.692464942E0,-1.012323768E0,6.521062818E0,1.091366146E1
1.187678112E1,4.592620690E0,2.301386313E0,5.650161561E0,7.636286364E0
1.188672712E1,-4.850774091E0,-2.503195944E-1,8.812738075E0,1.006265480E1
1.189667312E1,-6.516802536E0,-1.572217179E0,7.494084526E0,1.005494331E1
1.190662012E1,-5.778427253E0,-1.595347887E0,3.510306335E0,6.946769535E0
1.191656613E1,-7.725985683E0,-1.625879123E0,2.244205222E0,8.207971417E0
1.192651212E1,-1.023057853E1,-1.205926540E0,3.323535157E0,1.082427281E1
1.193645813E1,-9.260646488E0,-5.289036792E-1,5.889761748E0,1.098765698E1
1.194640412E1,-1.163153281E1,-1.765484905E-1,6.432680984E0,1.329297218E1
1.195635012E1,-1.341405650E1,3.016739354E-1,5.383354865E0,1.445712380E1
1.196629712E1,-1.314974247E1,6.716571636E-1,3.326223707E0,1.358052335E1
1.197624312E1,-1.144687657E1,1.167078005E0,1.189403771E0,1.156752936E1
1.198618912E1,-9.602053131E0,9.681597483E-1,-5.115191031E-1,9.664285251E0
1.199613512E1,-7.828708398E0,5.420965326E-1,-8.309092247E-1,7.891321434E0
1.200608113E1,-5.696403097E0,2.844515464E-1,-3.251291639E-1,5.712760270E0
1.201602812E1,-3.644950755E0,1.102600685E-1,1.121057421E-1,3.648340854E0
1.202597412E1,-1.626549214E-1,2.320614443E-1,2.010348755E-1,3.474538222E-1
1.203592012E1,2.729191414E0,3.809148172E-1,-2.273607945E-1,2.765009006E0
1.204586612E1,4.032089056E0,3.611962518E-1,-1.041947517E0,4.180174579E0
1.205581212E1,4.640866651E0,3.793913251E-1,-1.714496600E0,4.961963285E0
1.206575812E1,5.028987869E0,4.572858855E-1,-2.214776185E0,5.514078610E0
1.207570512E1,5.288242886E0,6.691036114E-1,-2.715364503E0,5.982174926E0
1.208565112E1,5.588588626E0,8.891996060E-1,-2.968208633E0,6.390090865E0
1.209559713E1,5.878173151E0,9.926402861E-1,-3.056973460E0,6.699503046E0
1.210554312E1,6.131601418E0,1.014703366E0,-3.102796919E0,6.946474472E0
1.211548912E1,6.248826397E0,1.045122628E0,-3.157646726E0,7.078901433E0
1.212543612E1,6.400364592E0,1.146408024E0,-3.221183740E0,7.256372576E0
1.213538212E1,6.628645154E0,1.132762670E0,-3.240474290E0,7.464768011E0
1.214532812E1,6.959212228E0,1.074789573E0,-3.269555417E0,7.763749100E0
1.215527412E1,7.315910509E0,9.679610161E-1,-3.316147785E0,8.090508713E0
1.216522012E1,7.593712310E0,8.602610779E-1,-3.325380539E0,8.334426884E0
1.217516612E1,7.800748767E0,7.470157865E-1,-3.273744947E0,8.492768682E0
1.218511313E1,7.978180187E0,6.401123853E-1,-3.098282284E0,8.582566987E0
1.219505912E1,7.965406945E0,4.372717434E-1,-2.929072634E0,8.498139848E0
1.220500512E1,7.796188524E0,-1.555178100E-1,-2.693602336E0,8.249862716E0
1.221495112E1,7.503771023E0,-8.090689972E-1,-2.584433066E0,7.977497507E0
1.222489712E1,6.938531796E0,-1.405948970E0,-2.448530910E0,7.491009251E0
1.223484437E1,5.803670268E0,-1.557165568E0,-2.083737159E0,6.359977495E0
1.224479037E1,5.326170266E0,-1.257400749E0,-1.906261300E0,5.795082267E0
1.225473637E1,4.859867097E0,-1.349886159E0,-1.795812659E0,5.354011948E0
1.226468238E1,4.056652624E0,-1.495611783E0,-1.529926314E0,4.586279499E0
1.227462837E1,3.625745575E0,-1.747269951E0,-1.333447589E0,4.239936996E0
1.228457437E1,3.149857650E0,-2.006731668E0,-1.022534761E0,3.872228368E0
1.229452137E1,2.742565166E0,-2.203290499E0,-5.567642730E-1,3.561760684E0
1.230446737E1,2.392812792E0,-2.043196220E0,-1.549535537E-1,3.150272124E0
1.231441337E1,2.374446688E0,-1.978695438E0,-2.658185166E-1,3.102239867E0
1.232435937E1,1.807867278E0,-2.414934563E0,-1.088591926E0,3.207074277E0
1.233430537E1,1.765429941E0,-2.567011579E0,-1.955445154E0,3.678322590E0
1.234425137E1,1.904793649E0,-2.229239565E0,-2.623514686E0,3.934536464E0
1.235419837E1,2.381626484E0,-1.487210942E0,-3.034668671E0,4.134386900E0
1.236414437E1,3.892416031E0,-6.502972117E-1,-3.306744878E0,5.148626099E0
1.237409037E1,5.369197587E0,-2.135201427E-1,-3.439855573E0,6.380163002E0
1.238403637E1,5.933928691E0,-1.305402589E-1,-3.482771212E0,6.881732760E0
1.239398237E1,6.076546374E0,-1.847661674E-1,-3.404620251E0,6.967782533E0
1.240392937E1,6.212425141E0,-1.883230287E-1,-3.376450120E0,7.073196385E0
1.241387537E1,6.597718061E0,-2.568581703E-1,-3.311302782E0,7.386513781E0
1.242382138E1,6.763290743E0,-3.999419492E-1,-3.302974008E0,7.537353152E0
1.243376737E1,6.702767383E0,-4.903979369E-1,-2.986256649E0,7.354271514E0
1.244371337E1,6.538041962E0,-4.425184500E-1,-2.185481050E0,6.907831983E0
1.245365937E1,6.364861468E0,-4.026342266E-1,-1.051919358E0,6.463753566E0
1.246360637E1,6.225616459E0,-1.942746171E-1,-3.647037041E-1,6.239315004E0
1.247355237E1,6.098526642E0,-1.778547585E-2,-2.443604046E-1,6.103446202E0
1.248349837E1,5.955207878E0,1.905233359E-1,-3.411207139E-1,5.968011675E0
1.249344437E1,5.902301686E0,4.019759032E-1,-3.635506332E-1,5.927134121E0
1.250339037E1,5.712975860E0,8.325660333E-1,-1.944023788E-2,5.773355809E0
1.251333738E1,5.186466835E0,1.207532478E0,6.255269444E-1,5.361796049E0
1.252328337E1,3.802183553E0,1.228785353E0,1.351095071E0,4.218052999E0
1.253322937E1,2.671106343E0,1.132428794E0,1.241404814E0,3.155675836E0
1.254317537E1,2.629075972E0,1.237797959E0,8.966222808E-1,3.041071484E0
1.255312137E1,2.999766641E0,1.538643928E0,6.316703215E-1,3.430019305E0
1.256306737E1,2.330618883E0,1.953857051E0,1.363901935E0,3.333102194E0
1.257301437E1,1.513819574E0,2.330147012E0,1.961754300E0,3.401428338E0
1.258296038E1,9.262989467E-1,2.490682903E0,1.072402740E0,2.865585228E0
1.259290637E1,-3.792702878E-1,2.446849251E0,6.289423031E-1,2.554698735E0
1.260285238E1,-2.483215424E0,2.238849464E0,1.954548776E-1,3.349180254E0
1.261279837E1,-4.815042341E0,1.748893723E0,-2.905165708E-1,5.131048809E0
1.262274437E1,-7.986125969E0,1.160046655E0,-6.386562824E-2,8.070191760E0
1.263269137E1,-1.315850978E1,4.888126105E-1,4.936792481E-1,1.317683713E1
1.264263737E1,-1.669748443E1,-5.293504795E-1,1.944151257E0,1.681861833E1
1.265258337E1,-2.447809597E1,-1.178648694E0,4.734448121E0,2.495959524E1
1.266252937E1,-3.429735563E1,-7.981089031E-1,5.225553133E0,3.470233402E1
1.267247538E1,-3.891096548E1,9.238618273E-1,4.522132505E0,3.918375222E1
1.268242237E1,-3.217607700E1,3.091983663E0,2.932403208E0,3.245703749E1
1.269236837E1,-1.635703849E1,2.677231302E0,-3.730894884E-1,1.657888631E1
1.270231437E1,-6.796212321E0,6.457059780E-1,-1.456786125E0,6.980520320E0
1.271226037E1,-4.620413091E0,-6.658165991E-1,-1.090108109E0,4.793731799E0
1.272220637E1,-4.029533823E0,-1.343403059E0,-8.388919897E-1,4.329620581E0
1.273215237E1,-4.127513276E0,-1.486697264E0,-1.557442288E0,4.655347579E0
1.274209937E1,-5.842500458E0,-1.334233163E0,-3.046618041E0,6.722861832E0
1.275204537E1,-7.347704744E0,-1.407809554E0,-3.834326867E0,8.406708944E0
1.276199138E1,-6.782056797E0,-1.668817274E0,-4.150482309E0,8.124515301E0
1.277193737E1,-5.548924624E0,-1.932039042E0,-3.578093691E0,6.879396325E0
1.278188337E1,-4.098313451E0,-2.123078687E0,-2.290280842E0,5.152574365E0
1.279183037E1,-2.599238800E0,-1.900230482E0,-4.213854432E-1,3.247227112E0
1.280177637E1,-1.546803133E0,-1.372707842E0,1.659533796E0,2.651599361E0
1.281172237E1,-7.583943951E-1,-6.718874708E-1,3.423220536E0,3.570018722E0
1.282166837E1,4.587649387E-1,-1.931554601E-1,4.151862252E0,4.181594727E0
1.283161437E1,2.213680417E0,-7.718383133E-2,3.518119969E0,4.157343677E0
1.284156037E1,4.004782559E0,1.247035682E-1,2.629948962E0,4.792751388E0
1.285150738E1,5.212385203E0,1.234911115E-1,2.195094165E0,5.657088293E0
1.286145337E1,5.717172992E0,1.352065928E-1,2.061138255E0,6.078868213E0
1.287139937E1,5.712526794E0,-7.340992872E-2,1.618749028E0,5.937903654E0
1.288134537E1,5.768336129E0,-3.067755945E-1,1.143838758E0,5.888648407E0
1.289129137E1,5.568765396E0,-5.938601420E-1,1.292697174E0,5.747598097E0
1.290123737E1,5.335465000E0,-7.094339043E-1,8.290474713E-1,5.445897808E0
1.291118437E1,5.446187291E0,-3.296651779E-1,6.257146400E-1,5.491917147E0
1.292113038E1,5.483546321E0,1.719092365E-2,6.324056089E-1,5.519919622E0
1.293107637E1,4.973845702E0,1.482452990E-1,2.158423644E-1,4.980733446E0
1.294102238E1,4.416542315E0,3.644707657E-1,-2.224660903E-1,4.437136027E0
1.295096837E1,4.129747497E0,8.509494600E-1,-4.362917501E-1,4.239018739E0
1.296091537E1,3.643467901E0,1.399301271E0,-7.091929990E-1,3.966844729E0
1.297086137E1,3.364646346E0,1.879077010E0,-8.806298536E-1,3.953136018E0
1.298080737E1,3.125906285E0,2.263341112E0,-8.414622796E-1,3.949944539E0
1.299075337E1,2.608783211E0,2.240665902E0,-8.972020322E-1,3.554054728E0
1.300069937E1,1.820780854E0,1.841167464E0,-1.093684266E0,2.810922593E0
1.301064538E1,9.453930295E-1,1.590856787E0,-1.300409067E0,2.261781828E0
1.302059237E1,-1.538057452E-1,1.480162124E0,-1.439631856E0,2.070525537E0
1.303053837E1,-1.737796000E0,1.447945427E0,-1.942417558E0,2.981520898E0
1.304048437E1,-3.876692868E0,1.549117461E0,-2.915599480E0,5.092075493E0
1.305043037E1,-5.500544761E0,1.572995443E0,-3.611788271E0,6.765746215E0
1.306037637E1,-5.544648555E0,1.302938865E0,-3.310413421E0,6.587838363E0
1.307032337E1,-3.819953826E0,8.575403684E-1,-2.732392765E0,4.774242656E0
1.308026938E1,-1.643238922E0,1.215928495E-3,-3.038912580E0,3.454739542E0
1.309021537E1,1.582917291E-1,-1.123022670E0,-3.327766787E0,3.515717278E0
1.310016138E1,1.771636176E0,-1.809018888E0,-3.503497837E0,4.322700680E0
1.311010737E1,2.970858006E0,-1.788804771E0,-3.443818231E0,4.887300258E0
1.312005337E1,3.657148046E0,-1.073627146E0,-3.428702593E0,5.126734688E0
1.313000037E1,4.073904834E0,-1.385886589E-1,-3.458990586E0,5.346075503E0
1.313994637E1,4.460758960E0,6.022176039E-1,-3.125521538E0,5.479956335E0
1.314989237E1,4.869620837E0,1.124636794E0,-2.577169654E0,5.623150224E0
1.315983837E1,5.143344204E0,1.572210747E0,-1.938208147E0,5.716859895E0
1.316978438E1,5.278732975E0,1.732536430E0,-1.190520004E0,5.681904802E0
1.317973037E1,5.283275676E0,1.647941253E0,-4.977752227E-1,5.556661985E0
1.318967737E1,5.032047132E0,1.375764181E0,-8.693874121E-2,5.217449930E0
1.319962337E1,4.377335565E0,1.186325212E0,-2.638322175E-2,4.535320301E0
1.320956937E1,3.024904990E0,1.199383214E0,-2.493632823E-1,3.263549040E0
1.321951537E1,1.071453152E0,1.392638661E0,-7.457041830E-1,1.908803035E0
1.322946083E1,-9.694046205E-1,1.460425140E0,-1.094299977E0,2.066417031E0
1.323940783E1,-2.619956070E0,1.206981378E0,-1.249614304E0,3.143645935E0
1.324935383E1,-3.654167721E0,5.501227131E-1,-1.243924963E0,3.899092977E0
1.325929983E1,-5.058437955E0,2.583845859E-1,-1.348918152E0,5.241577751E0
1.326924583E1,-6.337718693E0,-2.197571484E-1,-1.052333341E0,6.428248354E0
1.327919183E1,-7.173085250E0,-1.293007223E0,-6.127379143E-1,7.314401372E0
1.328913783E1,-7.395262488E0,-2.483712437E0,-4.526768178E-1,7.814323454E0
1.329908483E1,-6.099307246E0,-3.275181315E0,-8.422861522E-1,6.974081121E0
1.330903083E1,-3.047797424E0,-3.263983020E0,-7.208546859E-1,4.523525812E0
1.331897683E1,-1.569316667E-1,-2.826969431E0,7.645076591E-1,2.932721547E0
1.332892283E1,1.724029316E0,-2.141890642E0,1.224251422E0,3.009778089E0
1.333886883E1,2.929632213E0,-9.584572441E-1,1.350753009E0,3.365400256E0
1.334881583E1,3.524437886E0,2.546985012E-1,1.330502347E0,3.775813850E0
1.335876183E1,3.429714162E0,1.251830107E0,2.310281682E-1,3.658331841E0
1.336870783E1,3.097154941E0,1.902916400E0,-1.345684935E0,3.876122740E0
1.337865383E1,2.752790776E0,2.336221392E0,-2.314743108E0,4.288802060E0
1.338859983E1,2.718629588E0,2.553250157E0,-2.798065475E0,4.662531888E0
1.339854583E1,2.927320808E0,2.269772757E0,-2.604183791E0,4.528007144E0
1.340849283E1,2.913750005E0,1.501369098E0,-1.976994191E0,3.827865501E0
1.341843883E1,2.518756555E0,5.073120314E-1,-1.383933326E0,2.918350824E0
1.342838483E1,1.412628829E0,-3.797515136E-1,-6.696675754E-1,1.608784039E0
1.343833083E1,1.847071105E-1,-1.477122741E0,3.253946275E-1,1.523774909E0
1.344827683E1,-9.723147798E-1,-2.686005341E0,9.913404500E-1,3.023702467E0
1.345822383E1,-2.056874465E0,-3.764859606E0,8.841779441E-1,4.380259245E0
1.346816983E1,-2.566588533E0,-4.644328203E0,5.023079842E-1,5.330053889E0
1.347811583E1,-2.316838165E0,-5.109925613E0,4.691557333E-1,5.630203012E0
1.348806183E1,-2.064519700E0,-5.022493367E0,-3.359392038E-1,5.440637495E0
1.349800783E1,-1.330454400E0,-4.246271103E0,-1.645794447E0,4.744424787E0
1.350795383E1,-8.272055984E-2,-3.481503536E0,-1.587691835E0,3.827332612E0
1.351790083E1,1.560259915E0,-2.822384922E0,-1.473089039E0,3.545456101E0
1.352784683E1,3.315868288E0,-2.174960301E0,-1.065545417E0,4.106193110E0
1.353779283E1,4.624965148E0,-1.514755129E0,-1.003382206E0,4.969060431E0
1.354773883E1,5.587948941E0,-9.417241940E-1,-1.115762182E0,5.775546993E0
1.355768483E1,6.221842666E0,-4.527842604E-1,-7.031425926E-1,6.277798122E0
1.356763083E1,6.647072654E0,5.296524882E-2,-2.502035272E-1,6.651990829E0
1.357757783E1,6.968725648E0,5.196786001E-1,1.729466057E-1,6.990215557E0
1.358752383E1,7.076678113E0,9.555873576E-1,3.547552514E-1,7.149711295E0
1.359746983E1,7.136686918E0,1.096336563E0,4.581971741E-1,7.234929071E0
1.360741583E1,7.272312500E0,9.837025977E-1,5.535420187E-1,7.359389150E0
1.361736183E1,7.482863134E0,7.179421878E-1,7.822837794E-1,7.557820425E0
1.362730883E1,7.608453725E0,4.862820087E-1,8.432809098E-1,7.670473321E0
1.363725483E1,7.654131004E0,3.080091012E-1,9.809639812E-1,7.722880380E0
1.364720083E1,7.956156065E0,1.765748030E-1,9.293810141E-1,8.012199889E0
1.365714683E1,8.407181044E0,9.572001658E-2,6.523971661E-1,8.432999318E0
1.366709283E1,8.507574229E0,-5.288794132E-1,1.006296458E0,8.583190855E0
1.367703883E1,8.192796391E0,-1.077541200E0,8.763707417E-1,8.309695146E0
1.368698583E1,7.793766607E0,-1.092781748E0,3.235544721E-1,7.876652675E0
1.369693183E1,6.588558982E0,-2.423764078E-1,-5.562714259E-1,6.616441164E0
1.370687783E1,4.610455867E0,4.488556623E-1,-2.446762712E0,5.238742452E0
1.371682383E1,-1.678481845E0,1.175993985E0,-3.947614039E0,4.447911842E0
1.372676983E1,-1.274534904E1,2.627685212E0,-3.843782692E0,1.356920473E1
1.373671683E1,-2.395623899E1,2.559990242E0,-1.845264316E-2,2.409263948E1
1.374666283E1,-3.275520395E1,6.273658937E-1,6.142093077E0,3.333200086E1
1.375660883E1,-3.499715741E1,4.925273466E-1,7.068786711E0,3.570730115E1
1.376655483E1,-3.374559365E1,3.133452702E-1,6.616099952E0,3.438947592E1
1.377650083E1,-3.122971217E1,-2.521392772E0,8.300074672E0,3.241209008E1
1.378644683E1,-2.898210796E1,-2.930673602E0,1.403416424E1,3.233433462E1
1.379639383E1,-2.657061565E1,-8.237037009E-1,1.242676349E1,2.934451490E1
1.380633983E1,-2.569379292E1,-5.478262192E-1,7.667602404E0,2.681908341E1
1.381628583E1,-2.603578019E1,-9.044873706E-1,4.245234100E0,2.639511243E1
1.382623183E1,-2.331144781E1,-1.535644307E0,2.855637160E0,2.353585491E1
1.383617783E1,-1.692361264E1,-1.438947732E0,2.798706330E0,1.721371524E1
1.384612383E1,-1.050110347E1,-1.133651739E0,3.236604602E0,1.104689774E1
1.385607083E1,-5.747938117E0,-7.503068188E-1,3.250345559E0,6.645788077E0
1.386601683E1,-2.335045225E0,9.265994936E-1,4.662352245E0,5.296088300E0
1.387596283E1,1.289989328E0,1.565653387E0,6.769681749E0,7.067102234E0
1.388590883E1,3.011613684E0,-9.799363330E-1,7.383869773E0,8.034402593E0
1.389585483E1,2.826593163E0,-3.217757564E0,1.097828304E1,1.178415424E1
1.390580183E1,2.299518127E0,2.573535025E-1,1.800262975E1,1.815072153E1
1.391574783E1,1.421782061E0,3.798787198E0,1.818840046E1,1.863518607E1
1.392569383E1,3.937299258E0,1.781493412E0,1.059568569E1,1.144310270E1
1.393563983E1,5.383387610E0,-7.293024507E-1,2.630550056E0,6.035937194E0
1.394558583E1,6.317492589E0,-7.552617493E-1,-2.459373110E0,6.821264474E0
1.395553183E1,7.965729711E0,4.481966811E-1,-4.156221936E0,8.995994157E0
1.396547883E1,8.674771852E0,8.600847843E-1,-2.929823709E0,9.196481908E0
1.397542483E1,8.088446395E0,1.184796457E0,-2.278352376E0,8.486318241E0
1.398537083E1,7.673084169E0,1.188482834E0,-2.545209358E0,8.171095569E0
1.399531683E1,7.233905064E0,8.182447404E-1,-2.899852343E0,7.836328894E0
1.400526283E1,6.560248518E0,2.214711866E-1,-2.839248292E0,7.151729928E0
1.401520983E1,6.741965362E0,-5.079950227E-1,-3.308578565E0,7.527207185E0
1.402515583E1,6.216541581E0,-7.934279877E-1,-3.967049307E0,7.417034272E0
1.403510183E1,5.953360743E0,-1.008005599E0,-3.907240769E0,7.192017092E0
1.404504783E1,6.639872392E0,-1.366199598E0,-3.793574405E0,7.768243913E0
1.405499383E1,8.219698260E0,-2.070371301E0,-4.972293266E0,9.827185616E0
1.406493983E1,1.142644990E1,-2.263556874E0,-6.926578918E0,1.355230396E1
1.407488683E1,1.419347982E1,-1.863086337E0,-9.387152753E0,1.711854541E1
1.408483283E1,1.487498801E1,-3.342957561E0,-1.690904371E1,2.276744151E1
1.409477883E1,1.454158211E1,-5.264262870E0,-1.333889522E1,2.042293317E1
1.410472483E1,1.993821015E1,-6.301602781E0,-1.747511734E1,2.725109443E1
1.411467083E1,2.367626495E1,-5.042543469E0,-1.110986411E1,2.663497414E1
1.412461683E1,2.167231188E1,-3.931104425E0,-7.687173035E0,2.332885153E1
1.413456383E1,1.905172548E1,-2.747827660E0,-4.741156340E0,1.982416112E1
1.414450983E1,1.675611096E1,-2.023065572E0,-3.337036378E0,1.720453023E1
1.415445583E1,1.473184466E1,-1.371107459E0,-2.863040028E0,1.506997614E1
1.416440183E1,1.310558079E1,-7.801103693E-1,-2.159748623E0,1.330523709E1
1.417434783E1,1.191606884E1,-2.384646571E-1,-1.600454260E0,1.202543205E1
1.418429483E1,1.120919193E1,-2.379875243E-2,-1.439392705E0,1.130125663E1
1.419424083E1,1.094504045E1,1.483932701E-1,-1.604246764E0,1.106298055E1
1.420418683E1,1.013226695E1,3.743144801E-1,-1.632290010E0,1.026972812E1
1.421413283E1,8.753963617E0,4.839424646E-1,-8.845746776E-1,8.811841560E0
1.422407883E1,7.955573682E0,6.677640143E-1,-4.099425884E-1,7.994067445E0
1.423402612E1,8.483702971E0,9.471737990E-1,-1.002908874E0,8.595125392E0
1.424397212E1,8.677476189E0,9.748004311E-1,-1.556565059E0,8.869708207E0
1.425391812E1,8.418643926E0,9.285761449E-1,-1.327718195E0,8.573135646E0
1.426386413E1,6.299074445E0,9.562363985E-1,2.088110291E0,6.704694736E0
1.427381012E1,-5.037937617E0,1.304762319E0,2.122952329E1,2.185808499E1
1.428375612E1,-8.887925667E-1,1.106357813E0,7.038364232E0,7.180010509E0
1.429370312E1,7.879001470E0,1.084025835E1,4.800158956E1,4.983715948E1
1.430364912E1,1.246474349E1,1.350761429E1,5.128220030E1,5.447650450E1
1.431359512E1,6.645966945E0,6.986905226E-1,-7.156535876E0,9.791478480E0
1.432354112E1,5.440545897E0,1.176938092E0,-4.284075399E0,7.024103142E0
1.433348712E1,4.402333581E0,1.673714610E0,-9.413847631E-1,4.802922738E0
1.434343412E1,3.069811606E0,1.595512486E0,3.540531178E0,4.950228723E0
1.435338013E1,2.551937749E0,1.246801501E0,1.177097837E1,1.210879152E1
1.436332612E1,1.021128505E0,8.903096268E-1,2.260025097E1,2.264081930E1
1.437327212E1,-3.519823848E0,7.228383538E-1,1.216317218E1,1.268283930E1
1.438321812E1,-1.163879388E1,9.358269846E-1,6.859293253E0,1.354205298E1
1.439316412E1,-9.964315038E0,7.567220914E-1,3.562899116E0,1.060916833E1
1.440311112E1,-3.192141790E0,1.574103490E0,2.660487215E0,4.443620509E0
1.441305712E1,-2.089804814E0,2.805463372E0,3.520181113E0,4.962820162E0
1.442300313E1,-2.557134755E0,3.624989237E0,3.034183352E0,5.374546840E0
1.443294912E1,-5.646539211E-2,3.428467535E0,3.710210359E-1,3.448946881E0
1.444289513E1,-3.519511607E0,3.337481644E0,-7.718043995E-1,4.911357012E0
1.445284112E1,-6.621011614E0,3.314845026E0,3.252112588E0,8.087164436E0
1.446278812E1,-1.005100703E1,3.235388966E0,7.517176350E0,1.296142061E1
1.447273412E1,-1.118074873E1,2.777007897E0,7.973076738E0,1.401038428E1
1.448268012E1,-9.625542566E0,2.103735221E0,4.480440688E0,1.082363711E1
1.449262612E1,-9.878446337E0,1.578617249E0,1.600551324E0,1.013101668E1
1.450257212E1,-9.754846138E0,2.118098322E-1,-1.873944908E-1,9.758944783E0
1.451251913E1,-8.913554597E0,-1.644262185E0,4.297124630E-1,9.074122905E0
1.452246512E1,-7.974064332E0,-2.457509310E0,6.840792078E-1,8.372157329E0
1.453241112E1,-6.366892791E0,-3.078050333E0,3.484338266E-1,7.080474828E0
1.454235712E1,-4.515692967E0,-3.223659452E0,-4.320238674E-1,5.565079321E0
1.455230312E1,-2.183270218E0,-3.056701564E0,-6.343457150E-1,3.809525926E0
1.456225012E1,8.704054123E-1,-2.476354301E0,-1.045031338E0,2.825248078E0
1.457219612E1,3.432598593E0,-1.576243571E0,-1.331011055E0,4.004855469E0
1.458214213E1,4.930878607E0,-7.793388292E-1,-1.613152658E0,5.246255269E0
1.459208812E1,5.679075458E0,-1.795086434E-1,-2.110645460E0,6.061266012E0
1.460203413E1,6.114519947E0,5.810816735E-2,-2.570889745E0,6.633265019E0
1.461198012E1,6.395330139E0,1.842176986E-1,-2.936890361E0,7.039851472E0
1.462192712E1,6.397099507E0,2.266231683E-1,-3.190915044E0,7.152354786E0
1.463187312E1,6.141752769E0,4.630380839E-2,-3.278739638E0,6.962284448E0
1.464181912E1,6.117526585E0,-6.779897712E-2,-3.436575285E0,7.017034837E0
1.465176512E1,6.133773658E0,-1.789090115E-1,-3.532459681E0,7.080498508E0
1.466171112E1,6.069214550E0,-1.894994885E-1,-3.503058711E0,7.010185136E0
1.467165712E1,6.366584643E0,-1.499924836E-1,-3.569492437E0,7.300491354E0
1.468160412E1,6.541675422E0,-5.241385639E-2,-3.542200558E0,7.439317800E0
1.469155012E1,6.625729147E0,1.844738066E-2,-3.382836449E0,7.439368890E0
1.470149612E1,6.561343701E0,1.179968119E-3,-3.186123251E0,7.294012197E0
1.471144212E1,6.346551497E0,-9.934887171E-2,-3.029275784E0,7.033142816E0
1.472138812E1,6.080001494E0,-7.382872823E-1,-2.331225239E0,6.553327200E0
1.473133512E1,5.549739726E0,-1.245422143E0,-1.879234300E0,5.990176032E0
1.474128112E1,5.387074864E0,-1.377722121E0,-2.072899929E0,5.934274004E0
1.475122712E1,5.454722471E0,-1.363240322E0,-2.344996601E0,6.091915173E0
1.476117313E1,5.364978236E0,-1.389105481E0,-2.457986442E0,6.062532710E0
1.477111912E1,5.182932193E0,-1.482827869E0,-2.309542594E0,5.864772085E0
1.478106512E1,4.930493860E0,-1.550380898E0,-2.128540864E0,5.589645503E0
1.479101212E1,4.464592980E0,-1.866107593E0,-1.889156440E0,5.194599126E0
1.480095812E1,4.061518677E0,-2.355808395E0,-1.354727946E0,4.886824630E0
1.481090412E1,3.401567420E0,-2.231687210E0,-1.129821228E0,4.222272459E0
1.482085012E1,2.801703320E0,-2.047468634E0,-1.439407323E0,3.756802197E0
1.483079612E1,2.621537157E0,-2.027479050E0,-1.769362779E0,3.756830181E0
1.484074312E1,2.634504527E0,-2.033875320E0,-2.092147794E0,3.931201510E0
1.485068913E1,2.926798067E0,-1.845945516E0,-2.495058374E0,4.266026027E0
1.486063512E1,3.459056075E0,-1.494679591E0,-2.860052100E0,4.730648372E0
1.487058112E1,4.260409378E0,-1.211743935E0,-3.169703100E0,5.446689745E0
1.488052712E1,5.493642123E0,-9.067411798E-1,-3.257805437E0,6.451013844E0
1.489047312E1,6.167132024E0,-7.300660240E-1,-3.268285401E0,7.017706410E0
1.490042012E1,6.364844511E0,-5.871445783E-1,-3.140184601E0,7.121568910E0
1.491036612E1,5.805450745E0,-4.485068759E-1,-2.990408757E0,6.545759032E0
1.492031213E1,5.612605480E0,-3.980512521E-1,-2.615861850E0,6.205039749E0
1.493025812E1,5.484157355E0,-3.544897147E-1,-2.314228260E0,5.962993987E0
1.494020413E1,5.628087738E0,-2.949507337E-1,-1.932583418E0,5.957956544E0
1.495015112E1,5.870453657E0,-3.096711722E-1,-1.453005023E0,6.055521940E0
1.496009712E1,6.067951552E0,-3.354302037E-1,-1.037100760E0,6.165073190E0
1.497004312E1,6.139061295E0,-2.824061172E-1,-7.825852033E-1,6.195180902E0
1.497998912E1,6.136261064E0,-7.805418938E-2,-5.107934636E-1,6.157978748E0
1.498993512E1,6.039872637E0,1.033554570E-1,-2.887615290E-1,6.047654673E0
1.499988112E1,5.863969095E0,2.663316829E-1,-3.097240895E-2,5.870095859E0
1.500982813E1,5.601012790E0,4.374015516E-1,3.423182237E-1,5.628485246E0
1.501977412E1,5.092476937E0,7.626839125E-1,9.730889511E-1,5.240411263E0
1.502972012E1,4.826915697E0,1.139386469E0,1.229444626E0,5.109682061E0
1.503966612E1,4.528886624E0,1.349049422E0,1.296127151E0,4.900070815E0
1.504961212E1,4.005433939E0,1.570077975E0,1.629729515E0,4.600506947E0
1.505955912E1,3.234195549E0,1.985070657E0,2.603513700E0,4.602044106E0
1.506950512E1,1.900003610E0,2.603353778E0,2.375383412E0,4.003737125E0
1.507945112E1,-2.262872458E-1,3.562806146E0,2.410004483E0,4.307309503E0
1.508939712E1,-2.719800201E0,4.578391491E0,2.176395646E0,5.752884475E0
1.509934313E1,-3.831531313E0,4.347762687E0,1.308680246E0,5.941070322E0
1.510928912E1,-5.971361981E0,3.646159082E0,1.229260731E0,7.103711840E0
1.511923612E1,-8.679789932E0,3.163872256E0,1.783136480E0,9.408954067E0
1.512918212E1,-1.393793661E1,2.367269815E0,3.005304246E0,1.445343894E1
1.513912812E1,-2.651919758E1,1.519372967E0,3.622383718E0,2.680854338E1
1.514907412E1,-3.708778025E1,-4.387054807E-1,3.777349259E0,3.728222464E1
1.515902012E1,-3.488609072E1,-7.853059128E-1,1.949331890E0,3.494933370E1
1.516896713E1,-3.159255061E1,-1.856173027E-1,6.600801882E-1,3.159999072E1
1.517891312E1,-2.373027452E1,-1.365756379E0,6.734401989E-1,2.377908200E1
1.518885913E1,-1.315000910E1,-2.969243298E0,1.335352027E-1,1.348172752E1
1.519880512E1,-9.764719162E0,-3.389849600E0,-1.023870557E0,1.038696931E1
1.520875112E1,-8.526012838E0,-3.392874364E0,-1.988672834E0,9.389318986E0
1.521869712E1,-6.851764378E0,-2.840644899E0,-2.190491675E0,7.733963558E0
1.522864400E1,-6.621516228E0,-2.362706356E0,-1.985483032E0,7.305409048E0
1.523859000E1,-6.753427659E0,-2.178437786E0,-2.270775847E0,7.450556978E0
1.524853600E1,-5.978033069E0,-2.158935276E0,-2.762579015E0,6.930348023E0
1.525848200E1,-4.647792678E0,-2.507815245E0,-2.378125756E0,5.791942350E0
1.526842800E1,-2.959758822E0,-2.551254795E0,-1.606404387E0,4.224879686E0
1.527837500E1,-1.657791472E0,-2.474045236E0,-1.132964983E0,3.186343052E0
1.528832100E1,-4.969285458E-1,-2.131680819E0,-1.200191591E0,2.496289436E0
1.529826700E1,6.694389492E-1,-1.112579470E0,-1.263011152E0,1.811402428E0
1.530821300E1,1.880314280E0,-1.459643367E-1,-8.162596107E-1,2.055034582E0
1.531815900E1,3.359327134E0,5.560211650E-1,3.417109904E-1,3.422134528E0
1.532810500E1,4.306773705E0,8.619564781E-1,5.425850675E-1,4.425569712E0
1.533805200E1,4.795345995E0,9.000479452E-1,1.862674400E-1,4.882635055E0
1.534799800E1,5.122712304E0,8.695467487E-1,-1.874105707E-1,5.199366848E0
1.535794400E1,5.807794894E0,7.947260696E-1,-6.884681278E-1,5.902208012E0
1.536789000E1,6.552417342E0,7.725601521E-1,-1.100558545E0,6.688964892E0
1.537783600E1,7.179047071E0,7.632212716E-1,-1.486163121E0,7.370882199E0
1.538778300E1,7.714678922E0,7.406694379E-1,-1.690495534E0,7.932379040E0
1.539772900E1,8.100324429E0,6.896147668E-1,-1.835518761E0,8.334263825E0
1.540767500E1,8.328236616E0,6.390661722E-1,-1.888031143E0,8.563445119E0
1.541762100E1,8.562804689E0,6.353113827E-1,-1.940575393E0,8.802901655E0
1.542756700E1,8.749951258E0,5.591049135E-1,-1.865805292E0,8.964121524E0
1.543751300E1,8.885695539E0,4.686443943E-1,-1.671409053E0,9.053663402E0
1.544746000E1,8.527117962E0,4.764463341E-1,-1.473630491E0,8.666621526E0
1.545740600E1,7.370706521E0,6.062904820E-1,-1.350094320E0,7.517822653E0
1.546735200E1,5.848143021E0,8.163932195E-1,-1.119200345E0,6.009982038E0
1.547729800E1,2.891834641E0,1.222653962E0,-9.638152671E-1,3.284285337E0
1.548724400E1,-3.595861040E0,1.659286313E0,-1.226580952E0,4.145835081E0
1.549719100E1,-1.032339957E1,1.925083779E0,-5.879892817E-1,1.051780669E1
1.550713700E1,-1.475645091E1,2.803512449E0,-1.867659152E-1,1.502156473E1
1.551708300E1,-1.572613094E1,3.892804871E0,3.651820064E-1,1.620489068E1
1.552702900E1,-1.267635774E1,4.125063293E0,7.408302364E-1,1.335121800E1
1.553697500E1,-8.126787758E0,3.456487685E0,4.158767813E-1,8.841093817E0
1.554692100E1,-3.026550981E0,1.714646873E0,-2.167317259E-1,3.485254278E0
1.555686800E1,2.779702002E-1,4.683736682E-1,-1.146508597E0,1.269300314E0
1.556681400E1,1.473017703E0,-2.437844539E-1,-2.031060762E0,2.520797460E0
1.557676000E1,1.593176816E0,-7.321988690E-1,-2.623898263E0,3.155815211E0
1.558670600E1,8.713473988E-1,-1.005285475E0,-2.781596500E0,3.083362493E0
1.559665200E1,3.991157377E-1,-8.103735110E-1,-3.275344453E0,3.397628567E0
1.560659900E1,2.493018866E-1,-5.262748441E-1,-4.062178828E0,4.103707284E0
1.561654500E1,-1.852947557E-1,-5.575855145E-1,-4.337728280E0,4.377341932E0
1.562649100E1,-3.692341268E-1,-5.348682046E-1,-4.029632056E0,4.081709488E0
1.563643700E1,8.676449418E-2,-4.878641921E-1,-3.623038899E0,3.656767754E0
1.564638300E1,7.169095695E-1,-7.639609444E-1,-3.320752468E0,3.482096008E0
1.565632900E1,7.398669076E-1,-1.359085291E0,-2.810754225E0,3.208559674E0
1.566627600E1,1.439081633E-1,-1.773918052E0,-1.136123357E0,2.111461839E0
1.567622200E1,-7.907242352E-1,-1.610273489E0,1.431548080E0,2.295115560E0
1.568616800E1,-1.365505534E0,-8.254628357E-1,3.186709142E0,3.563861587E0
1.569611400E1,-1.119961653E0,1.638588448E-1,3.709768310E0,3.878600873E0
1.570606000E1,-6.832062185E-1,8.343886104E-1,3.135941277E0,3.316187989E0
1.571600700E1,-3.330229050E-1,8.935389709E-1,1.713672289E0,1.961119288E0
1.572595300E1,1.162215972E-1,6.538593355E-1,5.829372874E-1,8.836602126E-1
1.573589900E1,6.838499969E-1,2.785663421E-1,2.055299225E-1,7.664806418E-1
1.574584500E1,1.043517494E0,-6.778211156E-2,4.377079457E-2,1.046632246E0
1.575579100E1,1.272663444E0,-3.109631145E-1,-3.428970981E-1,1.354233628E0
1.576573700E1,1.515912877E0,-3.592926908E-1,-3.710189894E-1,1.601479997E0
1.577568400E1,1.721457710E0,-1.059573766E-1,-3.689072675E-1,1.763727923E0
1.578563000E1,1.961799324E0,4.140056723E-1,-7.384735161E-1,2.136679765E0
1.579557600E1,2.987980993E0,9.625937837E-1,-2.167089218E0,3.814563263E0
1.580552200E1,2.249067181E0,1.151653854E0,-1.298664258E0,2.840974945E0
1.581546800E1,1.759031918E0,1.206722931E0,-2.416305735E0,3.223182732E0
1.582541500E1,1.560741141E0,1.086878399E0,-4.162690710E0,4.576593877E0
1.583536100E1,-1.094762492E-1,6.838228074E-1,-7.709504721E0,7.740546604E0
1.584530700E1,7.442476416E-1,2.751339717E-1,-1.000532507E1,1.003673916E1
1.585525300E1,1.978463303E0,9.279697155E-1,-4.446029824E0,4.954051477E0
1.586519900E1,3.008287788E0,1.335468095E0,-2.741644229E0,4.283676403E0
1.587514500E1,3.601262698E0,1.130869634E0,-2.023894415E0,4.283002189E0
1.588509200E1,3.748126629E0,1.119102697E0,-9.795647424E-1,4.032417533E0
1.589503800E1,3.457499546E0,1.141639328E0,-8.111818886E-1,3.730369891E0
1.590498400E1,2.891431768E0,1.151680459E0,-1.155875251E0,3.320059208E0
1.591493000E1,2.492965071E0,1.270791165E0,-1.098339234E0,3.006016318E0
1.592487600E1,2.058250315E0,1.391171010E0,-9.730287248E-1,2.668058477E0
1.593482300E1,1.484700440E0,1.532219592E0,-8.579525971E-1,2.299590167E0
1.594476900E1,6.548881531E-1,1.583830041E0,-5.540102345E-1,1.801200553E0
1.595471500E1,-5.975246286E-1,1.340632648E0,-7.551304793E-1,1.650622192E0
1.596466100E1,-2.007581268E0,1.025236101E0,-1.521353711E0,2.719560392E0
1.597460700E1,-3.516175185E0,7.122902691E-1,-2.164438090E0,4.189944822E0
1.598455400E1,-4.647980958E0,3.201812500E-1,-2.104197736E0,5.112131760E0
1.599450000E1,-5.510789668E0,-4.566774096E-1,-2.028168145E0,5.889891599E0
1.600444600E1,-5.821032990E0,-1.298943754E0,-2.372248135E0,6.418663503E0
1.601439200E1,-4.968820605E0,-1.702455575E0,-1.809162437E0,5.555231940E0
1.602433800E1,-3.249585421E0,-2.041121482E0,-1.068338925E-1,3.838931595E0
1.603428400E1,-8.406419152E-1,-2.189086005E0,1.251712285E0,2.658112114E0
1.604423100E1,1.283052192E0,-1.940841148E0,1.908722393E0,3.009370111E0
1.605417700E1,2.636315410E0,-1.494986716E0,2.027148975E0,3.646159238E0
1.606412300E1,3.390045481E0,-1.149476205E0,1.979104158E0,4.090300378E0
1.607406900E1,3.323423476E0,-9.572508173E-1,1.477075086E0,3.760747736E0
1.608401500E1,2.795331609E0,-8.160394630E-1,5.963738966E-1,2.972450342E0
1.609396100E1,1.887729135E0,-5.286095642E-1,6.238979101E-3,1.960354122E0
1.610390800E1,6.715129566E-1,-1.091436888E-1,-7.368105680E-1,1.002861809E0
1.611385400E1,-2.456637490E-1,3.969174039E-1,-1.431196078E0,1.505395734E0
1.612380000E1,-6.047020859E-1,7.267906331E-1,-1.975033327E0,2.189667984E0
1.613374600E1,-4.428260136E-1,5.196790387E-1,-2.121925909E0,2.229064993E0
1.614369200E1,-6.322541660E-1,-9.342264555E-2,-1.950857721E0,2.052880652E0
1.615363900E1,-1.320928701E0,-7.481847911E-1,-1.476625143E0,2.117794826E0
1.616358500E1,-2.016441554E0,-1.632423619E0,-9.274546489E-1,2.755179765E0
1.617353100E1,-2.437756246E0,-2.655725242E0,-9.453830892E-1,3.726832605E0
1.618347700E1,-1.941717646E0,-3.519654279E0,-7.588633418E-1,4.090734314E0
1.619342300E1,-5.904331255E-1,-3.896907277E0,-8.482456344E-1,4.031627247E0
1.620337000E1,1.027626516E0,-3.473898939E0,-1.070587471E0,3.777584894E0
1.621331600E1,2.565481655E0,-2.935899843E0,-8.026727280E-1,3.980639084E0
1.622326200E1,3.810984197E0,-2.248336279E0,-7.000207642E-1,4.479804197E0
1.623320733E1,5.048871911E0,-1.413143677E0,-4.730774608E-1,5.264207909E0
1.624315333E1,6.217060813E0,-6.236160012E-1,-3.705401024E-1,6.259236538E0
1.625309933E1,7.169376361E0,1.295025974E-1,-9.432523638E-2,7.171166264E0
1.626304633E1,7.695552095E0,7.818332514E-1,1.281464088E-1,7.736226909E0
1.627299233E1,8.311445752E0,9.532660130E-1,2.818732166E-1,8.370680921E0
1.628293833E1,8.589641654E0,8.750534371E-1,2.970505419E-1,8.639207214E0
1.629288433E1,8.715629271E0,8.298698091E-1,5.659259829E-1,8.773320336E0
1.630283033E1,8.788135915E0,6.972506458E-1,8.697651422E-1,8.858554212E0
1.631277733E1,8.583723103E0,4.796941701E-1,1.451116372E0,8.718723962E0
1.632272333E1,8.418267950E0,5.178302953E-1,1.967826633E0,8.660700038E0
1.633266933E1,8.203200341E0,5.810142113E-1,2.094022557E0,8.486165437E0
1.634261533E1,8.135549226E0,5.311353421E-1,2.049680636E0,8.406572230E0
1.635256133E1,8.401025680E0,5.890423653E-1,1.930633664E0,8.640112831E0
1.636250733E1,8.594820533E0,8.108828766E-1,1.636893085E0,8.786802036E0
1.637245433E1,7.581478180E0,1.266707177E0,1.580670937E0,7.847412254E0
1.638240033E1,5.395645713E0,1.412215431E0,8.292019109E-1,5.638698510E0
1.639234633E1,7.125732744E-1,1.324430598E0,-1.145317519E0,1.890404533E0
1.640229233E1,-8.860288217E0,1.388825399E0,-2.094173269E0,9.209728821E0
1.641223833E1,-2.286928604E1,3.985737739E-1,4.296984297E-1,2.287679492E1
1.642218433E1,-3.397900280E1,-2.046807607E0,3.038425507E0,3.417592840E1
1.643213133E1,-3.517994137E1,-2.948972755E0,1.520538025E0,3.533605455E1
1.644207733E1,-3.036250460E1,-3.149199546E0,-2.662135545E0,3.064124849E1
