"Time (s)","Linear Acceleration x (m/s^2)","Linear Acceleration y (m/s^2)","Linear Acceleration z (m/s^2)","Absolute acceleration (m/s^2)"
4.110499984E-3,1.993650569E0,3.525076402E0,-1.133082220E0,4.205315868E0
1.405649993E-2,2.148405317E0,3.472558465E0,-2.197063800E0,4.636959892E0
2.400350000E-2,2.448020740E0,3.046136230E0,-2.997775079E0,4.925282419E0
3.394949995E-2,2.534261324E0,2.286995730E0,-3.077044027E0,4.595762165E0
4.389550001E-2,2.294112084E0,1.330450307E0,-2.999577776E0,4.003812571E0
5.384249997E-2,1.796771894E0,6.065369421E-1,-2.496835928E0,3.135357389E0
6.378849992E-2,1.496240213E0,1.135599446E-1,-1.914929212E0,2.432814116E0
7.373449998E-2,1.312215180E0,-4.274308795E-1,-9.428746337E-1,1.671412100E0
8.368049993E-2,1.005533689E0,-1.053842508E0,-1.254432410E-1,1.461991121E0
9.362750000E-2,5.970378479E-1,-1.337104438E0,4.450859624E-1,1.530491419E0
1.035734999E-1,2.404933485E-1,-1.204635767E0,7.786684459E-1,1.454410166E0
1.135195000E-1,-1.009428227E-1,-7.300617117E-1,1.029677135E0,1.266260067E0
1.234665000E-1,-4.228375992E-1,-1.219559616E-1,1.145734425E0,1.227343581E0
1.334124999E-1,-5.938897070E-1,5.014712477E-1,1.128246573E0,1.370079824E0
1.433585000E-1,-4.558968794E-1,1.134547532E0,1.097489049E0,1.643022300E0
1.533044999E-1,-1.248775229E-1,1.710286605E0,1.073618960E0,2.023198541E0
1.632515000E-1,2.446211904E-1,2.065457593E0,1.026663480E0,2.319481084E0
1.731974999E-1,5.940423194E-1,2.219186155E0,8.843404967E-1,2.461652206E0
1.831435000E-1,9.434660795E-1,2.396403567E0,6.167029113E-1,2.648244849E0
1.930905000E-1,1.366937517E0,2.257056817E0,2.829397488E-1,2.653842224E0
2.030364999E-1,1.667028611E0,2.000831827E0,-5.577132761E-2,2.604884418E0
2.129825000E-1,1.944908764E0,1.787040081E0,-3.138557321E-1,2.659828523E0
2.229288750E-1,2.276438875E0,1.451423936E0,-4.888254744E-1,2.743675589E0
2.328758750E-1,2.643389956E0,1.036739402E0,-5.463147140E-1,2.891504594E0
2.428218749E-1,2.956141149E0,4.992019433E-1,-5.272206312E-1,3.043999781E0
2.527678750E-1,2.896131760E0,1.600874090E-1,-4.303960025E-1,2.932311011E0
2.627148749E-1,2.699510363E0,-6.502279222E-2,-3.250367779E-1,2.719785482E0
2.726608750E-1,2.525818822E0,-4.531960505E-1,-2.299961346E-1,2.576440491E0
2.826068749E-1,2.122331998E0,-6.739383817E-1,-1.455816364E-1,2.231519676E0
2.925538750E-1,1.406993868E0,-6.424166268E-1,-1.734488815E-1,1.556411058E0
3.024998750E-1,6.763331088E-1,-6.537064308E-1,-1.154953730E-1,9.476801955E-1
3.124458749E-1,4.118486345E-3,-4.527119011E-1,1.586565953E-1,4.797259036E-1
3.223918750E-1,-7.781728944E-1,-3.063911766E-1,3.568298435E-1,9.092613177E-1
3.323388749E-1,-1.662542920E0,-2.592187643E-1,5.318913871E-1,1.764695944E0
3.422848750E-1,-2.437401612E0,-2.934401786E-1,6.277254975E-1,2.533983634E0
3.522308749E-1,-2.975407140E0,-4.454578453E-1,7.233999789E-1,3.094315412E0
3.621778750E-1,-3.118121010E0,-5.632710546E-1,8.676554668E-1,3.285236509E0
3.721238750E-1,-2.941761677E0,-6.681893992E-1,9.294839251E-1,3.156640493E0
3.820698750E-1,-2.448747842E0,-6.617638940E-1,8.896456754E-1,2.688078658E0
3.920158750E-1,-1.754928342E0,-5.469818813E-1,7.975812650E-1,2.003771079E0
4.019628749E-1,-1.121155362E0,-3.925996006E-1,5.888380051E-1,1.325840861E0
4.119088750E-1,-5.963022682E-1,-2.510010874E-1,3.604434228E-1,7.406061045E-1
4.218548749E-1,-2.142150843E-1,-7.394096553E-2,1.374996150E-1,2.650688832E-1
4.318018750E-1,7.362170756E-2,1.247386515E-2,-2.588153064E-2,7.902915136E-2
4.417478750E-1,1.880496714E-1,4.104453027E-2,-2.519571072E-1,3.170642147E-1
4.516938750E-1,2.836560327E-1,1.563837826E-2,-3.647042888E-1,4.622926801E-1
4.616398750E-1,3.330264133E-1,-6.125777006E-2,-3.291421080E-1,4.722220173E-1
4.715868749E-1,2.967532110E-1,-1.295947641E-1,-2.835519522E-1,4.304172171E-1
4.815328750E-1,1.876403663E-1,-1.276102191E-1,-3.198245698E-1,3.921492452E-1
4.914788749E-1,5.886450469E-2,-1.308788127E-1,-3.730927044E-1,3.997404903E-1
5.014258750E-1,-1.568398654E-1,-1.274839193E-1,-4.009488398E-1,4.490109856E-1
5.113718749E-1,-3.064829779E-1,-1.263554066E-1,-4.559477502E-1,5.637249821E-1
5.213178750E-1,-4.277559847E-1,-1.107293075E-1,-5.311657476E-1,6.909220024E-1
5.312648750E-1,-6.140839434E-1,-8.197153151E-2,-5.283824730E-1,8.142520858E-1
5.412108749E-1,-8.633624411E-1,-4.136261880E-2,-5.272492826E-1,1.012470926E0
5.511568750E-1,-1.120049069E0,-7.076651216E-2,-5.040042615E-1,1.230259367E0
5.611028749E-1,-1.448291582E0,-1.486976177E-1,-6.083747220E-1,1.577903448E0
5.710498750E-1,-1.904851536E0,-1.222214252E-1,-7.674125558E-1,2.057260188E0
5.809958749E-1,-1.950672657E0,-6.193908763E-1,-9.000917262E-1,2.235829597E0
5.909418750E-1,-2.329600298E0,-1.199965011E0,-1.390309423E0,2.966464877E0
6.008888750E-1,-2.892540985E0,-1.428144416E0,-2.047071608E0,3.820587912E0
6.108348749E-1,-3.083393519E0,-1.838004413E0,-2.486872272E0,4.366933651E0
6.207808750E-1,-2.954144325E0,-2.113620524E0,-2.554699974E0,4.440816633E0
6.307268749E-1,-2.297346472E0,-2.058664298E0,-2.162732458E0,3.767401118E0
6.406738750E-1,-1.411459386E0,-1.748321573E0,-1.486219547E0,2.694010851E0
6.506198749E-1,-5.886403692E-1,-1.278641052E0,-5.588183999E-1,1.514496097E0
6.605658750E-1,9.954826176E-2,-1.058388133E0,-7.810535252E-2,1.065924830E0
6.705128750E-1,7.572249520E-1,-1.049696832E0,2.537656510E-1,1.318957949E0
6.804588749E-1,1.272973931E0,-1.075571346E0,4.589959037E-1,1.728581380E0
6.904048750E-1,1.636424577E0,-1.174124411E0,3.220511895E-1,2.039649602E0
7.003508749E-1,1.546624793E0,-9.421741372E-1,-7.831854200E-1,1.973099024E0
7.102978750E-1,1.218369123E0,-6.526726431E-1,-1.958888580E0,2.397425570E0
7.202438749E-1,9.384558928E-1,-6.232599789E-1,-2.459418426E0,2.705160153E0
7.301898750E-1,4.938055480E-1,-7.631633842E-1,-2.675622148E0,2.825812476E0
7.401368750E-1,-4.302965999E-3,-9.451240575E-1,-2.839164092E0,2.992345358E0
7.500828750E-1,-4.688151330E-1,-1.122643186E0,-2.746978059E0,3.004330842E0
7.600288750E-1,-8.279002476E-1,-1.272682155E0,-2.402314810E0,2.841875285E0
7.699758749E-1,-1.127211615E0,-1.432424578E0,-1.964935185E0,2.680189635E0
7.799218750E-1,-1.146931935E0,-1.592578061E0,-1.489937499E0,2.464076195E0
7.898678749E-1,-1.042547441E0,-1.766386546E0,-1.118308937E0,2.336159557E0
7.998138750E-1,-8.630700803E-1,-1.983597744E0,-7.932078400E-1,2.304067848E0
8.097608750E-1,-8.893088758E-1,-2.110357777E0,-5.577542067E-1,2.357025664E0
8.197068750E-1,-9.688772017E-1,-2.154770889E0,-5.133580524E-1,2.417704925E0
8.296528750E-1,-1.016766483E0,-2.080365654E0,-6.664609623E-1,2.409544677E0
8.395998749E-1,-9.956387383E-1,-2.006153378E0,-8.541907910E-1,2.396995991E0
8.495458750E-1,-1.098734506E0,-1.842659966E0,-8.885686183E-1,2.322104100E0
8.594918749E-1,-1.099229180E0,-1.790284116E0,-9.472843114E-1,2.304510702E0
8.694378750E-1,-9.687216657E-1,-1.801447036E0,-7.416289660E-1,2.175694512E0
8.793848749E-1,-7.835830307E-1,-1.975764229E0,-6.391360465E-1,2.219491279E0
8.893308750E-1,-4.628030258E-1,-2.240822607E0,-6.310437924E-1,2.373539312E0
8.992768750E-1,-5.436624169E-2,-2.377916425E0,-5.034207094E-1,2.431229036E0
9.092238749E-1,4.516284120E-1,-2.371536528E0,-2.331635714E-1,2.425390480E0
9.191698750E-1,1.321286550E0,-2.186929405E0,-2.466873041E-1,2.566965718E0
9.291158749E-1,2.232529501E0,-2.238443375E0,-4.339500864E-1,3.191101596E0
9.390618750E-1,3.106654912E0,-2.609839218E0,-4.655494630E-1,4.084030092E0
9.490088749E-1,3.984079322E0,-3.050753192E0,-6.110411985E-1,5.055032584E0
9.589548750E-1,4.649237525E0,-3.286736875E0,-8.311817050E-1,5.754034400E0
9.689008750E-1,5.118756663E0,-3.204027425E0,-1.004032416E0,6.121727093E0
9.788478749E-1,5.452022227E0,-3.231021096E0,-6.417235856E-1,6.369917805E0
9.887938750E-1,5.685065930E0,-3.338311656E0,-2.468039378E-1,6.597363984E0
9.987398749E-1,5.782447799E0,-3.303204389E0,-3.645633709E-1,6.669390394E0
1.008685875E0,5.719478549E0,-3.171616893E0,-5.346308442E-1,6.561815201E0
1.018632875E0,5.704603817E0,-3.108559350E0,-6.013160364E-1,6.524356437E0
1.028578875E0,5.942260389E0,-2.988190323E0,-7.024981564E-1,6.688291530E0
1.038524875E0,5.887938586E0,-2.436704916E0,-9.754028405E-1,6.446453470E0
1.048471875E0,5.616898506E0,-1.732945150E0,-1.699592632E0,6.118926608E0
1.058417875E0,4.495042355E0,-1.321301168E0,-2.561540632E0,5.339731544E0
1.068363875E0,4.104536642E0,-1.032943389E0,-2.573049706E0,4.953259319E0
1.078310875E0,4.023442778E0,-9.432956332E-1,-2.293687576E0,4.726404673E0
1.088256875E0,3.894404084E0,-9.141308910E-1,-1.718497557E0,4.353763006E0
1.098202875E0,3.684289067E0,-1.711184737E0,1.151884234E0,4.222437261E0
1.108148875E0,3.687729569E0,-1.937716396E0,1.459161264E0,4.413982986E0
1.118095875E0,3.449799932E0,-1.413377273E0,1.142857595E0,3.899343326E0
1.128041875E0,2.669106596E0,-1.426742839E0,2.254361250E0,3.773840192E0
1.137987875E0,9.863095057E-1,-1.822953095E0,4.575900577E0,5.023428164E0
1.147934875E0,-1.747267320E0,-1.803098874E0,9.841752720E0,1.015697815E1
1.157880875E0,-4.563880455E0,-1.643264065E0,2.309757070E1,2.360142144E1
1.167826875E0,-6.373159837E0,-1.058015665E0,2.958387533E1,3.028105419E1
1.177772875E0,-4.301873739E0,-3.421907544E-2,9.595331172E0,1.051559170E1
1.187719875E0,-2.623260916E0,5.846853125E-1,2.297492652E0,3.535792307E0
1.197665875E0,-1.175734735E0,1.045389773E0,1.826912245E0,2.410974967E0
1.207611875E0,-1.515723428E0,1.259917683E0,1.009677903E0,2.214556286E0
1.217558875E0,-2.145943932E0,1.957513314E0,4.548016959E-1,2.940030326E0
1.227505000E0,-2.504907424E0,2.779974482E0,9.662886393E-1,3.864781114E0
1.237451000E0,-2.638442627E0,2.898863579E0,2.141355037E0,4.466563661E0
1.247397000E0,-2.872982633E0,2.657284695E0,3.206708958E0,5.059463756E0
1.257344000E0,-2.829392810E0,2.612148283E0,4.225525475E0,5.716978910E0
1.267290000E0,-1.853357447E0,2.884208118E0,4.252831679E0,5.462615453E0
1.277236000E0,-1.821117654E0,3.217546188E0,3.296089789E0,4.953108204E0
1.287183000E0,-1.981569929E0,3.264768301E0,2.174288017E0,4.394639897E0
1.297129000E0,-2.524500859E0,3.586480352E0,1.608360280E0,4.671484635E0
1.307075000E0,-3.171497610E0,3.875911680E0,1.399341617E0,5.199927442E0
1.317022000E0,-3.273251442E0,4.304187482E0,1.219792043E0,5.543293020E0
1.326968000E0,-4.142766323E0,5.048488333E0,1.023399856E0,6.610377790E0
1.336914000E0,-6.638898831E0,5.634425535E0,1.042113285E0,8.769705177E0
1.346860000E0,-6.177466977E0,5.989984193E0,1.000054263E0,8.662627628E0
1.356807000E0,-8.390373808E0,7.582426599E0,1.524636046E0,1.141122609E1
1.366753000E0,-9.240486458E0,9.049334546E0,1.916374352E0,1.307476716E1
1.376699000E0,-1.080965870E1,9.148225581E0,1.993117888E0,1.430074374E1
1.386646000E0,-1.271302095E1,9.406173161E0,2.224828426E0,1.597018650E1
1.396592000E0,-1.328436876E1,8.763658885E0,2.411076570E0,1.609625611E1
1.406538000E0,-1.410488749E1,9.210793127E0,2.176129013E0,1.698593826E1
1.416484000E0,-1.410230536E1,9.551837828E0,2.565367050E0,1.722479986E1
1.426431000E0,-1.239127908E1,1.021550674E1,2.821463985E0,1.630524561E1
1.436377000E0,-1.081371667E1,1.049859384E1,2.709151252E0,1.531327664E1
1.446323000E0,-9.091397077E0,9.745957786E0,2.173556238E0,1.350413050E1
1.456270000E0,-6.152370728E0,7.747828542E0,1.136413379E0,9.958511337E0
1.466216000E0,-2.745408667E0,4.986285068E0,2.564508386E-1,5.697900891E0
1.476162000E0,-3.226692402E-1,2.493873729E0,9.224333525E-2,2.516352607E0
1.486108000E0,9.270006126E-1,6.882780933E-1,1.430030143E-1,1.163403082E0
1.496055000E0,1.845516915E0,-9.924625307E-1,-7.981683254E-2,2.096970502E0
1.506001000E0,2.929423467E0,-2.327984127E0,-2.158946970E-1,3.748018472E0
1.515947000E0,3.550486062E0,-3.310409912E0,4.864298701E-2,4.854598975E0
1.525894000E0,3.865479662E0,-4.153526954E0,8.442765445E-1,5.736420666E0
1.535840000E0,4.179421933E0,-4.649224661E0,1.612190207E0,6.456161004E0
1.545786000E0,4.243410938E0,-4.960795886E0,2.462454885E0,6.977085084E0
1.555733000E0,4.336507382E0,-5.357554611E0,2.880310948E0,7.470266317E0
1.565679000E0,4.921931198E0,-5.963893917E0,3.655500301E0,8.553135087E0
1.575625000E0,5.180846491E0,-6.432029019E0,4.214546742E0,9.272247404E0
1.585571000E0,5.137430915E0,-6.932887478E0,4.031718342E0,9.524330842E0
1.595518000E0,5.038492518E0,-7.469584692E0,4.290059440E0,9.979264117E0
1.605464000E0,4.910492874E0,-7.666902493E0,4.740947594E0,1.026503376E1
1.615410000E0,4.858658477E0,-7.701635538E0,5.313582380E0,1.054305031E1
1.625357000E0,4.978348058E0,-7.879635308E0,5.956939824E0,1.106154302E1
1.635303000E0,5.089538126E0,-8.027538874E0,5.919336964E0,1.119746975E1
1.645249000E0,5.533966861E0,-8.124402094E0,5.752022397E0,1.138931342E1
1.655195000E0,5.911799319E0,-8.104986999E0,5.039601735E0,1.122665449E1
1.665142000E0,6.116368251E0,-8.015959048E0,4.118562066E0,1.089165339E1
1.675088000E0,6.545445707E0,-7.844281288E0,3.668260387E0,1.085503306E1
1.685034000E0,6.625971222E0,-7.642219056E0,3.118875885E0,1.058463006E1
1.694981000E0,6.713321022E0,-7.438013236E0,2.617938488E0,1.035598001E1
1.704927000E0,6.828454453E0,-7.242361892E0,2.331022633E0,1.022317282E1
1.714873000E0,6.964811522E0,-7.012827103E0,1.984070199E0,1.008091653E1
1.724819000E0,7.118968685E0,-6.770907910E0,1.588274656E0,9.952262328E0
1.734766000E0,7.301806440E0,-6.554766753E0,1.181855673E0,9.883224540E0
1.744712000E0,7.501578902E0,-6.408745991E0,8.272500372E-1,9.901012768E0
1.754658000E0,7.664339658E0,-6.322843961E0,3.755666979E-1,9.942912475E0
1.764605000E0,7.732769623E0,-6.276390172E0,-3.301571846E-1,9.964828317E0
1.774551000E0,7.743452486E0,-6.178940476E0,-8.823752475E-1,9.945800515E0
1.784497000E0,7.643898962E0,-6.113480312E0,-1.009251641E0,9.839838501E0
1.794443000E0,7.574159805E0,-6.070512632E0,-1.003891498E0,9.758422952E0
1.804390000E0,7.535305057E0,-6.018924403E0,-1.046403753E0,9.700682145E0
1.814336000E0,7.516094615E0,-5.984949156E0,-1.144790538E0,9.675837950E0
1.824282000E0,7.529992277E0,-5.946853961E0,-1.298976060E0,9.682623329E0
1.834229000E0,7.537747439E0,-5.889624923E0,-1.439062922E0,9.673480257E0
1.844175000E0,7.544875780E0,-5.825673925E0,-1.544761870E0,9.656599632E0
1.854121000E0,7.589442088E0,-5.818453783E0,-1.590389009E0,9.694502196E0
1.864067000E0,7.646976936E0,-5.787685150E0,-1.643338909E0,9.730062611E0
1.874014000E0,7.681618180E0,-5.761004890E0,-1.728763222E0,9.756282975E0
1.883960000E0,7.695550341E0,-5.715675520E0,-1.838064054E0,9.760579960E0
1.893906000E0,7.724708651E0,-5.677031856E0,-1.946852671E0,9.782129102E0
1.903853000E0,7.739004509E0,-5.633164290E0,-2.029701869E0,9.784907786E0
1.913799000E0,7.745275063E0,-5.587791066E0,-2.087033234E0,9.775909294E0
1.923745000E0,7.836254815E0,-5.530511742E0,-1.605729326E0,9.724804179E0
1.933692000E0,7.896189945E0,-5.509678697E0,-8.639635348E-1,9.667099254E0
1.943638000E0,7.866476149E0,-5.446044034E0,-1.066236851E0,9.626925971E0
1.953584000E0,7.785438418E0,-5.263343688E0,-4.253634502E-1,9.407272304E0
1.963530000E0,7.478279502E0,-5.169297071E0,7.680180350E-1,9.123384691E0
1.973477000E0,7.165897268E0,-5.015334036E0,1.683752232E0,8.907226321E0
1.983423000E0,6.746234415E0,-4.580797035E0,1.885793999E0,8.369683343E0
1.993369000E0,6.848892226E0,-4.710698778E0,-7.166698337E-2,8.312830075E0
2.003316000E0,4.725583450E0,3.852198297E-1,-2.827817862E0,5.520515114E0
2.013262000E0,-1.853617882E1,2.967223845E1,-1.049053638E1,3.652510114E1
2.023208000E0,-5.053846722E1,3.262664005E1,3.959430385E-1,6.015638853E1
2.033154000E0,-5.840480596E1,2.115100220E1,4.629927329E1,7.747327901E1
2.043101000E0,-2.179113198E1,1.290737187E1,3.597370090E1,4.399500924E1
2.053047000E0,-5.971628614E0,7.470652394E0,3.164399675E0,1.007394763E1
2.062993000E0,1.007974024E0,2.503840600E0,-3.602847878E0,4.501748796E0
2.072940000E0,3.083576537E0,7.762523764E-1,-5.444583399E0,6.305117001E0
2.082886000E0,9.296043777E-1,-1.668403584E-1,-5.461060268E0,5.542127683E0
2.092832000E0,-1.029673042E0,-7.823592085E-1,-4.468934537E0,4.652277765E0
2.102778000E0,-3.173856962E0,5.505878592E-1,-1.608180186E0,3.600383107E0
2.112725000E0,-6.008823338E0,3.413121518E0,1.762991068E0,7.131864686E0
2.122671000E0,-6.243590215E0,4.166386735E0,3.975942922E0,8.494075543E0
2.132617000E0,-3.825276546E0,1.164141752E0,4.953825420E0,6.366188261E0
2.142564000E0,-9.943389022E-1,-5.506001383E-1,4.827739570E0,4.959731820E0
2.152510000E0,-4.592403173E-2,-3.979082876E-1,3.244425253E0,3.269057241E0
2.162456000E0,-6.925050455E-1,-3.065589917E-1,1.432446797E0,1.620322647E0
2.172402000E0,-1.484833757E0,8.788768584E-1,3.703146923E-1,1.764734764E0
2.182349000E0,-2.941386870E0,1.476859909E0,-2.222468197E-2,3.291407882E0
2.192295000E0,-3.543027354E0,1.369833350E0,5.420895159E-1,3.837101417E0
2.202241000E0,-3.194550258E0,1.084984778E0,1.516631500E0,3.698988298E0
2.212188000E0,-2.335694266E0,9.365023381E-1,1.924543789E0,3.168023537E0
2.222133625E0,-1.705892422E0,5.081490603E-1,1.422430517E0,2.278506748E0
2.232079625E0,-1.001740308E0,1.769615963E-1,7.476004350E-1,1.262420477E0
2.242025625E0,-2.059690484E-1,-8.559446633E-2,5.908658195E-1,6.315632020E-1
2.251972625E0,3.073238075E-1,-3.310214031E-1,7.912235874E-1,9.110751106E-1
2.261918625E0,3.533101121E-1,-3.461446416E-1,1.274820482E0,1.367410475E0
2.271864625E0,1.752615184E-2,9.956521869E-2,1.936299031E0,1.938936393E0
2.281811625E0,-5.595121720E-1,7.666945177E-1,2.415392400E0,2.595186853E0
2.291757625E0,-8.596640772E-1,1.169882256E0,2.426396860E0,2.827551687E0
2.301703625E0,-7.873717341E-1,1.141606291E0,2.215586609E0,2.613817743E0
2.311649625E0,-4.997097740E-1,6.478293943E-1,2.065288024E0,2.221442640E0
2.321596625E0,-1.199494895E-1,2.714067006E-1,1.939899162E0,1.962462289E0
2.331542625E0,1.090505719E-1,3.464717934E-1,2.043870842E0,2.075895650E0
2.341488625E0,3.810969579E-1,3.256869882E-1,2.284258649E0,2.338620209E0
2.351435625E0,1.099219240E0,1.523787323E-1,2.394897909E0,2.639514768E0
2.361381625E0,7.387538901E-1,3.477181274E-1,2.535069702E0,2.663314401E0
2.371327625E0,1.013743472E-1,4.649659109E-1,2.525413025E0,2.569860114E0
2.381273625E0,-8.340848476E-2,4.138343489E-1,2.459977419E0,2.495937649E0
2.391220625E0,-1.312720379E-1,2.987737164E-1,2.465488420E0,2.486992407E0
2.401166625E0,-5.435747087E-2,6.788339630E-2,2.369334467E0,2.370929925E0
2.411112625E0,1.396654236E-1,-4.468822271E-2,2.189308637E0,2.194214159E0
2.421059625E0,2.886118403E-1,1.852471009E-2,1.945473313E0,1.966851893E0
2.431005625E0,4.548432112E-1,1.215864176E-1,1.731358216E0,1.794231556E0
2.440951625E0,5.318419781E-1,1.587627223E-1,1.626880167E0,1.718953335E0
2.450898625E0,4.999720216E-1,1.830655047E-1,1.836993429E0,1.912597673E0
2.460844625E0,4.404871273E-1,1.720809254E-1,2.111140720E0,2.163459242E0
2.470790625E0,2.447045133E-1,7.271348879E-2,2.108442230E0,2.123839962E0
2.480736625E0,1.259197891E-2,6.287774116E-2,2.008551321E0,2.009574726E0
2.490683625E0,-2.796562448E-1,1.339032850E-1,2.045337324E0,2.068705507E0
2.500629625E0,-4.944993201E-1,2.277183518E-1,2.117952141E0,2.186802803E0
2.510575625E0,-6.041828531E-1,3.386251223E-1,2.009604405E0,2.125609032E0
2.520522625E0,-5.411764732E-1,3.818293217E-1,1.821962577E0,1.938611162E0
2.530468625E0,-4.470427331E-1,2.708775276E-1,1.713009653E0,1.790984062E0
2.540414625E0,-2.805985236E-1,5.936736524E-2,1.725428554E0,1.749103688E0
2.550360625E0,-7.791327149E-2,-1.421165764E-1,1.801675662E0,1.808950743E0
2.560307625E0,5.397126228E-2,-3.006132504E-1,1.796188050E0,1.821969466E0
2.570253625E0,1.194299644E-1,-4.211746511E-1,1.763653557E0,1.817175136E0
2.580199625E0,5.241590291E-2,-4.958494422E-1,1.774424129E0,1.843148145E0
2.590145625E0,-1.218974894E-1,-6.457129946E-1,1.844866705E0,1.958401754E0
2.600092625E0,-9.618962109E-3,-7.314998344E-1,1.537021326E0,1.702239433E0
2.610038625E0,2.380158833E-1,-7.942986381E-1,1.083836970E0,1.364648110E0
2.619984625E0,4.664081267E-1,-8.372712877E-1,7.546428216E-1,1.219854720E0
2.629931625E0,5.385159901E-1,-8.414885920E-1,5.539125860E-1,1.142331683E0
2.639877625E0,6.206070971E-1,-7.140175366E-1,5.279404235E-1,1.083372190E0
2.649823625E0,7.905119812E-1,-4.716808534E-1,3.922031593E-1,1.000607485E0
2.659770625E0,8.531333220E-1,-2.801175901E-1,1.832225025E-1,9.164457512E-1
2.669716625E0,8.921330810E-1,-7.176989436E-2,5.827042758E-2,8.969101374E-1
2.679662625E0,8.959472197E-1,2.900686741E-2,6.703248024E-3,8.964417173E-1
2.689608625E0,8.934954822E-1,3.800982535E-2,-1.828061807E-1,9.127962660E-1
2.699555625E0,1.132577605E0,8.244281709E-2,-4.372384143E-1,1.216842751E0
2.709501625E0,1.347948099E0,-7.055835128E-2,-4.162597740E-1,1.412520711E0
2.719447625E0,1.285048431E0,-1.894337073E-1,-3.240070832E-1,1.338736415E0
2.729394625E0,1.689010926E0,-4.427614018E-1,-3.230528176E-1,1.775713572E0
2.739340625E0,1.823631957E0,-6.508512354E-1,-4.401035500E-1,1.985681741E0
2.749286625E0,2.039892397E0,-9.425369570E-1,-6.702692538E-1,2.344951552E0
2.759232625E0,2.056933522E0,-1.200435420E0,-7.178006852E-1,2.487420056E0
2.769179625E0,1.871829386E0,-1.261369547E0,-8.055919504E-1,2.396617778E0
2.779125625E0,1.679684617E0,-1.033027005E0,-8.609136271E-1,2.151663886E0
2.789071625E0,1.210706347E0,-6.695208102E-1,-9.226064301E-1,1.662910280E0
2.799018625E0,9.813896585E-1,-3.008427536E-1,-1.067491078E0,1.480935254E0
2.808964625E0,5.640142357E-1,2.936997950E-2,-1.362689515E0,1.475092325E0
2.818910625E0,-1.324201387E-1,3.067291456E-1,-1.627753156E0,1.661685349E0
2.828856625E0,-9.403036129E-1,6.455998510E-1,-1.620659314E0,1.981793799E0
2.838803625E0,-2.222783362E0,1.291876517E0,-1.332480167E0,2.895723434E0
2.848749625E0,-3.921533995E0,2.137448512E0,-7.086053538E-1,4.522083211E0
2.858695625E0,-6.035641592E0,3.257872095E0,2.543644059E-1,6.863483173E0
2.868642625E0,-8.281734295E0,4.908439332E0,1.154252064E0,9.695988729E0
2.878588625E0,-1.046317609E1,6.667350798E0,1.960669641E0,1.256088556E1
2.888534625E0,-1.253581991E1,8.157203804E0,2.575106172E0,1.517622899E1
2.898480625E0,-1.331583146E1,8.022893261E0,2.415670435E0,1.573256646E1
2.908427625E0,-1.353123119E1,7.103534374E0,1.915076270E0,1.540201075E1
2.918373625E0,-1.343200979E1,6.389615071E0,1.343092864E0,1.493485742E1
2.928319625E0,-1.326945135E1,6.631198633E0,1.578788426E0,1.491789889E1
2.938266625E0,-1.292953750E1,7.639177920E0,2.160962944E0,1.517233469E1
2.948212625E0,-1.262433506E1,8.064008542E0,2.157021336E0,1.513455683E1
2.958158625E0,-1.236533498E1,7.646126751E0,2.011923995E0,1.467694115E1
2.968104625E0,-1.102431934E1,6.249179569E0,1.993077250E0,1.282810271E1
2.978051625E0,-9.124285326E0,4.606186815E0,1.531625515E0,1.033515440E1
2.987997625E0,-6.132985454E0,2.682288266E0,9.379192646E-1,6.759280543E0
2.997943625E0,-3.226362619E0,1.147856964E0,3.584635556E-1,3.443179851E0
3.007890625E0,-7.350031936E-1,-7.541446388E-3,3.818573883E-1,8.283125214E-1
3.017836625E0,1.251009450E0,-3.449991721E-1,8.522749507E-1,1.552553273E0
3.027782625E0,1.918796561E0,-6.400581524E-1,1.465093264E0,2.497589428E0
3.037728625E0,2.229507660E0,-1.531229074E0,2.147504554E0,3.453569558E0
3.047675625E0,2.842634999E0,-2.294465841E0,2.698372787E0,4.541625582E0
3.057621625E0,3.213438519E0,-2.698575101E0,3.135745687E0,5.238453560E0
3.067567625E0,3.575954195E0,-2.768254031E0,3.479216982E0,5.705754077E0
3.077514625E0,5.349147484E0,-2.877793722E0,3.657254466E0,7.090175297E0
3.087460625E0,6.845070485E0,-3.034582717E0,3.253286124E0,8.163795246E0
3.097406625E0,7.575064369E0,-3.429599849E0,3.742959445E0,9.118854135E0
3.107352625E0,7.985976280E0,-3.860292305E0,4.397625988E0,9.900342830E0
3.117299625E0,8.097021337E0,-3.875542136E0,4.412226486E0,1.000246589E1
3.127245625E0,8.201544410E0,-3.884035801E0,4.426772312E0,1.009689942E1
3.137191625E0,8.130033547E0,-3.888628789E0,4.649781316E0,1.014097360E1
3.147138625E0,8.112165041E0,-3.894349705E0,4.903755128E0,1.024792641E1
3.157084625E0,8.280237992E0,-3.805817013E0,4.953358228E0,1.037219080E1
3.167030625E0,8.426716007E0,-3.749196377E0,4.606270430E0,1.030940073E1
3.176976625E0,8.479938533E0,-3.701126417E0,4.065810826E0,1.010635998E1
3.186923625E0,8.577888751E0,-3.631366503E0,3.568959755E0,9.975192822E0
3.196869625E0,8.886695997E0,-3.665570084E0,3.127413405E0,1.010893092E1
3.206815625E0,9.438245723E0,-3.826947096E0,2.553171512E0,1.049974720E1
3.216762625E0,9.678416598E0,-3.876368932E0,1.975050284E0,1.061125853E1
3.226708500E0,9.368371496E0,-3.590144510E0,1.810447362E0,1.019476541E1
3.236654500E0,9.184951358E0,-3.357001696E0,1.848201957E0,9.952318439E0
3.246600500E0,9.264233170E0,-3.482075978E0,1.562939840E0,1.001966318E1
3.256547500E0,9.288896726E0,-3.585946794E0,1.293596914E0,1.004071759E1
3.266493500E0,9.202497098E0,-3.508157776E0,1.132300520E0,9.913386318E0
3.276439500E0,9.167216168E0,-3.356548829E0,8.360734125E-1,9.798126916E0
3.286386500E0,9.203475922E0,-3.176598136E0,3.367996216E-1,9.742082875E0
3.296332500E0,9.272117556E0,-3.012994212E0,-1.358349401E-1,9.750320468E0
3.306278500E0,9.428480873E0,-2.930781190E0,-5.559433240E-1,9.889125489E0
3.316224500E0,9.751814942E0,-3.216084384E0,-1.381860196E0,1.036101496E1
3.326171500E0,1.008195049E1,-3.614541725E0,-2.297824481E0,1.095402369E1
3.336117500E0,1.014391110E1,-3.716397298E0,-2.737424878E0,1.114468646E1
3.346063500E0,1.006152149E1,-3.626475892E0,-2.781884767E0,1.105099203E1
3.356010500E0,9.728824275E0,-3.524530272E0,-2.739950291E0,1.070418904E1
3.365956500E0,9.193291826E0,-3.441155993E0,-3.024229637E0,1.027152053E1
3.375902500E0,9.104890112E0,-3.478977538E0,-3.484446732E0,1.035102303E1
3.385848500E0,8.934539670E0,-3.407878320E0,-3.879780782E0,1.031951223E1
3.395795500E0,8.707124496E0,-3.091297200E0,-4.129088809E0,1.012025246E1
3.405741500E0,8.727786802E0,-2.574810888E0,-4.145584096E0,9.999489040E0
3.415687500E0,8.695005557E0,-2.401062482E0,-4.051656178E0,9.888586374E0
3.425634500E0,8.486936481E0,-2.401720733E0,-4.125246311E0,9.737248607E0
3.435580500E0,8.413514748E0,-2.468291575E0,-4.409114013E0,9.814274303E0
3.445526500E0,8.337203906E0,-2.660875470E0,-4.790270028E0,9.976768724E0
3.455472500E0,8.273748752E0,-2.894855897E0,-5.099900562E0,1.014120776E1
3.465419500E0,7.510148581E0,-3.039180382E0,-5.098248723E0,9.572412922E0
3.475365500E0,6.184324007E0,-3.123477352E0,-5.133272375E0,8.622787222E0
3.485311500E0,5.153360485E0,-3.080409685E0,-4.612353873E0,7.570987806E0
3.495258500E0,3.097487648E0,-3.274465616E0,-3.500614575E0,5.707088330E0
3.505204500E0,-7.319211262E-1,-4.131801917E0,-2.422614296E0,4.845261153E0
3.515150500E0,-9.166861827E0,-6.236767684E0,1.512723806E0,1.119003844E1
3.525096500E0,-1.126480363E1,-7.755739825E0,4.670236046E0,1.445193432E1
3.535043500E0,-4.215034400E0,-7.008728789E0,8.521773022E0,1.181141015E1
3.544989500E0,-8.784981927E0,-1.772458002E0,2.966315655E1,3.098742280E1
3.554935500E0,-3.388930417E1,3.283394490E1,3.758969121E1,6.032858162E1
3.564882500E0,-1.938364151E1,4.009092424E1,2.114507546E1,4.929626742E1
3.574828500E0,-2.127023628E1,2.329567203E1,2.164653268E0,3.161956689E1
3.584774500E0,-1.427713009E1,1.590370971E1,-1.121997069E0,2.140147900E1
3.594720500E0,-5.686523641E0,8.796077603E0,-2.561209095E0,1.078273269E1
3.604667500E0,-2.168458051E0,3.891410894E0,-2.906324626E0,5.319023585E0
3.614613500E0,5.050626075E-1,1.145158474E0,-3.780286315E0,3.982090003E0
3.624559500E0,2.050479366E0,3.028632590E-1,-4.131637318E0,4.622403996E0
3.634506500E0,1.445091401E0,1.084402688E0,-4.033014085E0,4.419210445E0
3.644452500E0,1.795691621E0,1.370458418E0,-2.476264254E0,3.351797925E0
3.654398500E0,1.623575905E0,1.612225290E0,1.413283718E0,2.689356795E0
3.664344500E0,6.665018928E-1,1.400666596E0,5.774000326E0,5.978726575E0
3.674291500E0,-1.135660842E0,8.483035219E-1,7.739897379E0,7.868631129E0
3.684237500E0,-3.394418029E0,6.884558487E-1,6.050166661E0,6.971410319E0
3.694183500E0,-3.806609311E0,7.011217949E-1,2.657817376E0,4.695299716E0
3.704130500E0,-2.926002846E0,8.631957954E-1,1.012892702E0,3.214428606E0
3.714076500E0,-2.128825916E0,7.180971390E-1,6.426125085E-1,2.336774297E0
3.724022500E0,-1.634434184E0,4.939949977E-1,4.050553393E-1,1.754843580E0
3.733968500E0,-9.420823359E-1,1.427542153E-1,-1.047528684E-2,9.528943411E-1
3.743915500E0,-3.933322567E-1,-1.327046058E-1,-2.357685059E-1,4.773966537E-1
3.753861500E0,-5.200484365E-2,-3.216354525E-1,1.039044374E-1,3.419795318E-1
3.763807500E0,9.217316866E-2,-3.712125322E-1,5.114284712E-1,6.386342602E-1
3.773754500E0,-6.238452852E-2,-1.587776327E-1,7.714863110E-1,7.901223285E-1
3.783700500E0,-3.064613432E-1,4.374302030E-3,9.666704625E-1,1.014095396E0
3.793646500E0,-4.897165900E-1,6.077625185E-2,1.268066363E0,1.360701434E0
3.803592500E0,-5.694413289E-1,-3.014678210E-2,1.572615666E0,1.672809699E0
3.813539500E0,-4.080947220E-1,-2.022613290E-1,1.647722567E0,1.709514728E0
3.823485500E0,-2.084503144E-1,-4.844853786E-1,1.487285494E0,1.578035411E0
3.833431500E0,-8.710567921E-2,-8.486093313E-1,1.299147822E0,1.554191192E0
3.843378500E0,5.161980450E-2,-1.175757539E0,1.188477572E0,1.672587616E0
3.853324500E0,4.983017644E-1,-1.537794328E0,1.165995612E0,1.993153735E0
3.863270500E0,3.970072317E-1,-1.742687781E0,6.860649222E-1,1.914487013E0
3.873216500E0,4.377015138E-1,-1.933209070E0,1.836113423E-1,1.990626296E0
3.883163500E0,2.324975735E-1,-1.948506556E0,2.278274024E-1,1.975509617E0
3.893109500E0,-4.260982990E-2,-1.582264742E0,5.186223006E-1,1.665636936E0
3.903055500E0,-2.980220568E-1,-9.604180348E-1,1.255758559E0,1.608772670E0
3.913001500E0,-3.386979201E-1,-7.299892062E-1,1.795751848E0,1.967822457E0
3.922948500E0,-2.100094745E-1,-4.863360223E-1,1.548811067E0,1.636900249E0
3.932894500E0,-4.763521940E-2,-2.535681613E-1,9.395727110E-1,9.743525059E-1
3.942840500E0,1.277286252E-1,-1.420564963E-1,5.330561525E-1,5.662539285E-1
3.952787500E0,2.295923844E-1,-4.911339551E-2,4.650366622E-1,5.209451850E-1
3.962733500E0,3.507238886E-1,5.669957310E-2,6.226805198E-1,7.169052360E-1
3.972679500E0,3.872795114E-1,3.328805253E-2,7.263820589E-1,8.238473219E-1
3.982625500E0,4.554516140E-1,-8.596020967E-2,9.198436207E-1,1.030018260E0
3.992572500E0,5.984733394E-1,-2.465241668E-1,1.145872419E0,1.316042592E0
4.002518500E0,5.152700919E-1,-2.763478902E-1,1.183368275E0,1.319936323E0
4.012464500E0,3.441489869E-1,-1.701031047E-1,1.206241413E0,1.265856207E0
4.022411500E0,2.047197908E-2,-7.710197031E-2,1.255228216E0,1.257760585E0
4.032357500E0,-3.217851412E-1,8.198907316E-2,1.247860140E0,1.291287270E0
4.042303500E0,-5.587064257E-1,3.330848855E-1,1.306209505E0,1.459205839E0
4.052249500E0,-7.766985190E-1,5.311876747E-1,1.455238075E0,1.732956661E0
4.062196500E0,-9.790621743E-1,7.042953712E-1,1.694089233E0,2.079551163E0
4.072142500E0,-1.057497602E0,8.971096462E-1,2.033083899E0,2.461003258E0
4.082088500E0,-1.007006895E0,1.020686164E0,2.217171789E0,2.640400325E0
4.092035500E0,-9.942687356E-1,1.150288529E0,2.469578547E0,2.900095209E0
4.101981500E0,-1.142084593E0,1.251964593E0,2.895349402E0,3.354820520E0
4.111927500E0,-1.349836750E0,1.261750785E0,3.283216851E0,3.767437748E0
4.121873500E0,-1.480220304E0,1.216252431E0,3.622892134E0,4.098252010E0
4.131820500E0,-1.648839970E0,1.144172926E0,4.038004099E0,4.509244065E0
4.141766500E0,-1.725383238E0,1.104238490E0,3.949963742E0,4.449550936E0
4.151712500E0,-1.720192665E0,1.290120598E0,3.244096640E0,3.891996528E0
4.161659500E0,-1.649848322E0,1.573350661E0,2.986751323E0,3.757408050E0
4.171605500E0,-1.494160358E0,1.851872254E0,3.241043808E0,4.020735130E0
4.181551500E0,-1.230053321E0,1.949793236E0,3.329078903E0,4.049381579E0
4.191497500E0,-1.071271596E0,1.746907132E0,3.395314407E0,3.965787095E0
4.201444500E0,-8.773054191E-1,1.347092652E0,3.311939544E0,3.681476192E0
4.211390500E0,-7.390126294E-1,7.399323964E-1,2.996663523E0,3.173898532E0
4.221336500E0,-7.006750676E-1,3.684552777E-1,2.519491550E0,2.640935916E0
4.231284000E0,-5.868218851E-1,2.887015951E-1,2.161958286E0,2.258710288E0
4.241230000E0,-5.047892502E-1,3.010699180E-1,2.119880553E0,2.199852004E0
4.251176000E0,-3.215410200E-1,3.210735351E-1,1.701541509E0,1.761170165E0
4.261122000E0,4.015516877E-2,1.893699726E-1,1.150123345E0,1.166300619E0
4.271069000E0,4.680476859E-1,-1.040783921E-1,7.310984230E-1,8.743030665E-1
4.281015000E0,9.130245978E-1,-3.920218956E-1,2.003934360E-1,1.013633372E0
4.290961000E0,1.245889043E0,-8.430044827E-1,-1.206871158E-1,1.509126054E0
4.300908000E0,1.538377587E0,-1.366773503E0,-1.229125661E-1,2.061500160E0
4.310854000E0,1.965278709E0,-1.623628822E0,-1.077244234E-1,2.551488881E0
4.320800000E0,2.376240613E0,-1.930355044E0,-3.475187373E-1,3.081162009E0
4.330746000E0,2.660973703E0,-2.546970247E0,-7.439856863E-1,3.757838899E0
4.340693000E0,2.915267358E0,-2.936294822E0,-1.141270076E0,4.292214864E0
4.350639000E0,3.152102396E0,-3.164366054E0,-1.507123343E0,4.713850104E0
4.360585000E0,3.488317881E0,-3.379471377E0,-1.618635008E0,5.119489009E0
4.370532000E0,3.753165759E0,-3.530886488E0,-1.762478852E0,5.446076047E0
4.380478000E0,3.900252469E0,-3.646026350E0,-1.925990975E0,5.675818769E0
4.390424000E0,3.990306022E0,-3.786998334E0,-2.039945022E0,5.867305534E0
4.400370000E0,3.789859377E0,-3.842250721E0,-2.064243711E0,5.778150811E0
4.410317000E0,3.329015753E0,-3.705032065E0,-2.024200809E0,5.376522798E0
4.420263000E0,2.868739893E0,-3.164125441E0,-2.123212296E0,4.769631939E0
4.430209000E0,2.689477125E0,-2.350520174E0,-2.327771289E0,4.263420161E0
4.440156000E0,2.226464185E0,-1.517320887E0,-2.630954683E0,3.765810402E0
4.450102000E0,1.726496256E0,-6.541554970E-1,-2.722475887E0,3.289465563E0
4.460048000E0,1.377901046E0,2.487078094E-1,-2.544566749E0,2.904356522E0
4.469994000E0,1.525895244E-1,1.181087276E0,-1.982607810E0,2.312787159E0
4.479941000E0,-1.434762295E0,2.379782857E0,-8.939182359E-1,2.919075042E0
4.489887000E0,-5.756996623E0,3.972003068E0,4.552399448E-1,7.009069974E0
4.499833000E0,-8.780858470E0,5.738577309E0,1.539143865E0,1.060206154E1
4.509780000E0,-1.143030322E1,8.022657033E0,1.334768475E0,1.402841632E1
4.519726000E0,-1.435624291E1,1.078405140E1,9.600563845E-1,1.798107849E1
4.529672000E0,-1.705849854E1,1.346078861E1,8.755161712E-1,2.174745344E1
4.539618000E0,-1.917625714E1,1.578155552E1,8.674037442E-1,2.485032640E1
4.549565000E0,-1.852123567E1,1.684212701E1,5.392623872E-1,2.503965289E1
4.559511000E0,-1.547728045E1,1.634053882E1,-6.048606916E-1,2.251500112E1
4.569457000E0,-1.369699975E1,1.498998052E1,-1.335287123E0,2.034920907E1
4.579404000E0,-1.254809906E1,1.258429801E1,-6.435685283E-1,1.778295608E1
4.589350000E0,-1.036691221E1,9.186883863E0,9.842886349E-1,1.388670328E1
4.599296000E0,-7.252613815E0,5.242731668E0,1.427203599E0,9.062204622E0
4.609242000E0,-4.627117508E0,1.471619049E0,1.108291780E0,4.980380480E0
4.619189000E0,-2.683107753E0,-1.664453790E0,8.717561191E-1,3.275581226E0
4.629135000E0,-9.380237836E-1,-3.841118993E0,1.313371174E0,4.166416635E0
4.639081000E0,6.194528568E-1,-4.599862466E0,1.966715662E0,5.040875623E0
4.649028000E0,2.351838428E0,-4.642464110E0,2.218350588E0,5.657269336E0
4.658974000E0,3.715077581E0,-4.251567219E0,2.508346757E0,6.178141201E0
4.668920000E0,5.113352081E0,-3.999663906E0,2.812301399E0,7.074794698E0
4.678866000E0,6.334955299E0,-4.733950816E0,3.042327354E0,8.473352624E0
4.688813000E0,7.030376351E0,-5.991241345E0,3.490290731E0,9.874375620E0
4.698759000E0,7.725357692E0,-6.513199482E0,4.167387779E0,1.093023512E1
4.708705000E0,8.068641291E0,-6.698034647E0,4.497619808E0,1.141031219E1
4.718651000E0,8.004611941E0,-6.957003735E0,4.117859523E0,1.137675175E1
4.728598000E0,7.667566152E0,-7.068528264E0,3.051189394E0,1.086579124E1
4.738544000E0,7.681315879E0,-7.072216102E0,2.054216906E0,1.064136558E1
4.748490000E0,7.803359549E0,-7.103733180E0,1.241046379E0,1.062523607E1
4.758437000E0,7.907604879E0,-6.904881654E0,7.176118201E-1,1.052247938E1
4.768383000E0,7.808258346E0,-6.622730695E0,7.363568240E-1,1.026507095E1
4.778329000E0,8.031395112E0,-6.672601013E0,1.002724394E0,1.048963145E1
4.788275000E0,9.481310467E0,-7.209036271E0,3.048901598E-1,1.191463009E1
4.798222000E0,1.003866589E1,-7.486821699E0,-1.718345384E-1,1.252425004E1
4.808168000E0,9.767532842E0,-7.386373551E0,2.132666659E-1,1.224780367E1
4.818114000E0,9.104739838E0,-6.941573517E0,4.551776354E-1,1.145813759E1
4.828061000E0,8.749675269E0,-6.499913439E0,1.227254186E-1,1.090049327E1
4.838007000E0,8.474649727E0,-6.027183595E0,3.933361670E-2,1.039943158E1
4.847953000E0,8.314073491E0,-5.594616521E0,-1.034770060E-1,1.002168945E1
4.857899000E0,8.321900573E0,-5.263177042E0,-2.273420835E-1,9.849200280E0
4.867846000E0,8.387689351E0,-5.067724503E0,-2.362427151E-1,9.802600416E0
4.877792000E0,8.460252128E0,-4.971126162E0,-2.127708220E-1,9.814949455E0
4.887738000E0,8.508581119E0,-4.855633128E0,-2.037251977E-1,9.798705511E0
4.897685000E0,8.550581084E0,-4.755659189E0,-2.037678641E-1,9.786227697E0
4.907631000E0,8.616245901E0,-4.639805966E0,-2.138548776E-1,9.788423098E0
4.917577000E0,8.677599565E0,-4.558020084E0,-2.073352687E-1,9.804043513E0
4.927523000E0,8.732499658E0,-4.456514466E0,-1.987749267E-1,9.805946305E0
4.937470000E0,8.882328712E0,-4.327208555E0,-3.147211200E-1,9.885319752E0
4.947416000E0,9.326749261E0,-3.997149603E0,-1.406211510E0,1.024416358E1
4.957362000E0,9.618953923E0,-3.611896152E0,-2.786884137E0,1.064597537E1
4.967308000E0,9.919775627E0,-3.474038395E0,-2.478287975E0,1.079874079E1
4.977255000E0,9.843375907E0,-3.427952688E0,-2.218881515E0,1.065675110E1
4.987201000E0,9.754908119E0,-3.350473280E0,-2.000532449E0,1.050647580E1
4.997147000E0,9.706169237E0,-3.268264936E0,-1.811541669E0,1.040062307E1
5.007094000E0,9.630511529E0,-3.160299315E0,-1.720954850E0,1.028085258E1
5.017040000E0,9.515454698E0,-3.007751891E0,-1.670440169E0,1.011834077E1
5.026986000E0,9.650500236E0,-2.975377319E0,-1.356691441E0,1.018948658E1
5.036932000E0,9.659662823E0,-2.886168397E0,-1.236547093E0,1.015717001E1
5.046879000E0,9.580968656E0,-2.759363339E0,-1.338548115E0,1.005985872E1
5.056825000E0,9.473479291E0,-2.661497029E0,-1.425899670E0,9.943015950E0
5.066771000E0,9.371089282E0,-2.605583322E0,-1.593311448E0,9.856217335E0
5.076718000E0,9.382741029E0,-2.421790277E0,-1.814824296E0,9.858726316E0
5.086664000E0,9.367488567E0,-2.223058474E0,-1.994468887E0,9.832076951E0
5.096610000E0,9.355622812E0,-2.041982192E0,-2.133225799E0,9.810607615E0
5.106556000E0,9.339506131E0,-1.879855128E0,-2.333286090E0,9.808386924E0
5.116503000E0,8.472636530E0,-1.847409513E0,-2.299825399E0,8.971493106E0
5.126449000E0,1.479139153E0,-2.920138673E0,-1.036267532E0,3.433498639E0
5.136395000E0,-1.592751138E1,-5.389997887E0,6.904284654E0,1.817709665E1
5.146342000E0,-9.072960806E1,-4.562511622E0,3.119018031E1,9.604949578E1
5.156288000E0,-4.651248148E1,1.126237937E1,4.098454252E1,6.300781577E1
5.166234000E0,-3.613685926E1,1.556392216E1,1.918601264E1,4.377455141E1
5.176180000E0,-2.960298871E1,8.849317086E0,3.119803546E0,3.105447677E1
5.186127000E0,-1.106253440E1,7.446549586E0,-9.981314063E-2,1.333569386E1
5.196073000E0,-4.993440306E0,6.104936945E0,-5.466241486E0,9.596066755E0
5.206019000E0,-1.727352288E0,5.419081353E0,-5.835598404E0,8.148889334E0
5.215966000E0,3.672799873E-1,4.459821067E0,-4.395040934E0,6.272263017E0
5.225912250E0,1.709016005E0,2.899844449E0,-3.957892567E0,5.195646938E0
5.235858250E0,3.844033245E0,1.137299086E0,-3.932050213E0,5.615252414E0
5.245804250E0,4.375341080E0,-3.305153266E-1,-3.037342018E0,5.336506018E0
5.255751250E0,2.568476014E0,-1.258163226E0,-3.059789479E-2,2.860241243E0
5.265697250E0,9.623195493E-1,-1.953793024E0,5.112654508E0,5.557211730E0
5.275643250E0,2.310866404E-1,-1.795835901E0,8.499741299E0,8.690456246E0
5.285590250E0,-5.167868596E-1,-6.016381449E-1,6.847321079E0,6.893101122E0
5.295536250E0,-2.063343240E0,3.305755529E-1,2.079620134E0,2.948132532E0
5.305482250E0,-2.455179194E0,4.546865058E-1,-1.507378866E0,2.916648032E0
5.315428250E0,-2.224560331E0,6.546074867E-2,-2.293112503E0,3.195515409E0
5.325375250E0,-1.412394356E0,7.174007356E-2,-2.215156254E0,2.628102297E0
5.335321250E0,-6.238657504E-1,4.465672083E-1,-1.415226163E0,1.609812361E0
5.345267250E0,-1.791575181E-1,8.608728428E-1,3.007129455E-1,9.293157393E-1
5.355213250E0,7.744169354E-2,1.030710630E0,1.747349766E0,2.030170639E0
5.365160250E0,2.662763536E-2,9.596891794E-1,1.829483265E0,2.066088423E0
5.375106250E0,-3.360254502E-1,7.649292433E-1,7.491283125E-1,1.122151095E0
5.385052250E0,-7.905172437E-1,7.313711956E-1,-1.796995550E-1,1.091839397E0
5.394999250E0,-1.076962983E0,6.636328103E-1,-2.911229271E-1,1.298079478E0
5.404945250E0,-1.176024756E0,3.917100929E-1,3.138259113E-2,1.239941890E0
5.414891250E0,-9.478921294E-1,2.071665582E-1,2.546555972E-1,1.003128579E0
5.424837250E0,-5.384022617E-1,8.524363339E-3,3.445027435E-1,6.392431466E-1
5.434784250E0,-1.630145252E-1,-1.243638450E-1,4.182121593E-1,4.657698053E-1
5.444730250E0,1.014766735E-1,-1.346713167E-1,6.773923320E-1,6.980646462E-1
5.454676250E0,2.508625084E-1,4.781180531E-2,9.915445179E-1,1.023903559E0
5.464623250E0,1.919863093E-1,1.152221619E-1,1.329563284E0,1.348285361E0
5.474569250E0,2.080950961E-1,9.465575024E-2,1.305289738E0,1.325158322E0
5.484515250E0,2.122425261E-1,-6.506606162E-2,1.298909841E0,1.317743244E0
5.494461250E0,1.086038446E-1,-4.217766219E-1,1.226383901E0,1.301425291E0
5.504408250E0,2.091367775E-1,-7.885198349E-1,1.026793288E0,1.311413809E0
5.514354250E0,4.447301593E-1,-9.755070671E-1,9.013862997E-1,1.400677056E0
5.524300250E0,5.972936636E-1,-9.248147772E-1,7.610285658E-1,1.338359657E0
5.534247250E0,6.007011285E-1,-6.589325260E-1,7.353774154E-1,1.155774140E0
5.544193250E0,3.864185089E-1,-4.425669819E-1,9.025083804E-1,1.076896548E0
5.554139250E0,2.273046613E-1,-2.193306671E-1,9.593111569E-1,1.009975864E0
5.564085250E0,3.154280484E-1,7.535379902E-2,8.098487234E-1,8.723691899E-1
5.574032250E0,2.329720750E-1,2.384338130E-1,6.134512746E-1,6.981755777E-1
5.583978250E0,1.556669140E-1,3.730106972E-1,4.952410394E-1,6.392439718E-1
5.593924250E0,1.631121737E-1,4.821235420E-1,5.527758873E-1,7.514052651E-1
5.603870250E0,1.789949656E-1,5.423929864E-1,7.776802665E-1,9.648916759E-1
5.613817250E0,2.020420584E-1,5.940952367E-1,1.084328136E0,1.252811897E0
5.623763250E0,2.844948158E-1,5.237801296E-1,1.244098041E0,1.379515444E0
5.633709250E0,2.668251148E-1,2.875037929E-1,1.377965950E0,1.432705215E0
5.643656250E0,1.369438371E-1,1.281304751E-1,1.358816319E0,1.371697059E0
5.653602250E0,-1.537601370E-1,2.091271296E-2,1.425007970E0,1.433431978E0
5.663548250E0,-3.762379217E-1,-6.350310087E-2,1.491693710E0,1.539720021E0
5.673494250E0,-5.677026594E-1,-7.049607843E-2,1.513642988E0,1.618138159E0
5.683441250E0,-7.431059727E-1,5.920715153E-2,1.480036116E0,1.657171952E0
5.693387250E0,-8.263840646E-1,2.857341331E-1,1.558912717E0,1.787390129E0
5.703333250E0,-1.000913512E0,5.020160620E-1,1.619517353E0,1.968929770E0
5.713280250E0,-1.258658777E0,5.402624072E-1,1.790142029E0,2.254043893E0
5.723226250E0,-1.354899854E0,3.868175814E-1,1.931986710E0,2.391224394E0
5.733172250E0,-1.500072185E0,1.828735699E-1,2.080317707E0,2.571260599E0
5.743118250E0,-1.574283000E0,1.135343631E-1,2.025183726E0,2.567610979E0
5.753065250E0,-1.488461954E0,2.531107628E-1,1.878156073E0,2.409783036E0
5.763011250E0,-1.397071728E0,4.271127909E-1,2.247935745E0,2.680941973E0
5.772957250E0,-1.316452365E0,6.300690615E-1,2.956027713E0,3.296685258E0
5.782904250E0,-1.091203000E0,7.702905554E-1,3.195303964E0,3.463241105E0
5.792850250E0,-9.189986980E-1,6.563663292E-1,3.042712685E0,3.245531675E0
5.802796250E0,-7.350932407E-1,5.137574172E-1,2.857454183E0,2.994887838E0
5.812742250E0,-6.736603466E-1,3.056487264E-1,2.721416956E0,2.820168374E0
5.822689250E0,-7.736354551E-1,1.700221208E-1,2.756941130E0,2.868474112E0
5.832635250E0,-7.787239945E-1,-1.208751038E-2,2.745699273E0,2.854018512E0
5.842581250E0,-7.325532103E-1,-3.395564376E-1,2.595255677E0,2.717955998E0
5.852527250E0,-6.823001924E-1,-6.843280068E-1,2.142236797E0,2.350109970E0
5.862474250E0,-2.742829460E-1,-7.719485334E-1,1.722141250E0,1.907067423E0
5.872420250E0,2.270745733E-1,-6.152770677E-1,1.513003888E0,1.649032897E0
5.882366250E0,6.321231884E-1,-3.153388783E-1,1.333776203E0,1.509296953E0
5.892313250E0,9.391446948E-1,-1.813046157E-2,1.113824415E0,1.457026527E0
5.902259250E0,1.048208131E0,1.752853458E-1,9.172819555E-1,1.403877282E0
5.912205250E0,1.104892793E0,2.524675691E-1,7.157190764E-1,1.340440881E0
5.922151250E0,1.082549998E0,1.804446365E-1,5.009204400E-1,1.206397966E0
5.932098250E0,1.105283387E0,2.090262651E-2,2.207815075E-1,1.127312184E0
5.942044250E0,1.165485150E0,-1.066999912E-1,6.037367105E-2,1.171915314E0
5.951990250E0,1.279280153E0,-2.033240604E-1,-1.494694501E-1,1.303932322E0
5.961937250E0,1.522580457E0,-2.907777952E-1,-3.621765375E-1,1.591846356E0
5.971883250E0,1.903917736E0,-3.882820165E-1,-6.528387040E-1,2.049844883E0
5.981829250E0,2.436449978E0,-5.255452578E-1,-1.047922202E0,2.703817163E0
5.991775250E0,2.900182711E0,-6.014141965E-1,-1.399895933E0,3.276044477E0
6.001722250E0,3.211121852E0,-6.616884649E-1,-1.641938501E0,3.666755679E0
6.011668250E0,3.437909619E0,-6.429716738E-1,-1.880349364E0,3.970938032E0
6.021614250E0,3.611171975E0,-6.255140805E-1,-2.108146945E0,4.228015425E0
6.031561250E0,3.730817116E0,-7.231723760E-1,-2.100450840E0,4.342104141E0
6.041507250E0,3.755250877E0,-8.965187851E-1,-1.973803657E0,4.336076101E0
6.051453250E0,3.562530742E0,-1.050734712E0,-1.861016715E0,4.154401513E0
6.061399250E0,3.116298140E0,-1.093368808E0,-1.783390834E0,3.753298858E0
6.071346250E0,2.572627537E0,-1.033679992E0,-1.862743982E0,3.340167947E0
6.081292250E0,2.000648224E0,-1.072065940E0,-1.962557123E0,3.000591468E0
6.091238250E0,1.548411702E0,-1.198916313E0,-2.058519872E0,2.841211570E0
6.101184250E0,1.265683622E0,-1.292168293E0,-2.029120656E0,2.718268671E0
6.111131250E0,7.695982450E-1,-1.284668070E0,-1.963541794E0,2.469443234E0
6.121077250E0,4.255784816E-1,-9.380834252E-1,-1.753658327E0,2.033822776E0
6.131023250E0,-6.856094241E-2,-3.615935701E-1,-1.368446683E0,1.417073335E0
6.140970250E0,-9.186841178E-1,7.010489970E-2,-1.041939331E0,1.390874823E0
6.150916250E0,-1.787542357E0,4.821204722E-1,-7.349394590E-1,1.991954777E0
6.160862250E0,-2.779145932E0,9.501212342E-1,-4.213298947E-1,2.967136894E0
6.170808250E0,-3.845980952E0,1.527379267E0,2.794591936E-1,4.147596214E0
6.180755250E0,-5.716350288E0,2.111818412E0,1.508238407E0,6.277835671E0
6.190701250E0,-8.323161818E0,2.814182448E0,2.027373508E0,9.016922359E0
6.200647250E0,-1.148486242E1,3.692676021E0,1.664216100E0,1.217815816E1
6.210594250E0,-1.552703207E1,4.476787348E0,8.735810351E-1,1.618312373E1
6.220540250E0,-1.796711843E1,4.698782153E0,6.583953130E-1,1.858304020E1
6.230485375E0,-1.899566472E1,5.263833684E0,1.005206245E0,1.973711384E1
6.240431375E0,-1.979182394E1,5.814955394E0,1.487881764E0,2.068196783E1
6.250378375E0,-1.985184678E1,5.679073119E0,1.258285725E0,2.068649257E1
6.260324375E0,-1.891103095E1,5.533376877E0,8.843225165E-1,1.972377696E1
6.270270375E0,-1.746588108E1,5.361012070E0,1.420650625E0,1.832527491E1
6.280216375E0,-1.569699075E1,4.878401016E0,1.280321542E0,1.648737512E1
6.290163375E0,-1.227652630E1,3.917219042E0,1.620579792E0,1.298783977E1
6.300109375E0,-7.830401167E0,2.716090727E0,1.774994817E0,8.476021347E0
6.310055375E0,-4.050320674E0,1.224946217E0,1.626829880E0,4.533449708E0
6.320002375E0,-1.315555694E0,-2.495843071E-1,1.461364202E0,1.982060656E0
6.329948375E0,7.804483384E-1,-1.468765316E0,1.364896839E0,2.151584194E0
6.339894375E0,2.352267614E0,-2.150394540E0,1.288085329E0,3.437517043E0
6.349840375E0,3.799406710E0,-2.366431032E0,1.378637649E0,4.683602134E0
6.359787375E0,5.062919261E0,-2.478977947E0,1.658825991E0,5.876239169E0
6.369733375E0,6.290873725E0,-2.873016547E0,1.990004099E0,7.196487519E0
6.379679375E0,8.035310408E0,-3.124409983E0,1.784779547E0,8.804180207E0
6.389626375E0,9.389457725E0,-2.871881018E0,1.255012454E0,9.898720787E0
6.399572375E0,9.825574644E0,-2.295496120E0,1.289033893E0,1.017215945E1
6.409518375E0,9.920891275E0,-2.208257417E0,1.247811608E0,1.023999601E1
6.419464375E0,1.011373479E1,-2.152416507E0,8.924172556E-1,1.037867702E1
6.429411375E0,1.023885818E1,-2.085126165E0,8.033489585E-1,1.047985389E1
6.439357375E0,1.033009112E1,-2.046490541E0,1.146761196E0,1.059310943E1
6.449303375E0,1.034612653E1,-2.094748928E0,1.720313995E0,1.069531614E1
6.459249375E0,1.030309102E1,-2.239353202E0,2.054475937E0,1.074193924E1
6.469196375E0,1.025260382E1,-2.169711109E0,1.612618808E0,1.060302178E1
6.479142375E0,1.007893450E1,-1.975445263E0,8.726734742E-1,1.030770894E1
6.489088375E0,1.016229591E1,-1.606691924E0,1.815150424E-1,1.029012463E1
6.499035375E0,1.015626743E1,-1.531795377E0,-6.746692836E-2,1.027135420E1
6.508981375E0,1.006816977E1,-1.460393126E0,-4.904680303E-1,1.018534975E1
6.518927375E0,1.007266862E1,-1.354693594E0,-7.774844579E-1,1.019305303E1
6.528873375E0,1.004683913E1,-1.250360994E0,-9.737632082E-1,1.017106651E1
6.538820375E0,9.946431913E0,-1.165220052E0,-1.044830925E0,1.006880913E1
6.548766375E0,9.798233648E0,-1.073438135E0,-8.099685913E-1,9.890080949E0
6.558712375E0,9.712667248E0,-9.522056204E-1,-5.633798128E-1,9.775479397E0
6.568659375E0,9.708223949E0,-8.566601432E-1,-5.936653932E-1,9.764011340E0
6.578605375E0,9.716751528E0,-7.803885506E-1,-5.807816382E-1,9.765325077E0
6.588551375E0,9.707616423E0,-6.860465766E-1,-5.728833290E-1,9.748675389E0
6.598497375E0,9.737223800E0,-5.826973323E-1,-5.503797714E-1,9.770157696E0
6.608444375E0,9.723697436E0,-4.910247584E-1,-5.406318051E-1,9.751086088E0
6.618390375E0,9.752956903E0,-3.970042350E-1,-5.247830001E-1,9.775130583E0
6.628336375E0,9.762739879E0,-3.006516411E-1,-5.258015485E-1,9.781510550E0
6.638282375E0,9.754801115E0,-2.067045734E-1,-5.152952715E-1,9.770588559E0
6.648229375E0,9.768463134E0,-1.255209724E-1,-5.305605608E-1,9.783666083E0
6.658175375E0,9.794393197E0,-6.322630830E-2,-5.614174873E-1,9.810674047E0
6.668121375E0,9.818315910E0,1.751862811E-2,-5.858787658E-1,9.835796264E0
6.678068375E0,9.831632359E0,1.061554510E-1,-6.539753296E-1,9.853930564E0
6.688014375E0,1.000931521E1,2.354464523E-1,-8.147813614E-1,1.004518266E1
6.697960375E0,1.041988447E1,3.641142317E-1,-1.420928367E0,1.052262368E1
6.707906375E0,1.077527590E1,4.696026433E-1,-2.858348807E0,1.115783381E1
6.717853375E0,1.018985267E1,3.521681508E-1,-2.560527894E0,1.051253647E1
6.727799375E0,9.833646140E0,1.904014580E-1,-2.248139374E0,1.008915159E1
6.737745375E0,9.740632142E0,1.830638967E-1,-1.928101235E0,9.931314177E0
6.747692375E0,9.771994852E0,2.356434121E-1,-1.736130275E0,9.927817461E0
6.757638375E0,9.692780283E0,2.386619275E-1,-1.814163560E0,9.863981881E0
6.767584375E0,9.542376448E0,3.226313064E-1,-2.017565389E0,9.758668420E0
6.777530375E0,9.249302305E0,1.396051242E-1,-2.370339019E0,9.549219328E0
6.787477375E0,9.077111744E0,1.167544247E-1,-3.145181339E0,9.607276142E0
6.797423375E0,9.072477241E0,2.514611171E-1,-3.997949210E0,9.917493326E0
6.807369375E0,6.081619418E0,-9.033145653E-1,-3.255918540E0,6.957232028E0
6.817315375E0,-1.055255312E1,-6.222595788E0,3.788703382E-2,1.225065350E1
6.827262375E0,-2.854728094E1,-1.337608819E1,8.582448410E0,3.267300728E1
6.837208375E0,-5.692661113E1,-2.245032836E1,6.132451252E1,8.663343543E1
6.847154375E0,-4.165761317E1,-3.220660181E1,4.834720210E1,7.148478080E1
6.857101375E0,-1.131835477E1,-1.060265440E1,-9.102699745E-1,1.553544420E1
6.867047375E0,-1.456311507E1,1.349554446E1,-2.479924611E0,2.000909960E1
6.876993375E0,-1.206284214E1,2.391232173E1,-5.229694131E0,2.728847727E1
6.886939375E0,-6.293782715E0,2.001604127E1,-1.192848950E1,2.413591661E1
6.896886375E0,-3.507040080E0,1.606779193E1,-8.432211805E0,1.848176030E1
6.906832375E0,3.294660437E-1,1.068080244E1,-6.700999770E0,1.261314737E1
6.916778375E0,2.590159829E0,6.610260923E0,-5.685459448E0,9.095544324E0
6.926725375E0,4.289924954E0,2.863390568E0,-2.609963179E0,5.780516365E0
6.936671375E0,5.172869720E0,-7.676188163E-1,4.225439520E0,6.723255084E0
6.946617375E0,5.091878182E0,-2.948012350E0,8.787824843E0,1.057562602E1
6.956563375E0,5.174118100E0,-4.041069794E0,6.764028077E0,9.426230372E0
6.966510375E0,4.838723565E0,-3.448862916E0,2.761956872E0,6.552580172E0
6.976456375E0,4.196817400E0,-1.793370423E0,5.053064364E-1,4.591817544E0
6.986402375E0,3.410553421E0,-3.626992786E-1,3.408400476E-2,3.429954391E0
6.996348375E0,-5.751794940E-1,-3.931593253E-1,6.445602161E-1,9.491383342E-1
7.006295375E0,-9.636693206E0,-2.777542625E0,3.269280598E0,1.054840247E1
7.016241375E0,-9.684528692E0,-3.964380053E0,1.341298646E-1,1.046539039E1
7.026187375E0,-1.839892479E0,-9.861345278E-1,-1.690513660E0,2.686168661E0
7.036134375E0,4.426739860E-1,7.878421426E-1,2.159055144E-1,9.291236143E-1
7.046080375E0,6.966752797E-1,8.950163430E-1,8.280967140E-1,1.404334315E0
7.056026375E0,6.794809574E-1,1.176606554E0,4.458355755E-1,1.429988362E0
7.065972375E0,1.001571908E0,1.215245979E0,2.995090038E-1,1.603020499E0
7.075919375E0,4.880887252E-1,1.060572214E0,5.413983750E-1,1.286917335E0
7.085865375E0,-2.027165347E-1,6.768361156E-1,1.169006928E0,1.365934961E0
7.095811375E0,-5.318235594E-1,3.886350422E-1,1.928646196E0,2.038025918E0
7.105758375E0,-7.523474970E-1,2.320157629E-1,2.152922584E0,2.292364221E0
7.115704375E0,-8.426907796E-1,9.146901771E-2,1.774501312E0,1.966557713E0
7.125650375E0,-8.283107221E-1,3.567444742E-2,1.615580422E0,1.815894110E0
7.135596375E0,-8.044678232E-1,-3.333000630E-2,1.993716935E0,2.150159665E0
7.145543375E0,-9.640941793E-1,-1.397469923E-1,2.366834782E0,2.559475277E0
7.155489375E0,-1.032137058E0,-1.968671264E-1,2.376773295E0,2.598675599E0
7.165435375E0,-8.991933015E-1,-5.002760768E-2,2.263475890E0,2.436057155E0
7.175381375E0,-8.369464749E-1,-1.379752859E-2,2.281709263E0,2.430404685E0
7.185328375E0,-7.536715990E-1,-1.984042132E-1,2.299238046E0,2.427731596E0
7.195274375E0,-6.225884262E-1,-2.753399033E-1,2.228199638E0,2.329871678E0
7.205220375E0,-7.120452708E-1,-7.181133650E-2,2.285397686E0,2.394829414E0
7.215167375E0,-8.767756614E-1,1.965667988E-1,2.366226087E0,2.531086716E0
7.225113375E0,-1.038214070E0,4.357231814E-1,2.308717552E0,2.568641641E0
7.235059750E0,-9.737610886E-1,5.742386770E-1,2.162692696E0,2.440327932E0
7.245005750E0,-8.420712671E-1,5.809998125E-1,1.964846892E0,2.215235453E0
7.254952750E0,-4.492216980E-1,7.851832674E-1,1.730288760E0,1.952488692E0
7.264898750E0,-2.088952875E-1,8.712108663E-1,1.460152075E0,1.713093604E0
7.274844750E0,-1.598041114E-1,6.644234269E-1,1.197077072E0,1.378401016E0
7.284791750E0,6.145482123E-2,5.197997837E-1,1.058561795E0,1.180898634E0
7.294737750E0,1.763862303E-1,3.317170756E-1,9.992289287E-1,1.067523664E0
7.304683750E0,2.183057964E-1,1.204568086E-1,9.015973842E-1,9.354384569E-1
7.314629750E0,1.192750132E-1,-9.145425349E-2,7.340436655E-1,7.492733227E-1
7.324576750E0,-2.997955173E-2,-2.705459905E-1,5.295063078E-1,5.953745347E-1
7.334522750E0,-1.098782453E-1,-4.179947159E-1,4.492211133E-1,6.233718152E-1
7.344468750E0,-2.440785688E-1,-5.890792027E-1,3.944800651E-1,7.498020916E-1
7.354414750E0,-3.804730600E-1,-6.519715619E-1,3.889386588E-1,8.491760402E-1
7.364361750E0,-4.391644871E-1,-5.268209741E-1,3.564181995E-1,7.729422478E-1
7.374307750E0,-4.903112519E-1,-2.939930329E-1,2.921719176E-1,6.420291711E-1
7.384253750E0,-4.777543563E-1,1.523704000E-2,7.353633821E-2,4.836207040E-1
7.394200750E0,-4.688703892E-1,2.889779491E-1,-1.285697472E-1,5.655774720E-1
7.404146750E0,-3.773065004E-1,4.693146314E-1,-2.089560986E-1,6.374002428E-1
7.414092750E0,-3.266169879E-1,5.711862843E-1,-2.071498936E-1,6.898141101E-1
7.424038750E0,-3.465399134E-1,5.985962040E-1,-8.923143446E-2,6.974020189E-1
7.433985750E0,-4.232202995E-1,4.819897869E-1,8.045651793E-2,6.464540416E-1
7.443931750E0,-4.591935396E-1,2.400605084E-1,3.403278315E-1,6.199280502E-1
7.453877750E0,-4.544248429E-1,2.018356517E-2,6.314525127E-1,7.782297797E-1
7.463823750E0,-5.029769057E-1,-5.730475992E-2,8.853310150E-1,1.019843424E0
7.473770750E0,-5.514307353E-1,-5.467132017E-2,9.472974676E-1,1.097468588E0
7.483716750E0,-5.684627974E-1,4.188470207E-2,8.846012825E-1,1.052342012E0
7.493662750E0,-6.055189419E-1,1.873874742E-1,1.035542477E0,1.214131573E0
7.503609750E0,-6.878781438E-1,2.358883739E-1,1.279995852E0,1.472144370E0
7.513555750E0,-7.602324674E-1,2.511652480E-1,1.495705485E0,1.696517693E0
7.523501750E0,-8.196381319E-1,3.023122320E-1,1.483702905E0,1.721793734E0
7.533447750E0,-8.953525579E-1,1.665373264E-1,1.548539171E0,1.796486696E0
7.543394750E0,-8.898336634E-1,7.343028434E-2,1.722170486E0,1.939862659E0
7.553340750E0,-8.613550919E-1,-3.263740361E-2,1.706833239E0,1.912139509E0
7.563286750E0,-7.490362188E-1,-9.408754706E-2,1.553496441E0,1.727211312E0
7.573233750E0,-5.674521062E-1,-9.054311112E-2,1.450090186E0,1.559795338E0
7.583179750E0,-3.088098773E-1,-5.676330775E-2,1.266892827E0,1.305221455E0
7.593125750E0,-8.706270218E-2,-5.978485644E-3,1.239710290E0,1.242778042E0
7.603071750E0,9.465004921E-2,1.715090677E-2,1.342801965E0,1.346242884E0
7.613018750E0,2.405222923E-1,-3.207548618E-2,1.261972979E0,1.285089729E0
7.622964750E0,3.951215047E-1,-1.707938071E-1,1.113992230E0,1.194265556E0
7.632910750E0,6.055937862E-1,-2.575061148E-1,9.261603677E-1,1.136145352E0
7.642856750E0,8.066163826E-1,-2.411803233E-1,7.129451573E-1,1.103217447E0
7.652803750E0,9.415768442E-1,-1.875919805E-1,5.326012391E-1,1.097917021E0
7.662749750E0,1.093049258E0,-1.890783428E-1,4.391598094E-1,1.193050141E0
7.672695750E0,1.267472286E0,-2.298783132E-1,3.508352780E-1,1.335071319E0
7.682642750E0,1.437870090E0,-3.298054746E-1,2.108108354E-1,1.490195710E0
7.692588750E0,1.557044531E0,-4.134636354E-1,-4.926279187E-3,1.611013382E0
7.702534750E0,1.607317137E0,-2.995562200E-1,-2.793653458E-1,1.658688429E0
7.712480750E0,1.709575583E0,-1.414021929E-1,-5.591019899E-1,1.804227893E0
7.722427750E0,1.873916257E0,-2.834807624E-1,-5.141877723E-1,1.963749614E0
7.732373750E0,2.055436050E0,-3.663312766E-1,-5.107004929E-1,2.149379202E0
7.742319750E0,2.431581001E0,-3.149428757E-1,-7.335887522E-1,2.559282641E0
7.752265750E0,2.841974849E0,-1.101122801E-1,-8.771560228E-1,2.976297774E0
7.762212750E0,3.047143705E0,1.796286575E-1,-9.828771901E-1,3.206773891E0
7.772158750E0,3.162420977E0,4.154475957E-1,-1.043309333E0,3.355889973E0
7.782104750E0,3.235892411E0,4.004027098E-1,-9.887290835E-1,3.407184649E0
7.792051750E0,3.179514728E0,8.149542198E-2,-9.661383659E-1,3.324060581E0
7.801997750E0,2.968671733E0,-3.246235259E-1,-1.053935478E0,3.166886844E0
7.811943750E0,2.695695055E0,-7.562035896E-1,-9.983074075E-1,2.972412047E0
7.821889750E0,2.229529295E0,-1.358587401E0,-8.903695607E-1,2.758499331E0
7.831836750E0,1.805624287E0,-1.883706104E0,-7.722733462E-1,2.721219188E0
7.841782750E0,1.398434129E0,-2.439007404E0,-6.856579560E-1,2.893873176E0
7.851728750E0,9.094841087E-1,-2.495494284E0,-7.886011112E-1,2.770657824E0
7.861674750E0,5.852916688E-1,-1.680589766E0,-9.116440701E-1,1.999510743E0
7.871621750E0,4.237547350E-1,-3.480927877E-1,-1.064464560E0,1.197422842E0
7.881567750E0,-5.593440646E-1,6.743728298E-1,-1.219172530E0,1.501341452E0
7.891513750E0,-1.329029433E0,1.297183304E0,-1.344509352E0,2.292751438E0
7.901460750E0,-2.408339489E0,1.628217717E0,-1.067737831E0,3.096975315E0
7.911406750E0,-3.697887937E0,2.002132686E0,-6.587978938E-1,4.256398143E0
7.921352750E0,-5.527859445E0,2.375569938E0,1.470791084E-1,6.018487753E0
7.931298750E0,-8.093508915E0,2.815516782E0,1.197564145E0,8.652524556E0
7.941245750E0,-1.194996282E1,3.600921806E0,1.497962510E0,1.257028802E1
7.951191750E0,-1.576864721E1,4.222639289E0,4.838307828E-1,1.633141175E1
7.961137750E0,-1.743609068E1,4.379313386E0,9.404837072E-2,1.797788889E1
7.971084750E0,-1.756186780E1,4.769542233E0,3.491302299E-1,1.820136329E1
7.981030750E0,-1.758024560E1,5.591022238E0,5.285257298E-1,1.845545731E1
7.990976750E0,-1.836891804E1,5.882638085E0,9.942368683E-1,1.931349497E1
8.000922750E0,-1.982411694E1,5.090615183E0,2.203369875E0,2.058554868E1
8.010869750E0,-2.017950837E1,4.213812917E0,2.888129261E0,2.081610117E1
8.020815750E0,-1.872644722E1,4.241449489E0,2.906044545E0,1.941944422E1
8.030761750E0,-1.646081955E1,4.437515401E0,3.061969321E0,1.732125224E1
8.040707750E0,-1.270824377E1,4.123601489E0,2.859693666E0,1.366314008E1
8.050654750E0,-8.402808496E0,2.616058316E0,2.080800102E0,9.043267153E0
8.060600750E0,-4.842107348E0,4.345276451E-1,1.742265027E0,5.164330089E0
8.070546750E0,-2.154904205E0,-1.534632007E0,1.992953873E0,3.312185483E0
8.080493750E0,1.413880134E-1,-2.782757172E0,2.316537618E0,3.623544478E0
8.090439750E0,2.194861153E0,-3.039578578E0,2.930339141E0,4.758501959E0
8.100385750E0,4.427176647E0,-3.127336806E0,2.844699651E0,6.121474060E0
8.110331750E0,6.285280278E0,-3.408078294E0,2.374429146E0,7.533767956E0
8.120278750E0,7.446924393E0,-3.380550188E0,2.490193491E0,8.549027202E0
8.130224750E0,8.267647183E0,-3.247083398E0,2.875213931E0,9.336187427E0
8.140170750E0,9.152467151E0,-3.089424337E0,2.773062488E0,1.004997877E1
8.150117750E0,9.879263778E0,-2.772997877E0,2.041957633E0,1.046226366E1
8.160063750E0,9.979082766E0,-2.399271188E0,8.513709712E-1,1.029871000E1
8.170009750E0,9.960588022E0,-2.267612503E0,9.283741236E-2,1.021586996E1
8.179955750E0,9.926001742E0,-2.188038768E0,1.885135748E-1,1.016604946E1
8.189902750E0,9.955240159E0,-2.147140272E0,7.660823143E-1,1.021292809E1
8.199848750E0,9.973669413E0,-2.160164653E0,1.208261114E0,1.027620007E1
8.209794750E0,1.002461854E1,-2.174605375E0,1.389198452E0,1.035141332E1
8.219740750E0,1.014952092E1,-2.311230393E0,1.425354710E0,1.050648356E1
8.229687792E0,1.018850664E1,-2.412516155E0,1.195169710E0,1.053823194E1
8.239633792E0,1.001091501E1,-2.207024093E0,8.382562512E-1,1.028552615E1
8.249579792E0,9.815241444E0,-1.891514183E0,2.842349070E-1,9.999878999E0
8.259526792E0,9.783868209E0,-1.826447537E0,-2.328818087E-1,9.955612571E0
8.269472792E0,9.832213572E0,-1.747825875E0,-9.717980321E-1,1.003352931E1
8.279418792E0,9.855797732E0,-1.680018931E0,-1.650817498E0,1.013333168E1
8.289364792E0,9.850111899E0,-1.612634156E0,-1.988984199E0,1.017749240E1
8.299311792E0,9.685772395E0,-1.566880279E0,-1.980931267E0,1.000966480E1
8.309257792E0,9.496163564E0,-1.476807868E0,-1.732979649E0,9.765311176E0
8.319203792E0,9.503837450E0,-1.409685341E0,-1.778337085E0,9.771009253E0
8.329149792E0,9.464029021E0,-1.326406080E0,-1.867220903E0,9.737233298E0
8.339096792E0,9.475350400E0,-1.288536734E0,-1.988644622E0,9.767154117E0
8.349042792E0,9.469452898E0,-1.215973080E0,-2.112857608E0,9.778205152E0
8.358988792E0,9.437563938E0,-1.154448896E0,-2.233413600E0,9.766703725E0
8.368935792E0,9.873803648E0,-6.871889032E-1,-3.975738854E0,1.066633613E1
8.378881792E0,1.118750577E1,1.057582241E-1,-7.236442755E0,1.332432265E1
8.388827792E0,1.105360687E1,-2.299659484E-1,-4.396295162E0,1.189800489E1
8.398773792E0,1.070677811E1,-3.077603752E-1,-4.298139999E0,1.154139599E1
8.408720792E0,1.010589484E1,-2.215829049E-1,-3.879413577E0,1.082719073E1
8.418666792E0,9.779253586E0,-3.355190814E-2,-3.602961314E0,1.042191233E1
8.428612792E0,9.871628484E0,2.007736512E-2,-2.922791555E0,1.029524951E1
8.438558792E0,9.402422172E0,3.632171226E-1,-4.380857928E0,1.037927674E1
8.448505792E0,9.896709530E0,3.456482130E-1,-3.729206209E0,1.058164974E1
8.458451792E0,1.032230965E1,1.907835370E-1,-2.615887578E0,1.065032124E1
8.468397792E0,1.012199106E1,2.584161609E-1,-2.568671311E0,1.044603054E1
8.478344792E0,9.984508982E0,3.306926434E-1,-2.528875746E0,1.030509533E1
8.488290792E0,9.805711652E0,3.672343791E-1,-2.471189455E0,1.011897324E1
8.498236792E0,9.643318686E0,4.047487260E-1,-2.581891281E0,9.991175076E0
8.508182792E0,9.503069125E0,4.005746180E-1,-2.769902653E0,9.906621197E0
8.518129792E0,9.323940843E0,3.732960779E-1,-3.008580441E0,9.804426505E0
8.528075792E0,9.185874048E0,3.833189364E-1,-3.278750163E0,9.761015217E0
8.538021792E0,9.073744333E0,4.394945990E-1,-3.588110264E0,9.767319335E0
8.547967792E0,8.974456857E0,5.708230260E-1,-3.928560010E0,9.813271552E0
8.557914792E0,8.832052597E0,6.325308124E-1,-4.252665911E0,9.822953510E0
8.567860792E0,8.660337415E0,6.725519338E-1,-4.486107517E0,9.776447765E0
8.577806792E0,8.497135779E0,7.064436382E-1,-4.712880959E0,9.742259799E0
8.587753792E0,7.510852001E0,4.492656983E-1,-3.909322670E0,8.479241782E0
8.597699792E0,-5.200618851E-1,-1.793354197E0,9.332704650E0,9.517665666E0
8.607645792E0,-3.397918757E1,-1.839654497E1,8.710990090E1,9.529508324E1
8.617591792E0,-4.884378975E1,-2.820634850E1,5.477274948E1,7.862167627E1
8.627538792E0,-3.849450807E1,5.717593991E0,-1.058834626E1,4.033151509E1
8.637484792E0,-2.906107811E1,1.067231696E1,2.422714868E0,3.105340815E1
8.647430792E0,-3.188605978E1,6.914903197E0,-1.028387239E0,3.264344153E1
8.657376792E0,-2.107096551E1,8.797255817E0,-7.734146057E0,2.410797198E1
8.667323792E0,-6.577397232E0,5.934629188E0,-7.021543547E0,1.130416081E1
8.677269792E0,3.322990197E-1,4.129145234E0,-5.366217846E0,6.779126564E0
8.687215792E0,2.924498942E0,3.747613828E0,-4.159463047E0,6.316520902E0
8.697162792E0,3.805298949E0,2.196600700E0,-3.376213893E0,5.541134810E0
8.707108792E0,3.741399992E0,9.154371589E-1,-3.184189577E0,4.997515618E0
8.717054792E0,3.651009055E0,2.676400705E-1,-2.574936018E0,4.475689201E0
8.727000792E0,2.750364767E0,-4.825348205E-1,6.980932295E-2,2.793245343E0
8.736947792E0,2.332522151E0,-1.113173401E0,6.426125085E0,6.926391428E0
8.746893792E0,8.496653384E-1,-1.156488332E0,1.367493704E1,1.375002907E1
8.756839792E0,-8.892732078E-1,-7.669595428E-1,8.725205256E0,8.803876450E0
8.766785792E0,-2.371863388E0,-5.292123391E-1,2.134072915E0,3.234202968E0
8.776732792E0,-5.698571244E0,1.447969401E-1,-1.075161456E0,5.800918250E0
8.786678792E0,-6.331003751E0,8.457009993E-1,-2.670020515E0,6.922848274E0
8.796624792E0,-3.680753841E0,6.640187996E-1,-2.249405150E0,4.364480878E0
8.806571792E0,-2.055799747E0,1.253333133E-1,-7.009326375E-1,2.175621199E0
8.816517792E0,-6.348216784E-1,1.314423381E-1,9.636913061E-1,1.161454513E0
8.826463792E0,-8.588741183E-2,2.639561784E-1,2.296587503E0,2.313301466E0
8.836409792E0,-2.879204071E-1,3.062457271E-1,2.673832900E0,2.706670830E0
8.846356792E0,-9.111675221E-1,1.957190256E-1,1.939830165E0,2.152085793E0
8.856302792E0,-1.384826488E0,1.178816217E-1,9.431652403E-1,1.679643162E0
8.866248792E0,-1.592868667E0,3.629388683E-2,5.173195410E-1,1.675161886E0
8.876195792E0,-1.398385597E0,-1.625707215E-1,7.852535802E-1,1.611997116E0
8.886141792E0,-9.657085955E-1,-4.513043301E-1,1.253074102E0,1.645133245E0
8.896087792E0,-5.789164495E-1,-6.156129903E-1,1.467408469E0,1.693343210E0
8.906033792E0,-2.653255963E-1,-6.311081117E-1,1.313691602E0,1.481377989E0
8.915980792E0,-1.426779091E-1,-6.387863830E-1,9.592228639E-1,1.161255153E0
8.925926792E0,-1.147516072E-1,-6.194426972E-1,7.087725842E-1,9.482804240E-1
8.935872792E0,-4.014055073E-2,-6.113086355E-1,5.712028027E-1,8.376050104E-1
8.945818792E0,4.368665314E-1,-2.982194734E-1,6.465979707E-1,8.353898230E-1
8.955765792E0,4.603378397E-1,8.801155910E-2,8.327721477E-1,9.555974106E-1
8.965711792E0,-6.903544396E-2,2.855916072E-1,9.789537084E-1,1.022095310E0
8.975657792E0,-1.808166656E-1,3.718497325E-1,1.041148787E0,1.120248940E0
8.985604792E0,-1.490715471E-1,2.287006840E-1,9.772147465E-1,1.014630470E0
8.995550792E0,-1.452995083E-1,9.520436525E-3,7.854377675E-1,7.988210516E-1
9.005496792E0,-1.601929513E-1,-1.652422412E-1,7.097829831E-1,7.461626250E-1
9.015442792E0,-2.006530523E-1,-2.084724607E-1,7.064734590E-1,7.634311774E-1
9.025389792E0,-1.947277763E-1,-3.548455909E-2,5.829855269E-1,6.156705169E-1
9.035335792E0,-1.353843847E-1,7.869299769E-2,5.223341131E-1,5.453021596E-1
9.045281792E0,-6.756019145E-2,2.239504791E-1,4.799926704E-1,5.339580135E-1
9.055227792E0,9.048917055E-2,2.691561073E-1,3.411055112E-1,4.438313529E-1
9.065174792E0,2.423913547E-1,1.622877894E-1,3.022864312E-1,4.200809231E-1
9.075120792E0,2.736570016E-1,4.681551285E-2,2.793577445E-1,3.938535212E-1
9.085066792E0,3.376503915E-1,5.640735850E-3,2.714499700E-1,4.332720750E-1
9.095013792E0,3.007369190E-1,7.800843492E-3,2.599981982E-1,3.976211899E-1
9.104959792E0,1.694347680E-1,3.011849619E-2,3.116437304E-1,3.560015156E-1
9.114905792E0,6.815251440E-2,-8.369339034E-3,3.806245029E-1,3.867684362E-1
9.124851792E0,-5.954248935E-2,-6.982971512E-2,4.135665464E-1,4.236257611E-1
9.134798792E0,-2.301347136E-1,-5.505051211E-2,3.845152402E-1,4.514914343E-1
9.144744792E0,-4.512021500E-1,2.919777900E-2,2.787531424E-1,5.311677746E-1
9.154690792E0,-6.438620585E-1,6.329925232E-2,1.600458938E-1,6.664681792E-1
9.164636792E0,-7.218188918E-1,1.509908225E-1,6.954093575E-2,7.407136307E-1
9.174583792E0,-7.533789459E-1,2.531139788E-1,1.078723580E-1,8.020492304E-1
9.184529792E0,-7.398461500E-1,3.158798189E-1,2.075790793E-1,8.308077153E-1
9.194475792E0,-6.399286366E-1,3.115126066E-1,1.856555289E-1,7.355384010E-1
9.204422792E0,-5.093781450E-1,1.891353531E-1,1.998449671E-1,5.789441142E-1
9.214368792E0,-4.302723339E-1,-4.831240006E-2,2.642953169E-1,5.072675664E-1
9.224314792E0,-4.074415880E-1,-2.254849347E-1,3.677623826E-1,5.933812211E-1
9.234260167E0,-3.755649072E-1,-2.998398100E-1,4.137501490E-1,6.341467472E-1
9.244207167E0,-4.013470352E-1,-3.503205769E-1,4.317285830E-1,6.857065834E-1
9.254153167E0,-4.491854453E-1,-2.614429720E-1,5.124961728E-1,7.299125420E-1
9.264099167E0,-5.105206910E-1,-1.430755929E-1,5.870692223E-1,7.910450512E-1
9.274045167E0,-5.581980103E-1,-7.807677425E-2,6.554950941E-1,8.644968593E-1
9.283992167E0,-5.803343993E-1,-1.682387931E-1,6.293428373E-1,8.724475420E-1
9.293938167E0,-5.781773615E-1,-2.712957497E-1,4.676527065E-1,7.915740642E-1
9.303884167E0,-5.495186958E-1,-3.330739219E-1,4.688496315E-1,7.954426513E-1
9.313831167E0,-5.002471331E-1,-2.654366203E-1,6.371091092E-1,8.524152806E-1
9.323777167E0,-4.748456588E-1,-1.486990795E-1,9.743624747E-1,1.094062177E0
9.333723167E0,-5.121991342E-1,-7.086489156E-2,1.347534701E0,1.443336259E0
9.343669167E0,-5.723202056E-1,1.589214742E-2,1.490428957E0,1.596615625E0
9.353616167E0,-5.111062896E-1,8.820378631E-3,1.430274557E0,1.518878779E0
9.363562167E0,-5.506258661E-1,3.618907548E-2,1.318303885E0,1.429133873E0
9.373508167E0,-5.813784197E-1,-5.386710875E-2,1.264235267E0,1.392549225E0
9.383455167E0,-6.476843834E-1,-1.828920617E-1,1.377849591E0,1.533432118E0
9.393401167E0,-7.146773949E-1,-2.758288767E-1,1.631488942E0,1.802387726E0
9.403347167E0,-6.603555921E-1,-3.678120840E-1,1.775529837E0,1.929730924E0
9.413293167E0,-5.386662635E-1,-4.218936393E-1,1.830476122E0,1.954174614E0
9.423240167E0,-3.441647744E-1,-4.430796365E-1,1.793587793E0,1.879288729E0
9.433186167E0,-1.919570732E-1,-5.110291795E-1,1.663182605E0,1.750478425E0
9.443132167E0,-1.045581561E-1,-5.987652616E-1,1.581832048E0,1.694592834E0
9.453078167E0,-6.527714610E-2,-5.892784466E-1,1.579649867E0,1.687247432E0
9.463025167E0,-8.283224165E-2,-4.585581665E-1,1.543921625E0,1.612709136E0
9.472971167E0,-8.277698547E-2,-2.559494399E-1,1.448136631E0,1.472909314E0
9.482917167E0,1.438473523E-2,-9.195682168E-2,1.275533842E0,1.278925158E0
9.492863167E0,2.094724077E-1,-4.924232662E-2,1.095034388E0,1.115976616E0
9.502810167E0,4.933038568E-1,-8.851990141E-2,1.012767572E0,1.129992311E0
9.512756167E0,7.584177840E-1,-1.467119032E-1,9.537434381E-1,1.227333884E0
9.522702167E0,9.214673924E-1,-2.281815244E-1,8.946608323E-1,1.304448914E0
9.532649167E0,1.039365971E0,-3.297098726E-1,7.857482547E-1,1.344020291E0
9.542595167E0,1.117191827E0,-3.991260434E-1,5.221516800E-1,1.296171884E0
9.552541167E0,1.193792106E0,-4.314724018E-1,1.614182353E-1,1.279595199E0
9.562487167E0,1.671220188E0,-3.082323917E-1,-2.205318314E-1,1.713656445E0
9.572434167E0,1.966709231E0,-1.852873736E-1,-5.230948359E-1,2.043503075E0
9.582380167E0,2.162320229E0,-1.889948738E-1,-6.827401954E-1,2.275408097E0
9.592326167E0,2.250706741E0,-2.189278670E-1,-6.522990060E-1,2.353530165E0
9.602272167E0,2.393282323E0,-2.298262730E-1,-5.593440646E-1,2.468498770E0
9.612219167E0,2.589339464E0,-2.932150608E-1,-5.733686113E-1,2.668221411E0
9.622165167E0,2.787719704E0,-3.260394292E-1,-6.067433488E-1,2.871553647E0
9.632111167E0,2.993993100E0,-2.436783269E-1,-7.670143604E-1,3.100271736E0
9.642058167E0,3.072434083E0,-1.781946279E-1,-8.093207198E-1,3.182232635E0
9.652004167E0,3.011854005E0,-1.998307876E-1,-6.793359464E-1,3.093977088E0
9.661950167E0,2.829410352E0,-2.683554773E-1,-7.522665131E-1,2.939980018E0
9.671896167E0,2.700130752E0,-3.242430183E-1,-9.466455030E-1,2.879579366E0
9.681843167E0,2.554581276E0,-4.662487900E-1,-1.094879436E0,2.818161530E0
9.691789167E0,2.287082854E0,-7.596063767E-1,-1.061012363E0,2.633153445E0
9.701735167E0,1.962571741E0,-1.004093520E0,-8.732728869E-1,2.371180543E0
9.711681167E0,1.542158689E0,-1.188254208E0,-7.100583869E-1,2.072289651E0
9.721628167E0,1.020298786E0,-1.308411127E0,-6.546279520E-1,1.783672348E0
9.731574167E0,7.905265993E-1,-1.250789448E0,-7.599444920E-1,1.663406799E0
9.741520167E0,2.164680165E-1,-1.023940578E0,-8.152246535E-1,1.326613713E0
9.751467167E0,-4.947697538E-1,-5.938762584E-1,-8.685904366E-1,1.162727598E0
9.761413167E0,-1.407551692E0,-1.523610444E-1,-8.107035863E-1,1.631458231E0
9.771359167E0,-3.048899624E0,1.171783479E-1,-7.157623458E-1,3.133980763E0
9.781305167E0,-5.426236006E0,7.410739191E-1,-6.093266487E-1,5.510399869E0
9.791252167E0,-8.589778479E0,1.398391298E0,-3.495088372E-1,8.709876519E0
9.801198167E0,-1.186859413E1,2.354177753E0,-3.780388641E-1,1.210572563E1
9.811144167E0,-1.563949625E1,3.719693666E0,-9.398206329E-1,1.610320548E1
9.821090167E0,-1.902841146E1,4.848876085E0,-1.406948844E0,1.968683690E1
9.831037167E0,-2.005188236E1,5.360851856E0,-1.370145592E0,2.080129847E1
9.840983167E0,-1.787903715E1,5.118797008E0,-1.406674171E0,1.865049019E1
9.850929167E0,-1.610601869E1,4.652416071E0,-1.954758253E0,1.687808914E1
9.860876167E0,-1.646650772E1,4.337363999E0,-1.960694346E0,1.714068042E1
9.870822167E0,-1.759186285E1,3.472093611E0,-1.172791831E0,1.796954404E1
9.880768167E0,-1.875154814E1,2.425336029E0,-7.033147931E-2,1.890787558E1
9.890714167E0,-1.767965645E1,1.337623525E0,7.671873649E-1,1.774677620E1
9.900661167E0,-1.371800529E1,5.597744197E-2,1.089890592E0,1.376134674E1
9.910607167E0,-9.132046335E0,-6.868923032E-1,8.263483965E-1,9.195049917E0
9.920553167E0,-5.163172113E0,-1.066316227E0,6.532924479E-1,5.312454008E0
9.930499167E0,-2.152087601E0,-1.544842561E0,8.516025209E-1,2.782668941E0
9.940446167E0,-1.535940760E-1,-1.803156615E0,1.133437146E0,2.135332453E0
9.950392167E0,1.963359361E0,-1.982238851E0,1.658467995E0,3.245699760E0
9.960338167E0,4.201985169E0,-2.157644795E0,2.324861130E0,5.264702242E0
9.970285167E0,6.085084478E0,-1.993936498E0,3.007656873E0,7.074604988E0
9.980231167E0,7.742806953E0,-1.500416294E0,3.620914021E0,8.678325121E0
9.990177167E0,9.327752059E0,-9.268772364E-1,4.162159783E0,1.025619978E1
1.000012317E1,1.076857382E1,-8.370993065E-1,4.726602620E0,1.178998260E1
1.001007017E1,1.106593514E1,-1.223449622E0,4.740239496E0,1.210048016E1
1.002001617E1,1.076384459E1,-1.441818861E0,3.499381397E0,1.140985812E1
1.002996217E1,1.049029080E1,-1.567808670E0,2.244149673E0,1.084160656E1
1.003990817E1,1.028981082E1,-1.602216611E0,1.453460521E0,1.051474452E1
1.004985517E1,1.011517320E1,-1.571942360E0,1.023449923E0,1.028762273E1
1.005980117E1,1.003877582E1,-1.638386756E0,1.068915460E0,1.022760536E1
1.006974717E1,1.002192415E1,-1.721673326E0,1.053672354E0,1.022317700E1
1.007969417E1,9.952555118E0,-1.776636715E0,1.023036452E0,1.016151539E1
1.008964017E1,1.001072088E1,-1.861350006E0,8.824593743E-1,1.022046432E1
1.009958617E1,9.951985599E0,-1.896567055E0,6.771566892E-1,1.015369515E1
1.010953217E1,9.832778413E0,-1.932828124E0,3.019624589E-1,1.002549436E1
1.011947917E1,9.608647036E0,-1.991664708E0,-2.898739984E-1,9.817171339E0
1.012942517E1,9.528195781E0,-2.056609733E0,-6.760392863E-1,9.771038202E0
1.013937117E1,9.507010149E0,-2.134744175E0,-7.062482681E-1,9.769296867E0
1.014931717E1,9.488665094E0,-2.191917665E0,-7.496259105E-1,9.767354162E0
1.015926417E1,9.489193098E0,-2.267375983E0,-7.566332138E-1,9.785615633E0
1.016921017E1,9.457144509E0,-2.326334482E0,-7.806781340E-1,9.770305662E0
1.017915617E1,9.424218838E0,-2.395731868E0,-8.080583060E-1,9.757478676E0
1.018910317E1,9.412320338E0,-2.465984264E0,-8.388345408E-1,9.766089081E0
1.019904917E1,9.397697622E0,-2.526367875E0,-8.572965395E-1,9.769043586E0
1.020899517E1,9.355607024E0,-2.598994387E0,-9.140320730E-1,9.752825706E0
1.021894117E1,9.338706232E0,-2.671026821E0,-9.246279587E-1,9.757087436E0
1.022888817E1,9.332481871E0,-2.737746475E0,-9.804045488E-1,9.775053285E0
1.023883437E1,9.584712043E0,-2.720504206E0,-1.398604867E0,1.006101107E1
1.024878037E1,1.046587984E1,-2.485247624E0,-2.524027820E0,1.104906390E1
1.025872637E1,1.102609689E1,-2.275523786E0,-3.163104517E0,1.169435981E1
1.026867338E1,1.122547642E1,-2.188793205E0,-3.568048759E0,1.198053040E1
1.027861937E1,1.123817073E1,-2.192177281E0,-3.847388962E0,1.207909452E1
1.028856537E1,1.111155746E1,-2.205984019E0,-4.077796741E0,1.203999589E1
1.029851137E1,1.079719477E1,-2.276177504E0,-4.178111572E0,1.179902603E1
1.030845837E1,1.026139803E1,-2.333811463E0,-4.151790039E0,1.131283899E1
1.031840437E1,9.593434335E0,-2.262961481E0,-3.921500666E0,1.060816405E1
1.032835037E1,8.982932981E0,-2.062333134E0,-3.582804793E0,9.888518244E0
1.033829738E1,8.570259889E0,-1.953838924E0,-3.476145439E0,9.452535544E0
1.034824337E1,8.295554774E0,-1.921023034E0,-3.471323241E0,9.195468642E0
1.035818937E1,8.165855929E0,-1.899371672E0,-3.777268567E0,9.195464841E0
1.036813537E1,8.150033364E0,-1.940784138E0,-4.292174377E0,9.413418496E0
1.037808237E1,8.171088603E0,-1.999609174E0,-4.742809348E0,9.657088915E0
1.038802837E1,8.064730673E0,-2.032091480E0,-5.037280975E0,9.723346967E0
1.039797437E1,7.933957111E0,-2.074175499E0,-5.243685349E0,9.733761630E0
1.040792038E1,7.772906665E0,-2.077700055E0,-5.404493135E0,9.692443530E0
1.041786737E1,7.653086691E0,-2.045625592E0,-5.483317695E0,9.634370395E0
1.042781338E1,7.303962893E0,-2.001799833E0,-5.171054159E0,9.170325929E0
1.043775937E1,3.418434883E0,-2.072894667E0,-2.303321157E0,4.613878813E0
1.044770637E1,-4.791351178E0,6.083121568E0,-8.565878570E-1,7.790709652E0
1.045765237E1,-4.698870212E1,1.322496807E1,4.787282919E1,6.837138057E1
1.046759837E1,-1.002842765E2,-1.257270765E1,8.715741772E1,1.334594491E2
1.047754437E1,-3.756464408E1,-1.279648411E1,-2.906618741E0,3.979071402E1
1.048749137E1,-2.002764916E1,-2.026066656E0,-6.943451643E0,2.129373612E1
1.049743738E1,-9.900199149E0,1.580280781E0,-5.803537536E0,1.158413909E1
1.050738337E1,-2.694996312E0,2.990563416E0,-4.760386078E0,6.234400555E0
1.051732937E1,-2.670410525E0,3.534070589E0,-1.750394996E0,4.762838433E0
1.052727637E1,-4.119109073E0,2.926551607E0,2.511312464E0,5.642557413E0
1.053722237E1,-2.592510409E0,1.298508137E0,7.140051405E0,7.706332959E0
1.054716837E1,-1.616100824E0,-2.594000645E-1,8.772871758E0,8.924256224E0
1.055711537E1,-1.359665335E0,1.327630414E-1,6.466912923E0,6.609635285E0
1.056706138E1,-2.550839642E0,4.956248360E-1,2.284998322E0,3.460295390E0
1.057700737E1,-3.486580673E0,2.082965692E-1,-4.619230199E-1,3.523209492E0
1.058695337E1,-3.516490935E0,-3.523375008E-1,-1.080632696E0,3.695621360E0
1.059690037E1,-3.400657593E0,-7.516268277E-1,-4.849405843E-1,3.516330804E0
1.060684637E1,-2.948153853E0,-2.547533553E-1,1.654014755E0,3.390025844E0
1.061679237E1,-2.404339993E0,9.016040354E-1,2.763202329E0,3.772138352E0
1.062673837E1,-1.826854357E0,1.347131243E0,2.194794495E0,3.157417031E0
1.063668538E1,-1.653130072E0,1.330885193E0,1.380521184E0,2.531784582E0
1.064663137E1,-1.951641541E0,1.133556868E0,9.550584769E-1,2.450712666E0
1.065657738E1,-1.693286995E0,9.333838718E-1,7.381068957E-1,2.069596117E0
1.066652337E1,-1.009310113E0,4.608381421E-1,1.044339028E0,1.523720021E0
1.067647037E1,-4.525528568E-1,-4.741196539E-2,1.543003027E0,1.608698333E0
1.068641637E1,2.982524371E-1,-1.394716250E-1,1.870593869E0,1.899349434E0
1.069636237E1,8.544761351E-1,-2.902506687E-1,1.955179691E0,2.153393262E0
1.070630938E1,1.376080223E0,-6.214568438E-1,1.835531625E0,2.376758662E0
1.071625537E1,1.754004774E0,-8.790281551E-1,1.736917748E0,2.620325650E0
1.072620138E1,2.195511656E0,-1.033839475E0,1.693561229E0,2.959264289E0
1.073614737E1,2.264821334E0,-1.024050505E0,1.486598446E0,2.896216507E0
1.074609437E1,1.791057118E0,-9.184344417E-1,1.106503701E0,2.296901797E0
1.075604037E1,1.664939986E0,-4.477763760E-1,4.519997102E-1,1.782367127E0
1.076598637E1,1.743856055E0,1.562778018E-2,-9.157733738E-2,1.746328885E0
1.077593237E1,1.709573244E0,4.528102805E-1,-3.784148401E-1,1.808556225E0
1.078587937E1,1.464317339E0,7.796382067E-1,-7.125019383E-1,1.805469472E0
1.079582538E1,1.666050372E0,9.974828770E-1,-1.051421760E0,2.208208244E0
1.080577137E1,1.859880601E0,1.101775570E0,-1.226906058E0,2.485631455E0
1.081571837E1,1.792822100E0,1.161707483E0,-1.415894499E0,2.562914863E0
1.082566437E1,1.741407241E0,1.161605961E0,-1.665286433E0,2.674884388E0
1.083561037E1,1.744386689E0,1.150094548E0,-1.904107186E0,2.826875760E0
1.084555637E1,1.684651242E0,1.146351745E0,-2.019529468E0,2.868914674E0
1.085550337E1,1.868972729E0,1.258995431E0,-1.970066117E0,2.993207153E0
1.086544938E1,1.840091576E0,1.387528194E0,-1.820934051E0,2.937170802E0
1.087539537E1,9.922917920E-1,1.299719388E0,-1.820857453E0,2.447332293E0
1.088534138E1,1.508175257E-1,8.899464416E-1,-2.125336005E0,2.309069884E0
1.089528837E1,-4.222984859E-1,5.412290251E-1,-2.578965334E0,2.668768829E0
1.090523437E1,-7.747642601E-1,2.558566884E-1,-2.485819189E0,2.616298787E0
1.091518037E1,-1.147732126E0,2.028410073E-1,-2.312406560E0,2.589528453E0
1.092512737E1,-1.201497274E0,6.091866079E-1,-2.611206881E0,2.938214662E0
1.093507338E1,-8.197123915E-1,1.171551052E0,-3.049153978E0,3.367758937E0
1.094501937E1,-3.554341131E-1,1.550308539E0,-3.213209893E0,3.585318366E0
1.095496538E1,1.221413183E-1,1.848790479E0,-3.179967887E0,3.680372331E0
1.096491237E1,7.142815384E-1,2.154790477E0,-3.492878709E0,4.165755849E0
1.097485837E1,9.569658387E-1,2.352654992E0,-3.564444535E0,4.376760671E0
1.098480437E1,1.183791028E0,2.363528767E0,-3.482004642E0,4.371725718E0
1.099475037E1,1.402215523E0,2.354123374E0,-3.421072562E0,4.383131610E0
1.100469737E1,1.749319400E0,2.426437644E0,-3.278543172E0,4.438081042E0
1.101464337E1,2.177157831E0,2.655893350E0,-1.685789110E0,3.825659503E0
1.102458938E1,2.558923126E0,3.149005418E0,1.718197303E0,4.406418575E0
1.103453637E1,1.971296079E0,3.083872406E0,3.290163344E0,4.921529445E0
1.104448237E1,1.089129869E0,5.384852557E-1,8.721800423E-1,1.495616351E0
1.105442837E1,1.447565066E0,-1.660441723E0,-1.377606931E0,2.598136292E0
1.106437437E1,1.157146144E0,-2.057175012E0,-1.393605498E0,2.741002100E0
1.107432137E1,-2.500284031E-1,-2.733909825E0,5.527039665E-1,2.800403329E0
1.108426737E1,-1.202089597E0,-3.590677191E0,1.826490660E0,4.204051644E0
1.109421338E1,-1.225337542E0,-4.184437675E0,2.428278494E0,4.990742148E0
1.110415937E1,-6.839160705E-1,-4.435080913E0,2.746119688E0,5.261069971E0
1.111410637E1,-6.393398219E-1,-3.806704912E0,2.485037416E0,4.590769942E0
1.112405237E1,-8.348797765E-1,-2.731906569E0,1.660356646E0,3.304106828E0
1.113399837E1,-9.005595034E-1,-2.144810011E0,1.017712562E0,2.539085713E0
1.114394437E1,-8.941576794E-1,-1.555420175E0,5.688475442E-1,1.882136393E0
1.115389137E1,-5.207650128E-1,-8.781323616E-1,1.369488072E-1,1.030081365E0
1.116383738E1,-2.589030147E-2,-4.426464310E-1,-1.084559101E-1,4.564743749E-1
1.117378337E1,5.923796636E-1,-2.076046608E-1,8.075706482E-2,6.328783963E-1
1.118373037E1,9.110727972E-1,-2.097869696E-1,5.159214717E-1,1.067819825E0
1.119367637E1,9.100875413E-1,-2.834459715E-1,6.481544995E-1,1.152694759E0
1.120362237E1,8.574237165E-1,-4.193803599E-1,7.892513216E-1,1.238536622E0
1.121356837E1,7.721637109E-1,-6.998358460E-1,9.123305333E-1,1.385046573E0
1.122351537E1,6.135515544E-1,-1.040745256E0,8.752586013E-1,1.491869236E0
1.123346200E1,3.427985725E-1,-1.287300194E0,7.113278174E-1,1.510178769E0
1.124340800E1,2.352983898E-1,-1.500030963E0,3.776406687E-1,1.564631169E0
1.125335400E1,2.555165997E-1,-1.386364745E0,7.219089389E-2,1.411562065E0
1.126330100E1,1.671835899E-2,-1.119969473E0,2.756471014E-1,1.153513090E0
1.127324700E1,-3.612824982E-1,-8.046208741E-1,5.354494178E-1,1.031816783E0
1.128319300E1,-6.747198620E-1,-5.076531068E-1,5.019372708E-1,9.822930280E-1
1.129314000E1,-7.103159568E-1,-4.250028963E-1,6.055622113E-1,1.025612896E0
1.130308600E1,-5.934745547E-1,-6.031119356E-1,7.622371852E-1,1.138842211E0
1.131303200E1,-4.435525301E-1,-8.378295507E-1,6.138716894E-1,1.129396146E0
1.132297800E1,-3.241140872E-1,-9.643793772E-1,4.989879352E-1,1.133166574E0
1.133292500E1,-2.842577112E-1,-9.208930497E-1,7.458538717E-1,1.218665029E0
1.134287100E1,-1.793577853E-1,-8.529621448E-1,6.972787124E-1,1.116203941E0
1.135281700E1,6.769380033E-2,-7.264565378E-1,8.429679376E-1,1.114861649E0
1.136276300E1,3.211287913E-1,-5.849490585E-1,1.505362161E0,1.646634246E0
1.137271000E1,3.849166515E-1,-4.928164914E-1,1.740661136E0,1.849575658E0
1.138265600E1,3.099585629E-1,-4.565121162E-1,1.650437429E0,1.740235998E0
1.139260200E1,1.459198979E-1,-3.709152013E-1,1.630657468E0,1.678664493E0
1.140254800E1,-2.098665100E-1,-1.934249802E-1,1.708796734E0,1.732467447E0
1.141249500E1,-4.382295173E-1,9.865941189E-2,1.804750713E0,1.859812873E0
1.142244100E1,-5.183065510E-1,3.526522272E-1,1.817964250E0,1.923018276E0
1.143238700E1,-5.062960777E-1,4.816681535E-1,2.102250028E0,2.215354398E0
1.144233400E1,-5.006459132E-1,4.050163823E-1,2.407743657E0,2.492371184E0
1.145228000E1,-4.975632611E-1,1.451291350E-1,2.423934597E0,2.478727617E0
1.146222600E1,-3.757990882E-1,-1.499719452E-1,2.521918144E0,2.554170641E0
1.147217200E1,-2.810402808E-1,-2.936548080E-1,2.499101724E0,2.531941195E0
1.148211900E1,-1.799015763E-1,-4.232482930E-1,2.607014428E0,2.647268011E0
1.149206500E1,-7.507035524E-2,-5.659621991E-1,2.667522000E0,2.727933722E0
1.150201100E1,1.219246790E-1,-7.347671123E-1,2.609938036E0,2.714134279E0
1.151195700E1,3.918646055E-1,-9.462643377E-1,2.432917090E0,2.639708248E0
1.152190400E1,6.641027802E-1,-1.116226305E0,2.223122501E0,2.574736359E0
1.153185000E1,8.291503823E-1,-1.118577398E0,2.060945297E0,2.487207524E0
1.154179600E1,1.130288128E0,-9.007505612E-1,1.728792458E0,2.253358868E0
1.155174300E1,1.287288207E0,-6.309438050E-1,1.614522661E0,2.159139744E0
1.156168900E1,1.297892717E0,-3.831630350E-1,1.521329738E0,2.036119738E0
1.157163500E1,1.464679866E0,-1.561625386E-1,1.317936680E0,1.976519907E0
1.158158100E1,1.523509288E0,5.291657075E-3,8.980399382E-1,1.768497747E0
1.159152800E1,1.537105526E0,7.374614362E-2,5.366358179E-1,1.629757618E0
1.160147400E1,1.752640327E0,9.645892192E-2,4.442463022E-1,1.810637240E0
1.161142000E1,1.878204313E0,2.610701390E-2,2.114932054E-1,1.890254584E0
1.162136600E1,2.033881459E0,-1.393674349E-1,1.449302566E-1,2.043795942E0
1.163131300E1,2.158999887E0,-3.487232637E-1,1.789563739E-1,2.194291187E0
1.164125900E1,2.590498675E0,-5.014975967E-1,1.015620428E-1,2.640548820E0
1.165120500E1,2.733141793E0,-6.631823554E-1,1.863414073E-1,2.818616330E0
1.166115100E1,2.908025874E0,-7.503424137E-1,4.667013645E-2,3.003632188E0
1.167109800E1,3.122290659E0,-7.807655498E-1,-3.980503750E-1,3.242952036E0
1.168104400E1,3.535443223E0,-8.634972925E-1,-6.952725327E-1,3.705184240E0
1.169099000E1,3.569787429E0,-6.516669220E-1,-9.535013634E-1,3.751961742E0
1.170093700E1,3.436050205E0,-3.357140860E-1,-9.984951031E-1,3.593902813E0
1.171088300E1,3.252152349E0,-1.025211324E-1,-9.767849761E-1,3.397221566E0
1.172082900E1,3.028895130E0,1.234816463E-1,-1.223894157E0,3.269154376E0
1.173077500E1,2.921008154E0,3.404435333E-1,-1.532137147E0,3.315966627E0
1.174072200E1,2.863910093E0,4.368935747E-1,-1.718915341E0,3.368609055E0
1.175066800E1,2.798456361E0,3.612195676E-1,-1.620421917E0,3.253859980E0
1.176061400E1,2.612791477E0,3.242278887E-1,-1.713196764E0,3.141153638E0
1.177056000E1,2.359128152E0,2.844772741E-1,-1.858173798E0,3.016491807E0
1.178050700E1,1.627870685E0,4.251951235E-1,-2.098380341E0,2.689601070E0
1.179045300E1,1.011369503E0,6.132950078E-1,-1.937856145E0,2.270305150E0
1.180039900E1,1.442625046E-1,7.648500866E-1,-1.454587280E0,1.649736791E0
1.181034500E1,-1.453157635E0,9.833032329E-1,-9.941617316E-1,2.016658104E0
1.182029200E1,-3.797652546E0,1.191318149E0,-4.247902769E-1,4.002730389E0
1.183023800E1,-6.202554456E0,1.168053759E0,2.571254611E-1,6.316814456E0
1.184018400E1,-9.611760678E0,9.229650836E-1,2.300627929E-1,9.658712998E0
1.185013100E1,-1.412725659E1,6.430064647E-1,-4.677351522E-1,1.414961527E1
1.186007700E1,-1.864271509E1,-2.047643758E-1,-1.161327195E-1,1.864420127E1
1.187002300E1,-2.333150610E1,-1.430501429E0,9.163083941E-1,2.339327109E1
1.187996900E1,-2.589836595E1,-1.100353015E0,1.436514413E0,2.596150437E1
1.188991600E1,-2.292282081E1,3.448799620E-1,2.202083926E0,2.303093202E1
1.189986200E1,-2.006674599E1,9.772556770E-1,3.113347635E0,2.033032849E1
1.190980800E1,-1.917217579E1,1.098057471E0,3.765358958E0,1.956926117E1
1.191975400E1,-1.910644607E1,1.684456530E0,4.035365543E0,1.960045536E1
1.192970100E1,-1.661462705E1,1.131924983E0,4.683755101E0,1.729926727E1
1.193964700E1,-1.468706434E1,7.054019567E-1,3.798391634E0,1.518667936E1
1.194959300E1,-1.058614771E1,9.333229876E-1,2.434561619E0,1.090250914E1
1.195954000E1,-6.266123046E0,1.035024340E0,2.097498288E0,6.688428252E0
1.196948600E1,-2.702691833E0,1.009167514E0,2.507580771E0,3.822423778E0
1.197943200E1,2.794758582E-1,1.325286338E0,2.342433182E0,2.705824060E0
1.198937800E1,3.095579116E0,1.080600974E0,1.761055932E0,3.721777334E0
1.199932500E1,5.302523541E0,5.062851141E-1,6.253702390E-1,5.363223700E0
1.200927100E1,7.044887971E0,2.192004204E-2,1.014585471E-1,7.045652620E0
1.201921700E1,7.963251076E0,-8.064026669E-2,6.082395051E-1,7.986853314E0
1.202916300E1,9.084554665E0,-3.704425270E-1,1.474633728E0,9.210912320E0
1.203911000E1,1.031025970E1,-8.775593345E-1,1.971102682E0,1.053360391E1
1.204905600E1,1.057734180E1,-8.117736268E-1,1.416101929E0,1.070254553E1
1.205900200E1,1.056060941E1,-6.672778183E-1,9.892984562E-1,1.062781456E1
1.206894800E1,1.055778521E1,-5.765534070E-1,1.083714763E0,1.062890775E1
1.207889500E1,1.042508733E1,-5.172819361E-1,1.046113658E0,1.049020401E1
1.208884100E1,1.025888841E1,-5.262383721E-1,5.787720233E-1,1.028866829E1
1.209878700E1,1.016216844E1,-5.007019734E-1,2.563482200E-1,1.017772491E1
1.210873400E1,1.005427562E1,-4.438768679E-1,1.935481006E-1,1.006592995E1
1.211868000E1,9.953842674E0,-4.219004733E-1,7.272123635E-2,9.963045336E0
1.212862600E1,9.972612237E0,-3.954187625E-1,-7.775905117E-2,9.980751339E0
1.213857200E1,9.966518269E0,-3.599354094E-1,-2.519430739E-1,9.976197432E0
1.214851900E1,9.947379162E0,-3.264551296E-1,-4.288682713E-1,9.961970344E0
1.215846500E1,9.832213572E0,-2.983370390E-1,-8.521429498E-1,9.873579712E0
1.216841100E1,9.677434266E0,-2.970620171E-1,-1.350761341E0,9.775762682E0
1.217835700E1,9.681882827E0,-2.686538863E-1,-1.435728401E0,9.791442490E0
1.218830400E1,9.673374544E0,-2.578665957E-1,-1.375536286E0,9.774086674E0
1.219825000E1,9.687271621E0,-2.390642525E-1,-1.298705042E0,9.776861356E0
1.220819600E1,9.693456806E0,-2.176009145E-1,-1.260252144E0,9.777458283E0
1.221814300E1,9.680410498E0,-2.034989105E-1,-1.252576358E0,9.763232393E0
1.222808900E1,9.673739410E0,-1.938002069E-1,-1.252351532E0,9.756391600E0
1.223803512E1,9.674918793E0,-1.567086685E-1,-1.239759992E0,9.755286572E0
1.224798112E1,9.734154596E0,-1.754573270E-1,-1.296208427E0,9.821644835E0
1.225792812E1,9.811305099E0,-1.829804826E-1,-1.377613802E0,9.909238587E0
1.226787412E1,9.841339906E0,-1.539441050E-1,-1.464817130E0,9.950947652E0
1.227782012E1,9.917533804E0,-1.374280048E-1,-1.618512362E0,1.004967390E1
1.228776612E1,9.967829214E0,-1.281948128E-1,-1.742749323E0,1.011984330E1
1.229771313E1,1.016956400E1,-1.086069144E-1,-2.019478598E0,1.036870876E1
1.230765912E1,1.052400935E1,-1.482963342E-1,-2.422625260E0,1.080027212E1
1.231760513E1,1.070601563E1,-2.201614834E-1,-2.759201664E0,1.105804845E1
1.232755112E1,1.087678357E1,-3.296615600E-1,-3.173916603E0,1.133520375E1
1.233749812E1,1.079465240E1,-5.128048327E-1,-3.618434216E0,1.139651506E1
1.234744412E1,1.060754384E1,-6.580163404E-1,-4.033855792E0,1.136771588E1
1.235739012E1,1.027073604E1,-7.351552212E-1,-4.415805566E0,1.120391943E1
1.236733713E1,9.845006111E0,-7.338419366E-1,-4.698608783E0,1.093341638E1
1.237728312E1,9.360105872E0,-6.310835534E-1,-4.881373156E0,1.057533225E1
1.238722913E1,8.885911885E0,-5.415697350E-1,-4.996130610E0,1.020852824E1
1.239717512E1,8.492443389E0,-4.792631206E-1,-5.222189230E0,9.981109568E0
1.240712212E1,8.138845301E0,-7.281328614E-1,-6.617857041E0,1.051508498E1
1.241706812E1,7.968667937E0,-1.307410230E0,-7.471238285E0,1.100129046E1
1.242701412E1,7.033105831E0,-1.982821233E0,-7.214032717E0,1.026832147E1
1.243696012E1,5.303376065E0,-2.439765057E0,-7.162891799E0,9.240415042E0
1.244690712E1,2.840836980E0,-2.908487511E0,-5.815069415E0,7.095398978E0
1.245685313E1,2.360538501E-1,-3.065103428E0,-5.730066102E0,6.502633158E0
1.246679912E1,-3.421147406E-2,-2.941957266E0,-6.754980095E0,7.367906016E0
1.247674512E1,2.537320295E0,-2.343690480E0,-6.954019901E0,7.764616676E0
1.248669212E1,8.647529089E-1,-3.027357312E0,-1.530918002E0,3.500914141E0
1.249663812E1,5.757389556E0,-6.746122733E-1,1.349628355E1,1.468850932E1
1.250658412E1,3.263697091E0,-1.377389269E0,3.731175902E1,3.747954483E1
1.251653112E1,-1.520896576E1,3.933866358E0,4.691947108E1,4.947953830E1
1.252647713E1,-5.049260633E1,2.239857115E1,2.882738595E1,6.230744309E1
1.253642312E1,-5.399462541E1,4.549327320E0,8.465668988E-1,5.419255141E1
1.254636913E1,-3.354551362E1,4.941194265E0,-4.324810027E0,3.418217177E1
1.255631612E1,-1.165313359E1,6.849499751E0,-5.623140408E0,1.464004363E1
1.256626212E1,-2.236842992E0,4.211994725E0,-5.927772743E0,7.608078327E0
1.257620812E1,-2.535621679E-1,3.323640992E0,-4.620793744E0,5.697597568E0
1.258615412E1,-5.844034767E-1,2.167761648E0,-2.856093535E0,3.632903559E0
1.259610113E1,-5.708186406E-1,8.548494798E-1,4.007763469E-1,1.103278403E0
1.260604712E1,6.562827140E-1,-4.261690503E-1,4.025845984E0,4.101190430E0
1.261599313E1,3.126640695E0,-6.805540676E-1,6.455115581E0,7.204689656E0
1.262593912E1,3.064585365E0,-3.942293657E-1,6.967263844E0,7.621670796E0
1.263588612E1,-4.585035682E-2,3.603133953E-1,3.813248239E0,3.830507816E0
1.264583212E1,-2.787583464E0,1.044463135E0,9.395013750E-2,2.978313522E0
1.265577812E1,-4.016871677E0,8.199756624E-1,-1.518195046E0,4.371788462E0
1.266572512E1,-4.374326588E0,7.850669079E-2,-6.336750394E-1,4.420683256E0
1.267567112E1,-2.402158397E0,-4.395125061E-1,8.831283689E-1,2.596815727E0
1.268561713E1,-9.774720240E-1,-6.469269497E-1,1.840482463E0,2.182049892E0
1.269556312E1,-1.075805819E-1,-9.925581327E-1,2.610727994E0,2.795111069E0
1.270551012E1,1.488683563E-1,-1.011938144E0,2.726394106E0,2.911941864E0
1.271545612E1,2.285384238E-2,-7.795722793E-1,2.362817745E0,2.488204761E0
1.272540212E1,-3.627296841E-1,-5.980337749E-1,1.934071827E0,2.056660169E0
1.273534812E1,-6.110188329E-1,-5.821072020E-1,1.671210247E0,1.872200977E0
1.274529512E1,-7.421815279E-1,-5.826004147E-1,1.343233489E0,1.641503235E0
1.275524113E1,-6.635651287E-1,-3.796437787E-1,1.079597154E0,1.322867375E0
1.276518712E1,-5.009069914E-1,-9.608817190E-2,1.117448519E0,1.228345206E0
1.277513412E1,-3.304530537E-1,1.933627439E-1,1.223880708E0,1.282369822E0
1.278508012E1,-3.128026485E-2,2.754731833E-1,1.237284281E0,1.267965426E0
1.279502612E1,6.669234771E-1,2.489554756E-1,1.389323582E0,1.561084805E0
1.280497212E1,1.258171412E0,3.167942138E-1,1.628747182E0,2.082347536E0
1.281491912E1,1.418542411E0,3.636937803E-1,1.754790348E0,2.285568836E0
1.282486513E1,1.032772651E0,3.038821729E-1,1.514025396E0,1.857750420E0
1.283481112E1,7.246691170E-1,2.159630729E-1,1.321095931E0,1.522195729E0
1.284475713E1,5.713133150E-1,-1.171813446E-1,1.332019114E0,1.454099478E0
1.285470412E1,6.026728097E-1,-3.902629801E-1,1.376842700E0,1.552808916E0
1.286465012E1,7.365676162E-1,-4.159107683E-1,1.423488863E0,1.655848472E0
1.287459612E1,4.076611510E-1,-4.702782891E-1,1.189399093E0,1.342393193E0
1.288454212E1,6.339171141E-1,-3.593747710E-1,8.965699482E-1,1.155352243E0
1.289448912E1,1.196578012E0,-3.621034473E-2,8.787201530E-1,1.485011527E0
1.290443512E1,1.312451115E0,2.461454499E-1,8.974885458E-1,1.608913050E0
1.291438113E1,1.046740772E0,2.768662459E-1,9.022867709E-1,1.409412139E0
1.292432812E1,8.186493677E-1,2.137613404E-1,8.263583368E-1,1.182687109E0
1.293427412E1,7.057364175E-1,1.646436691E-1,8.374768174E-1,1.107492144E0
1.294422012E1,5.720716989E-1,1.089612557E-1,8.861385155E-1,1.060367885E0
1.295416612E1,4.166208395E-1,1.483833298E-2,9.164054579E-1,1.006773094E0
1.296411312E1,2.105292919E-1,-8.763719112E-2,9.420799971E-1,9.692871509E-1
1.297405912E1,4.707330197E-2,-9.490020040E-2,8.670245522E-1,8.734721049E-1
1.298400513E1,-5.406949550E-2,-1.356323797E-1,6.056803250E-1,6.230315473E-1
1.299395112E1,-7.059051096E-2,-1.424836719E-1,5.253080070E-1,5.488470818E-1
1.300389812E1,-1.496387270E-1,-6.431440204E-2,6.224869770E-1,6.434424041E-1
1.301384412E1,-1.954139471E-1,1.014945075E-1,7.079644990E-1,7.414185576E-1
1.302379012E1,-2.411701638E-1,3.411052919E-1,6.789120233E-1,7.971432766E-1
1.303373612E1,-2.857759407E-1,5.320649763E-1,8.139920604E-1,1.013579845E0
1.304368312E1,-3.509212321E-1,6.184504247E-1,8.983837545E-1,1.145739940E0
1.305362913E1,-4.591455925E-1,5.390050731E-1,9.972169018E-1,1.223021951E0
1.306357512E1,-5.198817909E-1,3.561466695E-1,1.032227105E0,1.209384275E0
1.307352212E1,-5.424336246E-1,2.536158892E-1,9.506034833E-1,1.123477743E0
1.308346812E1,-6.265224329E-1,1.536502824E-1,9.402849019E-1,1.140295780E0
1.309341412E1,-6.373734033E-1,1.196869496E-1,1.146103384E0,1.316860960E0
1.310336012E1,-6.285756826E-1,4.834192850E-2,1.404274328E0,1.539295527E0
1.311330712E1,-5.622156322E-1,-1.119640568E-1,1.687140402E0,1.781871236E0
1.312325312E1,-5.246306071E-1,-3.896811090E-1,1.944015017E0,2.050922482E0
1.313319912E1,-5.154987180E-1,-6.415024146E-1,1.872945035E0,2.045773052E0
1.314314513E1,-6.010247719E-1,-7.427136245E-1,1.660841380E0,1.916050206E0
1.315309212E1,-6.825329116E-1,-7.030397547E-1,1.446676582E0,1.747280517E0
1.316303812E1,-6.384299952E-1,-5.694009101E-1,1.433161327E0,1.669060108E0
1.317298412E1,-5.607789713E-1,-4.757790206E-1,1.639876188E0,1.797229157E0
1.318293012E1,-4.130402970E-1,-4.810672425E-1,1.736687368E0,1.848813401E0
1.319287712E1,-2.441911277E-1,-5.965909014E-1,1.592295055E0,1.717833972E0
1.320282312E1,-8.103626937E-2,-7.120432974E-1,1.283446879E0,1.469968852E0
1.321276913E1,6.761398584E-2,-7.149476094E-1,1.022381564E0,1.249394172E0
1.322271612E1,1.222360432E-1,-5.841698804E-1,8.806485647E-1,1.063831751E0
1.323266187E1,1.643517834E-1,-3.967925658E-1,8.540548432E-1,9.559631395E-1
1.324260787E1,2.018897384E-1,-2.131150038E-1,8.417248195E-1,8.914472184E-1
1.325255387E1,3.747240776E-1,-1.694626884E-1,6.698517627E-1,7.860261580E-1
1.326250087E1,6.342223388E-1,-2.418680289E-1,4.261614490E-1,8.014684641E-1
1.327244687E1,8.751393181E-1,-3.064840742E-1,2.772562551E-1,9.678183429E-1
1.328239287E1,1.028052194E0,-2.666703098E-1,2.086882961E-1,1.082384022E0
1.329233888E1,1.039218037E0,-1.439951406E-1,3.503195536E-1,1.106088838E0
1.330228587E1,1.009021845E0,1.267742135E-2,5.453037304E-1,1.147014368E0
1.331223187E1,9.286354941E-1,2.388382211E-1,4.232588911E-1,1.048120063E0
1.332217787E1,8.428381294E-1,5.387079249E-1,1.134272128E-1,1.006701581E0
1.333212387E1,6.810667223E-1,7.159995235E-1,-1.687301785E-1,1.002485447E0
1.334207087E1,6.108592039E-1,9.174621959E-1,-4.679322034E-1,1.197433253E0
1.335201687E1,5.709706682E-1,1.133034419E0,-5.447254407E-1,1.380760770E0
1.336196288E1,5.076745588E-1,9.710510503E-1,-2.982734871E-1,1.135623473E0
1.337190987E1,5.578495163E-1,6.464158300E-1,-3.353214455E-1,9.173276295E-1
1.338185588E1,7.407434052E-1,3.906483847E-1,-4.705494171E-1,9.605850857E-1
1.339180187E1,8.644289732E-1,1.802012461E-1,-3.576075232E-1,9.526767970E-1
1.340174787E1,1.005046324E0,6.984966874E-2,-2.904294473E-1,1.048497188E0
1.341169487E1,1.065983666E0,1.352589619E-1,-5.550422680E-1,1.209416422E0
1.342164087E1,1.235557013E0,1.433373289E-1,-7.540440667E-1,1.454554632E0
1.343158687E1,1.359232641E0,1.938211656E-1,-9.195775723E-1,1.652483866E0
1.344153287E1,1.415578165E0,3.789266177E-1,-1.106604858E0,1.836306411E0
1.345147988E1,1.482938674E0,4.692897807E-1,-1.160501568E0,1.940645228E0
1.346142587E1,1.491097294E0,4.720309554E-1,-1.215211626E0,1.980637185E0
1.347137187E1,1.510340481E0,4.968152560E-1,-1.316084867E0,2.063984773E0
1.348131787E1,1.585510531E0,3.226554993E-1,-1.129522435E0,1.973264084E0
1.349126487E1,1.703015592E0,9.633624002E-2,-9.922537851E-1,1.973350033E0
1.350121087E1,1.570260408E0,-7.831439048E-2,-1.201998673E0,1.979053234E0
1.351115687E1,1.548106477E0,5.348199651E-2,-1.472107877E0,2.136959426E0
1.352110388E1,1.510235231E0,2.701893103E-1,-1.695113665E0,2.286312108E0
1.353104987E1,1.276617331E0,1.758513562E-1,-1.640314729E0,2.085978888E0
1.354099587E1,1.029582410E0,2.228670631E-1,-1.528776752E0,1.856574271E0
1.355094187E1,5.510106128E-1,2.321505412E-1,-1.445251030E0,1.564051505E0
1.356088887E1,2.111119670E-1,4.131075400E-1,-1.458617765E0,1.530618139E0
1.357083487E1,-2.312907082E-1,7.907365143E-1,-1.626475539E0,1.823234024E0
1.358078087E1,-7.210950065E-1,8.253046685E-1,-1.750337108E0,2.065135782E0
1.359072688E1,-1.154637980E0,9.718521188E-1,-1.703797365E0,2.276095531E0
1.360067387E1,-1.434137228E0,1.024611253E0,-1.424759171E0,2.266388427E0
1.361061988E1,-2.208058319E0,1.218941127E0,-1.392644216E0,2.881110363E0
1.362056587E1,-3.583418165E0,1.048234151E0,-7.771376449E-1,3.813610298E0
1.363051287E1,-5.155584766E0,1.010604248E0,1.239089316E-1,5.255162095E0
1.364045887E1,-6.974630166E0,6.438025631E-1,8.297014824E-1,7.053251183E0
1.365040487E1,-9.349749869E0,5.874162546E-1,1.293361418E0,9.457043101E0
1.366035087E1,-1.052051622E1,1.164142337E0,1.110127805E0,1.064278501E1
1.367029787E1,-1.245318004E1,1.292584469E0,1.729623639E0,1.263898990E1
1.368024388E1,-1.431868859E1,2.233938534E0,1.068572813E0,1.453124813E1
1.369018987E1,-1.623677062E1,2.571929964E0,6.491309845E-1,1.645201857E1
1.370013587E1,-1.765883218E1,2.226111890E0,1.018018371E0,1.782768323E1
1.371008287E1,-1.828476726E1,1.890759600E0,1.013222924E0,1.841016855E1
1.372002887E1,-1.821931469E1,2.326314163E0,1.971878462E-1,1.836828921E1
1.372997487E1,-1.698801153E1,2.334622033E0,1.260509129E-1,1.714814522E1
1.373992087E1,-1.625982268E1,2.229509853E0,-9.910628535E-2,1.641226279E1
1.374986788E1,-1.471421296E1,1.709556141E0,-1.341848284E-1,1.481379934E1
1.375981387E1,-1.234524746E1,1.324675596E0,-1.221459961E-1,1.241671534E1
1.376975987E1,-8.808392424E0,7.659842272E-1,3.300519347E-2,8.841696572E0
1.377970587E1,-5.242134082E0,-7.860331602E-2,1.444730043E-1,5.244713592E0
1.378965287E1,-2.162895010E0,-1.155598532E0,5.125856352E-1,2.505247857E0
1.379959887E1,-1.577496922E-1,-1.818648082E0,1.444403769E0,2.327803269E0
1.380954487E1,1.831114638E0,-2.146364931E0,2.756821847E0,3.944607703E0
1.381949188E1,3.356884167E0,-2.332566298E0,3.824206506E0,5.597686330E0
1.382943787E1,4.254465684E0,-2.562894847E0,4.098424548E0,6.439409292E0
1.383938388E1,4.923973045E0,-3.241058719E0,4.358171316E0,7.331004664E0
1.384932987E1,5.792672240E0,-3.704124869E0,4.409702827E0,8.168296748E0
1.385927687E1,7.166824636E0,-3.934562761E0,3.821384055E0,9.024806679E0
1.386922287E1,8.633152540E0,-3.652342805E0,3.952804905E0,1.017327859E1
1.387916887E1,9.634626800E0,-2.877826467E0,4.411434773E0,1.098037684E1
1.388911487E1,1.030120588E1,-1.764437084E0,3.351442164E0,1.097543827E1
1.389906187E1,1.044582623E1,-1.137090998E0,2.217795103E0,1.073903518E1
1.390900788E1,1.031899428E1,-1.121312944E0,1.169508035E0,1.044541692E1
1.391895387E1,1.023997851E1,-1.125298553E0,-4.839183448E-1,1.031298374E1
1.392889987E1,1.020533844E1,-1.147025929E0,-1.439357037E0,1.036997347E1
1.393884687E1,1.017823776E1,-1.179977182E0,-1.805220975E0,1.040421515E1
1.394879287E1,1.006523447E1,-1.196886599E0,-1.993465505E0,1.033031399E1
1.395873887E1,9.979136560E0,-1.184266261E0,-1.882697021E0,1.022400123E1
1.396868487E1,9.879073159E0,-1.197679993E0,-1.687470769E0,1.009346727E1
1.397863188E1,9.679322916E0,-1.204299333E0,-1.316598837E0,9.842411366E0
1.398857787E1,9.618886680E0,-1.198015696E0,-1.098187791E0,9.755215989E0
1.399852387E1,9.641206672E0,-1.177186598E0,-1.079354933E0,9.772596453E0
1.400847087E1,9.631454685E0,-1.171545424E0,-1.049282118E0,9.759017932E0
1.401841687E1,9.647284268E0,-1.152202396E0,-1.008268797E0,9.768022833E0
1.402836287E1,9.643187708E0,-1.134315398E0,-9.750039873E-1,9.758502619E0
1.403830887E1,9.649416747E0,-1.120333024E0,-9.463946575E-1,9.760228096E0
1.404825588E1,9.645028996E0,-1.125302134E0,-9.132625064E-1,9.753303935E0
1.405820187E1,9.660087331E0,-1.111550725E0,-8.765595337E-1,9.763257083E0
1.406814788E1,9.745389436E0,-1.038307917E0,-9.372444228E-1,9.845259047E0
1.407809387E1,1.006229332E1,-8.105791137E-1,-1.259325360E0,1.017313549E1
1.408804087E1,1.051174774E1,-4.424034061E-1,-1.856775144E0,1.068364054E1
1.409798687E1,1.130435887E1,-1.215640520E-1,-2.755828405E0,1.163606022E1
1.410793287E1,1.167583014E1,5.079600491E-2,-3.119521126E0,1.208548724E1
1.411787988E1,1.141100039E1,1.952244242E-1,-2.945472320E0,1.178663861E1
1.412782587E1,1.098499331E1,3.794008268E-1,-2.595413552E0,1.129381222E1
1.413777188E1,1.043430488E1,6.315058686E-1,-2.160143895E0,1.067425593E1
1.414771787E1,9.972422787E0,8.015700162E-1,-1.832707274E0,1.017106419E1
1.415766487E1,9.880622671E0,8.612453835E-1,-2.390217798E0,1.020203848E1
1.416761087E1,1.009578267E1,7.681171453E-1,-3.359128913E0,1.066764166E1
1.417755687E1,1.032688685E1,3.185650796E-1,-4.088311204E0,1.111127194E1
1.418750287E1,1.045048295E1,-1.941828158E-1,-4.388514564E0,1.133619694E1
1.419744987E1,1.050200043E1,-7.340807953E-1,-4.441164941E0,1.142605941E1
1.420739588E1,1.035573467E1,-1.158254337E0,-4.571900496E0,1.137915058E1
1.421734187E1,1.029745664E1,-1.449230207E0,-4.507115101E0,1.133366525E1
1.422728787E1,1.019502278E1,-1.663322646E0,-4.296904190E0,1.118787367E1
1.423723450E1,9.857793971E0,-1.808220450E0,-3.893060102E0,1.075182218E1
1.424718050E1,9.149929460E0,-1.886549166E0,-3.520952361E0,9.983856089E0
1.425712650E1,8.713887386E0,-1.537082722E0,-3.677895137E0,9.582346753E0
1.426707250E1,8.763784016E0,-1.186030804E0,-4.193633299E0,9.787601319E0
1.427701950E1,8.843911920E0,-4.670907891E-1,-6.001314928E0,1.069807145E1
1.428696550E1,9.100050956E0,1.513347850E0,-1.235647762E1,1.542023632E1
1.429691150E1,9.165203556E0,-6.992702010E-1,-9.146763192E0,1.296739033E1
1.430685850E1,-3.860056955E0,-7.797374339E0,8.589600958E1,8.633552888E1
1.431680450E1,-1.139856687E1,-1.874855612E-1,8.269490693E1,8.347700348E1
1.432675050E1,-5.413762141E0,8.389604314E0,4.592230096E0,1.099012549E1
1.433669650E1,-6.248037140E1,3.601624056E0,7.288035663E0,6.300701524E1
1.434664350E1,-6.163114051E1,-1.910652676E1,-8.496497263E0,6.508185086E1
1.435658950E1,-3.487528039E1,-2.278682861E1,-8.753453155E0,4.256932795E1
1.436653550E1,-2.103123719E1,-1.405431726E1,-4.449887817E0,2.568342409E1
1.437648150E1,-1.227749226E1,-5.336943176E0,-2.083084610E0,1.354839548E1
1.438642850E1,-3.447551678E0,-7.524270192E-2,-2.616183447E0,4.328474311E0
1.439637450E1,1.261281838E0,2.414413576E0,-4.126139765E0,4.944214210E0
1.440632050E1,3.344884511E0,3.540450778E0,-2.521452706E0,5.484593682E0
1.441626650E1,4.652347074E0,3.278455464E0,8.147983915E-1,5.749478232E0
1.442621350E1,4.975559521E0,2.164285917E0,8.076390606E-1,5.485672878E0
1.443615950E1,5.250302058E0,1.486328597E0,-1.165401535E0,5.579695792E0
1.444610550E1,5.472348318E0,1.112711982E0,-9.013383526E-1,5.656601002E0
1.445605250E1,5.759972271E0,7.830879177E-1,2.242996017E0,6.230693251E0
1.446599850E1,4.490499068E0,-1.242983562E-1,3.910290384E0,5.955703389E0
1.447594450E1,3.061222631E0,-1.020872032E0,2.701734059E0,4.208637621E0
1.448589050E1,1.868127514E0,-1.119755831E0,1.475236722E0,2.630603906E0
1.449583750E1,2.628487158E-1,-1.023048439E0,8.528093863E-1,1.357571878E0
1.450578350E1,-1.318555608E0,-9.426871573E-1,5.470842075E-1,1.710715961E0
1.451572950E1,-2.182237599E0,-6.557802189E-1,2.491118520E-1,2.292218434E0
1.452567550E1,-4.386119545E0,-1.135090592E0,-5.620068866E-1,4.565339752E0
1.453562250E1,-4.516162498E0,-2.159138174E0,-3.997180009E-1,5.021690536E0
1.454556850E1,-2.921536742E0,-2.864649181E0,1.670384036E0,4.419476745E0
1.455551450E1,-1.203315174E0,-7.975148991E-1,2.178502398E0,2.613402020E0
1.456546050E1,-1.856257081E-2,7.174995536E-1,2.272095855E0,2.382765149E0
1.457540750E1,3.235451531E-1,3.314001565E-1,2.669010701E0,2.708897498E0
1.458535350E1,-2.742127794E-1,-2.835799458E-1,2.420784702E0,2.452714580E0
1.459529950E1,-9.221024001E-1,-6.245880277E-1,2.115444855E0,2.390709095E0
1.460524550E1,-1.053258955E0,-6.874656227E-1,1.712243083E0,2.124556374E0
1.461519250E1,-1.262844507E0,-8.543757091E-1,1.175121362E0,1.925005017E0
1.462513850E1,-1.186923966E0,-9.904455337E-1,5.024173272E-1,1.625482706E0
1.463508450E1,-8.857876825E-1,-8.444743996E-1,-3.373445821E-1,1.269471621E0
1.464503150E1,-5.565625441E-1,-5.294923476E-1,-7.049216080E-1,1.042611378E0
1.465497750E1,-3.838667840E-1,-6.533901695E-2,-2.424238068E-1,4.586852920E-1
1.466492350E1,-2.589240646E-1,3.574070368E-1,2.685064816E-1,5.166015794E-1
1.467486950E1,-1.650575423E-1,7.115036725E-1,8.484134495E-1,1.119502948E0
1.468481650E1,-1.063260618E-1,7.644638050E-1,1.422598917E0,1.618486274E0
1.469476250E1,2.961950943E-1,6.587840798E-1,1.563014538E0,1.721842747E0
1.470470850E1,7.605844697E-1,3.108230371E-1,1.506525757E0,1.716018518E0
1.471465450E1,9.705544755E-1,-1.509565798E-1,1.478425208E0,1.774966190E0
1.472460150E1,8.970030807E-1,-7.166009827E-1,1.629821901E0,1.993602499E0
1.473454750E1,6.773375143E-1,-1.261754293E0,1.595887000E0,2.144216715E0
1.474449350E1,8.099694684E-2,-1.537847099E0,1.324417149E0,2.031160996E0
1.475443950E1,-1.369685416E-1,-1.465990081E0,1.189729460E0,1.892972131E0
1.476438650E1,-1.178063388E-1,-1.257094940E0,1.029980021E0,1.629424703E0
1.477433250E1,7.068289697E-2,-1.038041211E0,5.660958445E-1,1.184478845E0
1.478427850E1,1.693129997E-1,-7.312788096E-1,7.075078315E-1,1.031505172E0
1.479422450E1,2.543705454E-1,-4.126908528E-1,1.214790042E0,1.307949908E0
1.480417150E1,2.945730767E-1,-2.744990737E-1,1.433250205E0,1.488734089E0
1.481411750E1,2.620460393E-1,-1.880947132E-1,1.351366382E0,1.389330359E0
1.482406350E1,3.442891739E-1,-1.156824108E-1,1.021579326E0,1.084224043E0
1.483401050E1,5.069964279E-1,-4.606487654E-2,6.744260395E-1,8.449957594E-1
1.484395650E1,3.438019547E-1,-6.196120838E-2,4.484896266E-1,5.684909151E-1
1.485390250E1,-2.233898042E-1,-1.464961410E-1,3.526987857E-1,4.424483669E-1
1.486384850E1,-2.606994255E-1,-2.559960349E-2,3.296841449E-1,4.210833237E-1
1.487379550E1,-1.630308974E-1,2.818250867E-1,1.367412311E-1,3.531325775E-1
1.488374150E1,-6.168695569E-2,4.415388221E-1,6.852819800E-2,4.510631063E-1
1.489368750E1,3.721270368E-2,5.549980850E-1,8.217442989E-2,5.622813323E-1
1.490363350E1,-2.658027291E-2,6.096332621E-1,3.841579753E-1,7.210662765E-1
1.491358050E1,-8.903511420E-2,5.273179143E-1,6.245153761E-1,8.221988137E-1
1.492352650E1,-9.599461645E-2,3.796112170E-1,5.826528203E-1,7.019999655E-1
1.493347250E1,-9.175304621E-2,2.664750127E-1,5.484033394E-1,6.165823356E-1
1.494341850E1,-1.215580586E-1,1.814593842E-1,6.682987422E-1,7.030839769E-1
1.495336550E1,-1.755028622E-1,1.368374361E-1,9.219340003E-1,9.484134327E-1
1.496331150E1,-1.851203625E-1,1.213514783E-1,1.212951677E0,1.232983172E0
1.497325750E1,-2.100941129E-1,1.228146435E-1,1.559712031E0,1.578583096E0
1.498320350E1,-2.668403175E-1,2.959441208E-2,1.724253264E0,1.745029771E0
1.499315050E1,-2.988630326E-1,-9.198715411E-2,1.471906148E0,1.504755281E0
1.500309650E1,-2.186602838E-1,-1.455472658E-1,1.585912235E0,1.607517945E0
1.501304250E1,-2.795048019E-1,-2.691502601E-2,1.937926896E0,1.958164449E0
1.502298950E1,-3.057634780E-1,1.388092451E-2,2.144527736E0,2.166260187E0
1.503293550E1,-3.409626929E-1,2.421514727E-2,2.264863434E0,2.290512674E0
1.504288150E1,-3.774652523E-1,9.731521010E-2,2.419473172E0,2.450673519E0
1.505282750E1,-5.444159769E-1,2.714853822E-1,2.538034240E0,2.609925453E0
1.506277450E1,-8.520685440E-1,5.112325895E-1,2.606842520E0,2.789804202E0
1.507272050E1,-1.173458121E0,6.681198174E-1,2.582943195E0,2.914615515E0
1.508266650E1,-1.279315529E0,7.246289174E-1,2.473371636E0,2.877377720E0
1.509261250E1,-1.246835707E0,7.001848517E-1,2.405002483E0,2.798016270E0
1.510255950E1,-1.114142796E0,5.587018941E-1,2.536694643E0,2.826354841E0
1.511250550E1,-9.751572575E-1,3.117553391E-1,3.026679620E0,3.195138900E0
1.512245150E1,-9.130399467E-1,3.659329168E-2,3.394282374E0,3.515129279E0
1.513239750E1,-9.307746980E-1,-1.977667205E-1,3.104342338E0,3.246905383E0
1.514234450E1,-8.623928265E-1,-2.928983245E-1,2.462638487E0,2.625661657E0
1.515229050E1,-7.493782809E-1,-2.759860937E-1,2.081790036E0,2.229705336E0
1.516223650E1,-5.565385705E-1,-2.531097578E-1,1.952820339E0,2.046291037E0
1.517218350E1,-3.237226161E-1,-1.512127335E-1,1.930358845E0,1.963147191E0
1.518212950E1,-1.403549565E-1,-4.310845122E-2,1.747088395E0,1.753247191E0
1.519207550E1,1.083491984E-1,-9.726112336E-3,1.402676868E0,1.406888959E0
1.520202150E1,3.463492942E-1,-3.195897128E-2,1.114829552E0,1.167828814E0
1.521196850E1,5.488566448E-1,-1.613054937E-1,9.073387653E-1,1.072626083E0
1.522191450E1,7.314192890E-1,-2.199144020E-1,5.950962800E-1,9.682334961E-1
1.523186050E1,9.018372662E-1,-2.171221189E-1,2.465162730E-1,9.598034914E-1
1.524180667E1,1.104922029E0,-2.543385137E-1,7.088579535E-3,1.133839062E0
1.525175367E1,1.364591029E0,-2.313511720E-1,-1.075203556E-1,1.388233651E0
1.526169967E1,1.574694936E0,-1.695629864E-1,-2.769270569E-1,1.607825968E0
1.527164567E1,1.858008907E0,-1.195649072E-1,-4.939353561E-1,1.926256733E0
1.528159167E1,2.001977589E0,4.866211837E-2,-6.576293278E-1,2.107785236E0
1.529153867E1,2.163600769E0,1.602904170E-1,-8.977224344E-1,2.347928209E0
1.530148467E1,2.464120464E0,1.297156918E-1,-1.130277311E0,2.714082280E0
1.531143067E1,2.804213237E0,6.796140181E-2,-1.317926155E0,3.099219254E0
1.532137667E1,3.166370479E0,-2.229123060E-2,-1.324391422E0,3.432260414E0
1.533132367E1,3.463819801E0,-1.128744500E-1,-1.388552334E0,3.733479053E0
1.534126967E1,3.699239228E0,-2.782159294E-1,-1.667672682E0,4.067297278E0
1.535121567E1,3.977122597E0,-4.604811696E-1,-1.982199674E0,4.467511904E0
1.536116267E1,4.306341596E0,-5.518882799E-1,-2.171358270E0,4.854271867E0
1.537110867E1,4.613339129E0,-5.835366270E-1,-2.160135709E0,5.127338413E0
1.538105467E1,5.042326537E0,-5.667608191E-1,-1.913899518E0,5.423032924E0
1.539100067E1,5.274894862E0,-4.922884513E-1,-2.025018250E0,5.671645497E0
1.540094767E1,5.808448613E0,-3.648215255E-1,-2.299224012E0,6.257603462E0
1.541089367E1,6.166886441E0,-3.120452148E-1,-2.361286944E0,6.610865043E0
1.542083967E1,6.339893857E0,-2.661950042E-1,-2.382107125E0,6.777871956E0
1.543078567E1,5.297703681E0,-2.389977404E-1,-2.496528364E0,5.861351217E0
1.544073267E1,4.541931177E0,-1.886556256E-1,-2.837269009E0,5.358621576E0
1.545067867E1,4.312064851E0,-5.836935516E-2,-3.053321289E0,5.283945605E0
1.546062467E1,4.231559216E0,9.222265072E-2,-3.079781694E0,5.234467853E0
1.547057067E1,3.599697983E0,6.321019191E-2,-2.914245265E0,4.631916079E0
1.548051767E1,3.190337339E0,7.685653344E-3,-3.019470003E0,4.392665535E0
1.549046367E1,2.247543982E0,-6.664305568E-2,-3.154088695E0,3.873521749E0
1.550040967E1,1.224473616E0,-2.133466266E-2,-3.353692757E0,3.570300535E0
1.551035567E1,2.496240681E-1,3.797295865E-1,-3.462691289E0,3.492382810E0
1.552030267E1,-4.227712333E-2,5.815996637E-1,-3.209203965E0,3.261753457E0
1.553024867E1,-7.745303714E-1,7.551409312E-1,-2.404996051E0,2.637070558E0
1.554019467E1,-2.500350105E0,8.335704388E-1,-1.400662503E0,2.984701956E0
1.555014167E1,-5.944371818E0,8.584154774E-1,-8.910624558E-1,6.071772867E0
1.556008767E1,-1.141562437E1,6.423012905E-1,-8.334510094E-1,1.146401637E1
1.557003367E1,-1.847312712E1,-2.025232112E-1,-1.156785663E0,1.851041854E1
1.557997967E1,-2.636387682E1,-1.595811717E0,-1.368941650E0,2.644758244E1
1.558992667E1,-3.233581124E1,-2.745029475E0,-5.333461744E-1,3.245649910E1
1.559987267E1,-3.223246287E1,-2.221005078E0,9.682258219E-2,3.230903745E1
1.560981867E1,-2.383269434E1,-7.266519079E-1,-1.996558097E-1,2.384460537E1
1.561976467E1,-1.786927581E1,7.751759040E-1,4.107174906E-1,1.789079664E1
1.562971167E1,-1.882837237E1,2.096154891E0,3.046433561E0,1.918807517E1
1.563965767E1,-1.965102767E1,1.397192765E0,4.600759429E0,2.023071979E1
1.564960367E1,-1.727811996E1,-2.899570288E-2,3.613447419E0,1.765194812E1
1.565954967E1,-1.352690425E1,-8.262879509E-1,2.023152403E0,1.370230039E1
1.566949667E1,-9.207374845E0,-5.155392831E-1,1.088239338E0,9.285784681E0
1.567944267E1,-5.242625248E0,1.645915923E-1,4.720199919E-1,5.266404158E0
1.568938867E1,-1.777920179E0,9.236595867E-1,5.791684645E-1,2.085565464E0
1.569933467E1,7.771475852E-1,1.585616658E0,1.024802311E0,2.041655782E0
1.570928167E1,3.177077608E0,1.190299710E0,2.709557633E0,4.341927924E0
1.571922767E1,4.498822580E0,8.140435159E-1,4.873243772E0,6.682108673E0
1.572917367E1,4.823675171E0,1.215667051E0,6.245117508E0,7.984183191E0
1.573912067E1,5.729413553E0,1.488893917E0,6.451923001E0,8.756157557E0
1.574906667E1,6.128502393E0,1.669949441E0,5.681134847E0,8.521887460E0
1.575901267E1,6.440641968E0,1.514566410E0,4.330249107E0,7.907391333E0
1.576895867E1,8.035661826E0,9.346734752E-1,2.239951957E0,8.394215881E0
1.577890567E1,9.631247109E0,1.658921593E-1,1.522872233E-1,9.633879410E0
1.578885167E1,1.005508487E1,-2.428593147E-1,-5.000499357E-1,1.007044003E1
1.579879767E1,9.869519978E0,-2.429124330E-1,-3.703441476E-1,9.879452709E0
1.580874367E1,9.912047946E0,-2.786521500E-1,-4.142022119E-1,9.924611075E0
1.581869067E1,9.960466400E0,-3.237419119E-1,-2.953213741E-1,9.970101025E0
1.582863667E1,1.000546774E1,-3.754067766E-1,-8.603483476E-2,1.001287756E1
1.583858267E1,9.935357287E0,-3.966184650E-1,-3.208273673E-1,9.948445146E0
1.584852867E1,9.822080348E0,-4.076752209E-1,-7.850236385E-1,9.861831653E0
1.585847567E1,9.719151810E0,-4.417619665E-1,-1.139424110E0,9.795680316E0
1.586842167E1,9.696965720E0,-4.892365702E-1,-1.320793045E0,9.798723941E0
1.587836767E1,9.692991368E0,-5.252247207E-1,-1.372291228E0,9.803730202E0
1.588831367E1,9.658481686E0,-5.873999920E-1,-1.418954932E0,9.779812898E0
1.589826067E1,9.663918427E0,-6.359588157E-1,-1.474251612E0,9.796386109E0
1.590820667E1,9.645654649E0,-6.751542371E-1,-1.569591048E0,9.795820685E0
1.591815267E1,9.606385918E0,-7.213725299E-1,-1.644796766E0,9.772839154E0
1.592809967E1,9.587218745E0,-7.642042617E-1,-1.742073677E0,9.774128714E0
1.593804567E1,9.570089327E0,-8.204190275E-1,-1.814060065E0,9.774994170E0
1.594799167E1,9.562554604E0,-8.630383591E-1,-1.888078213E0,9.785301483E0
1.595793767E1,9.518991678E0,-9.183820360E-1,-1.983796256E0,9.766784308E0
1.596788467E1,9.544775560E0,-9.525873705E-1,-2.085556374E0,9.816298110E0
1.597783067E1,9.636766881E0,-9.239462464E-1,-2.313976099E0,9.953664550E0
1.598777667E1,9.745528600E0,-9.259891905E-1,-2.587038000E0,1.012549008E1
1.599772267E1,1.018056378E1,-8.616645558E-1,-3.153807152E0,1.069265375E1
1.600766967E1,1.080468974E1,-7.403618744E-1,-3.927618608E0,1.152022760E1
1.601761567E1,1.124707253E1,-7.487356719E-1,-4.490814818E0,1.213361708E1
1.602756167E1,1.114737283E1,-8.369932526E-1,-4.685313676E0,1.212091757E1
1.603750767E1,1.088168938E1,-9.237950228E-1,-4.400969426E0,1.177425551E1
1.604745467E1,1.070245117E1,-1.054883312E0,-4.404706966E0,1.162138904E1
1.605740067E1,1.034349411E1,-1.211213593E0,-4.815406623E0,1.147358051E1
1.606734667E1,9.527006457E0,-1.478382231E0,-5.787959969E0,1.124499652E1
1.607729267E1,9.163192699E0,-1.720129808E0,-6.776372133E0,1.152571760E1
1.608723967E1,8.891226420E0,-1.819021135E0,-7.067848817E0,1.150292276E1
1.609718567E1,8.770099009E0,-2.096764755E0,-8.076662502E0,1.210551677E1
1.610713167E1,9.330148832E0,-2.366446820E0,-8.062764255E0,1.255626996E1
1.611707767E1,9.535638701E0,-2.653052773E0,-8.110060628E0,1.279610010E1
1.612702467E1,9.584470553E0,-2.766572664E0,-8.196227537E0,1.291100871E1
1.613697067E1,9.390738850E0,-2.761695209E0,-7.810517710E0,1.252266439E1
1.614691667E1,8.555288678E0,-2.908636615E0,-7.010171297E0,1.143659184E1
1.615686367E1,7.168403385E0,-3.250867715E0,-5.529752188E0,9.619371458E0
1.616680967E1,4.841957075E0,-3.762545863E0,-4.026824223E0,7.335980712E0
1.617675567E1,1.923690096E0,-3.486056470E0,-4.727771478E0,6.181019046E0
1.618670167E1,-1.300987941E-1,-3.543129973E0,-3.785894380E0,5.186876898E0
1.619664867E1,2.326970805E0,-2.671475887E0,-4.660613283E0,5.854305485E0
1.620659467E1,3.824713460E0,-4.677320094E-1,-3.356921005E0,5.110393812E0
1.621654067E1,-3.591427681E0,-3.345296594E-1,4.223139811E1,4.238515364E1
1.622648667E1,-3.308901448E1,-5.907863558E0,7.895576689E1,8.581257982E1
1.623643412E1,-4.911513330E1,-1.143042718E1,2.894773101E1,5.814569731E1
1.624638012E1,-2.885872235E1,-1.806403954E1,-2.789307808E0,3.416014664E1
1.625632613E1,-9.185782832E0,-8.946979621E0,-1.399748115E1,1.898305900E1
1.626627212E1,-1.471801950E1,5.314110968E0,-1.179713063E1,1.959673862E1
1.627621912E1,-1.918032213E1,9.569076004E0,-1.557782450E0,2.149136242E1
1.628616512E1,-1.101322366E1,8.755295028E0,8.146305179E0,1.625756976E1
1.629611112E1,-3.149888640E0,8.545622646E0,9.877711927E0,1.343572319E1
1.630605712E1,7.941343313E-1,6.424834605E0,4.260380727E0,7.749838255E0
1.631600412E1,4.484415625E0,3.015430162E0,1.634138900E-1,5.406431971E0
1.632595012E1,5.817305390E0,1.183983913E0,-1.258463480E0,6.068491595E0
1.633589612E1,6.125115101E0,6.331400192E-1,-1.823245456E0,6.422003214E0
1.634584213E1,3.689855617E0,-1.658013082E0,1.575011855E-1,4.048314276E0
1.635578912E1,1.666312619E0,-2.242541104E0,4.360197961E0,5.178505055E0
