"Time (s)","Linear Acceleration x (m/s^2)","Linear Acceleration y (m/s^2)","Linear Acceleration z (m/s^2)","Absolute acceleration (m/s^2)"
9.194583399E-4,1.998256713E-2,-5.374760628E-3,1.346572834E-1,1.362379353E-1
1.086645829E-2,6.881712355E-2,1.907771051E-2,1.019485255E-1,1.244719140E-1
2.081245824E-2,1.214839451E-1,3.066396832E-2,1.557698433E-1,1.999071583E-1
3.075845831E-2,1.295218201E-1,2.845079720E-2,2.177550069E-1,2.549560605E-1
4.070445825E-2,1.059028696E-1,1.664117575E-3,2.684445194E-1,2.885838649E-1
5.065045832E-2,6.615466699E-2,-1.190493107E-3,2.468285326E-1,2.555429157E-1
6.059687492E-2,5.413074508E-2,-1.001978874E-2,2.045853414E-1,2.118624451E-1
7.054287498E-2,5.533512533E-2,-3.705731392E-2,1.421428889E-1,1.569707663E-1
8.048887493E-2,6.406969607E-2,-1.476772785E-2,1.000587237E-1,1.197278578E-1
9.043487499E-2,8.956735700E-2,-1.575356841E-2,9.081310630E-2,1.285204522E-1
1.003808749E-1,8.249997362E-2,-2.028516054E-2,9.417176524E-2,1.268308115E-1
1.103278749E-1,4.855045483E-2,-2.186858654E-4,9.386829475E-2,1.056808935E-1
1.202738750E-1,2.702802345E-2,-2.594994307E-3,9.070904413E-2,9.468568389E-2
1.302198749E-1,3.392963827E-2,-5.433817506E-3,1.073379225E-1,1.127039322E-1
1.401658750E-1,2.451284364E-2,-2.397709250E-2,8.473962167E-2,9.141435308E-2
1.501118749E-1,-2.124878168E-3,-4.761387706E-2,9.075346470E-2,1.025075009E-1
1.600588750E-1,-1.500073940E-2,-2.602361798E-2,1.054527801E-1,1.096473425E-1
1.700048749E-1,1.840849668E-2,-2.817188501E-2,1.054182816E-1,1.106595768E-1
1.799508750E-1,6.250037648E-2,1.146580517E-2,1.016228356E-1,1.198539214E-1
1.898968749E-1,5.301911630E-2,1.739839017E-2,1.562744214E-1,1.659380169E-1
1.998428750E-1,2.754974127E-2,2.749009967E-2,1.800112116E-1,1.841703834E-1
2.097898750E-1,1.347622409E-2,1.733524024E-2,1.900877366E-1,1.913516835E-1
2.197358749E-1,4.258088619E-3,2.539972007E-2,1.715549866E-1,1.734773488E-1
2.296818750E-1,2.482735075E-2,3.716139436E-2,1.704007097E-1,1.761640385E-1
2.396278749E-1,3.538369462E-2,2.583650708E-2,1.473323111E-1,1.537086231E-1
2.495738750E-1,2.428348660E-2,-2.077398777E-2,1.327855897E-1,1.365769348E-1
2.595208749E-1,-1.266638473E-2,-2.755324960E-2,1.306975673E-1,1.341695679E-1
2.694668750E-1,-4.161331818E-2,-3.194684744E-2,6.415680131E-2,8.287559632E-2
2.794128750E-1,-3.976632893E-2,-1.780360222E-2,-4.622340918E-2,6.352112030E-2
2.893588749E-1,-1.472095013E-2,-4.951305270E-2,-2.005501413E-1,2.070956493E-1
2.993048750E-1,-4.427277803E-2,-1.050674486E-1,-2.557139432E-1,2.799801214E-1
3.092518749E-1,-2.314927295E-2,-1.902292210E-1,-1.880493607E-1,2.684876299E-1
3.191978750E-1,-8.046061099E-3,-1.497863692E-1,-1.586372995E-1,2.183265634E-1
3.291438749E-1,-1.518280707E-2,-3.081307232E-2,-4.869152804E-2,5.958882412E-2
3.390898750E-1,-5.672098853E-2,8.193235517E-2,9.046224595E-2,1.345867724E-1
3.490358749E-1,-1.259811848E-1,2.606326210E-1,1.986381018E-1,3.510807850E-1
3.589828749E-1,-1.523343665E-1,2.535826331E-1,3.368276882E-1,4.482887491E-1
3.689288750E-1,-6.525331870E-2,1.771092385E-1,5.710572070E-1,6.014416111E-1
3.788748749E-1,1.289153177E-1,6.065433741E-2,7.296564996E-1,7.434357506E-1
3.888208750E-1,2.261721287E-1,-7.827667594E-3,7.125849688E-1,7.476579712E-1
3.987668749E-1,2.400586811E-1,-3.933597386E-2,4.472085017E-1,5.090883354E-1
4.087138750E-1,1.239716430E-1,-3.311512113E-2,1.655130404E-1,2.094281406E-1
4.186598749E-1,2.885250092E-2,-1.158146310E-1,-1.885142326E-3,1.193693818E-1
4.286058750E-1,-6.534380436E-2,-1.622374302E-1,-3.225908875E-2,1.778523133E-1
4.385518749E-1,-1.227109833E-1,-1.834867966E-1,7.028586189E-2,2.316581368E-1
4.484978749E-1,-1.353968831E-1,-1.905929178E-1,1.630425918E-1,2.850278285E-1
4.584448750E-1,-1.478649011E-1,-1.776085907E-1,2.073182935E-1,3.104669310E-1
4.683908749E-1,-5.553349212E-2,-1.387713844E-1,2.470109475E-1,2.887141736E-1
4.783368750E-1,3.268959001E-3,-8.768660009E-2,3.674179816E-1,3.777507103E-1
4.882828749E-1,-2.505086057E-2,-1.973400199E-1,3.879001933E-1,4.359325511E-1
4.982288750E-1,-7.580739677E-2,-1.562171370E-1,2.801722616E-1,3.296165218E-1
5.081758749E-1,-1.878103741E-1,1.300993788E-1,2.194413257E-1,3.167855432E-1
5.181218750E-1,-7.955992050E-2,-4.967677474E-2,1.313062441E-1,1.613657109E-1
5.280678750E-1,7.492724463E-2,-1.738552630E-1,1.507342029E-1,2.419928602E-1
5.380138749E-1,1.025075376E-2,-1.829362813E0,-1.807491302E-1,1.838299112E0
5.479598750E-1,-3.279880138E-1,-9.495012832E-1,-2.802465212E-1,1.042912718E0
5.579068749E-1,-4.714977624E-1,8.956829256E-1,-7.147869389E-2,1.014725208E0
5.678528750E-1,-1.768734495E-1,1.269532260E0,2.915609201E-1,1.314535715E0
5.777988749E-1,-1.517842897E-1,1.363311659E0,7.792993605E-1,1.577645284E0
5.877448750E-1,-2.910638702E-1,1.074583751E0,1.085237378E0,1.554731032E0
5.976908749E-1,-9.227227896E-2,5.575109625E-1,8.995029116E-1,1.062279688E0
6.076378749E-1,4.362176366E-2,-1.162104875E-1,4.230039525E-1,4.408401972E-1
6.175838750E-1,3.558323085E-2,-4.878185838E-1,9.352972269E-2,4.979768530E-1
6.275298749E-1,-1.636684632E-1,-5.521935046E-1,-3.670529326E-2,5.771068453E-1
6.374758750E-1,-3.547828795E-1,-3.705064809E-1,3.231876690E-2,5.139945979E-1
6.474218749E-1,-4.271092826E-1,-4.556091964E-2,2.785636926E-1,5.119529935E-1
6.573688750E-1,-4.950423802E-1,2.720060402E-1,5.958674912E-1,8.210434283E-1
6.673148749E-1,-4.717942163E-1,3.725606078E-1,6.867414451E-1,9.126910766E-1
6.772608750E-1,-3.355834007E-1,2.456695962E-1,5.980543864E-1,7.284495991E-1
6.872068750E-1,-7.072280422E-2,6.205591500E-2,4.414332799E-1,4.513490802E-1
6.971528749E-1,1.893089423E-1,4.993522167E-4,3.298613520E-1,3.803243833E-1
7.070998750E-1,2.738716675E-1,-1.656983972E-2,2.407532938E-1,3.650238325E-1
7.170458749E-1,1.929167475E-1,2.580259323E-2,1.534263340E-1,2.478351978E-1
7.269918750E-1,9.310463011E-2,6.860304236E-2,9.967397690E-2,1.526753131E-1
7.369378749E-1,4.856704630E-2,6.390831292E-2,3.681443520E-3,8.035286848E-2
7.468838750E-1,-3.389338553E-3,7.650555432E-2,-8.993836284E-2,1.181249193E-1
7.568308749E-1,4.580730669E-2,3.335895002E-2,-1.797317513E-1,1.884532603E-1
7.667768749E-1,1.530244841E-1,-6.807679296E-2,-3.494131256E-1,3.874796444E-1
7.767228750E-1,2.574149714E-1,-1.036717182E-1,-4.445041279E-1,5.240173779E-1
7.866688749E-1,3.155000422E-1,-8.791990399E-2,-4.022977193E-1,5.187616419E-1
7.966148750E-1,3.282515770E-1,-4.088724017E-2,-3.564895356E-1,4.863184689E-1
8.065618749E-1,2.786458459E-1,6.692723036E-3,-3.619800711E-1,4.568565112E-1
8.165078750E-1,1.928978902E-1,9.186560512E-2,-3.870576096E-1,4.421113871E-1
8.264538749E-1,1.108822122E-1,1.656510347E-1,-3.449249125E-1,3.983821350E-1
8.363998750E-1,3.451932997E-2,1.590840268E-1,-2.709003317E-1,3.160479417E-1
8.463458749E-1,-1.993403524E-2,1.165040177E-1,-9.441616058E-2,1.512777686E-1
8.562928749E-1,-7.216224253E-2,1.865817279E-1,1.200000679E-1,2.332812610E-1
8.662388750E-1,-1.966515834E-1,3.603422660E-1,1.805701324E-1,4.484684678E-1
8.761848749E-1,-3.210307773E-1,5.570051783E-1,1.171034304E-1,6.534743622E-1
8.861308750E-1,-4.675353236E-1,7.508906633E-1,4.105227783E-2,8.855006248E-1
8.960768749E-1,-5.351061132E-1,8.482672691E-1,-1.108596274E-1,1.009051916E0
9.060238750E-1,-5.654738835E-1,8.132249057E-1,-1.936631446E-1,1.009257585E0
9.159698749E-1,-5.111816822E-1,7.624611336E-1,-2.263105615E-1,9.454470703E-1
9.259158750E-1,-4.640186254E-1,6.794762796E-1,-9.829746924E-2,8.286517313E-1
9.358618750E-1,-2.844294000E-1,5.741369355E-1,7.367009327E-2,6.449500655E-1
9.458078749E-1,-1.639699237E-1,4.707195711E-1,1.453548376E-1,5.192216090E-1
9.557548750E-1,-9.956843466E-2,2.917667055E-1,9.249476552E-2,3.218648245E-1
9.657008749E-1,-6.124285966E-2,1.490104437E-1,-5.789562106E-2,1.711920066E-1
9.756468750E-1,-3.406346641E-2,9.224450469E-2,-4.585839674E-2,1.085005112E-1
9.855928749E-1,-8.344791692E-2,7.045017779E-2,8.299610987E-3,1.095247275E-1
9.955388750E-1,-2.770866494E-1,4.819509029E-2,-4.577777825E-2,2.849480355E-1
1.005485875E0,-3.946467108E-1,1.321470737E-4,-1.141797495E-1,4.108321542E-1
1.015431875E0,-3.319470173E-1,-3.560077250E-2,3.282159090E-2,3.354601230E-1
1.025377875E0,-1.424372597E-1,-3.298999071E-3,3.607862158E-1,3.878994069E-1
1.035323875E0,-1.146986168E-2,1.681249917E-2,3.368629177E-1,3.374771743E-1
1.045269875E0,-1.358106102E-1,-1.293620449E-1,1.292879315E-1,2.278034893E-1
1.055216875E0,-3.825789713E-1,-2.685246080E-1,-1.637034734E-1,4.952483837E-1
1.065162833E0,-5.076497446E-1,-1.659124053E-1,-2.845081182E-1,6.051281342E-1
1.075108833E0,-8.827605790E-1,-6.559698880E-2,-1.133390661E-1,8.924208361E-1
1.085054833E0,-1.489646015E0,3.421147406E-1,5.165430307E-3,1.528435287E0
1.095000833E0,-1.762123633E0,6.144523180E-1,4.498859417E-1,1.919642860E0
1.104947833E0,-1.961116661E0,6.809772599E-1,4.163115218E-1,2.117315251E0
1.114893833E0,-1.230501218E0,7.320866024E-1,-4.050436449E-1,1.488000133E0
1.124839833E0,7.796327432E-2,9.226344967E-1,-8.955633500E-1,1.288163965E0
1.134785833E0,4.612532213E-1,6.887505484E-1,-8.954858744E-1,1.220256860E0
1.144731833E0,9.346975219E-2,5.359926242E-1,-2.758184248E-1,6.100004026E-1
1.154678833E0,1.238159426E-1,9.090280259E-1,3.116428533E-1,9.689084619E-1
1.164624833E0,5.870153914E-1,1.460036885E0,-2.199789771E-1,1.588925903E0
1.174570833E0,5.166266459E-1,1.657496772E0,-6.446941173E-1,1.851979791E0
1.184516833E0,3.515871934E-1,1.919368418E0,7.105097920E-2,1.952597481E0
1.194463833E0,8.701039883E-1,2.211648510E0,-1.996707201E-2,2.376734896E0
1.204409833E0,1.140389485E0,2.211475432E0,-7.280859375E-1,2.592531754E0
1.214355833E0,9.908814436E-1,2.336925690E0,-7.695836270E-1,2.652419023E0
1.224301833E0,1.795091989E0,2.886105539E0,-5.600252652E-1,3.444646387E0
1.234247833E0,2.363097534E0,3.628027743E0,-5.126733434E-1,4.360005644E0
1.244193833E0,2.560240796E0,3.768472601E0,-9.399331918E-1,4.651848351E0
1.254140833E0,2.995822694E0,3.895786366E0,-8.130427650E-1,4.981279309E0
1.264086833E0,3.428077526E0,3.605187349E0,-2.751114964E-3,4.974846622E0
1.274032833E0,3.697912495E0,2.812841097E0,1.647827232E-1,4.649062830E0
1.283978833E0,2.653607673E0,2.594045888E0,3.249484849E-1,3.725090505E0
1.293925833E0,1.952630451E0,1.873882343E0,-6.637390834E-1,2.786530151E0
1.303871833E0,1.356016526E0,6.835161209E-1,-1.122594069E0,1.888436536E0
1.313817833E0,1.854730958E0,-5.986063635E-1,-1.270367827E0,2.326411597E0
1.323763833E0,2.129162423E0,-1.077568755E0,2.327571899E-1,2.397636952E0
1.333709833E0,1.951332954E0,-8.063538426E-1,3.288819069E-1,2.136836476E0
1.343656833E0,1.964517256E0,-1.007638394E0,2.251622415E-1,2.219315484E0
1.353602833E0,1.334713804E0,-1.330316990E0,-3.690323979E-1,1.920257572E0
1.363548833E0,5.596658076E-1,-7.923871833E-1,-3.007889593E-1,1.015665921E0
1.373494833E0,7.309222756E-1,-4.265877110E-1,-5.114027435E-1,9.888160669E-1
1.383440833E0,1.061612434E0,-6.849726623E-1,-3.888217145E-1,1.321889116E0
1.393387833E0,1.185833607E0,-1.104632592E0,-1.795481122E-1,1.630537344E0
1.403333833E0,9.017157903E-1,-1.698862900E0,-4.040414321E-1,1.965318294E0
1.413279833E0,4.552862839E-1,-2.352054191E0,-2.954668236E-1,2.413865191E0
1.423225833E0,1.190417093E-1,-2.813328170E0,2.275151610E-2,2.815937490E0
1.433171833E0,-8.921155393E-2,-3.159928894E0,2.849254632E-1,3.174002495E0
1.443118833E0,-2.102094492E-1,-3.388525205E0,4.522528946E-1,3.425029016E0
1.453064833E0,-2.709902327E-1,-3.093561827E0,6.134465969E-1,3.165418963E0
1.463010833E0,-3.414526896E-1,-2.404306079E0,6.602272457E-1,2.516580553E0
1.472956833E0,-2.974342655E-1,-1.736055869E0,9.888811111E-2,1.764124707E0
1.482902833E0,-3.640201646E-1,-1.978239940E0,-4.216017902E-1,2.055162283E0
1.492849833E0,7.674017385E-2,-1.228032816E0,-2.835922980E-1,1.262686914E0
1.502795833E0,1.719193961E-1,-1.014617046E0,-2.056418967E-1,1.049424899E0
1.512741833E0,3.856548625E-1,-1.237973083E0,-4.296183228E-1,1.365971790E0
1.522687833E0,2.932384497E-1,-1.738460829E0,-5.734452099E-1,1.853934802E0
1.532633833E0,1.191061749E-1,-2.366914304E0,-1.139287870E0,2.629533505E0
1.542580833E0,4.015341461E-2,-3.040485481E0,-1.696852627E0,3.482165001E0
1.552526833E0,4.724461077E-1,-3.672942545E0,-1.515987137E0,4.001490880E0
1.562472833E0,6.881820528E-1,-4.284894009E0,-2.096210439E0,4.819544523E0
1.572418833E0,4.378025244E-1,-4.739138466E0,-2.935841078E0,5.591982411E0
1.582364833E0,8.922792614E-2,-4.897695658E0,-3.549778549E0,6.049488584E0
1.592311833E0,4.961654842E-3,-4.985005698E0,-4.097372634E0,6.452810932E0
1.602257833E0,-4.479990453E-2,-5.199917185E0,-4.362434521E0,6.787634397E0
1.612203833E0,-2.551379925E-1,-5.377752063E0,-3.854765224E0,6.621520036E0
1.622149833E0,-1.388962224E-2,-5.950201492E0,-2.935432650E0,6.634896801E0
1.632095833E0,9.913961448E-1,-7.060578389E0,-1.080739115E0,7.211284944E0
1.642042833E0,1.944672244E0,-8.354976518E0,1.451900484E0,8.700310211E0
1.651988833E0,2.173277034E0,-9.829877025E0,3.257640838E0,1.058120216E1
1.661934833E0,1.570558616E0,-1.118663922E1,4.772820474E0,1.226325269E1
1.671880833E0,7.083129930E-1,-1.190107892E1,5.907993951E0,1.330570477E1
1.681826833E0,-1.217044765E-1,-1.248065728E1,5.103401290E0,1.348429912E1
1.691773833E0,-8.633815907E-2,-1.292695537E1,4.398433489E0,1.365503008E1
1.701719833E0,5.393909528E-1,-1.469817171E1,4.722152889E0,1.544752156E1
1.711665833E0,1.680276648E0,-1.615805306E1,4.104051908E0,1.675557371E1
1.721611833E0,1.023274580E0,-1.829663009E1,5.392699154E-1,1.833315509E1
1.731557833E0,-7.841467023E-2,-2.046191018E1,-2.808008373E0,2.065383325E1
1.741504833E0,2.861922625E-1,-1.806374484E1,-4.737553285E0,1.867686255E1
1.751450833E0,1.431311999E0,-9.671264284E0,-9.437922957E0,1.358883353E1
1.761396833E0,2.605718392E0,-1.812065579E0,-1.282970798E1,1.321645781E1
1.771342833E0,6.082111461E-1,4.878974043E0,-1.186400874E1,1.284246908E1
1.781288833E0,-1.218890841E0,9.458432066E0,-1.262385676E1,1.582116909E1
1.791235833E0,-2.997640008E0,1.105888925E1,-1.663489701E1,2.019912561E1
1.801181833E0,-3.719500415E0,1.070784932E1,-2.254855925E1,2.523747698E1
1.811127833E0,-1.565273025E0,3.613087522E0,-1.025124025E1,1.098145745E1
1.821073833E0,-1.581285918E-1,1.856569907E0,-8.129325449E-1,2.032908211E0
1.831019833E0,-6.871004641E-2,6.108063451E0,3.659628435E0,7.120817402E0
1.840966833E0,8.527241631E-1,9.182002607E0,7.759034146E0,1.205151116E1
1.850912833E0,2.727148689E0,1.080591063E1,1.149211180E1,1.600855016E1
1.860858833E0,3.228062990E0,1.156821565E1,1.113723726E1,1.637931799E1
1.870804833E0,1.881030857E0,1.219672116E1,1.054648956E1,1.623350628E1
1.880750833E0,9.715037709E-1,1.347602529E1,9.122304289E0,1.630225484E1
1.890697833E0,1.932285503E-2,1.557094349E1,6.044520589E0,1.670302020E1
1.900643833E0,-1.143553706E0,1.692763435E1,4.193725977E0,1.747683774E1
1.910589833E0,-1.507521830E0,1.679419036E1,2.825714911E0,1.709684523E1
1.920535833E0,-1.013026896E0,1.563245386E1,2.249292738E0,1.582590140E1
1.930481833E0,3.709859526E-1,1.435922499E1,2.959023242E0,1.466563301E1
1.940428833E0,1.524674345E0,1.274579576E1,4.401017958E0,1.357014740E1
1.950374833E0,2.206084591E0,1.029047740E1,4.885094908E0,1.160279650E1
1.960320833E0,3.142258316E0,8.526955994E0,5.314627862E0,1.052748950E1
1.970266833E0,3.082856160E0,6.647116508E0,4.190158006E0,8.440709928E0
1.980212833E0,2.094988371E0,5.301556996E0,2.572247468E0,6.253953941E0
1.990159833E0,5.786536172E-1,4.998035048E0,-3.948530444E-1,5.046890456E0
2.000105833E0,-2.736790163E0,5.534705365E0,-3.293232547E0,6.997739955E0
2.010051833E0,-4.651786326E0,6.486585880E0,-4.226454012E0,9.032044393E0
2.019997833E0,-4.235347920E0,7.747622720E0,-5.102922403E0,1.019821783E1
2.029943833E0,-3.259329221E0,8.634112653E0,-5.393695081E0,1.068939076E1
2.039890833E0,-2.153759320E0,8.617363304E0,-4.803511047E0,1.009808635E1
2.049836833E0,-1.677229956E0,8.850345612E0,-3.737532059E0,9.752479872E0
2.059782833E0,-1.107839132E0,9.974608476E0,-1.693691622E0,1.017785405E1
2.069728875E0,3.343502229E-1,1.086970726E1,-7.666798997E-1,1.090184040E1
2.079675875E0,1.639706619E0,1.168345023E1,7.393346648E-1,1.182109398E1
2.089621875E0,3.167800123E0,1.231084010E1,1.972490373E0,1.286399860E1
2.099567875E0,4.167729841E0,1.230566181E1,3.052336910E0,1.334601233E1
2.109513875E0,4.290733624E0,1.201455467E1,4.045483857E0,1.338379089E1
2.119459875E0,4.027790183E0,1.153273006E1,3.686578252E0,1.276000845E1
2.129406875E0,3.480671184E0,1.067326889E1,2.637530462E0,1.153214237E1
2.139352875E0,3.032130687E0,9.747350008E0,1.783835953E0,1.036275636E1
2.149298875E0,3.369700387E0,8.697916886E0,8.243628283E-1,9.364198466E0
2.159244875E0,3.624663548E0,7.637789206E0,-3.835538118E-1,8.462926404E0
2.169190875E0,3.382066663E0,6.792924432E0,-1.514693002E0,7.737990187E0
2.179137875E0,2.653381971E0,5.754515650E0,-3.509079005E0,7.243515839E0
2.189083875E0,2.007226927E0,4.177946096E0,-1.016349459E1,1.117053337E1
2.199029875E0,4.464094504E0,-2.380050659E-1,-2.316558551E1,2.359298917E1
2.208975875E0,3.985200526E0,-8.949538947E0,-1.974454569E1,2.204139640E1
2.218921875E0,-1.762103168E0,-1.724670404E1,1.348617723E1,2.196430705E1
2.228868875E0,-8.772777033E0,-2.426913052E1,2.260940771E1,3.430943938E1
2.238814875E0,-1.062650052E1,-3.717040375E1,-1.319931399E1,4.085074440E1
2.248760875E0,-1.218362223E1,-5.830524425E1,-4.426071406E1,7.420884695E1
2.258706875E0,9.976004791E0,-4.621793618E1,1.522441177E1,4.967294042E1
2.268652875E0,1.383338957E1,-1.854477890E1,4.104823507E1,4.711930702E1
2.278599875E0,1.205543986E0,-2.410554999E0,1.060269767E1,1.093989532E1
2.288545875E0,-7.437220938E0,3.029174042E0,-7.944575654E0,1.129621321E1
2.298491875E0,-1.040155579E1,3.021603068E0,2.852422653E0,1.120083760E1
2.308437875E0,-8.035434369E0,5.295369473E0,1.175132237E1,1.518890124E1
2.318383875E0,-6.232836016E0,1.011930251E1,6.338850714E0,1.346957892E1
2.328330875E0,-7.794455409E0,9.890917279E0,7.297974175E-1,1.261413429E1
2.338276875E0,-6.147280726E0,6.936437323E0,-5.941122521E0,1.100909442E1
2.348222875E0,2.699277059E0,1.886487186E-2,-6.597063172E0,7.127951671E0
2.358168875E0,1.140844867E1,-9.416432101E0,-2.716740353E0,1.504003233E1
2.368114875E0,1.161070269E1,-1.913090146E1,1.482558605E0,2.242761217E1
2.378061875E0,1.015919455E1,-2.197807916E1,-4.445079651E0,2.461714709E1
2.388007875E0,1.837804876E0,-1.401639338E1,-4.251254393E0,1.476177409E1
2.397953875E0,-5.008954723E0,-3.468792858E0,-2.606205758E0,6.626798606E0
2.407899875E0,-4.321370695E0,4.677731007E0,-3.495646196E0,7.264637250E0
2.417845875E0,-4.405757126E0,8.988363290E0,-1.552004816E0,1.012966384E1
2.427792875E0,-3.780782159E0,1.017451776E1,-1.007933679E0,1.090096582E1
2.437738875E0,-2.936869896E0,8.567596482E0,-3.092832094E-1,9.062260776E0
2.447684875E0,-1.173633099E0,3.129051502E0,7.917340493E-1,3.434417092E0
2.457630875E0,2.746551213E-1,-3.193193119E0,-1.111509503E0,3.392251628E0
2.467576875E0,7.692346944E-1,-6.602504591E0,-5.805951852E-1,6.672471781E0
2.477523875E0,7.755840397E-1,-5.130107278E0,-1.474904015E0,5.393966364E0
2.487469875E0,8.311936918E-1,-1.599822176E0,-1.448600900E-1,1.808673103E0
2.497415875E0,1.953163863E0,8.700306058E-2,-8.751252848E-1,2.142023079E0
2.507361875E0,1.831817912E0,9.452988893E-1,-4.820087904E-1,2.116950478E0
2.517307875E0,2.752107822E0,6.325453573E-1,1.591360670E-1,2.828344989E0
2.527254875E0,2.175536983E0,7.087030023E-1,2.403948230E-1,2.300654424E0
2.537200875E0,1.844935994E0,1.909473175E0,-1.283021201E0,2.948901496E0
2.547146875E0,2.411760548E0,5.590715843E-1,6.125519729E-1,2.550366620E0
2.557092875E0,1.418250050E0,9.055465937E-2,-1.704036516E-1,1.431317839E0
2.567038875E0,6.984104410E-1,8.298859620E-1,-1.610451829E0,1.941659844E0
2.576985875E0,4.395955000E-1,4.775058496E-1,-5.605480063E-1,8.575955383E-1
2.586931875E0,1.511398242E0,-6.409419590E-1,-3.193503606E-1,1.672458040E0
2.596877875E0,4.775953851E-1,9.045285934E-1,-2.091481211E0,2.328210254E0
2.606823875E0,6.928247420E-1,7.805851632E-1,2.381114852E-1,1.070521555E0
2.616769875E0,9.145945752E-1,9.572997147E-1,1.295737141E-1,1.330298962E0
2.626716875E0,1.576151624E0,7.817891049E-1,-3.211039406E-1,1.788450695E0
2.636662875E0,7.033251719E-1,1.789837389E0,-1.251700591E0,2.294545390E0
2.646608875E0,1.344005760E0,7.288659561E-1,-9.862112725E-1,1.819398181E0
2.656554875E0,9.436802338E-1,4.513226026E-1,-2.964362919E-2,1.046471796E0
2.666500875E0,7.385729188E-1,4.724801677E-1,-1.084424615E0,1.394526518E0
2.676447875E0,4.234136230E-1,3.711333025E-1,-1.267587476E0,1.387010106E0
2.686393875E0,4.246069301E-1,5.232451093E-1,-1.255841589E0,1.425206857E0
2.696339875E0,6.627042724E-1,6.065585768E-1,-1.280201674E0,1.563971415E0
2.706285875E0,5.898713908E-1,7.992412895E-1,-7.326397491E-1,1.234299760E0
2.716231875E0,8.167601323E-1,8.517416847E-1,-1.151006860E-1,1.185668242E0
2.726177875E0,1.168604055E0,6.082168472E-1,-5.145426983E-1,1.414325761E0
2.736124875E0,1.681802917E0,5.759168279E-1,-7.410556465E-1,1.925955533E0
2.746070875E0,1.820818276E0,3.427760607E-1,-4.262555891E-1,1.901201844E0
2.756016875E0,1.708071095E0,2.081608772E-1,-4.270133883E-1,1.772901083E0
2.765962875E0,1.784140154E0,5.428420526E-1,-7.082773250E-1,1.994865999E0
2.775908875E0,2.039621817E0,8.819489855E-1,-8.663708335E-1,2.385055469E0
2.785855875E0,2.129759716E0,9.159610695E-1,-5.719997782E-1,2.387895491E0
2.795801875E0,2.125896315E0,9.910492587E-1,-5.774827123E-2,2.346262695E0
2.805747875E0,2.074275925E0,1.076266580E0,2.435721999E-1,2.349531396E0
2.815693875E0,1.701608898E0,1.175021374E0,1.723250467E-1,2.075052769E0
2.825639875E0,1.259262795E0,1.363785283E0,-3.902607143E-2,1.856657243E0
2.835586875E0,8.998435119E-1,1.543733345E0,-3.831662875E-1,1.827470216E0
2.845532875E0,5.022622298E-1,1.766354386E0,-5.463942361E-1,1.915938889E0
2.855478875E0,6.560239747E-2,1.804289367E0,-7.223995203E-1,1.944640034E0
2.865424875E0,-4.940224797E-1,1.603951480E0,-1.262099864E0,2.099908242E0
2.875370875E0,-6.951978345E-1,1.357500696E0,-1.934415058E0,2.463345243E0
2.885317875E0,-9.590379457E-1,1.023229995E0,-2.493922845E0,2.861189361E0
2.895263875E0,-9.990846486E-1,7.271503830E-1,-2.086706375E0,2.425131194E0
2.905209875E0,-6.826897632E-1,3.940362614E-1,-2.201917573E0,2.338754131E0
2.915155875E0,-3.565045922E-1,-4.646133238E-1,-2.852306879E0,2.911806243E0
2.925102875E0,-9.197572280E-1,-1.317436743E0,-2.084527702E0,2.631890703E0
2.935048875E0,-3.369178815E-1,-2.083999114E0,-2.451586080E0,3.235249646E0
2.944994875E0,-3.652341928E-1,-3.253984281E0,-2.561382172E0,4.157221229E0
2.954940875E0,-3.582023312E-1,-4.194314792E0,-2.431442422E0,4.861326746E0
2.964886875E0,-4.887032676E-1,-4.743615094E0,-1.910958368E0,5.137360891E0
2.974833875E0,-7.828709860E-1,-4.669104025E0,-1.072353623E0,4.854210715E0
2.984779875E0,-9.967191575E-1,-4.214934413E0,-9.999990070E-1,4.445123080E0
2.994725875E0,-1.215441860E0,-3.750952588E0,-2.113487792E-1,3.948621600E0
3.004671875E0,-1.722519126E0,-3.468901616E0,1.539624506E-1,3.876087589E0
3.014617875E0,-2.563052722E0,-2.843173528E0,1.094372483E0,3.981271919E0
3.024564875E0,-3.429317721E0,-2.324795641E0,8.603271514E-1,4.231436825E0
3.034510875E0,-4.118508564E0,-2.804754397E0,-1.064444971E0,5.095272625E0
3.044456875E0,-3.705424998E0,-4.628578727E0,-2.502561522E0,6.435583083E0
3.054402875E0,-1.576832386E0,-8.142998579E0,-2.324474629E0,8.613826590E0
3.064348750E0,1.815343821E0,-1.337892760E1,-4.292546260E-1,1.350834691E1
3.074295750E0,5.377108870E0,-1.768319402E1,1.749159772E0,1.856524199E1
3.084241750E0,6.443274969E0,-1.903689694E1,3.220791685E0,2.035418229E1
3.094187750E0,4.682545604E0,-1.750248465E1,4.987513568E0,1.879197950E1
3.104133750E0,2.159883986E0,-1.516901525E1,6.080387410E0,1.648439363E1
3.114079750E0,2.377755627E-1,-1.389530690E1,6.089099761E0,1.517277915E1
3.124025750E0,-1.165191181E0,-1.307448647E1,5.233649772E0,1.413120507E1
3.133972750E0,-1.083476050E0,-1.262967123E1,4.467123070E0,1.344015269E1
3.143918750E0,-1.794444995E0,-1.186235983E1,2.641919382E0,1.228476095E1
3.153864750E0,-1.405343053E0,-9.911011820E0,1.237929229E0,1.008640735E1
3.163810750E0,-6.281900588E-1,-6.960751215E0,4.682637405E-1,7.004709213E0
3.173756750E0,-1.407033483E0,-3.156424658E0,-1.211924322E0,3.662174273E0
3.183703750E0,-1.985103109E0,8.531567109E-1,-4.223532743E0,4.744126849E0
3.193649750E0,-1.248275584E0,4.372758365E0,-7.952107453E0,9.160525126E0
3.203595750E0,-6.219857244E-1,6.848766510E0,-1.344186936E1,1.509888476E1
3.213541750E0,-4.358879998E-1,9.630151926E0,-2.786325962E1,2.948374231E1
3.223488750E0,7.437335251E-1,7.798320419E0,-3.042879331E1,3.142098667E1
3.233434750E0,2.727414445E0,-4.474488223E-1,-7.915666435E0,8.384317213E0
3.243380750E0,3.946917636E0,-3.377585649E-2,1.396192306E0,4.186723371E0
3.253326750E0,5.522826161E0,4.506133354E0,5.138059491E0,8.786723049E0
3.263272750E0,4.198931753E0,8.152870433E0,6.260003350E0,1.110351143E1
3.273219750E0,1.117427177E0,1.007629740E1,6.780722462E0,1.219666389E1
3.283165750E0,2.615225673E-1,1.036305305E1,6.448779538E0,1.220852243E1
3.293111750E0,-5.714412960E-1,1.068024111E1,5.018396223E0,1.181433011E1
3.303057750E0,-1.685016108E0,1.140700557E1,3.870985401E0,1.216320613E1
3.313003750E0,-1.847003862E0,1.208887512E1,2.874666631E0,1.256248515E1
3.322950750E0,-1.239205968E0,1.288834971E1,1.886425059E0,1.308448659E1
3.332896750E0,-9.155146345E-1,1.324996959E1,1.577606850E0,1.337492821E1
3.342842750E0,-8.060258138E-1,1.317120994E1,2.171724890E0,1.337336300E1
3.352788750E0,-9.620882919E-1,1.314926300E1,2.779165227E0,1.347414155E1
3.362734750E0,-5.509685494E-1,1.310319396E1,3.606573139E0,1.360164064E1
3.372681750E0,-1.279586766E-1,1.291512645E1,5.180304455E0,1.391590525E1
3.382627750E0,-3.226663166E-1,1.197844343E1,6.170455581E0,1.347819508E1
3.392573750E0,-6.929005366E-2,1.054232166E1,6.019294531E0,1.213990337E1
3.402519750E0,2.060078959E-1,8.569195696E0,4.247478261E0,9.566327702E0
3.412465750E0,-5.752768502E-1,6.806487633E0,2.013679329E0,7.121384823E0
3.422412750E0,-1.170190112E0,5.959478100E0,-5.057010504E-1,6.094297144E0
3.432358750E0,-1.633576398E0,6.024625438E0,-2.881400285E0,6.875110989E0
3.442304750E0,-1.079741872E0,6.426985795E0,-5.181748717E0,8.326013974E0
3.452250750E0,-3.817842616E-1,6.667108138E0,-6.099431791E0,9.044288713E0
3.462196750E0,-6.599021405E-1,7.146367568E0,-3.928009787E0,8.181399705E0
3.472143750E0,-4.210642849E-1,8.132263091E0,-3.820288579E-1,8.152112864E0
3.482089750E0,4.647172581E-1,8.969846327E0,1.282066644E0,9.072915747E0
3.492035750E0,8.621553565E-1,9.677056535E0,1.635819390E0,9.852138860E0
3.501981750E0,1.251756139E0,1.024642214E1,1.273480446E0,1.040085634E1
3.511927750E0,1.609126266E0,1.062092929E1,3.944965835E-1,1.074937458E1
3.521874750E0,1.914949970E0,1.103317787E1,-4.516517278E-1,1.120723144E1
3.531820750E0,2.171381951E0,1.087874238E1,-7.473687391E-1,1.111847541E1
3.541766750E0,2.465998005E0,1.067234736E1,-2.768282390E-1,1.095704241E1
3.551712750E0,2.829675523E0,1.011669582E1,-4.974613734E-1,1.051675167E1
3.561658750E0,3.089691555E0,9.629491190E0,-9.581023912E-1,1.015830964E1
3.571605750E0,4.192195176E0,9.371138399E0,-1.147207339E0,1.032999613E1
3.581551750E0,5.708637226E0,8.893914385E0,-9.346259665E-1,1.060960780E1
3.591497750E0,6.681560116E0,8.433306988E0,-5.224017946E-1,1.077203862E1
3.601443750E0,6.954629765E0,7.997845543E0,-8.404435484E-1,1.063196848E1
3.611389750E0,5.593060577E0,7.608971204E0,-3.247454111E0,9.986226895E0
3.621336750E0,3.875414374E0,6.589386363E0,-1.103186810E1,1.342166021E1
3.631282750E0,5.298152162E0,4.057698106E0,-1.934749870E1,2.046609480E1
3.641228750E0,3.717659127E0,-8.887457889E-1,-8.683731540E0,9.487784353E0
3.651174750E0,-5.319741837E0,-8.930419137E0,8.918515960E0,1.369642165E1
3.661120750E0,-1.169989728E1,-1.805514008E1,1.803175122E1,2.807168915E1
3.671067750E0,-1.395019004E1,-2.688012047E1,3.178711028E0,3.045082729E1
3.681013750E0,-1.017244668E1,-3.594732060E1,-2.036119306E1,4.254722920E1
3.690959750E0,3.429359528E0,-4.874920519E1,-3.784331302E1,6.180907582E1
3.700905750E0,2.103899528E1,-4.622025636E1,6.810766625E0,5.123805190E1
3.710851750E0,2.148555182E1,-2.596403018E1,2.466008471E1,4.175978422E1
3.720798750E0,-1.993700124E0,-7.723106514E0,6.845982651E0,1.051136018E1
3.730744750E0,-1.415862808E1,-1.883700403E0,-5.743548612E0,1.539491562E1
3.740690750E0,-1.285250394E1,2.247859147E0,8.064019067E0,1.533845272E1
3.750636750E0,-1.108734882E1,6.435175990E0,1.357962041E1,1.867476598E1
3.760582750E0,-1.092662406E1,1.092668721E1,8.862190901E0,1.781353515E1
3.770529750E0,-1.124852849E1,1.292773772E1,2.391428171E0,1.730244851E1
3.780475750E0,-8.449166391E0,1.058161144E1,1.831051489E0,1.366424762E1
3.790421750E0,-3.797858368E0,5.178214075E0,3.434468533E0,7.282389943E0
3.800367750E0,-6.693775535E-2,4.642110354E-1,1.735268834E0,1.797534554E0
3.810313750E0,3.514100009E0,-3.783973569E0,-1.840015270E0,5.482062663E0
3.820260750E0,8.155188269E0,-9.869084945E0,-7.937993444E0,1.506378682E1
3.830206750E0,1.567132615E1,-1.635397689E1,-1.791507588E1,2.887893639E1
3.840152750E0,1.407137709E1,-2.015754857E1,-2.479643360E0,2.470787423E1
3.850098750E0,9.849013792E0,-1.803778905E1,3.306809782E0,2.081585688E1
3.860044750E0,2.518666800E0,-8.631970818E0,-2.165154959E0,9.248918783E0
3.869991750E0,-1.136760937E1,3.265830740E0,-2.761897230E0,1.214562759E1
3.879937750E0,-1.236170035E1,1.062829210E1,5.691510147E-1,1.631245418E1
3.889883750E0,-1.006510934E1,1.186613128E1,2.508320444E0,1.576081118E1
3.899829750E0,-6.536818140E0,7.123127224E0,1.026707334E0,9.722297095E0
3.909775750E0,-2.713433753E0,-6.183097261E-1,-1.782668118E0,3.304986424E0
3.919722750E0,8.578303903E-1,-6.091245689E0,-3.287491751E0,6.974722148E0
3.929668750E0,2.418256366E0,-7.240206608E0,-2.142070736E0,7.928242089E0
3.939614750E0,3.034538278E0,-4.192030869E0,-1.963239493E0,5.534966547E0
3.949560750E0,4.226129492E0,-1.799253745E0,-2.399451721E-1,4.599462817E0
3.959506750E0,4.294837784E0,-7.444879621E-1,-1.708449994E0,4.681740627E0
3.969453750E0,2.228030654E0,1.728840405E-1,-1.076924976E0,2.480680731E0
3.979399750E0,3.852142017E-2,-3.747907358E-1,-7.119306654E-1,8.054795266E-1
3.989345750E0,-1.859857796E0,3.146866214E-1,-6.125244910E-1,1.983251105E0
3.999291750E0,-9.090612088E-1,1.462471665E0,4.418191230E-1,1.777756955E0
4.009237750E0,1.257570355E-1,5.689235580E-1,2.811054772E-1,6.469228209E-1
4.019184750E0,8.023400214E-1,1.305168700E0,-1.503022690E0,2.146227400E0
4.029130750E0,1.742459447E0,3.111145574E-1,9.060424376E-1,1.988434080E0
4.039076750E0,3.033534603E0,-2.133771783E-1,5.382128119E-2,3.041505999E0
4.049022750E0,2.504759198E0,7.421157467E-1,-2.849903673E-1,2.627883926E0
4.058968750E0,2.529249383E0,-6.798089862E-2,-6.815046787E-2,2.531080467E0
4.068916583E0,1.606181315E0,3.576952314E-1,-5.526127499E-1,1.735841337E0
4.078862583E0,8.095163092E-1,8.071853167E-1,-9.893138051E-1,1.511822276E0
4.088808583E0,3.498292646E-1,6.610446864E-1,-2.337693429E-1,7.835870708E-1
4.098754583E0,3.238477466E-1,9.905154079E-1,1.009404838E-1,1.046989550E0
4.108700583E0,6.109936899E-1,1.152466325E0,5.662665832E-1,1.422023123E0
4.118647583E0,6.476057383E-1,8.144072127E-1,3.088908613E-1,1.085387426E0
4.128593583E0,6.899594602E-1,6.100938034E-1,-7.303289294E-2,9.239005948E-1
4.138539583E0,1.016929035E0,3.615976632E-1,-3.276686096E-1,1.127946918E0
4.148485583E0,1.046378829E0,2.450977385E-1,-5.237117171E-1,1.195514750E0
4.158431583E0,9.197515270E-1,3.755251461E-1,-7.105238253E-1,1.221395150E0
4.168378583E0,6.403373569E-1,3.783171916E-1,-7.948588014E-1,1.088557000E0
4.178324583E0,2.521833944E-1,3.386853486E-1,-9.325899661E-1,1.023732521E0
4.188270583E0,-4.921104401E-2,4.850312161E-1,-9.021025836E-1,1.025410200E0
4.198216583E0,-1.248927256E-1,6.381920135E-1,-8.110017943E-1,1.039524482E0
4.208162583E0,-2.961103097E-1,5.679704618E-1,-4.705207658E-1,7.947713835E-1
4.218109583E0,-3.541526958E-1,4.418647313E-1,-1.156544173E-1,5.779658441E-1
4.228055583E0,-8.295474082E-2,7.789643151E-1,1.012889779E-1,7.898900874E-1
4.238001583E0,1.937331650E-1,8.410313398E-1,-3.973715132E-1,9.501422910E-1
4.247947583E0,4.760130554E-1,5.092299181E-1,-4.963759840E-1,8.557409981E-1
4.257893583E0,7.200808069E-1,3.507569253E-1,-4.033970690E-1,8.968143534E-1
4.267840583E0,1.041270409E0,4.837962842E-1,-4.565804189E-1,1.235624777E0
4.277786583E0,1.280809200E0,5.998360330E-1,-7.254523516E-1,1.589514576E0
4.287732583E0,1.408550981E0,5.619776505E-1,-6.776765066E-1,1.661047921E0
4.297678583E0,1.334508274E0,7.449586630E-1,3.119957328E-1,1.559877265E0
4.307624583E0,1.202083458E0,9.430670071E-1,4.543222243E-1,1.593985164E0
4.317571583E0,1.314315792E0,1.057485908E0,3.761519676E-1,1.728349718E0
4.327517583E0,1.337654953E0,1.299348966E0,-4.024463117E-2,1.865274280E0
4.337463583E0,1.320403621E0,1.370925318E0,-5.705274493E-1,1.987059013E0
4.347409583E0,1.378064184E0,1.206269479E0,-3.883059901E-1,1.872145425E0
4.357355583E0,1.191096393E0,1.232267370E0,-4.902948797E-2,1.714525409E0
4.367302583E0,9.513371627E-1,1.447743698E0,-2.466004729E-2,1.732516185E0
4.377248583E0,8.384103253E-1,1.586804520E0,-2.865778863E-1,1.817417768E0
4.387194583E0,8.279382545E-1,1.483691211E0,-5.844695503E-1,1.796782128E0
4.397140583E0,6.668294100E-1,1.423229831E0,-7.644731605E-1,1.747759660E0
4.407086583E0,1.231577837E-1,1.416291525E0,-9.365192950E-1,1.702385948E0
4.417033583E0,-2.977592976E-1,1.532873896E0,-1.048550193E0,1.880909484E0
4.426979583E0,-1.983115348E-1,1.510702423E0,-1.478638632E0,2.123186633E0
4.436925583E0,-2.457818627E-2,1.315193167E0,-1.106609536E0,1.718988603E0
4.446871583E0,-8.483491302E-2,9.022861862E-1,-1.145192388E0,1.460405057E0
4.456817583E0,2.322870737E-1,6.300000644E-1,-1.415420875E0,1.566612147E0
4.466764583E0,4.250130558E-1,-1.018555731E-1,-2.018861132E0,2.065626037E0
4.476710583E0,1.086919914E-1,-8.746879131E-1,-2.284021837E0,2.448192934E0
4.486656583E0,-1.951948227E-1,-1.406899143E0,-2.091717439E0,2.528388431E0
4.496602583E0,-6.691699773E-2,-1.740201545E0,-1.077590389E0,2.047920982E0
4.506548583E0,2.199349768E-1,-2.022553648E0,-8.326879478E-1,2.198286577E0
4.516495583E0,3.925061913E-1,-2.431726597E0,-1.269165055E0,2.770944837E0
4.526441583E0,2.738834350E-1,-2.568715165E0,-1.196999304E0,2.847124351E0
4.536387583E0,-1.291313723E-2,-2.526557325E0,-1.085212235E0,2.749789858E0
4.546333583E0,-3.963174064E-1,-2.320413153E0,-8.861630738E-1,2.515287196E0
4.556279583E0,-1.039302236E0,-2.115205119E0,-1.505646336E-1,2.361548548E0
4.566226583E0,-1.930335748E0,-2.057072686E0,7.597345769E-1,2.921462094E0
4.576172583E0,-2.924445148E0,-2.067590073E0,1.733236341E0,3.978871240E0
4.586118583E0,-4.245785492E0,-2.328440210E0,8.429281765E-1,4.915165935E0
4.596064583E0,-5.440571040E0,-3.319644420E0,-1.360665209E0,6.516997938E0
4.606010583E0,-5.055485696E0,-5.283140606E0,-3.378120670E0,8.054887308E0
4.615957583E0,-2.458969067E0,-8.786681128E0,-4.503703836E0,1.017524655E1
4.625903583E0,2.059574710E0,-1.309453306E1,-1.724735659E0,1.336724942E1
4.635849583E0,5.415413979E0,-1.621326715E1,5.563266090E-1,1.710281379E1
4.645795583E0,6.423049450E0,-1.770551401E1,1.170528081E0,1.887090158E1
4.655741583E0,5.731591641E0,-1.653354254E1,3.121750961E0,1.777510902E1
4.665688583E0,4.383838546E0,-1.420999937E1,4.931808314E0,1.566731808E1
4.675634583E0,3.321452087E0,-1.283048917E1,5.445106140E0,1.432838711E1
4.685580583E0,5.226956172E-1,-1.220646496E1,5.098448698E0,1.323877550E1
4.695526583E0,-1.709234691E0,-1.275278552E1,4.807112932E0,1.373547803E1
4.705472583E0,-2.249122291E0,-1.350360544E1,3.923907380E0,1.424089042E1
4.715419583E0,-2.139463463E0,-1.315828993E1,2.239360803E0,1.351786354E1
4.725365583E0,-1.836619938E0,-1.055190876E1,1.034266468E-1,1.071105262E1
4.735311583E0,-7.229193377E-1,-6.396974376E0,-2.107502582E0,6.773880769E0
4.745257583E0,-1.442706907E-1,-2.304984689E0,-5.097903153E0,5.596640511E0
4.755203583E0,-6.116918474E-3,1.359717375E0,-7.598164964E0,7.718871652E0
4.765150583E0,-1.379511662E-1,4.599180096E0,-6.609966808E0,8.053766155E0
4.775096583E0,7.975018890E-1,6.420003051E0,-6.555730959E0,9.210323384E0
4.785042583E0,6.658410113E-1,8.928921665E0,-1.308273455E1,1.585329397E1
4.794988583E0,4.063342716E-1,1.182042477E1,-3.347711055E1,3.550499233E1
4.804934583E0,-1.678580809E0,4.485958706E0,-1.982451923E1,2.039492637E1
4.814881583E0,-2.426232845E0,7.436991727E-1,-3.410316024E0,4.250876341E0
4.824827583E0,7.625204828E-1,3.483855286E0,5.466436783E0,6.526914757E0
4.834773583E0,1.466316502E0,7.150723159E0,7.816328673E0,1.069476132E1
4.844719583E0,-2.580410620E-1,9.518109918E0,7.710850750E0,1.225227411E1
4.854665583E0,-8.283498254E-1,1.097264399E1,8.928673743E0,1.417061376E1
4.864612583E0,-4.729545231E-1,1.170686015E1,9.239171419E0,1.492101032E1
4.874558583E0,-1.555197396E0,1.160518642E1,6.337165546E0,1.331385211E1
4.884504583E0,-2.112075397E0,1.167850115E1,3.316833079E0,1.232272832E1
4.894450583E0,-1.481750812E0,1.245913952E1,1.690027757E0,1.266025027E1
4.904396583E0,-1.098060687E0,1.312524731E1,1.487971226E0,1.325488260E1
4.914343583E0,-1.148453088E0,1.314946882E1,2.417753652E0,1.341912842E1
4.924289583E0,-8.078454673E-1,1.293713069E1,3.632924201E0,1.346180163E1
4.934235583E0,-1.392593345E-1,1.285847161E1,4.761868347E0,1.371258821E1
4.944181583E0,8.117215866E-1,1.243726392E1,5.820938265E0,1.375600771E1
4.954127583E0,1.779247204E0,1.142613532E1,6.557264099E0,1.329360754E1
4.964074583E0,2.516966722E0,9.919174533E0,5.964555237E0,1.184487501E1
4.974020583E0,3.067998970E0,8.406633160E0,4.305184432E0,9.930695432E0
4.983966583E0,2.979598132E0,7.360114290E0,1.845594099E0,8.152024593E0
4.993912583E0,1.825439916E0,6.667934350E0,-1.017261230E0,6.987732092E0
5.003859583E0,-7.783836865E-1,6.726590109E0,-3.726931057E0,7.729353838E0
5.013805583E0,-2.010211930E0,7.481284386E0,-6.217880008E0,9.933408270E0
5.023751583E0,-2.119449905E0,7.978165569E0,-6.345869712E0,1.041216866E1
5.033697583E0,-1.701445615E0,8.256495958E0,-4.041453956E0,9.348689361E0
5.043643583E0,-9.134841158E-1,8.637366629E0,-1.580365420E0,8.828143087E0
5.053590583E0,-4.530656576E-1,9.075596731E0,7.533084869E-2,9.087210752E0
5.063536583E0,2.153471053E-1,9.724755197E0,1.228441536E0,9.804402411E0
5.073481875E0,1.097873284E0,1.020044899E1,1.653085194E0,1.039168784E1
5.083427875E0,1.780733274E0,1.063911413E1,1.379767624E0,1.087499513E1
5.093373875E0,2.035761924E0,1.067944822E1,6.193055069E-1,1.088937465E1
5.103320875E0,1.844253332E0,1.035244386E1,4.031723897E-1,1.052316075E1
5.113266875E0,1.914358816E0,9.975863289E0,2.380565214E-1,1.016067365E1
5.123212875E0,2.256742821E0,9.689334519E0,4.915355127E-1,9.960808137E0
5.133158875E0,2.474669426E0,9.607239611E0,5.930363059E-1,9.938547870E0
5.143104875E0,2.686130472E0,9.523689916E0,6.135264114E-2,9.895439893E0
5.153051875E0,3.250405785E0,9.107718410E0,9.793516114E-2,9.670846069E0
5.162997875E0,3.940262627E0,8.378073605E0,1.131367524E-1,9.259081316E0
5.172943875E0,4.350468486E0,7.521827810E0,-1.206236150E0,8.772654974E0
5.182889875E0,4.443616093E0,6.104047583E0,-8.842679912E0,1.162747216E1
5.192835875E0,5.462951258E0,3.054526985E0,-2.241954628E1,2.327681308E1
5.202782875E0,2.326550390E0,-4.036797819E0,-2.059656687E1,2.111698701E1
5.212728875E0,-7.233782857E0,-1.100575560E1,1.273310029E1,1.831900963E1
5.222674875E0,-1.259697711E1,-1.685249763E1,2.974801836E1,3.643672742E1
5.232620875E0,-1.524462442E1,-3.282917591E1,-3.435820175E1,4.990630614E1
5.242566875E0,-3.115895340E-2,-7.809907027E1,-8.359371285E1,1.144000637E2
5.252513875E0,1.661212678E1,-5.812916821E1,6.054833908E1,8.556321826E1
5.262459875E0,8.553010018E0,-3.006347331E1,3.706194257E1,4.848251226E1
5.272405875E0,-2.953508733E0,-7.843114184E0,-8.931682135E0,1.224796308E1
5.282351875E0,-1.530302290E1,2.234511123E0,1.399392838E1,2.085678742E1
5.292297875E0,-9.197901186E0,7.487998159E0,2.410368238E1,2.686371172E1
5.302244875E0,-9.118062134E0,1.331950000E1,2.764913809E0,1.637659567E1
5.312190875E0,-1.256965541E1,1.768142582E1,-6.097182367E0,2.253452216E1
5.322136875E0,-7.986872073E0,1.445489948E1,-6.307467538E-1,1.652670826E1
5.332082875E0,3.061123813E0,2.688873108E0,1.041617149E-1,4.075704510E0
5.342028875E0,1.196081057E1,-1.043149120E1,-6.286678348E0,1.707042245E1
5.351975875E0,1.324353649E1,-2.705450549E1,-3.045294816E0,3.027558995E1
5.361921875E0,1.224769602E1,-3.072270711E1,-2.181723045E0,3.314590028E1
5.371867875E0,4.433172966E0,-2.054613347E1,-3.102160742E0,2.124664737E1
5.381813875E0,-1.710813585E0,-4.541813064E0,-3.397217676E0,5.924190828E0
5.391759875E0,-3.880018472E0,4.048029735E0,-3.774636151E0,6.759361371E0
5.401706875E0,-3.635284722E0,8.337630168E0,-8.984299475E-1,9.139942462E0
5.411652875E0,-2.632093720E0,1.164901247E1,-3.607316905E-1,1.194811853E1
5.421598875E0,-1.252799283E0,1.300485782E1,4.148266214E-1,1.307164543E1
5.431544875E0,-1.386535483E0,1.126626543E1,4.401555902E-1,1.135979552E1
5.441490875E0,-1.855897331E0,6.518491212E0,-1.504658157E-1,6.779212532E0
5.451437875E0,-1.840136892E0,1.507104632E0,-7.141333115E-1,2.483436035E0
5.461383875E0,1.401955468E-1,-2.892939765E0,-6.655172217E-1,2.971812317E0
5.471329875E0,1.902787761E0,-6.363248806E0,-1.292141688E0,6.766178151E0
5.481275875E0,1.350703892E0,-6.403261303E0,-1.493163700E0,6.712353846E0
5.491221875E0,1.612254380E0,-2.450923591E0,-1.425626605E0,3.261717623E0
5.501168875E0,3.130575287E0,1.053082370E0,-8.482052886E-1,3.410122625E0
5.511114875E0,3.301314276E0,2.539574397E0,-1.283914071E-1,4.167085123E0
5.521060875E0,3.290815308E0,2.680801612E0,8.588016129E-1,4.330554570E0
5.531006875E0,2.533944990E0,2.166955901E0,-6.449397004E-1,3.395956759E0
5.540952875E0,1.415575534E0,1.106132403E0,1.458968014E-1,1.802406409E0
5.550899875E0,1.820680282E0,-1.311588943E-1,6.039565659E-1,1.922717576E0
5.560845875E0,1.748944009E0,1.568480515E-1,-1.898262894E0,2.585886400E0
5.570791875E0,1.425842367E0,7.585616255E-1,-1.187744915E-2,1.615110916E0
5.580737875E0,2.040679725E0,-1.689512032E-1,3.144767064E-1,2.071669338E0
5.590683875E0,6.822589695E-1,-2.405912894E-1,-1.611789088E0,1.766699050E0
5.600630875E0,-3.684975238E-1,1.040968693E0,-6.345819426E-1,1.273617088E0
5.610576875E0,-3.349992273E-1,7.988103497E-1,1.564954644E-1,8.802347911E-1
5.620522875E0,-4.040902929E-1,6.780594993E-1,-1.658124179E-1,8.065651910E-1
5.630468875E0,-3.831664703E-1,1.033230488E0,-6.417184693E-1,1.275219345E0
5.640414875E0,1.778829348E-1,1.747249194E0,3.086107796E-1,1.783188912E0
5.650361875E0,1.099194097E0,1.177324008E0,-1.772788078E-1,1.620415767E0
5.660307875E0,1.185178719E0,7.368409735E-1,-5.709917182E-1,1.507851040E0
5.670253875E0,9.841159227E-1,5.435460573E-1,2.905598402E-2,1.124620254E0
5.680199875E0,9.787646972E-1,3.366195273E-1,-5.237520629E-1,1.160003992E0
5.690145875E0,9.789295886E-1,-3.766308546E-2,-7.570629841E-1,1.238089661E0
5.700092875E0,9.854088152E-1,-3.474865776E-1,-6.322027105E-1,1.221252522E0
5.710038875E0,7.939665163E-1,-5.595218199E-1,-7.326227921E-1,1.216627984E0
5.719984875E0,5.886353625E-1,-4.558489323E-1,-5.708490461E-1,9.381676143E-1
5.729930875E0,4.343902355E-1,-1.638576937E-1,-3.170933354E-1,5.622209564E-1
5.739876875E0,3.218898064E-1,7.029230297E-2,-2.495591640E-1,4.133204951E-1
5.749823875E0,9.213245742E-2,-1.073314905E-2,-5.267551929E-1,5.348594427E-1
5.759769875E0,-1.340552029E-1,-1.286825985E-1,-8.419657248E-1,8.622275166E-1
5.769715875E0,-2.392898819E-1,-2.498298901E-1,-7.175533479E-1,7.965911302E-1
5.779661875E0,-1.889646510E-1,-3.801970714E-1,-5.427905971E-1,6.891147109E-1
5.789607875E0,-2.061996480E-1,-4.563529623E-1,-6.616258997E-1,8.297741573E-1
5.799554875E0,-2.322544024E-1,-3.568228269E-1,-6.526936930E-1,7.792776746E-1
5.809500875E0,1.544278890E-2,-1.682869595E-1,-4.909404123E-1,5.192123543E-1
5.819446875E0,3.816639186E-1,3.304261565E-3,-2.957433969E-1,4.828482388E-1
5.829392875E0,4.163813961E-1,-1.529561448E-1,-5.421819019E-1,7.005214229E-1
5.839338875E0,2.927522172E-1,-3.092738539E-1,-5.161191076E-1,6.691286204E-1
5.849285875E0,3.059418181E-1,-1.652469921E-1,-2.782409263E-1,4.453369258E-1
5.859231875E0,5.905398372E-1,-7.938296914E-2,-5.509340143E-1,8.115215605E-1
5.869177875E0,7.429998457E-1,-1.467651129E-4,-4.634976751E-1,8.757162138E-1
5.879123875E0,8.157228363E-1,2.509484625E-1,-4.480206800E-1,9.638990643E-1
5.889069875E0,9.762419891E-1,5.219897121E-1,-3.890708059E-1,1.173412874E0
5.899016875E0,9.846208298E-1,6.972944999E-1,-3.737060773E-1,1.263073248E0
5.908962875E0,1.106684892E0,7.597889560E-1,-3.893175584E-1,1.397712012E0
5.918908875E0,1.076436880E0,9.462227494E-1,-2.044484800E-1,1.447706126E0
5.928854875E0,1.104722932E0,1.166047068E0,-3.927785254E-1,1.653588065E0
5.938800875E0,1.043740639E0,1.315995405E0,-7.871761447E-1,1.854962185E0
5.948747875E0,1.011713684E0,1.432278982E0,-8.496641690E-1,1.948567900E0
5.958693875E0,1.086224169E0,1.626510038E0,-7.534131521E-1,2.095960216E0
5.968639875E0,1.045176934E0,1.823864676E0,-4.901182938E-1,2.158493252E0
5.978585875E0,1.096181392E0,2.008701010E0,-6.642360967E-1,2.382793105E0
5.988531875E0,1.214734640E0,2.092037281E0,-9.981863701E-1,2.616978460E0
5.998478875E0,1.308549268E0,2.160953150E0,-9.700495684E-1,2.706107143E0
6.008424875E0,1.252387346E0,2.072318716E0,-1.244593300E0,2.722497274E0
6.018370875E0,1.223172830E0,2.100962471E0,-1.168221062E0,2.697208840E0
6.028316875E0,1.049455488E0,2.269734750E0,-1.025267165E0,2.702633052E0
6.038262875E0,1.163863863E0,2.216078360E0,-1.310737588E0,2.825529228E0
6.048209875E0,1.075546130E0,2.333845376E0,-8.231756973E-1,2.698379504E0
6.058155875E0,9.278155683E-1,2.369372474E0,-1.030051357E0,2.745136326E0
6.068101833E0,1.077137669E0,2.218829475E0,-1.485276391E0,2.879144969E0
6.078047833E0,1.141868465E0,2.273460011E0,-1.024187184E0,2.742525005E0
6.087993833E0,1.098681808E0,2.261643957E0,-7.685738128E-1,2.629228178E0
6.097940833E0,1.074612695E0,2.175130309E0,-1.090208681E0,2.659800607E0
6.107886833E0,1.105030057E0,1.823201017E0,-1.369655887E0,2.533991047E0
6.117832833E0,9.102658814E-1,1.242900531E0,-1.377822694E0,2.066828750E0
6.127778833E0,6.616049959E-1,6.635256600E-1,-1.490500293E0,1.760562012E0
6.137724833E0,5.629498963E-1,-8.789534569E-3,-1.599966018E0,1.696137111E0
6.147671833E0,6.567784117E-1,-9.375747174E-1,-9.006589061E-1,1.456568123E0
6.157617833E0,1.843175398E-1,-2.241352365E0,-8.368798167E-1,2.399583549E0
6.167563833E0,-4.912473180E-1,-3.997156620E0,-9.183020023E-1,4.130600869E0
6.177509833E0,-1.238015475E0,-5.860126889E0,-1.212202649E0,6.110908667E0
6.187455833E0,-1.789388030E0,-6.242069939E0,3.346735740E-1,6.502103741E0
6.197402833E0,-2.314826430E0,-4.817242649E0,3.390676688E0,6.329370944E0
6.207348833E0,-2.743106033E0,-3.019741314E0,4.770117306E0,6.276741785E0
6.217294833E0,-3.711044172E0,-1.543726913E0,2.962304115E0,4.993013849E0
6.227240833E0,-4.728127281E0,-9.197027028E-1,-5.811793220E-1,4.851681158E0
6.237187833E0,-4.233058150E0,-1.769731738E0,-2.944140324E0,5.451485483E0
6.247133833E0,-2.575131607E0,-5.818249716E0,-1.652436592E0,6.573726435E0
6.257079833E0,-2.902926042E-1,-1.363730319E1,1.787250873E0,1.375698273E1
6.267025833E0,4.279893470E0,-2.121801363E1,5.627598910E0,2.236496054E1
6.276971833E0,4.848697160E0,-2.372147563E1,6.394571171E0,2.504214069E1
6.286918833E0,3.779430867E0,-2.256232593E1,6.808009079E0,2.386821394E1
6.296864833E0,3.702406373E0,-2.036672686E1,5.797266397E0,2.149696894E1
6.306810833E0,2.493078800E0,-1.837727722E1,4.539611002E0,1.909313563E1
6.316756833E0,1.060931964E0,-1.661719281E1,3.001457655E0,1.691938006E1
6.326702833E0,1.008635929E-1,-1.453241718E1,1.079600662E0,1.457281237E1
6.336649833E0,-1.476951125E-1,-1.143909977E1,-2.703974712E-1,1.144324832E1
6.346595833E0,-3.340101343E-1,-8.162202589E0,-1.098094236E0,8.242507193E0
6.356541833E0,-8.299317896E-1,-4.808273605E0,-2.258937281E0,5.376902405E0
6.366487833E0,-1.274772388E0,-1.535781716E0,-4.934913771E0,5.323255023E0
6.376433833E0,-1.780677726E0,1.879365277E0,-8.140752663E0,8.542521930E0
6.386380833E0,-1.717776888E0,3.981977833E0,-9.366866423E0,1.032206818E1
6.396326833E0,-2.550720651E0,5.785937417E0,-1.248497954E1,1.399492629E1
6.406272833E0,-5.893253705E0,8.818351986E0,-1.984032309E1,2.249738187E1
6.416218833E0,-8.058784640E0,8.102706585E0,-1.995498465E1,2.299563602E1
6.426164833E0,-2.842937008E0,2.289927524E0,-1.246878041E1,1.299217241E1
6.436111833E0,5.987634344E-1,8.934411031E-1,-4.333302523E0,4.464780556E0
6.446057833E0,8.411488688E-1,3.880311710E0,2.337215127E0,4.607268706E0
6.456003833E0,-4.768006023E-1,6.061678074E0,5.304416285E0,8.068959785E0
6.465949833E0,-5.522936381E-1,7.524161434E0,7.176764903E0,1.041268400E1
6.475895833E0,-5.809251874E-1,9.552038972E0,8.364622085E0,1.271006787E1
6.485842833E0,-1.190310308E0,1.095303009E1,8.742758013E0,1.406490400E1
6.495788833E0,-2.003978506E0,1.212418996E1,7.839088376E0,1.457611809E1
6.505734833E0,-2.481378229E0,1.322281629E1,6.450360625E0,1.492002885E1
6.515680833E0,-2.490282369E0,1.410760293E1,4.597374476E0,1.504532548E1
6.525626833E0,-2.144752854E0,1.485190086E1,2.962198280E0,1.529553996E1
6.535573833E0,-1.787756950E0,1.515288161E1,2.221936247E0,1.541891360E1
6.545519833E0,-1.322848634E0,1.518036352E1,2.306371210E0,1.541144748E1
6.555465833E0,-5.484764296E-1,1.489123742E1,2.917034386E0,1.518416504E1
6.565411833E0,4.064279732E-1,1.394491234E1,2.992347693E0,1.426814314E1
6.575357833E0,1.008399994E0,1.202611578E1,3.052814920E0,1.244845413E1
6.585304833E0,1.821784529E0,9.614283752E0,3.111802801E0,1.026823586E1
6.595250833E0,2.995012270E0,7.653314148E0,2.832447395E0,8.692874910E0
6.605196833E0,3.836529513E0,7.118586277E0,2.234162629E0,8.389559699E0
6.615142833E0,2.956765924E0,7.076276994E0,1.365509919E0,7.789786785E0
6.625088833E0,3.201835889E-1,7.216806051E0,3.731366316E-1,7.233535654E0
6.635035833E0,-1.508405345E0,7.985162932E0,-8.460438654E-1,8.170306234E0
6.644981833E0,-2.010601647E0,8.873223428E0,-1.781508615E0,9.270943098E0
6.654927833E0,-1.174283748E0,9.364955553E0,-1.246197191E0,9.520207050E0
6.664873833E0,2.386154787E-1,9.611119823E0,-4.550538571E-1,9.624844706E0
6.674819833E0,2.335267200E-1,9.665473786E0,-1.484677490E-1,9.669434363E0
6.684766833E0,4.271008042E-1,9.912700496E0,-2.018213260E-1,9.923949721E0
6.694712833E0,9.407398152E-1,9.709083490E0,-1.413879987E0,9.856487723E0
6.704658833E0,1.537434139E0,9.718486982E0,-2.206540382E0,1.008372518E1
6.714604833E0,2.263893089E0,9.687493231E0,-1.834168639E0,1.011617080E1
6.724550833E0,3.030971184E0,9.533357702E0,-1.192532616E0,1.007441460E1
6.734497833E0,3.288002213E0,9.496995038E0,-3.724594510E-1,1.005696770E1
6.744443833E0,3.774362501E0,9.235125731E0,1.380716188E-1,9.977596069E0
6.754389833E0,4.316544403E0,8.771260850E0,-5.654944584E-2,9.776030397E0
6.764335833E0,4.602222987E0,8.198678690E0,-1.281047620E0,9.488934170E0
6.774282833E0,4.930855803E0,7.503709043E0,-4.658591316E0,1.011540713E1
6.784228833E0,5.485474733E0,5.982639506E0,-1.285981413E1,1.520714398E1
6.794174833E0,6.397650899E0,2.456302444E0,-1.847059996E1,1.970092438E1
6.804120833E0,4.207916877E0,-3.436881094E0,-9.022166044E0,1.053177080E1
6.814066833E0,-4.967082812E0,-8.554353708E0,1.301405315E1,1.634669564E1
6.824013833E0,-1.157816410E1,-1.132073809E1,2.112309695E1,2.661575134E1
6.833959833E0,-1.511993956E1,-2.008244459E1,6.628163928E0,2.599710965E1
6.843905833E0,-1.729396241E1,-4.183439555E1,-3.866182030E1,5.953095108E1
6.853851833E0,7.794882841E0,-5.716821808E1,-3.196125498E1,6.595822296E1
6.863797833E0,2.241592569E1,-4.384010746E1,2.710949972E1,5.620812861E1
6.873744833E0,1.384960390E1,-2.137768940E1,1.386308875E1,2.900004072E1
6.883690833E0,4.891678289E0,-5.119687539E0,-2.436153524E0,7.488294931E0
6.893636833E0,-9.574300491E0,-1.985877573E0,2.832163221E-1,9.782185396E0
6.903582833E0,-1.223116243E1,-1.171787864E-1,1.135939754E1,1.669284211E1
6.913528833E0,-9.325146539E0,4.736689067E-1,6.735362102E0,1.151294154E1
6.923475833E0,-9.506203233E0,1.928160292E0,5.691936409E0,1.124650355E1
6.933421833E0,-9.043852782E0,2.277633753E0,4.231467415E0,1.024129900E1
6.943367833E0,-6.724839453E0,1.020347902E0,1.717392141E0,7.015269864E0
6.953313833E0,-4.516801014E0,6.922284722E-2,1.490001526E0,4.756720272E0
6.963259833E0,-1.208495076E0,1.958232522E-2,1.597592048E0,2.003283347E0
6.973206833E0,1.847331599E0,4.352380818E-1,3.035108382E-1,1.922026288E0
6.983152833E0,4.756606730E0,2.819702804E-1,-2.603938208E0,5.430037662E0
6.993098833E0,6.452220039E0,-7.838139957E-1,-3.853178875E0,7.555957600E0
7.003044833E0,6.797589340E0,-2.283635336E0,-3.799094469E0,8.115129695E0
7.012990833E0,5.505841169E0,-3.350849256E0,-2.219424722E0,6.816767842E0
7.022937833E0,3.291760511E0,-4.272271040E0,-1.627220474E0,5.633456627E0
7.032883833E0,-3.780803794E-1,-5.738659170E0,-3.428226630E0,6.695363446E0
7.042829833E0,-2.356516639E0,-5.800729119E0,-3.173892630E0,7.019631287E0
7.052775833E0,-3.360156854E0,-3.576276376E0,-1.715367835E0,5.198354895E0
7.062721833E0,-4.014441574E0,-3.090037125E-1,-1.192274753E0,4.199136046E0
7.072669750E0,-4.010500551E0,2.246061713E0,2.957550913E-1,4.606124071E0
7.082615750E0,-3.083390595E0,3.372483954E0,1.870044231E0,4.937409342E0
7.092561750E0,-2.104987256E0,3.762273967E0,2.096247277E0,4.793738562E0
7.102507750E0,-1.101352304E0,3.845966334E0,2.954152511E0,4.973072592E0
7.112453750E0,-8.373695210E-2,3.789730153E0,2.987062395E0,4.826138028E0
7.122400750E0,-2.705198242E-1,4.281593841E0,2.820500949E0,5.134243118E0
7.132346750E0,-4.859034745E-1,4.333351055E0,3.353109205E0,5.500670404E0
7.142292750E0,9.044582807E-2,3.502798510E0,3.651755159E0,5.060938015E0
7.152238750E0,5.625500929E-1,2.641341677E0,3.353790990E0,4.305933402E0
7.162184750E0,2.189241979E0,1.002670600E0,-1.142003902E0,2.665014388E0
7.172131750E0,8.740137291E0,-4.489674611E0,-1.913323099E1,2.150878207E1
7.182077750E0,1.084000224E1,-1.264430798E1,-1.266749219E1,2.092485439E1
7.192023750E0,2.993426212E0,-1.385468396E1,4.589992366E0,1.489902339E1
7.201969750E0,-2.857516163E0,-2.099857932E0,4.496238695E0,5.726339526E0
7.211915750E0,-6.832089082E0,4.084212306E0,-2.997133639E0,8.505353692E0
7.221862750E0,-5.421496253E0,4.428191723E0,-8.806304383E-1,7.055282668E0
7.231808750E0,-2.961934571E0,5.323467098E0,9.383880651E-1,6.163840564E0
7.241754750E0,-7.115353936E-1,4.051348030E0,9.240103465E-1,4.215862735E0
7.251700750E0,7.652248201E-1,1.010226957E0,3.765665352E-2,1.267890197E0
7.261646750E0,1.028214746E0,-6.158568192E-1,-1.702588745E0,2.082141595E0
7.271593750E0,1.557083123E0,-1.287689618E0,-7.455065471E-1,2.153702026E0
7.281539750E0,2.868430283E0,-1.642498664E0,-2.088800848E-2,3.305469779E0
7.291485750E0,2.984812094E0,-1.194383259E0,-3.355436397E-1,3.232374382E0
7.301431750E0,1.914041897E0,-3.488402081E-1,-5.028775030E-1,2.009510303E0
7.311377750E0,6.669018424E-1,-1.491215408E-2,-5.759045488E-1,8.812754898E-1
7.321324750E0,-4.155560616E-1,3.363002694E-1,-9.275613606E-2,5.425757203E-1
7.331270750E0,-2.877560820E-1,8.763093460E-1,4.886833870E-1,1.043807015E0
7.341216750E0,2.329387459E-1,1.195655029E0,5.152893877E-1,1.322639240E0
7.351162750E0,8.711784142E-1,6.988913745E-1,3.658795792E-1,1.175273946E0
7.361108750E0,8.415333232E-1,7.204231614E-1,-4.085022730E-1,1.180704016E0
7.371055750E0,1.500882317E0,4.212223059E-1,-3.285024226E-2,1.559216181E0
7.381001750E0,1.766659026E0,-3.001609683E-2,-7.951359594E-1,1.937582585E0
7.390947750E0,1.672137616E0,7.333460927E-2,-1.685085690E-1,1.682206084E0
7.400893750E0,1.183117721E0,1.931487358E-1,-1.685044760E-1,1.210565048E0
7.410839750E0,7.398853263E-1,1.595664221E-1,-1.364845383E-1,7.691032235E-1
7.420786750E0,3.836764571E-1,2.623300678E-1,-1.425650579E-1,4.861578796E-1
7.430732750E0,1.265486571E-1,2.428167397E-1,-6.149288660E-1,6.731359758E-1
7.440678750E0,1.195577352E-1,2.702015895E-1,-6.349766296E-1,7.003558175E-1
7.450624750E0,-1.506477098E-2,2.248728043E-1,-3.703831047E-1,4.335647237E-1
7.460570750E0,-8.197416276E-2,2.520366293E-1,-8.659667909E-2,2.788211088E-1
7.470517750E0,-5.435513198E-2,4.689847022E-1,-9.588030338E-2,4.817615218E-1
7.480463750E0,-1.027876192E-1,4.264824611E-1,-2.647356123E-1,5.123841612E-1
7.490409750E0,-6.455092192E-2,3.043791497E-1,-3.579846686E-1,4.743063475E-1
7.500355750E0,1.682998234E-1,3.481473130E-1,-4.364858776E-1,5.831391802E-1
7.510301750E0,4.526893893E-1,1.839083809E-1,-6.357817912E-1,8.018531423E-1
7.520248750E0,5.440784463E-1,-1.517849475E-1,-2.948511118E-1,6.371790990E-1
7.530194750E0,2.435517347E-1,-2.745630276E-1,2.338301539E-3,3.670255730E-1
7.540140750E0,4.780655195E-2,-1.239738357E-1,-1.865992695E-1,2.290726211E-1
7.550086750E0,1.854792354E-1,3.736253858E-2,-5.027775156E-1,5.371999035E-1
7.560033750E0,4.198327151E-1,6.897843361E-2,-3.784452456E-1,5.694192980E-1
7.569979750E0,3.920897233E-1,2.482429558E-1,-3.803321421E-1,6.000095454E-1
7.579925750E0,3.383146352E-1,3.310518086E-1,-4.140097654E-1,6.288530656E-1
7.589871750E0,3.449760390E-1,4.325501168E-1,-3.254507607E-1,6.418927237E-1
7.599817750E0,3.739238861E-1,6.291463709E-1,-2.955241263E-1,7.892900214E-1
7.609764750E0,5.174882331E-1,7.986255777E-1,-2.454789770E-1,9.827801448E-1
7.619710750E0,6.295773107E-1,9.238419467E-1,-3.520772266E-1,1.172096372E0
7.629656750E0,6.262598929E-1,9.934319991E-1,-5.849326497E-1,1.311966004E0
7.639602750E0,5.880358402E-1,1.134508356E0,-8.115321368E-1,1.513763445E0
7.649548750E0,5.877379245E-1,1.245572709E0,-8.734564894E-1,1.630893461E0
7.659495750E0,5.309083240E-1,1.349470714E0,-9.362772202E-1,1.726137275E0
7.669441750E0,5.451343073E-1,1.380669703E0,-1.086810279E0,1.839721942E0
7.679387750E0,4.195288061E-1,1.495604328E0,-1.143579726E0,1.928888622E0
7.689333750E0,4.829058994E-1,1.469540949E0,-1.602877346E0,2.227546744E0
7.699279750E0,4.954599445E-1,1.553653731E0,-1.328217255E0,2.103207443E0
7.709226750E0,7.005883095E-1,1.642033226E0,-1.819459968E0,2.549025632E0
7.719172750E0,9.148662514E-1,1.456611001E0,-2.368072638E0,2.926852214E0
7.729118750E0,1.199041882E0,1.293823932E0,-1.774231755E0,2.501915291E0
7.739064750E0,1.788316236E0,1.055087380E0,-1.417767363E0,2.514229232E0
7.749010750E0,2.074692247E0,7.759360421E-1,-1.210215181E0,2.524092994E0
7.758957750E0,2.122644532E0,5.222212619E-1,-1.196748458E0,2.492095850E0
7.768903750E0,1.809983971E0,3.376305109E-1,-5.676389247E-1,1.926720085E0
7.778849750E0,8.002534425E-1,-3.013421059E-2,-5.304898095E-1,9.605899650E-1
7.788795750E0,2.361105680E-2,-3.535899013E-1,-8.271295846E-1,8.998481261E-1
7.798741750E0,-5.376329143E-1,-6.187149382E-1,2.873479646E-1,8.685770997E-1
7.808688750E0,-1.030243438E0,-8.078226632E-1,9.585270452E-1,1.622576067E0
7.818634750E0,-1.201469062E0,-1.136143237E0,2.250844735E-1,1.668835637E0
7.828580750E0,-1.355072347E0,-1.549330299E0,9.048390806E-2,2.060299197E0
7.838526750E0,-1.734002473E0,-1.967968136E0,1.519786658E0,3.031404731E0
7.848472750E0,-2.282067697E0,-2.364294167E0,3.469997385E0,4.778974967E0
7.858419750E0,-3.140054500E0,-2.588709134E0,4.332672485E0,5.944191124E0
7.868365750E0,-4.987484332E0,-3.070706230E0,2.350607589E0,6.311069066E0
7.878311750E0,-5.913832980E0,-4.320241013E0,-1.799639077E0,7.541657890E0
7.888257750E0,-4.380460609E0,-6.698219419E0,-3.679559255E0,8.808730603E0
7.898203750E0,-1.523956015E0,-1.115276864E1,-2.984762685E0,1.164540675E1
7.908150750E0,2.105402555E0,-1.639070559E1,4.851013827E-1,1.653249143E1
7.918096750E0,5.807142345E0,-1.907985761E1,3.366545814E0,2.022615879E1
7.928042750E0,5.400183152E0,-1.889941487E1,3.708822522E0,2.000263045E1
7.937988750E0,4.920505646E0,-1.813744315E1,4.557207905E0,1.933769282E1
7.947934750E0,3.631968182E0,-1.772254110E1,4.779836256E0,1.871166723E1
7.957881750E0,1.065887553E0,-1.827228111E1,3.886529931E0,1.871142667E1
7.967827750E0,-6.823289169E-1,-1.790935730E1,2.356846422E0,1.807665281E1
7.977773750E0,-1.155121107E0,-1.529224882E1,7.025267346E-1,1.535189639E1
7.987719750E0,-1.033516855E0,-1.203181799E1,-3.146537308E-1,1.208022384E1
7.997665750E0,-6.398633670E-1,-8.302094885E0,-9.625568732E-1,8.382166804E0
8.007612750E0,-4.715218091E-1,-4.369167590E0,-1.567208161E0,4.665629611E0
8.017558750E0,-8.099416941E-1,-7.138924062E-1,-2.915866113E0,3.109328401E0
8.027504750E0,-9.257481390E-1,2.850735147E0,-5.812046404E0,6.539387120E0
8.037450750E0,-2.042292094E-1,6.038935329E0,-9.192273826E0,1.100037943E1
8.047396750E0,4.402476838E-1,7.110631725E0,-1.049351729E1,1.268340675E1
8.057343750E0,-1.140245351E0,8.035204573E0,-1.481235731E1,1.688995563E1
8.067289000E0,-4.250982497E0,9.138088263E0,-2.250308194E1,2.465693019E1
8.077235000E0,-3.470735303E0,5.453731953E0,-1.472973615E1,1.608584231E1
8.087181000E0,-3.640327361E-1,2.370057768E0,-8.029402966E0,8.379797470E0
8.097127000E0,-1.208736420E-1,4.109780425E0,-2.038229449E0,4.589039646E0
8.107074000E0,-1.315807855E0,6.939976643E0,3.280731200E0,7.788313253E0
8.117020000E0,2.703122480E-1,8.426431248E0,5.948858972E0,1.031827192E1
8.126966000E0,9.852869739E-1,9.864258653E0,7.925222540E0,1.269186911E1
8.136912000E0,8.081339543E-1,1.112694499E1,9.146591284E0,1.442643814E1
8.146859000E0,4.598908201E-3,1.213314790E1,9.351467196E0,1.531872180E1
8.156805000E0,-5.744189905E-1,1.308006822E1,8.173448539E0,1.543448745E1
8.166751000E0,-8.317418683E-1,1.380379564E1,5.823556648E0,1.500501185E1
8.176697000E0,-1.210957777E0,1.433847206E1,3.800022422E0,1.488282131E1
8.186643000E0,-2.229707927E0,1.433325634E1,2.419512202E0,1.470604889E1
8.196590000E0,-2.604190515E0,1.359795728E1,2.263800995E0,1.402893600E1
8.206536000E0,-1.695668566E0,1.272867745E1,2.965751048E0,1.317915782E1
8.216482000E0,-5.133674079E-1,1.181121540E1,2.911817501E0,1.217567397E1
8.226428000E0,7.287794630E-2,1.071778257E1,1.947621141E0,1.089354866E1
8.236374000E0,2.764148408E-1,9.210121282E0,4.244516500E-1,9.224039159E0
8.246321000E0,1.117519855E0,7.669211558E0,-7.358158104E-1,7.785055007E0
8.256267000E0,2.234930076E0,6.937412054E0,-1.328117852E0,7.408542062E0
8.266213000E0,3.009567451E0,7.120645666E0,-8.415195823E-1,7.776197410E0
8.276159000E0,1.919153826E0,8.022721937E0,3.207548618E-1,8.255307527E0
8.286105000E0,5.631739908E-1,9.183522298E0,9.714447141E-1,9.251916103E0
8.296052000E0,-1.415446310E0,9.971750357E0,1.167116670E-1,1.007238378E1
8.305998000E0,-6.546545568E-1,1.041179310E1,-7.126025105E-1,1.045666344E1
8.315944000E0,3.925724110E-1,1.022591713E1,-5.050789797E-1,1.024590645E1
8.325890000E0,7.749718362E-1,1.006687052E1,-1.881400108E-2,1.009667358E1
8.335836000E0,4.740463445E-1,1.007472684E1,-8.315208435E-2,1.008621610E1
8.345783000E0,6.146644257E-1,1.058600855E1,-1.819078291E-1,1.060539862E1
8.355729000E0,1.099780353E0,1.053242583E1,-7.766304720E-1,1.061812910E1
8.365675000E0,1.721835733E0,1.010405881E1,-1.005847319E0,1.029895391E1
8.375621000E0,2.295218670E0,9.780806022E0,-8.491980728E-1,1.008232773E1
8.385568000E0,2.408635358E0,9.505398656E0,-3.021441977E-1,9.810474964E0
8.395514000E0,2.690071495E0,9.373455065E0,4.261006379E-1,9.761132427E0
8.405460000E0,3.079555114E0,9.163644104E0,9.296700127E-1,9.711864872E0
8.415406000E0,3.393500016E0,8.827490015E0,8.345904855E-1,9.494048852E0
8.425352000E0,3.886629626E0,8.302385491E0,-1.647095160E0,9.313883034E0
8.435299000E0,4.980592219E0,6.607533197E0,-1.228199696E1,1.480922831E1
8.445245000E0,7.342120069E0,8.988889539E-1,-2.740154242E1,2.838237579E1
8.455191000E0,-1.723917049E-1,-9.357784528E0,-1.017796528E1,1.382710481E1
8.465137000E0,-7.875177391E0,-1.615408397E1,1.873896610E1,2.596385369E1
8.475083000E0,-1.310852077E1,-2.601138795E1,1.039200612E1,3.092603128E1
8.485030000E0,-1.703244803E1,-3.841082974E1,-6.502476858E0,4.251797658E1
8.494976000E0,-7.908381389E0,-3.666782855E1,-1.557004068E1,4.061401622E1
8.504922000E0,3.969776156E0,-2.782872128E1,-2.474590079E1,3.745072038E1
8.514868000E0,1.554348497E1,-3.558478153E1,1.391872383E1,4.125054515E1
8.524814000E0,1.353731113E1,-1.582473838E1,2.754255387E1,3.452931235E1
8.534761000E0,1.090113371E1,-9.321753985E-1,-2.978600889E-2,1.094095765E1
8.544707000E0,-4.458755119E0,-1.754334850E0,4.730154803E0,6.732945302E0
8.554653000E0,-1.092760522E1,6.206351638E-2,1.203277459E1,1.625435548E1
8.564599000E0,-1.140591097E1,2.405122350E0,1.071081386E1,1.583038067E1
8.574545000E0,-1.309826358E1,3.848670087E0,6.473261830E0,1.510893408E1
8.584492000E0,-1.345587345E1,4.714057419E0,1.229018072E0,1.431060282E1
8.594438000E0,-9.303979619E0,3.128673187E0,-7.781020262E0,1.252584963E1
8.604384000E0,-7.613615647E-1,-3.025624198E0,-1.270167501E1,1.307924391E1
8.614330000E0,9.907701126E0,-1.110927237E1,-2.751976259E0,1.513776230E1
8.624276000E0,1.414423691E1,-1.591152509E1,1.327905014E0,2.133071495E1
8.634223000E0,8.861629568E0,-1.493638377E1,-3.300304754E0,1.767812349E1
8.644169000E0,4.163456111E0,-9.615005883E0,-9.993154675E-1,1.052527132E1
8.654115000E0,-1.900416715E-1,-3.011345882E0,-1.517488117E0,3.377438385E0
8.664061000E0,-3.154240723E0,4.082610168E0,-2.048256839E0,5.550882489E0
8.674007000E0,-1.155550877E0,8.619548408E0,9.099594873E-1,8.744137400E0
8.683954000E0,9.662694897E-1,9.752296168E0,7.257429582E-1,9.826884558E0
8.693900000E0,1.582018282E0,8.894687387E0,8.823448420E-3,9.034285993E0
8.703846000E0,1.337478660E0,6.599962807E0,2.302048802E-2,6.734158311E0
8.713792000E0,7.253327760E-1,3.345524781E0,-7.333063316E-1,3.500911578E0
8.723738000E0,6.637000532E-1,2.450614858E-1,-9.160809374E-1,1.157478802E0
8.733685000E0,7.261203229E-1,-2.166568816E0,-4.896136791E-1,2.336876700E0
8.743631000E0,1.020780304E0,-2.951052318E0,5.365054250E-1,3.168365554E0
8.753577000E0,9.919723148E-1,-2.601391160E0,-2.499181831E-1,2.795300367E0
8.763523000E0,5.639274046E-2,-1.587807902E0,-5.059069455E-2,1.589614259E0
8.773469000E0,2.985627781E-1,-4.542345160E-1,-1.541435389E0,1.634469879E0
8.783416000E0,7.960384771E-1,5.757671392E-1,-3.132879674E-1,1.031181073E0
8.793362000E0,8.862305360E-1,8.103486603E-1,-3.189240986E-1,1.242490280E0
8.803308000E0,5.923887999E-1,8.706404704E-1,-4.473231071E-1,1.144131671E0
8.813254000E0,6.097238208E-1,3.321148324E-1,5.439559472E-1,8.820155736E-1
8.823200000E0,1.174425177E0,-2.749939674E-1,-1.434700314E0,1.874369540E0
8.833147000E0,9.360703750E-1,2.631492627E-1,1.107480186E-1,9.786421231E-1
8.843093000E0,1.502257436E0,2.369087130E-1,6.380540192E-2,1.522161053E0
8.853039000E0,1.210279938E0,3.376731956E-1,-2.792578155E0,3.062236678E0
8.862985000E0,8.277382797E-1,4.033374274E-1,-2.784455788E-1,9.619582529E-1
8.872932000E0,7.460583050E-1,-1.732056373E-1,-3.071665174E-1,8.251996465E-1
8.882878000E0,-4.244002676E-1,5.188667142E-1,-1.699756354E0,1.827158974E0
8.892824000E0,-1.194909947E-1,1.110947585E0,-1.642512113E-1,1.129363137E0
8.902770000E0,-8.854058594E-2,8.407337165E-1,1.012537776E0,1.319054724E0
8.912716000E0,-3.346358229E-1,1.165134902E0,-6.457273203E-1,1.373493446E0
8.922662000E0,3.006828506E-1,1.494787472E0,-2.685830802E-1,1.548204326E0
8.932609000E0,8.433965385E-1,9.043964463E-1,2.575306731E-1,1.263159808E0
8.942555000E0,1.242017602E0,3.111402851E-1,4.436802918E-1,1.355089739E0
8.952501000E0,8.479331008E-1,5.748187208E-1,-1.049246596E0,1.466398829E0
8.962447000E0,1.318460591E0,3.147661436E-1,-3.810221136E-2,1.356048610E0
8.972394000E0,1.354316887E0,-1.543156224E-1,-7.257447124E-2,1.365010841E0
8.982340000E0,9.274458781E-1,-2.998744547E-2,-2.091987580E-1,9.512198610E-1
8.992286000E0,8.212677509E-1,3.760052025E-2,-3.385526168E-1,8.891076381E-1
9.002232000E0,5.811705146E-1,-9.228368104E-2,-1.860116243E-1,6.171513342E-1
9.012178000E0,2.568667218E-1,-8.836663127E-2,-4.883536041E-2,2.759964977E-1
9.022125000E0,1.857149147E-1,9.010559320E-3,9.233338237E-3,1.861624942E-1
9.032071000E0,1.129000498E-1,-3.899800479E-2,-2.265585566E-1,2.561172489E-1
9.042017000E0,-1.518130507E-1,-3.029103291E-1,-4.645016420E-1,5.749466456E-1
9.051963000E0,-2.168127099E-1,-3.144644272E-1,-1.233598781E-1,4.013891960E-1
9.061909000E0,-3.361564279E-1,-3.314698845E-1,-1.741142946E-1,5.031791092E-1
9.071856125E0,-3.551744237E-1,-3.390899760E-1,-1.840183085E-1,5.243983418E-1
9.081802125E0,-3.588348172E-1,-4.942084211E-1,-5.374357170E-1,8.135364401E-1
9.091748125E0,-4.037335397E-1,-7.603315777E-1,-6.351602322E-1,1.069828678E0
9.101694125E0,-7.080405128E-1,-8.738944459E-1,-3.034991437E-1,1.164956909E0
9.111640125E0,-8.502266711E-1,-7.907347602E-1,-2.359491849E-1,1.184828625E0
9.121587125E0,-8.141742012E-1,-5.909225374E-1,7.512151837E-2,1.008817287E0
9.131533125E0,-7.011587054E-1,-3.785773927E-1,-1.744598651E-1,8.157086594E-1
9.141479125E0,-6.005292204E-1,-4.691805840E-1,-4.765498298E-1,8.988133873E-1
9.151425125E0,-6.109942015E-1,-3.451687413E-1,-9.199833691E-2,7.077563622E-1
9.161371125E0,-5.349774744E-1,-6.010645330E-2,3.077512389E-1,6.201004023E-1
9.171318125E0,-2.771969059E-1,-1.150410444E-1,4.874122024E-2,3.040530761E-1
9.181264125E0,-3.262777397E-2,-4.990528393E-1,-5.655842131E-1,7.549859669E-1
9.191210125E0,4.055771302E-2,-6.085811287E-1,-3.649978191E-1,7.108018896E-1
9.201156125E0,-6.714410724E-2,-3.161992961E-1,-2.123667794E-1,3.867686324E-1
9.211102125E0,1.238122150E-1,5.167944610E-2,-7.737912834E-2,1.548798219E-1
9.221049125E0,4.052611248E-1,1.839317697E-1,1.756696540E-1,4.784634809E-1
9.230995125E0,5.518374457E-1,2.328355426E-1,2.395060462E-1,6.450582164E-1
9.240941125E0,6.832345775E-1,3.352816844E-1,1.255262715E-1,7.713495580E-1
9.250887125E0,7.218940285E-1,5.462439626E-1,7.213359118E-2,9.081391469E-1
9.260833125E0,8.236846974E-1,6.042600363E-1,-1.449016052E-1,1.031786387E0
9.270780125E0,1.024217297E0,4.580153257E-1,-4.525978804E-2,1.122874685E0
9.280726125E0,1.147225758E0,4.078403682E-1,1.269015366E-1,1.224158774E0
9.290672125E0,9.849804336E-1,5.204244125E-1,-2.617833531E-1,1.144359449E0
9.300618125E0,8.011802262E-1,7.342962652E-1,-8.581578344E-1,1.384743886E0
9.310564125E0,6.726195422E-1,1.066873028E0,-6.117707849E-1,1.401748408E0
9.320511125E0,7.849227740E-1,1.373358929E0,-4.150821447E-1,1.635393438E0
9.330457125E0,9.643588389E-1,1.539083054E0,-6.075718993E-1,1.915178381E0
9.340403125E0,9.917765062E-1,1.558011076E0,-1.008921858E0,2.104505278E0
9.350349125E0,1.007647677E0,1.665949507E0,-1.471254768E0,2.440354932E0
9.360295125E0,9.822350197E-1,1.873245581E0,-1.268435322E0,2.466325771E0
9.370242125E0,9.555157292E-1,2.196634029E0,-9.443557334E-1,2.574882350E0
9.380188125E0,9.947946927E-1,2.451574970E0,-8.218121266E-1,2.770417205E0
9.390134125E0,1.046982773E0,2.536515133E0,-1.039280017E0,2.934311658E0
9.400080125E0,9.946034887E-1,2.641888391E0,-1.464028194E0,3.179966812E0
9.410027125E0,8.667465171E-1,2.658892679E0,-1.780858989E0,3.315481646E0
9.419973125E0,7.479952683E-1,2.596197664E0,-1.943236168E0,3.328048382E0
9.429919125E0,6.062219234E-1,2.573209335E0,-1.145504630E0,2.881161599E0
9.439865125E0,4.886561244E-1,2.546713262E0,-1.008459343E0,2.782359340E0
9.449811125E0,5.134247106E-1,2.370178220E0,-1.030933117E0,2.635179846E0
9.459758125E0,8.351720642E-1,2.025757923E0,-1.260074388E0,2.527646139E0
9.469704125E0,1.172900589E0,1.519863256E0,-9.309667790E-1,2.133630533E0
9.479650125E0,1.422692326E0,8.222003818E-1,-8.891951475E-1,1.868350859E0
9.489596125E0,1.114571982E0,2.633644402E-2,-5.261725178E-1,1.232810541E0
9.499542125E0,8.649666247E-1,-1.011848974E0,-4.901431444E-1,1.418536538E0
9.509489125E0,1.019545810E0,-2.015400165E0,-6.604488552E-2,2.259573723E0
9.519435125E0,1.284094166E0,-3.154991505E0,-3.721027708E-1,3.426562373E0
9.529381125E0,1.158904986E0,-4.595085876E0,-2.206617565E0,5.227526763E0
9.539327125E0,5.428388366E-1,-5.914917639E0,-2.951717731E0,6.632764299E0
9.549273125E0,-1.610162685E0,-5.715148686E0,-2.611483455E-1,5.943378402E0
9.559220125E0,-4.154150852E0,-4.670076417E0,1.044947138E0,6.337073265E0
9.569166125E0,-6.697917117E0,-4.481784963E0,1.157601934E0,8.141776981E0
9.579112125E0,-8.102140574E0,-4.719705829E0,1.174695977E0,9.449879134E0
9.589058125E0,-7.277063363E0,-4.933199952E0,-4.056552637E-1,8.800947059E0
9.599004125E0,-5.919962617E0,-5.765901348E0,-1.865867272E0,8.471896860E0
9.608951125E0,-3.774149078E0,-7.859440194E0,-1.629680983E0,8.869659606E0
9.618897125E0,-4.964502436E-1,-1.195079429E1,3.579773596E-1,1.196645707E1
9.628843125E0,2.871078487E0,-1.663656112E1,2.860411119E0,1.712308995E1
9.638789125E0,4.107094215E0,-1.916005451E1,4.969228156E0,2.021556678E1
9.648735125E0,3.367134044E0,-1.863557447E1,5.881841694E0,1.982973245E1
9.658682125E0,2.137351741E0,-1.744776874E1,5.264457582E0,1.834958910E1
9.668628125E0,1.806148782E0,-1.720763997E1,4.568351237E0,1.789510770E1
9.678574125E0,1.403472967E0,-1.674430894E1,3.314663762E0,1.712683900E1
9.688520125E0,5.242639136E-1,-1.536282472E1,1.519291691E0,1.544666576E1
9.698466125E0,-4.278600651E-1,-1.291952356E1,1.185593140E-1,1.292715009E1
9.708413125E0,-8.868540685E-1,-9.108683785E0,-8.455565000E-1,9.190734260E0
9.718359125E0,-1.358629793E0,-5.041928927E0,-1.962422637E0,5.578353236E0
9.728305125E0,-9.601503785E-1,-1.817724515E0,-3.437926576E0,4.005664777E0
9.738251125E0,1.464218813E-1,1.390891221E0,-5.060530674E0,5.250236990E0
9.748198125E0,1.261656353E0,4.344028655E0,-6.711576213E0,8.093677593E0
9.758144125E0,1.481204975E0,6.949245649E0,-9.298028322E0,1.170210724E1
9.768090125E0,5.393441020E-1,1.055455871E1,-1.797846086E1,2.085460757E1
9.778036125E0,-1.080962479E0,1.161528573E1,-3.376724238E1,3.572548111E1
9.787982125E0,-1.119040278E0,3.997132062E0,-1.675210328E1,1.725868709E1
9.797929125E0,-1.005629876E0,4.427312887E-1,-4.689565771E0,4.816568235E0
9.807875125E0,-8.396161674E-1,2.147277097E0,2.822152787E0,3.644214675E0
9.817821125E0,5.190671276E-1,4.527095037E0,6.873724766E0,8.246945635E0
9.827767125E0,1.970015831E0,6.843144997E0,9.810279497E0,1.212234217E1
9.837713125E0,1.160786108E0,9.602767076E0,9.847319269E0,1.380326978E1
9.847660125E0,6.709573250E-1,1.077311594E1,8.098677853E0,1.349439861E1
9.857606125E0,-8.339591324E-3,1.141555537E1,6.193383683E0,1.298741604E1
9.867552125E0,9.680153221E-2,1.210655359E1,4.272707827E0,1.283877107E1
9.877498125E0,1.155507388E-1,1.255984495E1,2.813409154E0,1.287160939E1
9.887444125E0,2.955261728E-1,1.332136293E1,2.295159613E0,1.352086549E1
9.897391125E0,1.503295938E-1,1.367311505E1,2.329612723E0,1.387096859E1
9.907337125E0,-3.352290595E-1,1.374957324E1,2.786174870E0,1.403302937E1
9.917283125E0,-7.826503998E-1,1.405177255E1,3.333701419E0,1.446300171E1
9.927229125E0,-1.040190721E0,1.434460228E1,3.902241107E0,1.490225140E1
9.937176125E0,-1.105075519E0,1.439189222E1,5.160474207E0,1.532900021E1
9.947122125E0,-1.353383671E0,1.361224086E1,5.916652508E0,1.490407747E1
9.957068125E0,-1.480618499E0,1.100243438E1,5.558392435E0,1.241537434E1
9.967014125E0,-4.711683815E-1,7.782764486E0,4.499165812E0,9.001995095E0
9.976960125E0,-6.462252107E-1,5.967244372E0,3.566157185E0,6.981625132E0
9.986907125E0,-1.051354810E0,5.142478232E0,1.417988387E0,5.437013920E0
9.996853125E0,-1.260562046E0,5.206887066E0,-1.559990212E0,5.579808156E0
1.000679912E1,-1.693143446E0,5.931036658E0,-4.263026007E0,7.497821104E0
1.001674512E1,-2.555675582E0,7.346752233E0,-6.258003602E0,9.983429027E0
1.002669113E1,-1.698598313E0,8.277040150E0,-6.505140849E0,1.066355885E1
1.003663812E1,-3.559954458E-1,8.789372016E0,-4.348824542E0,9.812852189E0
1.004658412E1,-3.218146331E-1,9.401615841E0,-1.975265461E0,9.612263975E0
1.005653012E1,9.891325414E-2,9.690848948E0,-4.337371016E-1,9.701054841E0
1.006647612E1,2.186609270E0,9.849706103E0,-5.904050589E-2,1.008967077E1
1.007642187E1,3.420060409E0,9.840518957E0,3.579672731E-2,1.041796083E1
1.008636887E1,3.838005058E0,9.952093188E0,4.816458245E-1,1.067737910E1
1.009631487E1,3.793636386E0,9.821103863E0,-4.747135118E-2,1.052843823E1
1.010626088E1,3.452215417E0,9.593920823E0,-3.154140151E-1,1.020100946E1
1.011620687E1,2.910077662E0,9.482874012E0,3.145033112E-1,9.924331910E0
1.012615387E1,2.525865015E0,9.463787531E0,9.026582153E-1,9.836567509E0
1.013609987E1,2.394164961E0,9.061484476E0,-2.243833923E-1,9.375119982E0
1.014604587E1,2.375353006E0,8.515663267E0,-3.642305474E0,9.561653201E0
1.015599187E1,3.984936232E0,6.690054951E0,-1.801830145E1,1.962895156E1
1.016593787E1,6.691855894E0,1.034857183E0,-2.863059908E1,2.942045323E1
1.017588488E1,1.669226287E0,-6.805587747E0,-4.208576443E0,8.174011050E0
1.018583087E1,-3.416413500E0,-1.210184892E1,2.471168288E1,2.772713291E1
1.019577687E1,-7.639487822E0,-1.557642117E1,2.048637493E1,2.684545079E1
1.020572287E1,-1.585887910E1,-2.939944011E1,-1.500103526E1,3.661778508E1
1.021566887E1,-1.628296947E1,-5.206326669E1,-5.456659069E1,7.715718795E1
1.022561587E1,1.982321413E1,-5.436109614E1,-1.213400159E0,5.787539142E1
1.023556187E1,2.859986144E1,-3.582416420E1,3.222285239E1,5.603244624E1
1.024550787E1,1.475993585E1,-1.149615573E1,1.610595671E1,2.468641619E1
1.025545387E1,-7.534144677E-2,-2.227883888E0,-4.480115291E0,5.004055952E0
1.026539988E1,-1.083799197E1,-1.071916251E0,3.920297309E0,1.157496459E1
1.027534687E1,-1.267780083E1,1.077041336E0,1.232269007E1,1.771257583E1
1.028529287E1,-1.106820036E1,6.000964680E0,9.240398750E0,1.561734950E1
1.029523887E1,-1.208275776E1,9.532688196E0,6.473267677E0,1.669635810E1
1.030518487E1,-1.177498372E1,1.060391155E1,8.980446160E-1,1.587134732E1
1.031513187E1,-8.085511093E0,9.193370179E0,-1.809521456E0,1.237610249E1
1.032507787E1,-3.270342452E0,4.613784102E0,-1.922903060E0,5.973248670E0
1.033502387E1,5.229395923E-1,6.339919585E-1,-1.528450477E0,1.735388280E0
1.034496987E1,6.987581749E0,-3.296546164E0,-6.015922442E0,9.792080379E0
1.035491587E1,1.219210303E1,-9.388378329E0,-7.501552005E0,1.711906266E1
1.036486287E1,1.517562962E1,-1.580314344E1,-4.019177234E0,2.227538692E1
1.037480887E1,1.147692307E1,-1.759080801E1,-5.274907141E0,2.165596765E1
1.038475487E1,-4.050103158E-2,-1.217678216E1,-3.418533701E0,1.264760992E1
1.039470087E1,-2.102250759E0,-3.684528803E0,-4.622989959E-1,4.267192416E0
1.040464687E1,-2.590956804E0,1.717304433E0,-2.030030483E-1,3.115028397E0
1.041459387E1,-4.193572780E0,5.249857669E0,2.529306686E-1,6.723914941E0
1.042453988E1,-6.091518754E0,6.872950594E0,2.399500253E0,9.492189003E0
1.043448587E1,-6.989624181E0,6.551048509E0,3.692293321E0,1.026665051E1
1.044443187E1,-6.524654762E0,4.860952340E0,2.570872788E0,8.532840342E0
1.045437787E1,-3.834973569E0,3.425736301E0,1.368440836E0,5.321214316E0
1.046432487E1,-2.774302829E-1,2.539868512E0,9.363070410E-1,2.721134045E0
1.047427087E1,2.813952652E0,1.294330301E0,1.255249266E0,3.342045957E0
1.048421687E1,4.679888337E0,-1.975756627E-1,-6.393947858E-1,4.727495815E0
1.049416287E1,5.208290398E0,-9.412648952E-1,-5.051760435E-2,5.292902843E0
1.050410887E1,4.976502677E0,-1.425911949E0,-8.566130000E-1,5.247150618E0
1.051405587E1,3.348475286E0,-2.475784197E0,-3.434808256E0,5.398120218E0
1.052400187E1,1.852892447E0,-3.965229068E0,-4.166441699E0,6.042804681E0
1.053394787E1,-8.239048451E-2,-4.620910689E0,-4.266493406E0,6.289878359E0
1.054389387E1,-1.512850983E0,-3.579936733E0,-1.610183442E0,4.206822533E0
1.055384087E1,-7.533852316E-1,-2.060476935E0,8.209625262E-1,2.342463228E0
1.056378687E1,-7.312838528E-1,4.104470569E-1,3.912962562E-1,9.253948455E-1
1.057373287E1,-4.777961639E-1,1.577887516E0,2.285193619E0,2.817823284E0
1.058367888E1,3.565409180E-2,1.151952354E0,1.602060490E0,1.973540791E0
1.059362487E1,-9.111505651E-1,1.664185987E0,5.927281576E-1,1.987721565E0
1.060357187E1,-2.451538718E-1,1.657493264E0,5.028348184E-1,1.749350507E0
1.061351787E1,1.818955134E-1,9.232654113E-1,-4.711341387E-1,1.052365133E0
1.062346387E1,2.537132819E-1,2.926747781E-1,-7.442341930E-1,8.389955239E-1
1.063340987E1,2.641222394E-1,-1.817969513E-1,-1.020273643E0,1.069471362E0
1.064335587E1,7.018263113E-2,-4.798453206E-1,-1.383198039E0,1.465746891E0
1.065330287E1,-4.276644757E-1,-9.352171201E-1,-6.120263082E-1,1.196705547E0
1.066324887E1,-5.115264121E-1,-1.085249657E0,-1.022485644E0,1.576357504E0
1.067319487E1,-9.012500596E-1,-9.601987642E-1,-1.040222588E0,1.678182460E0
1.068314087E1,-6.071406671E-1,-8.700072169E-1,-1.536472857E-2,1.061022348E0
1.069308687E1,-1.817995460E-1,-2.049490017E-1,-3.144299287E-1,4.170387851E-1
1.070303387E1,5.202881724E-1,1.908706605E-2,1.392298061E-1,5.389332401E-1
1.071297987E1,7.517063498E-1,-4.968846917E-1,-1.403279132E-1,9.119477817E-1
1.072292587E1,3.884948552E-1,4.174911976E-2,4.349188238E-1,5.846585540E-1
1.073287187E1,3.298613155E-1,3.782914639E-1,5.425672334E-1,7.391157703E-1
1.074281787E1,5.731300449E-1,4.136174172E-1,4.224233240E-1,8.234068744E-1
1.075276487E1,5.011569598E-1,2.867000932E-1,9.537937242E-1,1.114933949E0
1.076271087E1,9.941494524E-2,2.748524648E-1,6.287130922E-1,6.933306290E-1
1.077265687E1,1.302133995E-1,1.130909979E-2,-1.665637851E-2,1.317606167E-1
1.078260287E1,1.286080465E-1,-3.212319946E-1,-2.054436761E-1,4.024141251E-1
1.079254887E1,8.665047348E-2,-5.816640562E-1,-4.467711300E-1,7.385430396E-1
1.080249587E1,3.150500259E-1,-7.153647351E-1,-5.980339211E-1,9.841990621E-1
1.081244187E1,3.775044286E-1,-5.477519596E-1,-2.730228710E-1,7.190850373E-1
1.082238787E1,1.579122448E-1,-2.069721383E-1,8.124530733E-2,2.727169651E-1
1.083233388E1,-5.431483188E-3,1.706977665E-1,1.688728505E-1,2.401775763E-1
1.084227987E1,-3.437198013E-2,2.569190544E-1,9.643228054E-3,2.593874040E-1
1.085222687E1,-3.482981712E-1,-6.100750923E-2,-5.014408422E-1,6.135767681E-1
1.086217287E1,-4.502385288E-1,-2.930981165E-1,-1.129266912E-1,5.489751145E-1
1.087211887E1,-6.441704991E-1,-2.894213873E-1,-1.301929343E-1,7.181020621E-1
1.088206487E1,-7.546261570E-1,-3.996957815E-1,-5.093176264E-1,9.942946239E-1
1.089201187E1,-4.697188202E-1,-5.166582209E-1,-6.448993546E-1,9.505086348E-1
1.090195788E1,-3.919587457E-1,-4.986289161E-1,-4.826759577E-1,7.970185283E-1
1.091190387E1,-2.923052341E-1,-2.264457053E-1,-3.893105417E-1,5.369196450E-1
1.092184987E1,-2.332740837E-1,3.686669469E-3,-1.854730958E-1,2.980447264E-1
1.093179587E1,-1.538677257E-1,6.009183526E-2,-2.579838324E-1,3.063363567E-1
1.094174287E1,-1.208443968E-1,-2.573359609E-2,-3.909781677E-1,4.100359908E-1
1.095168887E1,1.453591499E-1,-1.508113861E-2,2.853382766E-2,1.488989675E-1
1.096163487E1,2.971812272E-1,6.702078581E-2,1.403618270E-1,3.354249693E-1
1.097158087E1,3.697600839E-1,9.327653825E-2,-2.650051689E-1,4.643821398E-1
1.098152687E1,5.874434441E-1,1.797422397E-1,-3.900467062E-1,7.276905289E-1
1.099147388E1,7.514288995E-1,5.611058307E-1,-3.293526077E-1,9.939609069E-1
1.100141987E1,7.830684757E-1,8.652008057E-1,-3.177950013E-1,1.209447119E0
1.101136587E1,7.860517251E-1,8.736699128E-1,-2.510741776E-1,1.201754831E0
1.102131187E1,7.070400542E-1,7.389582503E-1,-4.147693187E-1,1.103629703E0
1.103125787E1,5.075976679E-1,6.960274082E-1,-5.705227715E-1,1.033250104E0
1.104120487E1,3.084152268E-1,8.936480945E-1,-4.625667983E-1,1.052470860E0
1.105115087E1,3.183133569E-1,1.154988813E0,-3.182522535E-1,1.239599552E0
1.106109687E1,5.647433835E-1,1.351342408E0,-1.953244847E-1,1.477569981E0
1.107104321E1,7.315030503E-1,1.536433096E0,-1.729454362E-1,1.710448332E0
1.108098921E1,9.100596940E-1,1.618054964E0,-3.869979680E-1,1.896332761E0
1.109093621E1,9.558238775E-1,1.664265509E0,-3.962073326E-1,1.959683449E0
1.110088221E1,9.684386605E-1,1.701670148E0,-5.334771520E-1,2.029323188E0
1.111082821E1,1.095011291E0,1.782669872E0,-5.647527391E-1,2.167004212E0
1.112077421E1,1.259982002E0,1.829935840E0,-4.074298936E-1,2.258809187E0
1.113072121E1,1.135744896E0,1.876752741E0,-2.699729633E-1,2.210204226E0
1.114066721E1,1.036194441E0,1.830155695E0,-9.296119791E-1,2.299423236E0
1.115061321E1,8.453354021E-1,1.782583918E0,-1.165782189E0,2.291559617E0
1.116055921E1,5.767169463E-1,1.806513648E0,-9.370250791E-1,2.115209208E0
1.117050521E1,5.575026302E-1,1.840868379E0,-1.214582466E0,2.274822221E0
1.118045221E1,4.832717159E-1,1.687266701E0,-1.362185485E0,2.221704249E0
1.119039821E1,2.780695298E-1,1.540427329E0,-1.231407244E0,1.991633204E0
1.120034421E1,2.699450429E-1,1.246105975E0,-1.396730835E0,1.891165633E0
1.121029021E1,5.059814244E-1,1.056515855E0,-1.402564017E0,1.827410401E0
1.122023621E1,6.366525878E-1,9.557753456E-1,-1.383297442E0,1.797872309E0
1.123018321E1,6.414707666E-1,8.909460962E-1,-9.382915860E-1,1.444181703E0
1.124012921E1,8.057847624E-1,7.202173394E-1,-1.139869668E0,1.570765724E0
1.125007521E1,9.874179916E-1,3.250420403E-1,-1.219792920E0,1.602666960E0
1.126002121E1,1.001599536E0,-1.097820586E-1,-1.435136517E0,1.753530882E0
1.126996821E1,6.546250284E-1,-6.570276493E-1,-1.123866423E0,1.457153045E0
1.127991421E1,2.973617600E-1,-8.973324251E-1,7.990161717E-2,9.486905533E-1
1.128986021E1,2.121165186E-1,-6.534438908E-1,8.886001933E-1,1.123206410E0
1.129980621E1,2.362535325E-1,-7.231883097E-1,2.196717060E-1,7.918792340E-1
1.130975221E1,1.848198156E-1,-1.442036231E0,-7.507421440E-1,1.636227558E0
1.131969921E1,-2.083994436E-1,-1.950700139E0,-2.477792716E-1,1.977386135E0
1.132964521E1,-6.776827924E-1,-2.055203916E0,1.648123686E0,2.720189109E0
1.133959121E1,-1.435621982E0,-2.147457191E0,2.631155242E0,3.687215856E0
1.134953721E1,-2.507647430E0,-2.628376645E0,3.161613477E0,4.815854981E0
1.135948321E1,-4.275811237E0,-3.942789209E0,1.765235814E0,6.078174558E0
1.136943021E1,-6.271866181E0,-5.798102549E0,2.948131049E-1,8.546415233E0
1.137937621E1,-6.764934980E0,-7.439256939E0,-1.805037811E0,1.021592143E1
1.138932221E1,-6.233872143E0,-9.461158623E0,-2.868106055E0,1.168763093E1
1.139926821E1,-3.714496076E0,-1.223416907E1,-2.486158327E0,1.302510488E1
1.140921421E1,6.411074352E-1,-1.582401683E1,-3.737692273E-1,1.584140874E1
1.141916121E1,4.867732771E0,-1.823235281E1,1.972146264E0,1.897374165E1
1.142910721E1,4.608922727E0,-1.851617666E1,1.927621471E0,1.917828698E1
1.143905321E1,3.632536239E0,-1.759683883E1,3.233233098E0,1.825644687E1
1.144899921E1,2.204004737E0,-1.682185939E1,3.609810158E0,1.734541206E1
1.145894521E1,8.452120990E-2,-1.575785325E1,3.387135322E0,1.611799518E1
1.146889221E1,-6.599478219E-1,-1.420785344E1,2.930505202E0,1.452193139E1
1.147883821E1,-8.858838692E-1,-1.234691041E1,1.721695107E0,1.249780864E1
1.148878421E1,-8.793077981E-1,-1.041386886E1,5.608532310E-1,1.046596403E1
1.149873021E1,-6.668030975E-1,-7.944410763E0,-1.309049059E-1,7.973419896E0
1.150867721E1,1.324432352E-1,-5.239129783E0,-9.544222999E-1,5.327001410E0
1.151862321E1,1.279452353E0,-2.108039356E0,-3.084382868E0,3.948955043E0
1.152856921E1,2.451140084E0,2.444269459E0,-5.711752038E0,6.678821172E0
1.153851521E1,3.521635900E0,6.683057004E0,-7.573692613E0,1.069700847E1
1.154846121E1,5.300607408E0,8.474268488E0,-8.224992914E0,1.294450361E1
1.155840821E1,6.017630414E0,8.842990399E0,-7.324771965E0,1.296389754E1
1.156835421E1,3.788874121E0,9.909226080E0,-9.575630733E0,1.429129219E1
1.157830021E1,1.743422776E0,1.103221074E1,-1.991480960E1,2.283306458E1
1.158824621E1,-8.645503029E-1,6.182683278E0,-1.615434125E1,1.731865355E1
1.159819221E1,-3.736646791E0,2.747203177E0,-6.846543399E0,8.269510932E0
1.160813921E1,-4.421949236E0,3.166854336E0,-2.506097918E0,5.988583155E0
1.161808521E1,-5.085478989E0,5.001436958E0,2.173433447E0,7.456559605E0
1.162803121E1,-2.704592178E0,6.489410670E0,4.727858602E0,8.472302913E0
1.163797721E1,-5.879866505E-1,7.002089860E0,6.395670447E0,9.501557303E0
1.164792421E1,-8.715954669E-1,8.078199735E0,7.599026259E0,1.112484560E1
1.165787021E1,-5.412939291E-1,9.818319418E0,8.128845978E0,1.275815552E1
1.166781621E1,6.101073982E-1,1.133861888E1,7.448730597E0,1.358013610E1
1.167776221E1,1.092581846E0,1.283069032E1,6.951216745E0,1.463351507E1
1.168770821E1,9.694876510E-1,1.381804764E1,5.728531208E0,1.498981043E1
1.169765521E1,4.550133651E-1,1.454796376E1,4.164672332E0,1.513918037E1
1.170760121E1,-6.677210373E-1,1.490912054E1,2.968702723E0,1.521646880E1
1.171754721E1,-9.415346711E-1,1.462373198E1,3.192851349E0,1.499781065E1
1.172749321E1,-6.062244084E-1,1.424548496E1,3.952093298E0,1.479595861E1
1.173743921E1,3.019560635E-1,1.374709519E1,3.255862992E0,1.413062092E1
1.174738621E1,1.555499989E0,1.287806563E1,2.466219907E0,1.320402950E1
1.175733221E1,2.560269155E0,1.146994500E1,2.076307687E0,1.193422264E1
1.176727821E1,3.069208758E0,9.882929982E0,1.826623246E0,1.050851559E1
1.177722421E1,2.872093856E0,8.576149204E0,1.301567985E0,9.137468879E0
1.178717021E1,1.866039473E0,7.723547394E0,1.027802517E0,8.011970150E0
1.179711721E1,1.639296437E0,7.429490919E0,8.307712305E-1,7.653418123E0
1.180706321E1,5.390317876E-2,7.451170641E0,-3.229615279E-1,7.458361322E0
1.181700921E1,-2.197387151E0,7.766684643E0,-1.989088279E0,8.313024288E0
1.182695521E1,-2.253737645E0,8.426544099E0,-2.217320309E0,9.000138231E0
1.183690221E1,-1.889392083E0,8.843565180E0,-1.591801550E0,9.182171841E0
1.184684821E1,-1.605894510E0,8.939122717E0,-4.087086066E-1,9.091416548E0
1.185679421E1,-9.655624151E-1,9.032694540E0,2.868293166E-1,9.088682660E0
1.186674021E1,6.108573767E-1,9.288758731E0,1.320721563E-1,9.309759855E0
1.187668621E1,2.023185148E0,9.595630549E0,-4.498391640E-1,9.816911890E0
1.188663321E1,2.670066416E0,9.410387249E0,-1.050531741E0,9.838102448E0
1.189657921E1,2.896305715E0,9.090462692E0,-7.871089017E-1,9.573120660E0
1.190652521E1,2.882536983E0,8.964200841E0,5.722786903E-2,9.416431978E0
1.191647121E1,2.798695805E0,9.062173278E0,4.155288720E-1,9.493595050E0
1.192641821E1,2.075022176E0,8.953360687E0,-1.183996996E0,9.266619314E0
1.193636421E1,1.860138755E0,7.716633062E0,-1.126688874E1,1.378221042E1
1.194631021E1,4.220028507E0,3.438689053E0,-3.088928493E1,3.136528569E1
1.195625621E1,-3.083564550E0,-9.863244746E0,-2.569641949E1,2.769653303E1
1.196620221E1,-1.383980396E1,-2.020133486E1,1.239466462E1,2.744561558E1
1.197614921E1,-1.594490451E1,-2.924352294E1,1.098424019E1,3.507245566E1
1.198609521E1,-1.153474735E1,-3.331602678E1,-7.302871218E-1,3.526388175E1
1.199604121E1,-2.120194548E0,-3.217808611E1,-3.967759159E0,3.249103820E1
1.200598721E1,2.434380648E0,-1.902622811E1,-3.133822479E1,3.674245363E1
1.201593321E1,1.489119649E1,-2.183338396E1,3.589901851E0,2.667080395E1
1.202588021E1,2.432459019E1,-2.836713992E1,3.175750524E1,4.903997812E1
1.203582621E1,1.535080284E1,-1.362360667E1,1.052133366E1,2.306400374E1
1.204577221E1,4.063828912E0,-6.625993441E0,-6.372102075E0,1.005097903E1
1.205571821E1,-3.822723067E0,-4.853541579E0,8.488176675E0,1.049853422E1
1.206566421E1,-8.915713390E0,-1.891225770E0,9.577098969E0,1.322072255E1
1.207561183E1,-1.183833713E1,1.807611755E0,4.445948548E0,1.277419840E1
1.208555783E1,-1.185715698E1,3.485889532E0,8.525725740E-1,1.238832020E1
1.209550383E1,-9.177680345E0,1.898179278E0,-2.654757528E0,9.740669311E0
1.210544983E1,-6.332029937E0,2.022750700E-1,-1.930500348E0,6.622865688E0
1.211539683E1,-2.325411645E0,-9.142759019E-1,-1.264400743E0,2.800383721E0
1.212534283E1,2.489849382E0,-2.702029928E0,-1.510752710E0,3.972743313E0
1.213528883E1,5.598557544E0,-4.081696249E0,-1.985664150E0,7.207423462E0
1.214523483E1,5.070720032E0,-4.226134754E0,-9.624423409E-1,6.670735481E0
1.215518083E1,4.980355992E0,-3.662115256E0,-1.052816906E0,6.270841841E0
1.216512783E1,3.361638538E0,-3.081604856E0,-1.301023024E0,4.742316212E0
1.217507383E1,8.296889108E-1,-2.325689680E0,-2.207699300E0,3.312272992E0
1.218501983E1,6.532214773E-1,-2.304580647E0,-3.249667867E0,4.037094438E0
1.219496583E1,5.189719641E-1,-2.087196956E0,-2.451110702E0,3.260930343E0
1.220491183E1,5.323984869E-2,-6.410624117E-1,-7.435196632E-1,9.831668153E-1
1.221485883E1,8.101284396E-2,1.272491536E0,3.100328225E-1,1.312218785E0
1.222480483E1,3.385498760E-1,2.165896386E0,1.576200594E0,2.700024349E0
1.223475083E1,3.718251742E-1,2.407458313E0,1.987999527E0,3.144241023E0
1.224469683E1,4.097116964E-1,2.648679932E0,7.092941558E-1,2.772447882E0
1.225464383E1,3.662668841E-1,3.118078033E0,7.407895982E-1,3.225729573E0
1.226458983E1,5.607653400E-1,3.566222674E0,8.302297783E-1,3.704279067E0
1.227453583E1,8.866717815E-1,3.411685442E0,1.005121753E0,3.665522356E0
1.228448183E1,9.591430494E-1,2.652211651E0,-1.815560460E-3,2.820316529E0
1.229442783E1,1.941893209E-2,1.778245869E0,-4.495397866E-2,1.778919988E0
1.230437483E1,-6.077385084E-1,4.468290174E-1,3.074787587E-1,8.145829930E-1
1.231432083E1,-4.470968199E-1,-1.004507210E0,-8.951894206E-1,1.417848511E0
1.232426683E1,-1.185292886E0,-1.476837689E0,-1.917506665E-1,1.903348918E0
1.233421283E1,-5.419319335E-1,-1.491648687E0,-6.841610688E-1,1.728231001E0
1.234415883E1,-3.161325922E-2,-9.994768506E-1,-2.271733913E0,2.482081454E0
1.235410583E1,3.035912374E-1,-6.329686958E-1,-6.120181221E-1,9.313340920E-1
1.236405183E1,5.393562350E-1,-9.576862156E-2,-1.199555706E0,1.318715538E0
1.237399783E1,6.547004575E-1,5.366346484E-1,-4.337201446E-1,9.511690695E-1
1.238394383E1,4.509370153E-1,5.433811659E-1,9.660009563E-1,1.196563885E0
1.239388983E1,2.947811645E-2,6.911367971E-1,2.580814809E-1,7.383394087E-1
1.240383683E1,2.489884393E-1,6.346497703E-1,-1.689845324E-4,6.817445286E-1
1.241378283E1,3.858001293E-1,-7.736918807E-2,-1.368220981E0,1.423677064E0
1.242372883E1,1.616094027E-1,-5.511591321E-1,-2.080888980E0,2.158701678E0
1.243367483E1,-1.125665027E-1,-6.539748180E-1,-1.455452667E0,1.599592682E0
1.244362183E1,-1.435430412E-1,-4.997492427E-1,-9.666482431E-1,1.097616844E0
1.245356783E1,-8.830209263E-3,-3.082809967E-1,-4.857615334E-1,5.753950059E-1
1.246351383E1,-2.215948186E-1,5.655017674E-1,1.017351204E-1,6.158299662E-1
1.247345983E1,-3.897161923E-2,6.302819002E-1,-2.523681664E-1,6.800468750E-1
1.248340583E1,1.377347461E-1,4.315993595E-1,-5.042498446E-1,6.778766651E-1
1.249335283E1,5.603338520E-1,3.149579322E-1,-2.892939180E-1,7.048854487E-1
1.250329883E1,1.064228332E0,1.879827207E-1,1.264928162E-2,1.080777244E0
1.251324483E1,1.358459347E0,1.603318226E-1,4.351673305E-2,1.368580212E0
1.252319083E1,1.244654696E0,1.755328292E-1,-3.735873789E-1,1.311314080E0
1.253313683E1,8.062891578E-1,9.849810183E-2,-5.964762229E-1,1.007763845E0
1.254308383E1,3.574937218E-1,9.869105995E-2,-1.638477534E-1,4.054476202E-1
1.255302983E1,5.621586218E-3,1.865840667E-1,3.782973111E-1,4.218460285E-1
1.256297583E1,-3.061891187E-1,2.017301095E-1,1.913132948E-1,4.135790012E-1
1.257292183E1,-3.713870716E-1,1.772922564E-1,-1.949941170E-1,4.553939029E-1
1.258286883E1,-3.739063810E-1,-1.030121523E-1,-6.147744995E-1,7.268873163E-1
1.259281483E1,-5.147373740E-1,-3.094668120E-1,-3.393133396E-1,6.898244808E-1
1.260276083E1,-6.360139257E-1,-1.210613376E-1,1.476509660E-1,6.640559983E-1
1.261270683E1,-6.595404902E-1,-4.017037153E-4,-1.168273687E-3,6.595416472E-1
1.262265283E1,-5.950857184E-1,1.155532604E-1,-4.604594618E-1,7.612506054E-1
1.263259983E1,-3.824497113E-1,-5.178586543E-2,-8.875839472E-1,9.678609512E-1
1.264254583E1,-3.605919421E-1,-2.512285441E-1,-3.750146842E-1,5.777355307E-1
1.265249183E1,-4.364774357E-1,-1.859478897E-1,1.708129567E-1,5.042481886E-1
1.266243783E1,-3.395656469E-1,-6.271372676E-2,2.275385499E-1,4.135355266E-1
1.267238383E1,-3.335780616E-1,-1.043219286E-1,-9.432435930E-2,3.620144648E-1
1.268233083E1,-2.839009945E-1,-2.696145290E-1,-4.649793595E-1,6.078631208E-1
1.269227683E1,-3.428891312E-1,-3.027220488E-1,-1.119659936E-1,4.709033647E-1
1.270222283E1,-4.652439826E-1,-3.276937526E-1,2.343622506E-2,5.695475533E-1
1.271216883E1,-2.266006565E-1,-2.582463723E-1,-6.493449926E-2,3.496505907E-1
1.272211583E1,1.005124676E-1,-3.654860616E-2,-1.154006481E-1,1.573399706E-1
1.273206183E1,3.385256831E-1,8.196743846E-2,2.072311699E-2,3.489236975E-1
1.274200783E1,5.233100500E-1,9.730351567E-2,1.833394468E-2,5.325950770E-1
1.275195383E1,4.942531158E-1,9.110546708E-3,9.489270866E-2,5.033624645E-1
1.276189983E1,3.837515938E-1,-1.473586053E-1,1.664737380E-1,4.435012398E-1
1.277184683E1,4.548253772E-1,-1.544372445E-1,9.681118011E-2,4.899891742E-1
1.278179283E1,5.300404144E-1,-8.940392733E-3,1.160736626E-1,5.426747338E-1
1.279173883E1,5.849312610E-1,2.017733788E-1,-8.499161839E-2,6.245643696E-1
1.280168483E1,5.636201699E-1,3.528461355E-1,-3.848432690E-1,7.682918931E-1
1.281163083E1,4.864103185E-1,2.992049485E-1,-4.884781498E-1,7.514848648E-1
1.282157783E1,3.814457443E-1,2.079410219E-1,-3.539834189E-1,5.603968106E-1
1.283152383E1,2.474982033E-1,1.829640555E-1,-1.322306889E-1,3.349868077E-1
1.284146983E1,9.267577339E-2,3.197608352E-1,-1.611779147E-1,3.698839154E-1
1.285141583E1,1.840407472E-2,6.295545065E-1,-4.076053101E-1,7.502130867E-1
1.286136183E1,1.169092298E-1,9.170509905E-1,-6.508933353E-1,1.130624792E0
1.287130883E1,2.807997044E-1,1.105780985E0,-6.894364268E-1,1.333012621E0
1.288125483E1,3.494796376E-1,1.243834916E0,-4.950200146E-1,1.383584523E0
1.289120083E1,3.660552515E-1,1.329865000E0,-5.727061218E-1,1.493495788E0
1.290114683E1,4.369273424E-1,1.342331849E0,-8.123793983E-1,1.628717465E0
1.291109383E1,5.833770346E-1,1.417168608E0,-6.684203643E-1,1.671969321E0
1.292103983E1,8.555911991E-1,1.631469646E0,-4.664797550E-1,1.900350722E0
1.293098583E1,1.118831094E0,1.833258228E0,-2.555274171E-1,2.162848355E0
1.294093183E1,1.353021436E0,1.967854115E0,-3.286702377E-1,2.410630820E0
1.295087783E1,1.462661115E0,2.086851971E0,-5.117717028E-1,2.599276622E0
1.296082483E1,1.414580922E0,2.155809939E0,-5.212132019E-1,2.630630890E0
1.297077083E1,1.369731024E0,2.212777022E0,-6.517008358E-1,2.682770808E0
1.298071683E1,1.237271417E0,2.234773078E0,-7.559034812E-1,2.663914665E0
1.299066283E1,1.126193908E0,2.197604667E0,-9.758418202E-1,2.655192318E0
1.300060983E1,9.823316449E-1,2.128743178E0,-1.066437995E0,2.575618950E0
1.301055583E1,6.520332500E-1,2.057405977E0,-1.235481584E0,2.486861769E0
1.302050183E1,3.718332142E-1,2.043267410E0,-1.519265671E0,2.573202251E0
1.303044783E1,1.550400742E-1,1.971603935E0,-1.530482385E0,2.500727060E0
1.304039383E1,4.361721380E-1,1.836387073E0,-1.289418055E0,2.285861443E0
1.305034083E1,4.497148741E-1,1.483963691E0,-1.196199405E0,1.958388296E0
1.306028683E1,2.390024913E-1,9.796565437E-1,-1.145587660E0,1.526178306E0
1.307023283E1,3.106446605E-2,4.508349448E-1,-1.465246169E0,1.533350411E0
1.308017762E1,-8.729220539E-2,-5.983163416E-2,-1.291930604E0,1.296257860E0
1.309012363E1,-6.708064668E-2,-7.034989804E-1,-1.355044865E0,1.528252994E0
1.310007062E1,-8.085909873E-2,-1.637405155E0,-1.395505843E0,2.152921362E0
1.311001662E1,1.155468285E-2,-2.439170687E0,-2.301176398E0,3.353371433E0
1.311996262E1,-2.746416727E-1,-3.335462308E0,-2.834386332E0,4.385713481E0
1.312990862E1,-1.678848757E0,-3.501848338E0,-3.938813102E-1,3.903410998E0
1.313985562E1,-3.214024702E0,-3.017655028E0,6.072158039E-1,4.450270518E0
1.314980162E1,-4.128378664E0,-2.606203419E0,2.295306963E0,5.394834632E0
1.315974763E1,-4.386710991E0,-1.874848303E0,3.542882343E0,5.942247451E0
1.316969362E1,-5.219946238E0,-1.383459994E0,2.784194418E0,6.075651310E0
1.317963962E1,-6.872858208E0,-1.991892019E0,-4.089308739E-2,7.155800865E0
1.318958662E1,-5.794467920E0,-3.717364427E0,-2.784294990E0,7.426099606E0
1.319953262E1,-2.716821045E0,-7.050699518E0,-5.464658060E0,9.325018391E0
1.320947862E1,1.263159379E0,-1.269223176E1,-3.945077224E0,1.335110306E1
1.321942462E1,5.351709149E0,-1.870165736E1,-2.847418606E-2,1.945234149E1
1.322937062E1,8.404891859E0,-2.132309979E1,1.394197236E0,2.296215534E1
1.323931762E1,7.909529198E0,-1.816212074E1,2.383877369E0,1.995259765E1
1.324926362E1,5.000882058E0,-1.398185388E1,3.515869376E0,1.525982951E1
1.325920962E1,2.589498801E0,-1.234397627E1,4.540546557E0,1.340506685E1
1.326915562E1,6.777063274E-1,-1.195021074E1,5.729686033E0,1.327012150E1
1.327910262E1,-5.339879063E-1,-1.344873750E1,5.321583710E0,1.447317991E1
1.328904862E1,-7.751260565E-1,-1.591134266E1,3.614706616E0,1.633516910E1
1.329899462E1,-6.062545216E-1,-1.629355293E1,1.642969365E0,1.638739637E1
1.330894062E1,-3.727117583E-2,-1.330835170E1,1.569580523E-1,1.330932944E1
1.331888662E1,3.441011859E-1,-9.048636974E0,-1.276215627E0,9.144668558E0
1.332883362E1,1.342165495E-1,-4.366348647E0,-3.511551207E0,5.604819932E0
1.333877962E1,-4.558527330E-1,1.713678575E-1,-6.582283750E0,6.600274845E0
1.334872562E1,2.634517099E-1,3.041416942E0,-7.620318310E0,8.209072723E0
1.335867162E1,1.903168854E0,4.353926822E0,-7.595647738E0,8.959497476E0
1.336861762E1,2.239319142E0,6.521386753E0,-1.042188656E1,1.249634966E1
1.337856462E1,1.619493379E0,1.161849936E1,-2.667272207E1,2.913840059E1
1.338851062E1,-2.324091490E0,1.003731636E1,-2.829971450E1,3.011682191E1
1.339845662E1,-7.950490698E0,9.618786693E-1,-9.876410336E0,1.271530550E1
1.340840263E1,-4.607010103E0,-2.538159370E-1,-2.636897793E0,5.314338584E0
1.341834962E1,-1.207930893E0,3.577876759E0,4.161091497E0,5.619162001E0
1.342829562E1,-1.592723802E0,7.423130318E0,7.388503107E0,1.059384779E1
1.343824162E1,2.438622218E-1,9.569212829E0,8.890806005E0,1.306429234E1
1.344818762E1,6.721484028E-1,1.140869425E1,9.985938041E0,1.517659535E1
1.345813362E1,5.868885434E-1,1.239329286E1,9.008911575E0,1.533292646E1
1.346808062E1,3.041747895E-1,1.220978735E1,6.461220074E0,1.381733673E1
1.347802663E1,-6.331313945E-2,1.270554353E1,5.685202171E0,1.391963967E1
1.348797262E1,-4.831002463E-1,1.351763525E1,5.583084058E0,1.463320457E1
1.349791862E1,-7.755296606E-1,1.440380767E1,5.870114518E0,1.557335437E1
1.350786562E1,-1.494523178E0,1.486174757E1,6.375981703E0,1.624063678E1
1.351781162E1,-2.440327559E0,1.499318012E1,7.223673606E0,1.682058587E1
1.352775762E1,-3.038302715E0,1.439276111E1,6.535701907E0,1.609652929E1
1.353770362E1,-2.944647570E0,1.332811997E1,4.304910783E0,1.431230198E1
1.354764962E1,-2.685410095E0,1.134504731E1,6.233950496E-1,1.167519367E1
1.355759662E1,-1.760981087E0,8.349534515E0,-3.301817429E0,9.149742037E0
1.356754262E1,-7.251680307E-3,5.870547797E0,-5.355347872E0,7.946265466E0
1.357748862E1,2.510038064E0,5.492234114E0,-4.048462429E0,7.270142687E0
1.358743462E1,4.687337397E0,6.118982542E0,-1.388799087E0,7.832103301E0
1.359738162E1,4.903727354E0,7.302905717E0,-7.715822053E-1,8.830306505E0
1.360732762E1,9.407017352E-1,8.449759884E0,-1.078665107E0,8.570115534E0
1.361727362E1,-1.770767865E0,9.023144867E0,-2.952517630E0,9.657645804E0
1.362721962E1,-5.856600434E-1,9.357505615E0,-2.843507988E0,9.797522478E0
1.363716562E1,8.182681292E-2,9.606957775E0,-1.733166175E0,9.762386917E0
1.364711262E1,8.963379599E-2,9.811779892E0,-8.132564807E-1,9.845833889E0
1.365705862E1,4.043174938E-1,9.780511907E0,-5.519712738E-1,9.804415234E0
1.366700462E1,1.555830357E0,9.726076083E0,-3.522292542E-1,9.856025037E0
1.367695062E1,2.960121349E0,9.866387039E0,-1.295271557E-2,1.030087760E1
1.368689662E1,3.635923238E0,1.016969498E1,5.442447996E-1,1.081382616E1
1.369684362E1,3.553321669E0,1.046605994E1,1.522306223E0,1.115714666E1
1.370678962E1,3.429634055E0,1.059446128E1,2.225240947E0,1.135591022E1
1.371673562E1,3.327046410E0,1.029110656E1,2.118827469E0,1.102114068E1
1.372668163E1,2.844027806E0,9.722489401E0,1.416024892E0,1.022841243E1
1.373662862E1,2.166463273E0,9.201099029E0,4.285891398E-1,9.462424377E0
1.374657462E1,1.408154832E0,8.289148564E0,-1.792822977E0,8.596923763E0
1.375652062E1,6.273249632E-1,6.413817866E0,-8.629835415E0,1.077054574E1
1.376646662E1,1.542248737E0,1.603557962E0,-2.699777580E1,2.708929360E1
1.377641262E1,-2.064554198E0,-9.607288728E0,-2.173239085E1,2.385076923E1
1.378635962E1,-9.777921590E0,-1.833789389E1,1.362025271E1,2.484748250E1
1.379630563E1,-1.278205084E1,-2.629052934E1,1.273633497E1,3.188709747E1
1.380625162E1,-8.928981307E0,-3.645187918E1,-1.463204906E0,3.755805069E1
1.381619762E1,1.133167078E0,-3.566278105E1,-1.431115971E1,3.844382021E1
1.382614362E1,5.146217526E0,-3.144847755E1,-3.250930281E1,4.552301686E1
1.383609062E1,1.332844040E1,-3.711532999E1,1.290549609E1,4.149393779E1
1.384603662E1,1.344726517E1,-1.792373677E1,2.849668849E1,3.625121426E1
1.385598262E1,9.658523201E0,-5.332917368E0,8.069475689E0,1.366907151E1
1.386592862E1,-1.216094263E0,-5.327246738E0,1.829762762E0,5.762505951E0
1.387587562E1,-1.143282922E1,-3.467083717E0,5.111482726E0,1.299451842E1
1.388582163E1,-1.147123841E1,1.053513309E0,1.618835567E0,1.163270516E1
1.389576762E1,-1.082666474E1,3.248796047E0,-5.470500013E-1,1.131682857E1
1.390571362E1,-1.060588440E1,4.308437238E0,2.786882383E-1,1.145098609E1
1.391565962E1,-8.373422145E0,3.419847570E0,1.693029132E0,9.201951068E0
1.392560662E1,-3.041574525E0,1.284227482E0,-5.707268393E-1,3.350543977E0
1.393555262E1,3.533841670E0,-9.057863295E-2,-2.093183920E0,4.108242978E0
1.394549862E1,6.957686689E0,-2.328348994E0,5.395646882E-1,7.356748137E0
1.395544462E1,7.997117565E0,-5.019645773E0,3.241433818E0,9.982866633E0
1.396539162E1,6.246456521E0,-6.408267689E0,6.013101161E-2,8.949174798E0
1.397533762E1,1.792546696E0,-7.469937864E0,-2.597015104E0,8.109111098E0
1.398528362E1,-2.282899171E0,-6.007597761E0,-2.073162469E0,6.752841040E0
1.399522962E1,-1.700989824E0,-2.701792531E0,-1.205274868E0,3.412585057E0
1.400517562E1,3.864351735E-1,-6.309075522E-1,-5.066086113E-1,8.966765124E-1
1.401512262E1,1.354709673E0,-1.138195610E-1,-7.547901714E-1,1.554960255E0
1.402506862E1,1.793121770E0,6.627409637E-2,-1.150211638E0,2.131352798E0
1.403501462E1,1.756229640E0,7.676622319E-1,-1.178885799E0,2.250204341E0
1.404496063E1,6.017336737E-1,1.932997109E0,-5.750900316E-1,2.104587794E0
1.405490762E1,-9.749869573E-1,3.192255810E0,7.582055300E-1,3.422860259E0
1.406485362E1,-1.904125020E0,4.264136978E0,9.928572178E-1,4.774339925E0
1.407480025E1,-9.572763258E-1,4.438140176E0,6.993117893E-1,4.593746093E0
1.408474625E1,7.532482606E-1,3.033217392E0,4.281307912E-1,3.154534302E0
1.409469225E1,1.605824051E0,1.403803042E0,-3.574689442E-1,2.162664539E0
1.410463925E1,1.646290291E0,3.372533655E-1,3.677489340E-1,1.720247318E0
1.411458525E1,6.962662670E-1,8.638150156E-2,-5.850957870E-2,7.040396645E-1
1.412453125E1,6.610275468E-2,6.351976544E-1,-1.291994923E-1,6.515659162E-1
1.413447725E1,2.734017706E-1,5.622092003E-1,7.351634073E-1,9.650352058E-1
1.414442325E1,6.537070155E-1,3.679483241E-1,-6.941820270E-1,1.022060428E0
1.415437025E1,4.637514808E-1,8.115742368E-1,-1.759000343E-1,9.511356369E-1
1.416431625E1,9.117762903E-1,1.169570600E0,8.044803947E-1,1.687133693E0
1.417426225E1,1.229019826E0,1.240658124E0,3.815670741E-1,1.787544614E0
1.418420825E1,2.535423604E-1,2.139778043E0,6.829202896E-1,2.260379155E0
1.419415525E1,3.807106031E-1,2.365927294E0,7.838210124E-1,2.521294887E0
1.420410125E1,4.970029517E-1,1.624098646E0,5.114793420E-2,1.699212893E0
1.421404725E1,9.617143625E-1,8.529660916E-1,-3.616925050E0,3.838566462E0
1.422399325E1,1.818494008E0,-1.151502119E0,-5.269473909E0,5.692120243E0
1.423393925E1,1.242933860E0,-3.265436053E0,-2.600149797E0,4.355311259E0
1.424388625E1,-6.845649652E-2,-1.537283281E0,-1.102536365E0,1.893016803E0
1.425383225E1,-5.386476986E-1,6.416243291E-1,2.311918902E-1,8.690643319E-1
1.426377825E1,-7.074880240E-1,1.478284290E0,-1.603335768E-1,1.646684731E0
1.427372425E1,-4.068634446E-1,1.366302509E0,-6.730963826E-2,1.427182888E0
1.428367025E1,3.751135752E-1,6.640828997E-1,2.353358120E-1,7.981849638E-1
1.429361725E1,5.742187234E-1,6.417962372E-2,-3.831756431E-1,6.933034977E-1
1.430356325E1,9.627801637E-1,-1.059971559E-1,2.942903638E-3,9.686019314E-1
1.431350925E1,1.359816778E0,-5.933023542E-1,-1.146030879E-1,1.488033340E0
1.432345525E1,1.127390321E0,-6.632315451E-1,-4.573078126E-1,1.385646222E0
1.433340225E1,9.689206173E-1,-3.271873838E-1,-5.104098862E-1,1.142968503E0
1.434334825E1,9.478632588E-1,-4.033666635E-1,-2.132894701E-1,1.051970447E0
1.435329425E1,1.032336156E-1,-1.521983457E-1,-2.455321866E-1,3.067695723E-1
1.436324025E1,-4.755413313E-1,2.085894781E-1,-7.270369470E-2,5.243424028E-1
1.437318625E1,-8.012973167E-1,2.883677191E-1,-1.173296446E-1,8.596508458E-1
1.438313325E1,-9.555697428E-1,1.827254891E-3,-1.103024608E-1,9.619165791E-1
1.439307925E1,-7.839788872E-1,-6.404923081E-2,3.148140907E-2,7.872206036E-1
1.440302525E1,-4.087153309E-1,3.624688983E-3,-6.938364565E-2,4.145786419E-1
1.441297125E1,-1.353076400E-1,-8.530385971E-2,-1.483462000E-1,2.181547638E-1
1.442291725E1,-6.921056807E-3,-1.347461611E-1,-1.781728470E-1,2.234949493E-1
1.443286425E1,5.133343711E-3,-2.151430374E-1,-4.512489277E-1,4.999384688E-1
1.444281025E1,-1.123661625E-1,-3.298876280E-1,-3.384678322E-1,4.858111516E-1
1.445275625E1,-1.406207856E-1,-2.417431909E-1,1.218799478E-1,3.050716266E-1
1.446270225E1,-3.198315134E-1,-4.561705291E-2,1.079869634E-1,3.406380729E-1
1.447264925E1,-5.379886443E-1,-9.108032405E-2,-1.838732976E-1,5.757923205E-1
1.448259525E1,-5.860754880E-1,-9.775199711E-2,-4.223888254E-1,7.290077163E-1
1.449254125E1,-5.769397252E-1,-2.810347259E-1,-4.853288394E-1,8.046017935E-1
1.450248725E1,-6.011678825E-1,-2.886641729E-1,-1.840609932E-1,6.918152043E-1
1.451243325E1,-6.233867173E-1,-2.456005991E-1,-3.996185982E-1,7.801446517E-1
1.452238025E1,-4.399134424E-1,-3.563568038E-1,-6.739682025E-1,8.801972201E-1
1.453232625E1,-3.817978198E-1,-4.415454733E-1,-5.346629673E-1,7.915784666E-1
1.454227225E1,-3.439753977E-1,-3.617561227E-1,-2.956878483E-2,5.000608759E-1
1.455221825E1,-1.649862794E-1,-1.824383909E-1,7.751010597E-2,2.578993125E-1
1.456216525E1,-1.860046077E-1,-1.657919526E-1,1.900111198E-1,3.133510991E-1
1.457211125E1,-2.518642095E-1,-1.420329612E-1,1.733050400E-1,3.371106332E-1
1.458205725E1,-1.150300077E-1,-2.945926648E-1,-1.602213103E-1,3.545244831E-1
1.459200325E1,1.287530574E-1,-4.766001159E-1,-4.564359927E-1,6.723532076E-1
1.460194925E1,2.476390115E-1,-3.373860973E-1,-4.607553309E-1,6.224547643E-1
1.461189625E1,3.046575502E-1,-1.440543437E-1,-4.025299269E-1,5.249744936E-1
1.462184225E1,4.310965721E-1,-4.776181161E-2,-3.995092553E-1,5.896889775E-1
1.463178825E1,4.719151074E-1,3.620537460E-2,-2.694882292E-1,5.446453924E-1
1.464173425E1,7.255568705E-2,2.712529188E-1,-3.354413134E-1,4.374509669E-1
1.465168125E1,-2.619394737E-1,4.732192558E-1,-5.290303445E-1,7.565856576E-1
1.466162725E1,-3.775034785E-1,5.344507134E-1,-5.978327769E-1,8.863128513E-1
1.467157325E1,-3.126305211E-1,6.126022589E-1,-7.234485108E-1,9.981969335E-1
1.468151925E1,-2.192806003E-1,7.320328081E-1,-7.257499748E-1,1.053882840E0
1.469146525E1,-1.898320854E-1,7.824159265E-1,-7.647292686E-1,1.110415128E0
1.470141225E1,-2.364176200E-1,9.107816058E-1,-6.582859701E-1,1.148371387E0
1.471135825E1,-1.048092940E-1,1.135214115E0,-7.631353176E-1,1.371886142E0
1.472130425E1,1.136628556E-1,1.295848823E0,-6.029145920E-1,1.433753613E0
1.473125025E1,4.467118173E-1,1.384606633E0,-4.789822716E-1,1.531701992E0
1.474119725E1,7.054381364E-1,1.405025110E0,-3.611158526E-1,1.613115986E0
1.475114325E1,1.040623122E0,1.335661930E0,-6.241569418E-1,1.804566752E0
1.476108925E1,1.243587871E0,1.261949590E0,-8.041050035E-1,1.945665033E0
1.477103525E1,1.296131244E0,1.362791256E0,-9.464531296E-1,2.105452383E0
1.478098125E1,1.248888080E0,1.553284771E0,-9.076843357E-1,2.190047002E0
1.479092825E1,1.174681651E0,1.696662592E0,-8.613492447E-1,2.236171607E0
1.480087425E1,1.007683418E0,1.770572568E0,-8.960320044E-1,2.225584517E0
1.481082025E1,1.307313167E0,1.824335377E0,-1.326236218E0,2.606946449E0
1.482076625E1,1.170905811E0,1.862180310E0,-1.611732954E0,2.726979839E0
1.483071225E1,1.006365455E0,2.039864330E0,-1.773250008E0,2.884134793E0
1.484065925E1,1.112257946E0,2.267561924E0,-1.642617363E0,3.012830334E0
1.485060525E1,1.478669914E0,2.503232782E0,-1.261473042E0,3.169219669E0
1.486055125E1,1.743050016E0,2.529443511E0,-1.416322516E0,3.382643537E0
1.487049725E1,2.113360030E0,2.398467050E0,-1.995421398E0,3.768373835E0
1.488044425E1,2.228668731E0,1.975990516E0,-2.270142885E0,3.745003545E0
1.489039025E1,1.685484762E0,1.477672087E0,-1.217918302E0,2.551019144E0
1.490033625E1,8.769491044E-1,1.390035188E0,-4.083455676E-1,1.693512226E0
1.491028225E1,2.726959386E-1,1.286312599E0,1.618363112E-1,1.324822316E0
1.492022825E1,-1.007182896E-2,6.392053360E-1,6.683741713E-1,9.248832013E-1
1.493017525E1,-2.744376779E-1,-2.825427228E-1,1.144011835E0,1.209921282E0
1.494012125E1,-5.527462857E-1,-7.217323530E-1,1.378426711E0,1.651207511E0
1.495006725E1,-4.864134248E-1,-9.178520590E-1,7.442119735E-1,1.277850493E0
1.496001325E1,-4.658908673E-1,-1.460322229E0,2.412157720E-1,1.551702407E0
1.496996025E1,-7.855188245E-1,-2.184458957E0,8.113602287E-1,2.459106785E0
1.497990625E1,-1.508252294E0,-2.363023567E0,2.644627520E0,3.853927877E0
1.498985225E1,-3.626667973E0,-2.426965209E0,2.967387099E0,5.277145716E0
1.499979825E1,-6.049233445E0,-3.065109276E0,1.248543094E0,6.895431821E0
1.500974425E1,-6.871865351E0,-4.578975043E0,-1.489573510E0,8.390969854E0
1.501969125E1,-5.257397069E0,-6.713898727E0,-3.663780836E0,9.281161031E0
1.502963725E1,-2.430218308E0,-9.953420506E0,-4.343379030E0,1.112840879E1
1.503958325E1,4.004628996E-1,-1.469246834E1,-1.872436911E0,1.481671409E1
1.504952925E1,3.544476879E0,-1.916330790E1,7.148148045E-1,1.950145241E1
1.505947625E1,6.055663628E0,-2.102424626E1,1.302189544E0,2.191770267E1
1.506942225E1,5.645665053E0,-1.907564410E1,2.175377061E0,2.001214624E1
1.507936846E1,3.568013383E0,-1.629569184E1,3.835967303E0,1.711709488E1
1.508931446E1,2.295071320E0,-1.567072506E1,4.246238651E0,1.639724120E1
1.509926046E1,8.114956648E-1,-1.699215136E1,3.815543271E0,1.743416483E1
1.510920746E1,2.911904624E-1,-1.811620840E1,3.292636716E0,1.841529949E1
1.511915346E1,-4.209425166E-1,-1.746826206E1,2.820813775E0,1.769955826E1
1.512909946E1,-1.136136805E0,-1.492732059E1,1.738719568E0,1.507112645E1
1.513904546E1,-1.707029121E0,-1.082188874E1,6.164041185E-1,1.097302047E1
1.514899246E1,-2.132188357E0,-5.560220860E0,-2.913690948E-1,5.962145515E0
1.515893846E1,-1.873240611E0,-1.902948267E0,-2.057132328E0,3.370761918E0
1.516888446E1,-8.185767891E-1,1.007678155E0,-4.900883560E0,5.069925334E0
1.517883046E1,-2.251285469E-1,4.151998492E0,-6.339954668E0,7.581873089E0
1.518877646E1,8.585018700E-1,7.169800285E0,-6.730346360E0,9.871201736E0
1.519872346E1,1.328154690E0,8.861976893E0,-8.504694475E0,1.235428903E1
1.520866946E1,3.952754326E-1,9.375567080E0,-1.233396233E1,1.549787494E1
1.521861546E1,-7.485187402E-1,1.189095038E1,-1.936188285E1,2.273406010E1
1.522856146E1,-1.287782297E0,1.123551609E1,-1.885303125E1,2.198481277E1
1.523850846E1,-2.070547156E0,7.123141258E0,-9.916391258E0,1.238390578E1
1.524845446E1,-1.161133652E0,4.830913439E0,-4.981402059E0,7.035646557E0
1.525840046E1,-4.533292209E-1,5.188877642E0,-8.667970955E-1,5.280274214E0
1.526834646E1,-9.910859500E-1,6.518133363E0,2.783055965E0,7.156375786E0
1.527829246E1,-1.059208059E0,8.145936804E0,4.712109711E0,9.470067902E0
1.528823946E1,-8.617959720E-1,9.730310637E0,6.162015710E0,1.154954869E1
1.529818546E1,-9.908836363E-1,1.046287086E1,6.866387680E0,1.255391560E1
1.530813146E1,-1.957561846E0,1.084728202E1,7.060020565E0,1.308967020E1
1.531807746E1,-2.544454775E0,1.129819474E1,6.772144597E0,1.341586363E1
1.532802446E1,-2.143829286E0,1.184139288E1,5.625278735E0,1.328376266E1
1.533797046E1,-1.869901851E0,1.262237157E1,4.924579986E0,1.367743707E1
1.534791646E1,-1.744101930E0,1.328569257E1,4.670912569E0,1.419045253E1
1.535786246E1,-1.498514780E0,1.350369314E1,3.903191864E0,1.413613037E1
1.536780846E1,-1.231049979E0,1.329581761E1,4.067995638E0,1.395861163E1
1.537775546E1,-6.482907397E-1,1.262059518E1,4.434386848E0,1.339266554E1
1.538770146E1,2.012722725E-1,1.208385353E1,3.624801250E0,1.261741696E1
1.539764746E1,9.798892629E-1,1.124998561E1,2.016771191E0,1.147125648E1
1.540759346E1,2.127299208E0,9.887952740E0,1.072965095E0,1.017095204E1
1.541754046E1,3.546898211E0,8.386895299E0,5.438563983E-1,9.122295734E0
1.542748646E1,4.737017680E0,7.728357314E0,1.210594372E-1,9.065401186E0
1.543743246E1,4.928842607E0,7.880771422E0,1.666463770E-2,9.295177532E0
1.544737846E1,1.500317476E0,8.137214513E0,4.841506986E-1,8.288523056E0
1.545732446E1,-1.361501653E0,8.797152321E0,-4.955562043E-1,8.915668885E0
1.546727146E1,-1.501956158E0,9.426165376E0,-1.009794116E0,9.598341010E0
1.547721746E1,-9.704400893E-1,9.530434679E0,-1.900157245E-1,9.581599299E0
1.548716346E1,-8.941460580E-1,9.336674910E0,7.054886417E-1,9.405886974E0
1.549710946E1,-6.873950907E-1,9.327482502E0,1.416865722E0,9.459489960E0
1.550705646E1,1.289325669E-1,9.395628292E0,1.167057467E0,9.468710458E0
1.551700246E1,1.280463337E0,9.424345722E0,2.297824189E-2,9.510962446E0
1.552694846E1,1.540097254E0,9.307963911E0,-5.273179143E-1,9.449241023E0
1.553689446E1,1.988182253E0,9.495182401E0,-3.441565883E-1,9.707203575E0
1.554684046E1,2.662887205E0,9.779150675E0,-2.118141445E-1,1.013743663E1
1.555678746E1,2.893335329E0,9.760243118E0,-1.387472646E-1,1.018101104E1
1.556673346E1,3.179325278E0,9.489924000E0,-9.067043424E-1,1.004932234E1
1.557667946E1,3.350451938E0,8.698396357E0,-4.774688952E0,1.047307414E1
1.558662546E1,4.819504936E0,6.586612444E0,-2.024119884E1,2.182469293E1
1.559657246E1,6.810290662E0,2.161382335E0,-3.024048958E1,3.107312090E1
1.560651846E1,-2.348908096E0,-6.552557091E0,-8.299044392E0,1.083178247E1
1.561646446E1,-1.052814801E1,-1.287891815E1,2.046819009E1,2.637527703E1
1.562641046E1,-1.211813809E1,-1.807968552E1,2.093467627E1,3.019908889E1
1.563635646E1,-1.535453103E1,-3.106266657E1,-4.590527971E0,3.495316616E1
1.564630346E1,-1.203220624E1,-6.035570373E1,-7.469023710E1,9.677921512E1
1.565624946E1,1.238805843E1,-6.350384932E1,-9.278551247E0,6.536279051E1
1.566619546E1,2.413075499E1,-3.295488637E1,5.086084527E1,6.523146061E1
1.567614146E1,1.265616613E1,-6.099706026E0,1.872657351E1,2.341088444E1
1.568608846E1,7.847188523E-1,2.194717897E0,-6.214116156E0,6.636852410E0
1.569603446E1,-9.791832701E0,1.637463042E0,6.719088131E0,1.198780289E1
1.570598046E1,-7.705795248E0,1.613798776E0,1.394286114E1,1.601208930E1
1.571592646E1,-7.860174020E0,2.869854373E0,6.034392042E0,1.031660250E1
1.572587246E1,-1.116757262E1,5.412614332E0,3.903955511E0,1.300968642E1
1.573581946E1,-1.101509010E1,6.429750359E0,1.979914582E0,1.290712831E1
1.574576546E1,-5.879357212E0,3.740798314E0,1.216338969E0,7.073888163E0
1.575571146E1,-1.956270781E-1,-3.424047625E-1,-1.808251441E-1,4.338302753E-1
1.576565746E1,3.898816685E0,-2.313069050E0,-2.958087103E0,5.413071151E0
1.577560446E1,7.452931822E0,-4.097159210E0,-4.170980893E0,9.472591406E0
1.578555046E1,6.977441508E0,-5.876703746E0,-3.829377784E0,9.893658126E0
1.579549646E1,5.914851565E0,-6.021872569E0,-5.817228792E0,1.025127158E1
1.580544246E1,1.838492509E0,-5.190437679E0,-6.285241102E0,8.356132701E0
1.581538846E1,1.361871343E-1,-4.000695355E0,-4.036066332E0,5.684535310E0
1.582533546E1,4.113348835E-1,-4.084835619E0,-2.523486367E0,4.819031216E0
1.583528146E1,-1.963196260E-1,-2.344904215E0,-1.165518479E0,2.625938023E0
1.584522746E1,-7.146291554E-1,1.215568306E0,1.804471216E0,2.290069323E0
1.585517346E1,-1.433678806E0,3.576806719E0,3.202451016E0,5.010456439E0
1.586512046E1,-2.438569301E0,4.040655811E0,3.230990106E0,5.719511927E0
1.587506646E1,-2.996118270E0,3.855241773E0,2.482879794E0,5.477618633E0
1.588501246E1,-2.491511161E0,3.711871553E0,1.607752755E0,4.750840685E0
1.589495846E1,-8.924587709E-1,3.333492381E0,1.663189037E0,3.830776930E0
1.590490446E1,7.581377023E-1,2.178991225E0,1.015867181E0,2.520865261E0
1.591485146E1,2.086347063E0,7.112716842E-1,-1.426942229E0,2.625817130E0
1.592479746E1,3.689730779E0,-1.307178973E0,-3.624748040E0,5.334944090E0
1.593474346E1,5.128254880E0,-3.739521866E0,-5.902098203E0,8.667051696E0
1.594468946E1,3.223849194E0,-4.772718440E0,-2.514098663E0,6.284324707E0
1.595463646E1,-5.475478917E-2,-4.342739344E0,1.104012787E-2,4.343098546E0
1.596458246E1,-3.510153138E0,-2.588360056E0,5.227831793E-1,4.392503282E0
1.597452846E1,-4.772302703E0,4.573364639E-1,-5.371720076E-2,4.794467152E0
1.598447446E1,-3.245323970E0,1.805996754E0,-7.175404841E-1,3.782673168E0
1.599442046E1,-1.883271802E0,1.832889853E0,-6.171437913E-1,2.699456307E0
1.600436746E1,-8.955917090E-1,1.901836127E0,6.093412668E-1,2.188689549E0
1.601431346E1,2.705299472E-1,1.122184179E0,1.026753527E-1,1.158889992E0
1.602425946E1,1.430754321E0,-2.136432266E-1,-2.052279139E-1,1.461102273E0
1.603420546E1,1.345749108E0,-5.864114106E-1,-1.074431139E0,1.819154000E0
1.604415246E1,1.498267150E0,-5.561801362E-1,-2.352919579E-3,1.598169682E0
1.605409846E1,1.307055012E0,-6.191745293E-1,-1.264805371E-1,1.451815150E0
1.606404446E1,7.338872525E-1,-3.935181981E-1,-4.389937484E-1,9.413620891E-1
1.607399046E1,1.556676083E-1,1.240328926E-1,-2.633977693E-1,3.301438287E-1
1.608393600E1,-4.512462965E-1,6.027754283E-1,-2.107652271E-1,7.819101086E-1
1.609388300E1,-6.205623659E-1,7.921474475E-1,-1.741493779E-1,1.021236131E0
1.610382900E1,-3.341693978E-1,6.839400440E-1,-6.327564418E-2,7.638370097E-1
1.611377500E1,3.085219020E-1,4.738267815E-1,5.753192425E-2,5.683374923E-1
1.612372100E1,1.054103805E0,2.293827617E-1,4.683450168E-1,1.176052013E0
1.613366800E1,1.310135618E0,5.752584314E-1,-3.101994681E-1,1.464104269E0
1.614361400E1,1.892730989E0,4.405520314E-1,7.543668330E-2,1.944789804E0
1.615356000E1,1.844324083E0,3.753988463E-1,1.312050873E-1,1.886708879E0
1.616350600E1,1.305534297E0,5.189111531E-1,-3.443477923E-1,1.446466034E0
1.617345200E1,1.045436697E0,2.195395589E-1,-5.320118397E-1,1.193386820E0
1.618339900E1,8.302586489E-1,1.614667672E-1,-2.951762170E-1,8.958403541E-1
1.619334500E1,3.999756804E-1,3.787194800E-1,-1.573947662E-1,5.728718023E-1
1.620329100E1,-6.240294725E-2,6.070649457E-1,-1.760105467E-1,6.351391097E-1
1.621323700E1,-1.380202730E-1,7.055367351E-1,-2.293552798E-1,7.546095180E-1
1.622318400E1,-1.797564923E-1,6.267648000E-1,-4.250159794E-1,7.783219731E-1
1.623313000E1,-1.333276631E-1,5.120681566E-1,-2.295833212E-1,5.768002810E-1
1.624307600E1,2.766511414E-2,4.016575223E-1,1.053101081E-1,4.161542294E-1
1.625302200E1,2.066812393E-1,1.966038555E-1,-4.572639585E-2,2.888963723E-1
1.626296800E1,2.783218737E-1,-1.584267998E-1,-8.378153712E-1,8.969374072E-1
1.627291500E1,9.026471056E-2,-4.500087333E-1,-5.648375237E-1,7.278028622E-1
1.628286100E1,-1.566872897E-1,-3.739335340E-1,5.664139330E-2,4.093720094E-1
1.629280700E1,-2.804698849E-1,-2.474804789E-1,2.751033103E-1,4.643186138E-1
1.630275300E1,-2.377044825E-1,-2.371332461E-1,-1.490016729E-1,3.673378498E-1
1.631270000E1,-1.539499157E-1,-4.091571611E-1,-4.925630146E-1,6.585806575E-1
