"Time (s)","Linear Acceleration x (m/s^2)","Linear Acceleration y (m/s^2)","Linear Acceleration z (m/s^2)","Absolute acceleration (m/s^2)"
1.604212495E-2,1.829590854E-1,-2.342394590E-2,3.475354750E-2,1.876979415E-1
2.598912502E-2,1.086722571E-1,-3.084932506E-2,4.284254909E-3,1.130473138E-1
3.593512496E-2,6.133232206E-2,1.343690157E-2,-1.772174120E-2,6.524005031E-2
4.588212492E-2,2.926151365E-2,3.824956119E-2,-2.278480869E-2,5.327675496E-2
5.582812498E-2,2.191507190E-2,4.603337467E-2,-6.145829301E-2,7.985276288E-2
6.577512494E-2,4.508027852E-2,5.007964790E-2,-8.474488417E-2,1.082677147E-1
7.572212501E-2,5.172856271E-2,2.381746352E-2,-7.946015239E-2,9.776007153E-2
8.566812496E-2,3.371913850E-2,-1.372516930E-2,-8.329822820E-2,9.090630008E-2
9.561512491E-2,5.293221205E-2,-6.735583127E-2,-1.036675886E-1,1.344826978E-1
1.055611250E-1,9.994265646E-2,-7.711308002E-2,-1.315786878E-1,1.823401020E-1
1.155081249E-1,1.201430324E-1,-6.728332579E-2,-1.418019597E-1,1.976592774E-1
1.254541250E-1,1.213171533E-1,-5.088480949E-2,-1.403325909E-1,1.923547545E-1
1.354011249E-1,1.376659682E-1,-5.188760698E-2,-1.297514329E-1,1.961623739E-1
1.453471250E-1,1.538656792E-1,-4.084455550E-2,-1.087932579E-1,1.928183028E-1
1.552941250E-1,1.239466462E-1,-5.552048206E-2,-1.288662193E-1,1.872212528E-1
1.652401249E-1,7.263937533E-2,-5.037668645E-2,-1.292164493E-1,1.565604680E-1
1.751871250E-1,1.831406415E-2,-1.641079545E-2,-1.096733004E-1,1.123964055E-1
1.851331249E-1,-3.442548215E-3,-4.111177325E-3,-9.467111746E-2,9.482285272E-2
1.950801250E-1,-1.839972585E-2,3.742334962E-2,-6.133557457E-2,7.416946620E-2
2.050271250E-1,-1.522585720E-2,8.059626639E-2,-4.099601666E-2,9.169655536E-2
2.149731249E-1,-3.633050501E-2,9.038801372E-2,-4.690088220E-3,9.752894722E-2
2.249201250E-1,-6.102358907E-2,5.927439451E-2,-3.810164491E-2,9.321516836E-2
2.348661249E-1,-1.047958454E-1,2.819702804E-2,-8.685688019E-2,1.390012923E-1
2.448131250E-1,-5.424608141E-2,7.278029323E-3,-1.093668697E-1,1.222976666E-1
2.547591249E-1,3.608492196E-2,-5.107542872E-3,-9.356772959E-2,1.004147828E-1
2.647061250E-1,1.313638392E-1,-3.409803808E-2,-1.793224096E-2,1.368966753E-1
2.746521250E-1,1.919404086E-1,-4.778695464E-2,5.405398211E-2,2.050525457E-1
2.845991249E-1,2.083824867E-1,-1.536355913E-2,1.157549528E-1,2.388692295E-1
2.945451250E-1,1.303709820E-1,-3.293327272E-2,9.990322430E-2,1.675167085E-1
3.044921249E-1,1.721361816E-2,-1.578689754E-2,6.118643403E-2,6.549285834E-2
3.144381250E-1,-6.578146845E-2,2.735093594E-2,1.452861328E-2,7.270733039E-2
3.243851250E-1,-1.082378089E-1,3.635915637E-2,3.346244574E-2,1.189838090E-1
3.343311250E-1,-8.999858916E-2,4.064750433E-2,6.820484698E-2,1.200161106E-1
3.442781250E-1,-4.912976772E-2,4.387750626E-2,1.308180382E-1,1.464661351E-1
3.542251249E-1,-1.834768564E-2,8.934136212E-2,1.345736682E-1,1.625687200E-1
3.641711250E-1,4.251802862E-3,5.987958133E-2,1.574538231E-2,6.206093096E-2
3.741181249E-1,3.969674706E-3,2.782046735E-2,-2.817656279E-2,3.979516819E-2
3.840641250E-1,-3.880943209E-2,-3.201350570E-3,-2.322451930E-2,4.534091928E-2
3.940111250E-1,-8.210338622E-2,-4.458911240E-2,-5.206362644E-2,1.069568893E-1
4.039571249E-1,-4.908620596E-2,-3.426351428E-2,-1.422276918E-1,1.543118931E-1
4.139041250E-1,1.081442535E-3,-2.477055967E-2,-2.007887077E-1,2.023137546E-1
4.238501249E-1,6.446438313E-2,-2.855780125E-2,-1.990070611E-1,2.111279590E-1
4.337971250E-1,5.571753323E-2,-4.434177518E-2,-2.106488675E-1,2.223591282E-1
4.437431250E-1,6.873606652E-2,-8.678320527E-2,-1.718812064E-1,2.044483326E-1
4.536901249E-1,1.513224328E-1,-1.296684390E-1,-2.200710342E-1,2.968899507E-1
4.636361250E-1,1.976744807E-1,-1.540320325E-1,-2.387711060E-1,3.461397238E-1
4.735829167E-1,1.771431524E-1,-1.341626090E-1,-2.408672963E-1,3.277138332E-1
4.835299166E-1,1.430319580E-1,-1.022707254E-1,-1.981340901E-1,2.649048130E-1
4.934759167E-1,6.963098288E-2,-4.896399915E-2,-1.949783478E-1,2.127498604E-1
5.034229166E-1,-4.033321649E-2,5.816634715E-2,-1.125203097E-1,1.329319841E-1
5.133689166E-1,-1.446896437E-1,2.207481784E-1,-2.233402491E-2,2.648842387E-1
5.233159167E-1,-2.594257557E-1,3.208361381E-1,1.217179799E-1,4.301776574E-1
5.332619166E-1,-3.049024755E-1,2.982161844E-1,2.397580794E-1,4.892671549E-1
5.432089167E-1,-2.798568043E-1,2.067663163E-1,2.722627147E-1,4.418134519E-1
5.531549166E-1,-3.030240574E-1,1.286416680E-1,2.945803857E-1,4.417576958E-1
5.631019166E-1,-3.686996913E-1,1.355115616E-1,3.200029099E-1,5.066603478E-1
5.730479166E-1,-3.188390216E-1,2.106699175E-1,3.399781680E-1,5.114931970E-1
5.829949166E-1,-2.247617072E-1,2.382869017E-1,3.486764860E-1,4.784075297E-1
5.929409167E-1,-1.989038578E-1,2.340488398E-1,3.313044083E-1,4.517789449E-1
6.028879166E-1,-2.042713094E-1,1.896252036E-1,3.443144631E-1,4.429863826E-1
6.128339167E-1,-1.879084611E-1,2.061324781E-1,3.396220726E-1,4.394807623E-1
6.227809166E-1,-1.500743446E-1,2.638199383E-1,3.132645786E-1,4.361857001E-1
6.327279166E-1,-1.124668077E-1,3.544096810E-1,3.200836015E-1,4.906205425E-1
6.426739166E-1,-1.662623611E-1,4.711212748E-1,3.892070460E-1,6.333092080E-1
6.526209166E-1,-2.226061311E-1,5.088790852E-1,4.207182759E-1,6.967892656E-1
6.625669167E-1,-4.051453865E-1,3.234597838E-1,4.165287459E-1,6.650302339E-1
6.725139166E-1,-7.176352090E-1,1.832575858E-2,4.493234396E-1,8.468929566E-1
6.824599167E-1,-9.012906978E-1,-7.965077162E-2,4.453578579E-1,1.008470520E0
6.924069166E-1,-8.654045811E-1,7.975134373E-2,3.378451037E-1,9.324294504E-1
7.023529166E-1,-7.210906211E-1,2.980816984E-1,2.224163890E-1,8.113528411E-1
7.122999167E-1,-5.901264390E-1,4.221362257E-1,2.344885504E-1,7.625175981E-1
7.222459166E-1,-5.269537058E-1,5.477654082E-1,3.812185800E-1,8.503262646E-1
7.321929167E-1,-5.131677255E-1,6.470388508E-1,5.336087143E-1,9.832286860E-1
7.421389166E-1,-4.552887690E-1,7.187391633E-1,6.227296364E-1,1.054355750E0
7.520859166E-1,-4.852013701E-1,7.371122843E-1,6.459746575E-1,1.093635290E0
7.620329167E-1,-6.091155642E-1,6.022696441E-1,6.539093292E-1,1.077658529E0
7.719789166E-1,-7.166882524E-1,4.284547269E-1,6.376879835E-1,1.050648118E0
7.819259167E-1,-6.760205752E-1,2.603437686E-1,5.080657375E-1,8.848239879E-1
7.918719166E-1,-4.565558606E-1,2.223970932E-1,3.321464074E-1,6.068154224E-1
8.018189166E-1,-1.952750757E-1,2.670984721E-1,1.271465532E-1,3.544576068E-1
8.117649166E-1,-7.266217947E-2,1.974587184E-1,-6.555664301E-2,2.203801517E-1
8.217119166E-1,1.978908277E-1,-1.116584301E-2,-2.148454142E-1,2.923080699E-1
8.316579167E-1,2.140241727E-1,6.230266750E-2,-3.273025739E-1,3.959986664E-1
8.416049166E-1,-2.532978737E-1,4.499473375E-1,-6.237469789E-1,8.097361996E-1
8.515509167E-1,-7.477545092E-1,8.323277593E-1,-1.243667686E0,1.672906339E0
8.614979166E-1,-9.708208162E-1,9.834940714E-1,-1.393067554E0,1.962241284E0
8.714439166E-1,-2.753968406E-1,7.729165399E-1,-5.992143643E-1,1.016022269E0
8.813909166E-1,5.668264541E-1,4.414215124E-1,2.467064537E-2,7.188559114E-1
8.913379166E-1,1.325630447E0,1.962676406E-1,-1.037132335E0,1.694538447E0
9.012839167E-1,2.317609120E0,2.628475463E-1,-2.363683133E0,3.320752749E0
9.112309166E-1,2.709352396E0,2.057372063E-1,-2.488543407E0,3.684530702E0
9.211769167E-1,2.505351520E0,1.238592303E-1,-2.880875205E0,3.819891268E0
9.311239166E-1,2.327039217E0,3.663491106E-1,-2.309119256E0,3.298689880E0
9.410699166E-1,1.567475087E0,7.128732365E-1,-2.341501136E0,2.906508897E0
9.510169167E-1,1.349903993E0,1.258243040E0,-1.974076138E0,2.702294014E0
9.609629166E-1,2.236166469E0,1.865216185E0,-1.486067519E0,3.269230577E0
9.709099167E-1,3.376826681E0,2.191602500E0,-1.305303040E0,4.232008504E0
9.808559166E-1,4.213971376E0,2.192556766E0,-5.223456614E-1,4.778881137E0
9.908029166E-1,4.563892150E0,2.510052974E0,-6.717073765E-1,5.251730028E0
1.000748917E0,4.489114740E0,3.099044761E0,-1.071808662E0,5.559226870E0
1.010695917E0,4.382605368E0,3.302522603E0,-4.181039858E-1,5.503516721E0
1.020642917E0,4.137103295E0,2.859231151E0,-7.821384761E-1,5.089456459E0
1.030588917E0,3.740390178E0,2.066045823E0,-9.916861667E-1,4.386628031E0
1.040535917E0,3.276659784E0,1.232503012E0,-7.628800866E-1,3.582952559E0
1.050481917E0,2.930153492E0,1.042967856E-2,-8.638688099E-1,3.054861304E0
1.060428917E0,2.719173380E0,-1.480498631E0,-7.230292654E-1,3.179394814E0
1.070374917E0,2.243559689E0,-3.125356647E0,-6.489280862E-1,3.901605043E0
1.080321917E0,1.673140852E0,-4.380833954E0,-3.799681529E-1,4.704836048E0
1.090267917E0,8.813264032E-1,-4.764070993E0,2.682448187E-1,4.852325622E0
1.100214917E0,7.506370403E-1,-4.677055653E0,3.317619529E-1,4.748512561E0
1.110160917E0,7.966572587E-1,-3.422723815E0,1.293453511E0,3.744692656E0
1.120107917E0,3.105507396E-1,-1.599263767E0,1.263451448E0,2.061648835E0
1.130053917E0,-6.727851646E-1,-5.870370626E-1,5.228916451E-1,1.034730913E0
1.140000917E0,-1.345873946E0,-7.446896911E-2,-2.145021826E-2,1.348103267E0
1.149946917E0,-1.770102159E0,-3.849362397E-1,-6.537140322E-1,1.925819202E0
1.159893917E0,-1.684576836E0,-1.268153486E0,-6.126083985E-1,2.195746213E0
1.169840917E0,-1.330303541E0,-2.029059845E0,-7.259832788E-1,2.532556631E0
1.179786917E0,-7.782345825E-1,-3.045529874E0,-1.185974379E0,3.359678036E0
1.189733917E0,-1.015559033E-1,-4.152089124E0,-1.020587053E0,4.276886207E0
1.199679917E0,-3.696331993E-2,-4.473000691E0,-6.450616148E-1,4.519425401E0
1.209626917E0,-3.502935335E-1,-4.358686455E0,-6.202609420E-1,4.416511838E0
1.219572917E0,-4.855624357E-1,-4.427881236E0,2.208820796E-1,4.459898207E0
1.229519917E0,-4.540941828E-1,-4.361817055E0,1.833279862E0,4.753163641E0
1.239465917E0,-7.497634663E-1,-4.451900429E0,1.317276822E0,4.702848170E0
1.249412917E0,-8.388414113E-1,-5.577529203E0,3.007430586E-1,5.648268169E0
1.259358917E0,-5.774888518E-1,-8.010981313E0,-3.763911188E-2,8.031857299E0
1.269305917E0,-1.064329197E0,-1.283125165E1,-2.419528136E-1,1.287759126E1
1.279251917E0,-1.064609863E0,-2.001438300E1,8.230774641E-1,2.005957072E1
1.289198917E0,-8.195700118E-1,-2.171512286E1,2.718155379E0,2.189992293E1
1.299145917E0,-1.327292225E0,-1.897150168E1,3.392870271E0,1.931815595E1
1.309091917E0,-2.233473534E0,-1.689065305E1,3.630664837E0,1.742022651E1
1.319038917E0,-4.112980314E0,-1.655833707E1,3.961588007E0,1.751540217E1
1.328984917E0,-6.208944293E0,-1.797667512E1,2.907287078E0,1.923965062E1
1.338931917E0,-7.368226132E0,-2.136540323E1,1.242315810E0,2.263436679E1
1.348877917E0,-7.794526745E0,-2.358738961E1,-1.063323768E0,2.486463861E1
1.358824917E0,-6.425562583E0,-1.877541180E1,-3.873883865E0,2.021907315E1
1.368770917E0,-2.594897828E0,-8.989669558E0,-6.300640329E0,1.128032455E1
1.378717917E0,-9.708655474E-1,-1.451108771E0,-8.834384467E0,9.005256548E0
1.388663917E0,-2.666393487E0,4.437500491E0,-1.957777492E1,2.025068729E1
1.398610917E0,-1.843102015E0,4.639115410E0,-3.116763579E1,3.156485288E1
1.408556917E0,5.967753664E0,-3.896945284E0,-2.374928498E1,2.479574164E1
1.418503917E0,2.319982798E0,-8.247367285E0,-9.566733609E0,1.284226535E1
1.428450917E0,-1.472611322E0,-8.597904355E0,-4.359770529E0,9.751930192E0
1.438396917E0,-3.082914340E0,-6.076677936E0,-6.076276817E0,9.129705117E0
1.448343917E0,-4.415562030E0,-1.084688909E0,-1.045028707E0,4.665385629E0
1.458289917E0,-1.583684680E1,1.654796528E0,1.594326027E1,2.253290075E1
1.468236917E0,-1.600011743E1,3.407934453E0,2.028210362E1,2.605727350E1
1.478182792E0,-1.105794083E1,7.420654607E0,1.700684073E1,2.160038893E1
1.488129792E0,-6.735506528E0,1.155941559E1,1.618027131E1,2.099495931E1
1.498075792E0,-3.836970393E0,1.373953240E1,1.471170217E1,2.049222470E1
1.508022792E0,-2.860477193E0,1.410131133E1,1.189352666E1,1.866776064E1
1.517968792E0,-1.978198425E0,1.470952584E1,9.540881315E-1,1.487258227E1
1.527915792E0,-2.454448292E0,1.469877515E1,-1.820082112E0,1.501302788E1
1.537861792E0,-3.216702434E0,1.366204744E1,8.703077638E0,1.651491069E1
1.547808792E0,-2.415265223E0,1.123749713E1,1.323424877E1,1.752883876E1
1.557755792E0,-2.243551795E0,1.295968223E1,1.229006728E1,1.800090670E1
1.567701792E0,-3.699861080E0,1.773740004E1,1.054281049E1,2.096318643E1
1.577648792E0,-3.522883696E0,1.932407242E1,1.355243553E1,2.386417803E1
1.587594792E0,1.451471298E0,1.800476047E1,1.317294656E1,2.235631208E1
1.597541792E0,5.821855109E0,1.907964126E1,9.976079636E0,2.230356188E1
1.607487792E0,7.429580382E0,1.977634987E1,1.155021324E1,2.407716978E1
1.617434792E0,7.950095426E0,1.885092508E1,1.143741109E1,2.343876631E1
1.627380792E0,7.185265000E0,1.680095208E1,9.371697977E0,2.053603533E1
1.637327792E0,7.935199059E0,1.625594364E1,7.303134928E0,1.950791807E1
1.647273792E0,1.170690225E1,1.813019260E1,4.487226090E0,2.204292725E1
1.657220792E0,1.698320980E1,2.068381435E1,3.295165637E0,2.696493478E1
1.667166792E0,1.660314663E1,1.877276418E1,5.121959183E0,2.557959379E1
1.677113792E0,1.032307797E1,1.447588162E1,4.345716454E0,1.830306912E1
1.687060792E0,8.623876517E0,1.155520325E1,-4.961007555E0,1.524813314E1
1.697006792E0,5.286561812E0,7.093743212E0,-2.060200479E1,2.242122944E1
1.706953792E0,6.654602844E-2,1.880568634E0,-2.609840621E1,2.616615703E1
1.716899792E0,-1.758798965E1,-6.927084117E0,-1.264685386E1,2.274345591E1
1.726846792E0,-2.537934370E1,-2.230012041E1,1.783243484E1,3.820212283E1
1.736792792E0,-7.805861573E0,-3.846474340E1,2.407059533E0,3.932253674E1
1.746739792E0,5.866830503E-1,-3.828437083E1,-7.296038162E0,3.897780676E1
1.756685792E0,-3.147615535E0,-1.305895158E1,-1.806675031E0,1.355388412E1
1.766632792E0,-3.299093504E0,4.402916549E0,1.905207047E0,5.822328226E0
1.776578792E0,-1.815053506E0,5.222981527E0,1.215981705E0,5.661498633E0
1.786525792E0,-2.416477351E-1,1.153632844E0,-3.987479478E-2,1.179344041E0
1.796471792E0,3.796835105E0,-3.992225663E0,-3.039691429E0,6.292340307E0
1.806418792E0,3.721253703E0,-7.745549297E0,-3.868058869E0,9.423541927E0
1.816364792E0,-4.022730879E-2,-9.363876157E0,-1.713828848E0,9.519506512E0
1.826311792E0,-1.271991160E0,-9.138085340E0,1.978212458E0,9.435883091E0
1.836258792E0,-4.485202076E0,-6.684822278E0,3.407191272E0,8.741443754E0
1.846204792E0,-8.656346106E0,-3.764237462E0,1.015786489E0,9.493873486E0
1.856151792E0,-1.031558184E1,-3.115675997E0,-1.134265696E0,1.083536913E1
1.866097792E0,-8.520621121E0,-2.677371050E0,4.549601555E-2,8.931481955E0
1.876044792E0,-4.921400855E0,-1.642627303E0,9.822877908E-1,5.280464008E0
1.885990792E0,-3.054459449E0,-1.557438049E0,9.988821888E-1,3.571148475E0
1.895937792E0,-2.097223031E0,-2.688350952E0,4.306111801E-1,3.436713731E0
1.905883792E0,-1.084044838E0,-4.755258654E0,-9.081456810E-1,4.961085230E0
1.915830792E0,1.668987574E-1,-6.666688308E0,-1.908922075E0,6.936610965E0
1.925776792E0,9.501637727E-1,-7.285487446E0,-2.225828007E0,7.676942675E0
1.935723792E0,8.517238507E-1,-6.348794489E0,-2.188739703E0,6.769284044E0
1.945669792E0,2.697063303E-1,-4.685656908E0,-1.479664818E0,4.921130981E0
1.955616792E0,-3.847973683E-1,-3.180880637E0,-4.944300306E-1,3.241995018E0
1.965563792E0,-9.784397382E-1,-2.004082294E0,1.382579988E-1,2.234458645E0
1.975509792E0,-1.546598480E0,-1.145743196E0,2.214194387E-1,1.937452167E0
1.985456792E0,-1.913703928E0,-5.490067720E-1,-5.439021528E-2,1.991639891E0
1.995402792E0,-1.984781512E0,-2.247769099E-1,-1.540644845E-1,2.003401651E0
2.005349792E0,-1.843887589E0,-3.460616112E-2,1.794864240E-1,1.852925903E0
2.015295792E0,-1.664143595E0,1.875038338E-1,5.591166079E-1,1.765543252E0
2.025242792E0,-1.458218985E0,5.345278966E-1,4.065256217E-1,1.605423857E0
2.035188792E0,-1.322601004E0,8.951063901E-1,3.796000707E-1,1.641519138E0
2.045135792E0,-1.048212370E0,1.268485023E0,4.177864820E-1,1.697748206E0
2.055081792E0,-5.015161251E-1,1.600604534E0,5.178414050E-1,1.755452368E0
2.065028792E0,5.387156725E-2,1.809197520E0,7.932859004E-1,1.976208575E0
2.074974792E0,4.976882453E-1,1.988459703E0,8.803336921E-1,2.230841319E0
2.084921792E0,8.327582605E-1,2.167575706E0,6.165213552E-1,2.402492319E0
2.094868792E0,1.156079465E0,2.328567680E0,2.760286322E-1,2.614371621E0
2.104814792E0,1.538102622E0,2.419630462E0,-1.270713982E-1,2.869933516E0
2.114761792E0,1.889195470E0,2.394397972E0,-4.276995590E-1,3.079793514E0
2.124707792E0,2.089277980E0,2.303976045E0,-3.724001017E-1,3.132422374E0
2.134654792E0,2.347578586E0,2.322483067E0,-4.155450980E-1,3.328322481E0
2.144600792E0,2.562439056E0,2.298144032E0,-4.995858130E-1,3.478095153E0
2.154547792E0,2.812414250E0,2.127304763E0,-5.428249495E-1,3.567878696E0
2.164493792E0,3.005898323E0,1.852768632E0,-5.467520857E-1,3.573109875E0
2.174440792E0,2.988072209E0,1.527518431E0,-4.241371429E-1,3.382570088E0
2.184386792E0,2.927717834E0,1.294304574E0,-1.898590922E-1,3.206680920E0
2.194333792E0,2.811777780E0,1.124390334E0,-8.560426041E-2,3.029467940E0
2.204279792E0,2.619176636E0,9.219223058E-1,-1.403097868E-2,2.776728985E0
2.214226792E0,2.471680329E0,9.010179251E-1,3.281996830E-1,2.651179357E0
2.224172792E0,2.530993315E0,9.623218882E-1,7.022095232E-1,2.797336017E0
2.234119792E0,2.436942313E0,7.978245091E-1,6.438404238E-1,2.643812073E0
2.244066792E0,1.963777144E0,7.348774785E-1,7.039897080E-1,2.211801774E0
2.254012792E0,1.363909536E0,6.891183382E-1,8.960017450E-1,1.771426666E0
2.263959792E0,8.003502139E-1,6.269103956E-1,1.058014057E0,1.467300533E0
2.273905792E0,3.530350006E-1,5.122038120E-1,1.066035122E0,1.234267936E0
2.283852792E0,-5.038762075E-1,2.607483959E-1,5.283181536E-1,7.752425620E-1
2.293798792E0,-1.281445669E0,1.222506613E-1,-2.390808074E-1,1.309277610E0
2.303745792E0,-1.487649337E0,5.567426383E-2,-5.662195131E-1,1.592734978E0
2.313691792E0,-1.187151569E0,1.031109703E-1,-5.275767267E-1,1.303187601E0
2.323638792E0,-7.664012799E-1,6.052955782E-1,-5.136167917E-1,1.103429140E0
2.333584792E0,-6.774348705E-1,1.453906079E0,-8.846436748E-1,1.831762900E0
2.343531792E0,-8.553125793E-1,2.125129598E0,-9.784100635E-1,2.490988091E0
2.353478792E0,-5.734512033E-1,2.308480155E0,-6.602395248E-1,2.468571072E0
2.363424792E0,-1.597345296E-1,1.973976150E0,-6.990214750E-2,1.981661745E0
2.373371792E0,-1.695347553E-1,1.507024525E0,7.826825595E-1,1.706592201E0
2.383317792E0,-9.138730288E-2,1.392944763E0,1.246292940E0,1.871334508E0
2.393264792E0,-7.013954446E-2,1.447549571E0,1.272571204E0,1.928667100E0
2.403210792E0,-2.190836222E-1,1.327044888E0,1.506102565E0,2.019254988E0
2.413157792E0,-8.239508919E-1,6.858164155E-1,1.592298856E0,1.919545487E0
2.423103792E0,-1.455494329E0,-5.772505778E-1,1.142216302E0,1.938127976E0
2.433050792E0,-1.276078364E0,-1.209624612E0,1.072438700E0,2.059536952E0
2.442996792E0,-3.353259771E-1,-3.904986960E-1,2.119051710E0,2.180667992E0
2.452943792E0,5.478197873E-1,1.156538910E0,2.734941566E0,3.019535418E0
2.462889792E0,8.340804622E-1,2.387806991E0,2.027989805E0,3.241921512E0
2.472836500E0,8.102533507E-1,2.988500226E0,6.590209651E-1,3.165746788E0
2.482782500E0,1.633345871E0,2.747846956E0,1.110990562E0,3.384195866E0
2.492729500E0,2.240025924E0,2.067108847E0,2.825491840E0,4.156207317E0
2.502676500E0,1.624902053E0,1.266059598E0,2.221838745E0,3.029815340E0
2.512622500E0,1.289228898E0,4.650273067E-1,-2.183247998E-1,1.387813844E0
2.522569500E0,6.625278327E-1,-9.749471962E-2,-1.140962512E0,1.322967802E0
2.532515500E0,1.893544775E-1,-4.659985292E-1,-2.093268120E-1,5.448187420E-1
2.542462500E0,1.010833021E0,-5.850267899E-1,1.004551649E-3,1.167921551E0
2.552408500E0,2.267101749E0,2.294377255E-1,-6.602579436E-1,2.372410707E0
2.562355500E0,3.321154464E0,7.100408453E-1,1.124115515E-1,3.398067293E0
2.572301500E0,2.119063112E0,1.158841544E0,2.381896040E0,3.392163166E0
2.582248500E0,-7.586418785E-2,2.189163042E0,3.817652947E0,4.401438881E0
2.592194500E0,-7.299362889E-1,3.024209172E0,4.465351948E0,5.442243666E0
2.602141500E0,-9.254265422E-1,2.877918853E0,2.273010945E0,3.782249326E0
2.612087500E0,-1.671685918E0,1.782896744E0,2.574803871E0,3.550052054E0
2.622034500E0,-3.083836738E0,3.830025655E-1,3.535135367E0,4.706795306E0
2.631981500E0,-3.477912760E0,-8.481971025E-1,3.076983801E0,4.720502601E0
2.641927500E0,-2.157768756E0,-1.639510152E0,2.155777194E0,3.462850684E0
2.651874500E0,-1.278084982E0,-1.817859585E0,2.268118579E0,3.175291575E0
2.661820500E0,-1.872460300E0,-2.034602421E0,2.838885764E0,3.962951800E0
2.671767500E0,-1.924364133E0,-1.539060835E0,3.572247645E0,4.339681878E0
2.681713500E0,-1.150580598E0,-1.473788366E0,3.628573288E0,4.081964229E0
2.691660500E0,-1.204295606E0,-1.666999083E0,2.804074366E0,3.477362060E0
2.701606500E0,-9.688516201E-1,-1.940625386E0,1.236060458E0,2.496506721E0
2.711553500E0,-9.628506227E-1,-1.176431723E0,-8.546038967E-1,1.743966955E0
2.721499500E0,7.148718148E-2,-6.560780615E-1,-1.170787990E-1,6.702658316E-1
2.731446500E0,-4.352190784E-1,-2.176801443E-2,-2.605612850E-1,5.077220459E-1
2.741392500E0,-4.539642285E-1,-5.261131686E-1,-2.585217762E0,2.676981409E0
2.751339500E0,-3.649823239E-1,-1.716763566E0,-1.722553478E0,2.459203067E0
2.761285500E0,-7.472838083E-1,-1.956925669E0,-3.509275471E0,4.086931061E0
2.771232500E0,-8.295403916E-1,-2.035274558E0,-4.187250186E0,4.729010880E0
2.781179500E0,-2.409476772E-1,-2.101434926E0,-3.959249121E0,4.488845969E0
2.791125500E0,8.618632150E-1,-2.581161548E0,-4.299567597E0,5.088367583E0
2.801072500E0,3.436139667E-1,-1.839165670E0,-6.453155594E0,6.718914945E0
2.811018500E0,-8.936799619E-1,-3.162574759E-1,-6.974982753E0,7.039109821E0
2.820965500E0,-3.009766549E-2,-2.392647901E0,-6.621708602E0,7.040787928E0
2.830911500E0,6.936063686E-1,-4.341660533E0,-5.611943575E0,7.129166618E0
2.840858500E0,1.308499567E0,-2.380436868E0,-4.103341472E0,4.920981816E0
2.850804500E0,2.309562474E0,1.000438133E-1,-4.122803929E0,4.726690155E0
2.860751500E0,3.119033175E0,1.495234492E0,-5.179466549E0,6.228239548E0
2.870697500E0,3.376841591E0,1.855831111E0,-5.637063798E0,6.828151764E0
2.880644500E0,3.336196718E0,1.931864211E0,-4.101842830E0,5.629158239E0
2.890590500E0,3.493539152E0,1.873982331E0,-2.722630838E0,4.809297689E0
2.900537500E0,2.959698303E0,1.392261223E0,-1.577268881E0,3.631250815E0
2.910483500E0,2.159803002E0,9.365122783E-1,-8.046002626E-1,2.487807436E0
2.920430500E0,1.510078526E0,6.482246661E-1,3.743837696E-1,1.685436317E0
2.930377500E0,1.100169705E0,7.940729356E-1,2.806184626E0,3.116985300E0
2.940323500E0,9.181578684E-1,1.774278533E0,5.260042934E0,5.626644636E0
2.950270500E0,6.484430596E-1,3.200668784E0,6.195970491E0,7.003913863E0
2.960216500E0,3.138238648E-1,4.514154857E0,6.172333122E0,7.653350616E0
2.970163500E0,2.540971881E-1,5.475418106E0,5.908849398E0,8.059731387E0
2.980109500E0,5.491766337E-1,5.864627491E0,5.196043990E0,7.854573428E0
2.990056500E0,9.729752228E-1,5.373716900E0,4.007036076E0,6.773466780E0
3.000002500E0,1.096797908E0,3.711450554E0,2.641080306E0,4.685417382E0
3.009949500E0,9.573441535E-2,1.843739362E0,2.175297539E0,2.853149014E0
3.019895500E0,-1.215411163E0,1.108221028E0,2.668313713E0,3.134529664E0
3.029842500E0,-1.980801459E0,1.523645820E0,3.436412732E0,4.249000291E0
3.039788500E0,-2.690539564E0,2.367792556E0,3.295836897E0,4.869084677E0
3.049735500E0,-3.066071143E0,3.292720916E0,3.858452479E0,5.927095310E0
3.059682500E0,-3.082619055E0,4.231080914E0,5.331603498E0,7.471986470E0
3.069628500E0,-3.235250387E0,4.689742942E0,5.444907920E0,7.880834739E0
3.079575500E0,-3.300920174E0,4.455105287E0,5.089434046E0,7.526378679E0
3.089521500E0,-3.550352161E0,3.971693165E0,3.823115416E0,6.557099858E0
3.099468500E0,-3.495710515E0,3.506405073E0,3.500592940E0,6.063746324E0
3.109414500E0,-2.861313930E0,2.671195221E0,3.594641896E0,5.314494489E0
3.119361500E0,-3.029356768E0,1.983217674E0,3.727362581E0,5.196478287E0
3.129307500E0,-3.064189216E0,1.476604385E0,3.411384895E0,4.817381339E0
3.139254500E0,-2.917721434E0,1.133439485E0,2.559975332E0,4.043668772E0
3.149200500E0,-2.448906301E0,7.473875964E-1,1.738147418E0,3.094654543E0
3.159147500E0,-2.201227748E0,3.031255066E-1,1.498983434E0,2.680343263E0
3.169093500E0,-2.228230921E0,-2.648484635E-1,1.574503148E0,2.741207381E0
3.179040500E0,-2.123514305E0,-9.572546911E-1,1.272938263E0,2.654434284E0
3.188987500E0,-2.281689090E0,-1.411168195E0,8.577187085E-1,2.816590521E0
3.198933500E0,-2.387297260E0,-1.771667166E0,9.417350113E-1,3.118470392E0
3.208880500E0,-2.289221765E0,-1.824051202E0,1.482697476E0,3.281172182E0
3.218826500E0,-2.153171383E0,-1.464138122E0,1.774655094E0,3.151070952E0
3.228773500E0,-1.654483117E0,-8.353449225E-1,1.550568740E0,2.416480694E0
3.238719500E0,-9.243652725E-1,-6.898802304E-1,1.021542488E0,1.540757912E0
3.248666500E0,-6.245753101E-1,-1.220913831E0,9.058681905E-1,1.643569919E0
3.258612500E0,-1.587007126E0,-1.801007910E0,1.068409968E0,2.627493286E0
3.268559500E0,-2.617709570E0,-1.753344916E0,1.029636789E0,3.314630252E0
3.278505500E0,-2.642460834E0,-1.272362312E0,7.665217325E-1,3.031346347E0
3.288452500E0,-2.152741466E0,-1.009857413E0,5.786752519E-1,2.447237802E0
3.298398500E0,-2.005006447E0,-1.371828128E0,3.611754942E-1,2.456096700E0
3.308345500E0,-1.961537368E0,-1.847968068E0,5.154577875E-1,2.743776878E0
3.318291500E0,-1.240727121E0,-3.123525299E0,1.571896751E-1,3.364598442E0
3.328238500E0,-6.842480461E-1,-5.222714310E0,-1.695659502E0,5.533552322E0
3.338185500E0,-9.951161434E-1,-7.654562529E0,-5.922766356E0,9.729426754E0
3.348131500E0,-1.299518243E0,-1.089082741E1,-1.256114771E1,1.667576988E1
3.358078500E0,-9.682360545E-1,-1.258005293E1,-1.198631846E1,1.740307568E1
3.368024500E0,-9.206233469E-1,-1.219039681E1,-6.666048038E0,1.392442165E1
3.377971500E0,-1.487199248E0,-1.258855712E1,-4.627796370E0,1.349444445E1
3.387917500E0,-5.983102021E-1,-1.104962843E1,-4.751535147E0,1.204281320E1
3.397864500E0,-8.093189657E-2,-6.635228534E0,-4.450582466E0,7.990024528E0
3.407810500E0,-3.310088316E-1,-2.998495456E0,-3.015880398E0,4.265685926E0
3.417757500E0,-2.185820773E-1,-7.785725516E-1,-1.286725413E0,1.519741962E0
3.427703500E0,5.103332877E-1,8.831008869E-1,-1.674606749E-1,1.033610332E0
3.437650500E0,7.314299601E-1,2.276485945E0,1.093533115E-1,2.393603182E0
3.447596500E0,1.129949867E0,3.519827356E0,5.736924009E-1,3.741001776E0
3.457543500E0,3.453486894E0,4.919009344E0,2.201466461E-1,6.014290415E0
3.467490500E0,7.075971769E0,5.953460146E0,-2.112539227E0,9.485561985E0
3.477437542E0,8.423460862E0,6.018617424E0,-2.090227568E0,1.056160499E1
3.487384542E0,7.239119611E0,4.728361462E0,-9.163968332E-1,8.694943244E0
3.497330542E0,6.485870181E0,3.145745888E0,4.610411136E-1,7.223211758E0
3.507277542E0,7.569728200E0,2.484770783E0,1.346418468E0,8.080081284E0
3.517223542E0,8.957934964E0,2.331405918E0,2.108290787E0,9.493415740E0
3.527170542E0,9.311971593E0,1.965169659E0,1.750597748E0,9.676740113E0
3.537116542E0,8.273787344E0,1.087180408E0,-1.066219748E0,8.412748826E0
3.547063542E0,6.272146263E0,1.897444868E-1,-3.267445157E0,7.074745194E0
3.557009542E0,4.834188172E0,-6.971401334E-1,-3.303570424E0,5.896520770E0
3.566956542E0,3.850561369E0,-1.861782700E0,-2.741857360E0,5.080436936E0
3.576902542E0,1.534887531E0,-4.213659135E0,2.064115365E-1,4.489254811E0
3.586849542E0,-1.560138001E-1,-6.379273100E0,2.589146799E0,6.886446598E0
3.596795542E0,1.324452817E-1,-7.132595036E0,2.357950523E0,7.513413630E0
3.606742542E0,1.121268652E0,-6.333323341E0,2.007392549E0,6.737792871E0
3.616689542E0,1.248592796E0,-4.019738567E0,3.541681910E-1,4.224064065E0
3.626635542E0,1.514870173E0,-1.634528909E0,-7.986475047E-1,2.367351734E0
3.636582542E0,1.292153968E0,-2.144688535E-1,7.315919280E-2,1.311873101E0
3.646528542E0,9.564709450E-1,5.181972080E-1,4.568341881E-2,1.088784639E0
3.656475542E0,4.247967088E-1,1.852257586E-1,-9.271064472E-1,1.036478263E0
3.666421542E0,-4.786997779E-1,-1.368948374E0,-1.413636597E0,2.025226298E0
3.676368542E0,-1.231456946E0,-3.352716857E0,-1.379846707E0,3.828991181E0
3.686314542E0,-1.446598229E0,-4.818485767E0,-1.207804081E0,5.173900097E0
3.696261542E0,-1.386303495E0,-5.754197561E0,-4.427146241E-1,5.935370518E0
3.706207542E0,-1.580911111E0,-6.464088718E0,-2.210633433E-1,6.658272441E0
3.716154542E0,-1.841023330E0,-7.395380017E0,-6.762082708E-1,7.651030658E0
3.726100542E0,-2.047838763E0,-7.704404780E0,-4.360642934E-1,7.983836714E0
3.736047542E0,-2.595871681E0,-7.024613335E0,-8.777717346E-1,7.540174104E0
3.745993542E0,-2.593502682E0,-6.605708866E0,-1.518432735E0,7.257222867E0
3.755940542E0,-1.820405024E0,-7.631304644E0,-1.950434383E0,8.084236470E0
3.765887542E0,-6.811405434E-1,-1.036622224E1,-1.766431862E0,1.053768463E1
3.775833542E0,1.009994091E0,-1.376447545E1,-1.224317788E0,1.385567850E1
3.785780542E0,2.359376220E0,-1.636940769E1,1.294621785E-1,1.653907267E1
3.795726542E0,2.698879741E0,-1.718601345E1,2.467244339E0,1.757072295E1
3.805673542E0,2.116567520E0,-1.820476097E1,4.296585517E0,1.882428823E1
3.815619542E0,9.332676584E-1,-1.903061002E1,5.651415789E0,1.987394291E1
3.825566542E0,-1.324783770E0,-1.937154479E1,6.475477924E0,2.046811212E1
3.835512542E0,-2.370313291E0,-2.032072798E1,6.732322719E0,2.153774687E1
3.845459542E0,-2.562067173E0,-1.987726346E1,5.649179814E0,2.082265649E1
3.855405542E0,2.580697864E-2,-1.693117893E1,5.749619776E0,1.788081692E1
3.865352542E0,2.663327792E0,-1.200955881E1,8.028204871E0,1.468927810E1
3.875298542E0,3.086753621E0,-5.263319714E0,6.752696757E0,9.101071136E0
3.885245542E0,2.700772192E0,4.845534986E-1,-5.825916585E0,6.439741189E0
3.895192542E0,-9.461771411E0,7.658966067E0,-5.865785942E1,5.990767355E1
3.905138542E0,-7.846435987E0,-2.838402200E0,-5.032595133E1,5.101298327E1
3.915085542E0,1.255587352E1,-9.825511494E0,-1.278437101E1,2.043601669E1
3.925031542E0,9.470879034E0,-1.019749849E1,7.910606840E0,1.600825492E1
3.934978542E0,-2.037578069E0,-9.935906925E0,1.684671356E1,1.966432630E1
3.944924542E0,-7.746129341E0,-8.927717723E0,1.359031964E1,1.801120350E1
3.954871542E0,-9.031598187E0,-4.289898641E0,6.134395802E0,1.173046495E1
3.964817542E0,-6.210334176E0,3.596814721E0,-8.000499594E0,1.074771234E1
3.974764542E0,-4.539137962E0,1.011652742E1,-1.879780196E1,2.182441887E1
3.984710542E0,-8.023812443E0,1.003641355E1,-5.458598006E-1,1.286114792E1
3.994657542E0,-9.789254079E0,1.021667736E1,1.102882053E1,1.794003550E1
4.004603542E0,-1.064551800E1,1.186443325E1,1.180341873E1,1.983462940E1
4.014550542E0,-1.130812565E1,1.209841543E1,1.452912637E1,2.203045335E1
4.024496542E0,-9.889026289E0,1.121929709E1,1.361629765E1,2.022545500E1
4.034443542E0,-5.715006598E0,1.079869985E1,8.709052323E0,1.500402650E1
4.044390542E0,-2.200109029E0,9.387559719E0,3.616964226E0,1.029801862E1
4.054336542E0,5.713434282E-1,4.899897720E0,8.168624586E0,9.542633735E0
4.064283542E0,1.552190757E0,3.044720035E0,1.220605800E1,1.267546717E1
4.074229542E0,-6.489948906E-1,6.164097319E0,1.037002760E1,1.208117389E1
4.084176542E0,-3.053713929E0,9.508423421E0,9.735328717E0,1.394675267E1
4.094122542E0,-4.145662449E0,1.423456119E1,1.110417827E1,1.852328331E1
4.104069542E0,-3.987802537E0,1.962522039E1,8.147512629E0,2.162021754E1
4.114015542E0,-8.100367114E-2,2.335226840E1,8.395211209E0,2.481561146E1
4.123962542E0,4.098835022E0,2.523603780E1,1.221294368E1,2.833397334E1
4.133908542E0,6.652844440E0,2.376358961E1,1.151412072E1,2.723129645E1
4.143855542E0,7.318158179E0,2.094204143E1,8.433428026E0,2.373283056E1
4.153802542E0,7.981051755E0,1.943102501E1,5.262356093E0,2.165535295E1
4.163748542E0,9.613190323E0,1.965547389E1,3.271098497E0,2.212354328E1
4.173695542E0,1.247392830E1,2.115294348E1,3.880166114E0,2.486164906E1
4.183641542E0,1.185250727E1,2.066484130E1,5.881987875E0,2.453803937E1
4.193588542E0,7.448256973E0,1.719124905E1,5.643265940E0,1.956686041E1
4.203534542E0,4.232897352E0,1.401222900E1,4.493840752E0,1.531190995E1
4.213481542E0,2.004898565E0,1.230264581E1,1.632748432E0,1.257141916E1
4.223427542E0,3.073428109E-1,1.163915874E1,-3.049456279E0,1.203593202E1
4.233374542E0,-1.079100067E0,1.201017043E1,-1.176701279E1,1.684847888E1
4.243320542E0,-4.237529808E0,1.260607771E1,-1.306804985E1,1.864520799E1
4.253267542E0,-8.820441197E0,2.828953684E0,-1.074958441E1,1.419002208E1
4.263213542E0,-4.602802154E0,-2.478923100E1,-2.235278277E0,2.531181997E1
4.273160542E0,1.975917543E1,-4.415805099E1,1.815612266E1,5.167207438E1
4.283106542E0,1.438983283E1,-5.117009281E1,-9.760116819E-1,5.316388140E1
4.293053542E0,-1.724834010E1,-4.288464904E1,-7.247517382E0,4.678808467E1
4.303000542E0,-1.680385464E1,-2.293875564E1,-2.232313505E1,3.615077316E1
4.312946542E0,-1.208053114E1,-4.114219632E0,-1.908295839E0,1.290378351E1
4.322893542E0,-6.359059861E0,2.919297844E0,8.632175471E0,1.111190333E1
4.332839542E0,6.772576998E-1,9.160659100E0,6.116177632E0,1.103557801E1
4.342786542E0,2.144606381E0,8.192050286E0,2.562994834E0,8.847483650E0
4.352732542E0,-2.671926415E0,-9.469045347E-1,-3.268546772E0,4.326571040E0
4.362679542E0,-1.099596532E0,-1.186182539E1,-5.704176385E0,1.320793862E1
4.372625542E0,2.514587782E0,-1.637203309E1,7.201536047E-1,1.657966346E1
4.382572542E0,2.006093882E0,-1.362488487E1,4.221304662E0,1.440421166E1
4.392518542E0,-2.408030609E0,-1.063333708E1,-6.735995355E-1,1.092337884E1
4.402465542E0,-1.226480497E1,-8.016718601E0,-4.560386159E0,1.534569451E1
4.412411542E0,-1.154542086E1,-3.029491546E0,-2.170664206E0,1.213203796E1
4.422358542E0,-6.142918119E0,3.931042153E-1,7.772063497E-1,6.204355216E0
4.432304542E0,-2.887790414E0,9.657992274E-1,1.388078125E0,3.346470156E0
4.442251542E0,-1.030346422E0,6.320389885E-1,9.363558653E-1,1.529002727E0
4.452198542E0,3.800993498E-1,-4.571604627E-1,8.138768703E-2,6.000792948E-1
4.462144542E0,1.400293836E0,-1.928857280E0,-4.633570495E-1,2.428170708E0
4.472091542E0,2.494702279E0,-3.079746026E0,-1.152477727E0,4.127539213E0
4.482037542E0,2.851252626E0,-3.830989861E0,-1.908808055E0,5.142924561E0
4.491984542E0,2.525529969E0,-3.816709206E0,-1.135213822E0,4.715324084E0
4.501930542E0,1.943582616E0,-2.685730230E0,6.676029235E-2,3.315888597E0
4.511877542E0,1.064051454E0,-1.275168391E0,2.267219862E-1,1.676204874E0
4.521823542E0,4.028997633E-1,-9.277952492E-2,-1.770653844E-1,4.497648384E-1
4.531770542E0,1.530362973E-2,9.467548460E-1,-6.306236699E-1,1.137657748E0
4.541716542E0,-1.581183591E-1,1.917816567E0,-7.665629554E-1,2.071386146E0
4.551663542E0,-3.338491166E-1,2.697190772E0,-5.130276847E-1,2.765771267E0
4.561609542E0,-6.182195328E-1,3.204766513E0,-3.239971429E-1,3.279892977E0
4.571556542E0,-7.345939616E-1,3.510195823E0,-3.160703650E-1,3.600139369E0
4.581502542E0,-7.806016085E-1,3.591439961E0,-3.190056673E-1,3.689111611E0
4.591449542E0,-6.306563412E-1,3.486991147E0,-2.870525341E-1,3.555170016E0
4.601396542E0,-1.973553689E-1,3.228383417E0,-1.525529793E-1,3.238005720E0
4.611342542E0,4.145447856E-1,2.763855463E0,-1.036652863E-1,2.796692849E0
4.621289542E0,1.232748449E0,2.159255118E0,-5.068213038E-1,2.537502559E0
4.631235542E0,1.787758850E0,1.516390595E0,-5.670615122E-1,2.411862538E0
4.641182542E0,2.345198476E0,9.681784594E-1,-3.215030131E-1,2.557477197E0
4.651128542E0,2.616341321E0,7.398774326E-1,1.281980105E-1,2.721965330E0
4.661075542E0,2.682501689E0,7.177924991E-1,6.188472314E-1,2.844997941E0
4.671021542E0,2.486032612E0,6.388112336E-1,9.384468296E-1,2.732969153E0
4.680968542E0,2.314999216E0,5.217318499E-1,1.097819417E0,2.614695577E0
4.690914542E0,2.252511776E0,6.062463355E-1,1.350346481E0,2.695325498E0
4.700861542E0,2.325849455E0,6.950684649E-1,1.587269081E0,2.900365321E0
4.710807542E0,2.184530293E0,7.356803012E-1,1.640040933E0,2.828980800E0
4.720754542E0,1.367715489E0,8.609919798E-1,1.446297097E0,2.168808000E0
4.730701542E0,8.265442783E-1,1.085023370E0,1.300698065E0,1.884745769E0
4.740647542E0,6.868592665E-1,1.350272952E0,9.530132671E-1,1.789761712E0
4.750594542E0,6.148056360E-1,1.725771201E0,9.591001455E-1,2.067884256E0
4.760540542E0,3.510940173E-1,1.971698075E0,6.070687464E-1,2.092699876E0
4.770487542E0,1.736544111E-1,1.956534491E0,1.990170014E-1,1.974282359E0
4.780433542E0,1.244227557E-1,1.361071590E0,-2.515776229E-1,1.389707954E0
4.790380542E0,3.227712741E-1,6.119228125E-1,-3.073555286E-1,7.570325256E-1
4.800326542E0,3.562341584E-1,2.934249759E-2,-4.384474723E-1,5.656853752E-1
4.810273542E0,2.267830896E-1,-4.246440965E-1,-7.560987052E-1,8.963472711E-1
4.820219542E0,8.382275999E-2,-5.368363774E-1,-6.859298515E-1,8.750538911E-1
4.830166542E0,2.337528245E-1,-2.048115921E-1,-3.918311302E-1,5.001197915E-1
4.840112542E0,4.512407416E-1,5.715132898E-1,-1.060626447E-1,7.358633922E-1
4.850059542E0,1.727513087E-1,1.360410855E0,-2.008774392E-1,1.385969860E0
4.860006542E0,-9.416993433E-1,1.999108068E0,-9.257241654E-1,2.395870604E0
4.869952542E0,-2.700052984E0,2.634584050E0,-1.875441649E0,4.212908807E0
4.879899542E0,-4.197343065E0,3.004462540E0,-2.454313806E0,5.715604973E0
4.889845542E0,-4.080067214E0,3.071830065E0,-2.283415919E0,5.594379026E0
4.899792542E0,-2.535688922E0,3.059401224E0,-6.127399608E-1,4.020585084E0
4.909738542E0,-1.573770784E-1,3.301788778E0,2.218244461E0,3.980852317E0
4.919685542E0,1.871195694E0,3.667596436E0,4.507567383E0,6.104981626E0
4.929631542E0,2.829261832E0,3.776918904E0,3.814555092E0,6.068003747E0
4.939578542E0,3.763409497E0,3.695770660E0,7.139090708E-1,5.322747220E0
4.949524542E0,3.464916154E0,2.861513904E0,-1.675208573E0,4.795855455E0
4.959471542E0,2.557888168E0,1.961312835E0,-6.023529670E-1,3.279080514E0
4.969417542E0,4.201748649E0,1.553514567E0,2.198164830E0,4.989992770E0
4.979364542E0,4.987558007E0,1.130451558E0,2.158613971E0,5.550970174E0
4.989311542E0,3.041482431E0,1.095005152E0,9.599142972E-1,3.372104257E0
4.999257542E0,1.389771186E0,1.516823289E0,2.016782739E0,2.880907749E0
5.009204542E0,6.948059249E-1,1.955655069E0,2.816061451E0,3.498220136E0
5.019150542E0,1.142784724E0,1.661137249E0,2.790541863E0,3.442739864E0
5.029097542E0,1.907411447E0,7.823720723E-1,3.711779752E0,4.245896067E0
5.039043542E0,2.071222217E0,-9.698811686E-1,1.646633815E0,2.818161435E0
5.048990542E0,7.994985670E-2,-3.228072345E0,4.648559833E-1,3.262351013E0
5.058936542E0,-3.524194642E0,-4.849031621E0,2.410355024E0,6.460871990E0
5.068883542E0,-6.698305373E0,-5.230671785E0,4.490939364E0,9.612271249E0
5.078829542E0,-7.172754298E0,-4.510890064E0,4.780577683E0,9.728846610E0
5.088776542E0,-5.472610273E0,-2.755845362E0,4.461544826E0,7.579546761E0
5.098722542E0,-4.081526679E0,-1.143206674E0,4.099564170E0,5.896796412E0
5.108669542E0,-2.797322586E0,-3.503815341E-1,3.871067846E0,4.788835677E0
5.118615542E0,-2.398138728E0,2.151775360E-4,3.038817855E0,3.871108803E0
5.128562542E0,-1.935513312E0,5.257348537E-2,2.884847803E0,3.474380894E0
5.138508542E0,-1.480150283E0,-3.819003654E-1,3.790784406E0,4.087387817E0
5.148455542E0,-6.279491535E-1,-8.068759990E-1,4.190843300E0,4.313761303E0
5.158402542E0,-6.317833190E-1,-5.612648749E-1,2.866289910E0,2.988274798E0
5.168348542E0,-1.289256234E0,7.386366534E-1,1.236847494E0,1.933276355E0
5.178295542E0,-1.277641617E0,1.998054399E0,-1.060425303E0,2.597901328E0
5.188241542E0,1.324084735E0,7.334928578E-1,8.893691021E-1,1.755616575E0
5.198188542E0,-8.237724057E-1,-2.479365617E-1,3.076302016E-1,9.136245706E-1
5.208134542E0,-3.974666182E0,-7.963972038E-1,-3.014466541E0,5.051655995E0
5.218081542E0,-3.565413711E0,-9.768484184E-1,-4.002790997E0,5.448737793E0
5.228027542E0,-2.293727045E0,-3.810668448E-1,-6.083808031E0,6.512995920E0
5.237974542E0,-1.069037667E0,-4.549624944E-1,-5.806079321E0,5.921181426E0
5.247920542E0,2.859835169E-1,-1.932570847E0,-7.877046161E0,8.115693000E0
5.257867542E0,2.065542963E0,-2.876114694E0,-8.369520882E0,9.087760080E0
5.267813542E0,3.295618796E0,-1.285538428E0,-9.713559533E0,1.033764727E1
5.277760542E0,5.596149076E0,-1.395003860E0,-9.078441986E0,1.075551157E1
5.287706542E0,7.354337826E0,-4.473926890E0,-8.595085412E0,1.216461261E1
5.297653542E0,6.727408719E0,-5.357596126E0,-7.269170791E0,1.126067086E1
5.307600542E0,5.914880801E0,-3.485957652E0,-5.565091006E0,8.837870419E0
5.317546542E0,5.142931391E0,-1.175109667E0,-4.738581226E0,7.091176070E0
5.327493542E0,5.130803096E0,5.234082466E-1,-3.810573138E0,6.412453840E0
5.337439542E0,4.993285940E0,1.603855293E0,-2.494602876E0,5.807607062E0
5.347386542E0,4.261829667E0,2.244735856E0,-1.474748479E0,5.037550422E0
5.357332542E0,3.185748737E0,2.910458900E0,-6.122251135E-1,4.358277826E0
5.367279542E0,2.223005849E0,3.592205653E0,4.377892220E-1,4.247040836E0
5.377225542E0,1.398258420E0,4.153838611E0,1.882421032E0,4.770011609E0
5.387172542E0,5.529749849E-1,4.487609959E0,3.589432611E0,5.773079850E0
5.397118542E0,-2.501342377E-1,4.808986088E0,4.597411314E0,6.657710201E0
5.407065542E0,-3.346139324E-1,5.003397530E0,5.101142510E0,7.153153726E0
5.417011542E0,-4.842400879E-2,4.849842338E0,5.916418034E0,7.650314892E0
5.426958542E0,-2.051293883E-1,4.399709059E0,6.778132145E0,8.083476557E0
5.436904542E0,-9.206557989E-1,3.934803082E0,6.914669309E0,8.008928395E0
5.446851542E0,-1.392768762E0,3.503851594E0,6.519317424E0,7.531153994E0
5.456798542E0,-1.278978290E0,3.164775651E0,6.126898502E0,7.013592207E0
5.466744542E0,-9.127776991E-1,3.002236505E0,5.789726998E0,6.585402483E0
5.476691375E0,-7.664344628E-1,3.147515840E0,5.852902654E0,6.689599931E0
5.486637375E0,-1.013663073E0,3.378505417E0,5.865815645E0,6.844677119E0
5.496584375E0,-1.294249610E0,3.502448262E0,6.004919736E0,7.071158810E0
5.506530375E0,-1.400934544E0,3.750511708E0,7.066489924E0,8.121836955E0
5.516477375E0,-1.659730555E0,4.074624626E0,7.281704882E0,8.507672852E0
5.526423375E0,-1.728827395E0,4.243384041E0,6.542352530E0,7.987335532E0
5.536370375E0,-1.591000189E0,4.156395013E0,5.859257408E0,7.357839254E0
5.546316375E0,-1.383712886E0,3.933912551E0,5.263955891E0,6.715620666E0
5.556263375E0,-1.182514800E0,3.613406196E0,4.792203117E0,6.117209846E0
5.566209375E0,-1.023001222E0,3.196779801E0,4.042149190E0,5.254036798E0
5.576156375E0,-1.286699100E0,2.956280313E0,3.008652654E0,4.409895538E0
5.586102375E0,-1.358328077E0,2.626399702E0,1.719747984E0,3.420608672E0
5.596049375E0,-1.552418799E0,2.164025277E0,1.532267540E0,3.072597165E0
5.605996375E0,-1.742863197E0,1.437189474E0,2.510357029E0,3.377125719E0
5.615942375E0,-2.638168393E0,1.085798711E-1,2.955825400E0,3.963410886E0
5.625889375E0,-4.331416211E0,-2.532677021E0,2.644252421E0,5.671656738E0
5.635835375E0,-5.101087546E0,-5.749451376E0,1.682732186E0,7.868219169E0
5.645782375E0,-3.676810479E0,-7.668264894E0,6.023596913E-1,8.525494647E0
5.655728375E0,-1.458379784E0,-7.898972050E0,-1.922365701E-1,8.034773546E0
5.665675375E0,-5.026909769E-2,-6.364528762E0,-8.092628324E-1,6.415969114E0
5.675621375E0,-2.342421634E-1,-4.479370063E0,-9.820369452E-2,4.486565448E0
5.685568375E0,-1.049031784E0,-2.781531596E0,4.004845709E-1,2.999628909E0
5.695514375E0,-1.675673427E0,-1.376472571E0,-2.582007641E-1,2.183855721E0
5.705461375E0,-1.347471259E0,-6.726484859E-1,-1.000139340E0,1.807875405E0
5.715407375E0,-1.304140760E0,-8.663684946E-1,-9.658354801E-1,1.839623783E0
5.725354375E0,-1.377945777E0,-1.367302968E0,-6.781320047E-1,2.056238067E0
5.735300375E0,-9.015033171E-1,-1.490408492E0,-4.800894418E-1,1.806795942E0
5.745247375E0,-4.350400074E-1,-1.391864197E0,-4.028067926E-1,1.512877742E0
5.755194375E0,6.814593628E-2,-1.040238376E0,-6.825912376E-1,1.246062015E0
5.765140375E0,1.878912118E-1,-8.455681944E-1,-1.190705945E0,1.472436527E0
5.775087375E0,-1.911915265E-1,-9.883975464E-1,-1.737828891E0,2.008365794E0
5.785033375E0,-7.205094078E-1,-2.009400337E0,-2.681381071E0,3.427335403E0
5.794980375E0,1.128907308E-2,-3.394153735E0,-4.505311235E0,5.640765582E0
5.804926375E0,-5.387668356E-2,-4.562363688E0,-5.851638486E0,7.420224935E0
5.814873375E0,-4.973853596E-1,-6.092320992E0,-7.182026228E0,9.431079896E0
5.824819375E0,-1.162239068E0,-7.854216877E0,-7.749650534E0,1.109489098E1
5.834766375E0,-2.555295221E0,-1.005961998E1,-7.152843944E0,1.260510469E1
5.844712375E0,-3.375513981E0,-1.179018765E1,-5.919045188E0,1.361755174E1
5.854659375E0,-3.018007322E0,-1.206048805E1,-5.237176813E0,1.349043221E1
5.864605375E0,-7.260033055E-1,-8.929738521E0,-5.183591759E0,1.035069729E1
5.874552375E0,1.589646413E0,-4.797971395E0,-4.530420349E0,6.787651565E0
5.884498375E0,2.595415306E0,-2.128351999E0,-2.106100420E0,3.962539819E0
5.894445375E0,1.440553085E0,-4.955719918E-1,6.483978899E-1,1.655658362E0
5.904392375E0,1.705103633E-1,9.358632374E-1,2.394689748E0,2.576713561E0
5.914338375E0,8.277086051E-1,3.285776762E0,8.158901397E-1,3.485270031E0
5.924285375E0,1.036483001E0,5.803382000E0,-3.209419727E0,6.712221290E0
5.934231375E0,3.870191641E-1,6.962412994E0,-6.199788723E0,9.330721234E0
5.944178375E0,-9.237286569E-1,6.855010167E0,-5.979086738E0,9.142970920E0
5.954124375E0,-5.012491997E-1,7.279714490E0,-1.701785484E0,7.492767690E0
5.964071375E0,2.687225363E0,8.299172446E0,2.629106963E0,9.110963004E0
5.974017375E0,5.628049146E0,8.948410435E0,2.226606857E0,1.080309051E1
5.983964375E0,6.447063380E0,8.242498308E0,-2.637643898E-1,1.046771113E1
5.993910375E0,6.427054208E0,6.113489667E0,-5.679415181E-2,8.870456994E0
6.003857375E0,6.851162699E0,3.362067139E0,1.936307802E0,7.873449923E0
6.013803375E0,6.257104300E0,5.162372214E-1,2.949294352E0,6.936583617E0
6.023750375E0,6.058039352E0,-3.057785638E0,4.411795253E0,8.094061474E0
6.033697375E0,7.665153590E0,-9.828647940E0,6.824555529E0,1.421025890E1
6.043643375E0,6.912891755E0,-1.703405367E1,4.633069389E0,1.895817473E1
6.053590375E0,1.549064544E0,-1.833185839E1,-4.814110880E0,1.901663211E1
6.063536375E0,-1.367594744E0,-1.144861670E1,-8.064251786E0,1.407029838E1
6.073483375E0,-2.624170451E0,-4.162423493E0,-1.658773220E0,5.192645615E0
6.083429375E0,-3.371255746E0,-6.267952055E-1,2.545563992E0,4.270612787E0
6.093376375E0,-4.632374447E0,-8.056726420E-1,-9.675270796E-2,4.702910005E0
6.103322375E0,-7.815829321E0,-3.581227798E0,-1.017730104E0,8.657260253E0
6.113269375E0,-1.047659311E1,-7.529161388E0,-4.636327457E-1,1.290977264E1
6.123215375E0,-9.281687694E0,-1.133132623E1,-4.374161696E-1,1.465401015E1
6.133162375E0,-5.144752214E0,-1.512575754E1,-1.879530023E0,1.608694035E1
6.143108375E0,-9.480687153E-1,-1.904452522E1,-2.240712680E0,1.919931167E1
6.153055375E0,9.213969335E-1,-2.091390930E1,-9.190676951E-1,2.095436136E1
6.163001375E0,-4.090717918E-1,-2.141397956E1,6.634531546E-1,2.142815975E1
6.172948375E0,-3.197956261E0,-2.244844088E1,1.273437030E0,2.271081382E1
6.182894375E0,-3.087128720E0,-2.279635957E1,1.231670369E0,2.303739103E1
6.192841375E0,-2.080069785E0,-2.249280722E1,1.080123403E0,2.261459116E1
6.202788375E0,1.289895773E-3,-2.040287903E1,7.480869234E-1,2.041658905E1
6.212734375E0,2.262192426E0,-1.775903942E1,-3.757884901E-2,1.790258104E1
6.222681375E0,4.305559824E0,-1.313090742E1,-1.360986221E-1,1.381944637E1
6.232627375E0,6.051141976E0,-8.273625961E0,-2.577470384E-1,1.025356715E1
6.242574375E0,8.324278051E0,-3.354347060E0,1.598834581E0,9.116003581E0
6.252520375E0,8.669129874E0,7.381969428E-1,5.732623090E0,1.041929532E1
6.262467375E0,7.201907346E0,3.791912919E0,1.283639252E0,8.239769580E0
6.272413375E0,4.962053037E0,3.965125573E0,-5.716932671E0,8.545613513E0
6.282360375E0,6.279426631E0,-5.583374079E0,-4.028396188E1,4.115097629E1
6.292306375E0,4.869853556E0,-1.012307396E1,-3.363447550E1,3.546082405E1
6.302253375E0,-3.312494152E0,-8.318578770E0,-4.094690516E0,9.845702651E0
6.312199375E0,-7.317865233E0,-6.124796428E0,6.890524986E0,1.177045528E1
6.322146375E0,-4.237388598E0,-1.812397116E0,2.762989490E0,5.373486425E0
6.332092375E0,-4.215265950E0,3.521859264E0,-1.559422360E1,1.653335324E1
6.342039375E0,-1.330596136E1,5.624193492E0,-5.779713056E0,1.555908876E1
6.351986375E0,-1.512713281E1,5.702161435E0,1.117088097E1,1.965027668E1
6.361932375E0,-1.217630152E1,8.009834089E0,1.335996157E1,1.977140192E1
6.371879375E0,-5.894465833E0,1.022505525E1,1.018930186E1,1.559225304E1
6.381825375E0,-2.487904891E0,1.070154953E1,1.120658875E1,1.569396267E1
6.391772375E0,-1.406633095E0,1.032727276E1,1.228443524E1,1.611019952E1
6.401718375E0,-2.390466304E0,9.728309720E0,8.376718805E0,1.305847453E1
6.411665375E0,-2.811997928E0,7.149670075E0,7.385287138E0,1.065680912E1
6.421611375E0,-2.151438268E0,3.858087612E0,8.372911098E0,9.466740036E0
6.431558375E0,-2.761004360E0,3.298864000E0,8.185624781E0,9.247167232E0
6.441504375E0,-3.343767401E0,4.829705989E0,1.030955453E1,1.186565443E1
6.451451375E0,-5.609522828E0,9.783847159E0,1.043704605E1,1.536627287E1
6.461397375E0,-6.940374838E0,1.513722160E1,8.694355931E0,1.878552915E1
6.471344375E0,-4.256510163E0,2.033096997E1,6.412648423E0,2.173909562E1
6.481289917E0,-3.498683678E-1,2.548418895E1,6.107233146E0,2.620810163E1
6.491236917E0,2.984381739E0,2.948121225E1,6.764493515E0,3.039418995E1
6.501183917E0,6.305879434E0,2.995753112E1,7.518794859E0,3.152380152E1
6.511129917E0,7.934466403E0,2.616083342E1,5.969838781E0,2.798185015E1
6.521076917E0,8.982611969E0,2.309776950E1,3.055259056E0,2.497056030E1
6.531022917E0,1.135459347E1,2.290247718E1,1.277204976E0,2.559456009E1
6.540969917E0,1.183881075E1,2.054430446E1,5.305329620E0,2.429758030E1
6.550915917E0,1.079092422E1,1.550940857E1,1.041318006E1,2.157359772E1
6.560862917E0,9.750940198E0,1.234050770E1,9.640174638E0,1.844727438E1
6.570808917E0,7.689432399E0,1.053810933E1,6.863157678E0,1.474049023E1
6.580755917E0,5.921754788E0,8.908863376E0,7.545156446E-1,1.072400673E1
6.590701917E0,3.788159883E0,7.148093081E0,-1.011646076E1,1.295330723E1
6.600648917E0,1.990347185E0,5.790312889E0,-1.791863215E1,1.893585444E1
6.610594917E0,-6.348224385E0,-1.029588257E0,-1.603403362E1,1.727571240E1
6.620541917E0,-2.074832551E1,-1.839699871E1,2.483398149E0,2.784079452E1
6.630487917E0,-9.414814761E0,-3.192043206E1,4.393511302E0,3.356867083E1
6.640434917E0,7.709077874E0,-3.742837121E1,-7.153833293E0,3.887788811E1
6.650381917E0,7.695512919E0,-3.002546407E1,2.101222965E0,3.106709754E1
6.660327917E0,1.290615273E0,-1.120651390E1,3.936298800E0,1.194763951E1
6.670274917E0,-2.803453392E0,-1.412957443E0,-7.512254748E0,8.141853048E0
6.680220917E0,-6.626123250E0,7.461678672E-1,-8.825761578E0,1.106148016E1
6.690167917E0,-1.822257861E0,2.689025720E0,1.681707169E0,3.657816567E0
6.700113917E0,2.079983977E0,3.438106086E0,8.927382678E-1,4.116295472E0
6.710060917E0,8.658575942E-1,-2.018576957E0,-1.471988009E0,2.644070915E0
6.720006917E0,-2.429452761E0,-7.471845226E0,2.759698969E0,8.327463611E0
6.729953917E0,-5.806372851E0,-7.596844078E0,5.670685873E0,1.111677489E1
6.739899917E0,-6.474403206E0,-6.536538059E0,3.205340125E0,9.742609095E0
6.749846917E0,-5.447576004E0,-6.486527408E0,-1.188794783E0,8.553616497E0
6.759792917E0,-4.705494464E0,-5.643865280E0,-2.519356479E0,7.768014580E0
6.769739917E0,-5.551899102E0,-5.029332270E0,-3.524833742E0,8.279022867E0
6.779685917E0,-5.195120130E0,-5.238474310E0,-2.057567360E0,7.659273445E0
6.789632917E0,-2.920167032E0,-5.595108272E0,3.320926130E-1,6.320039365E0
6.799579917E0,3.621063709E-1,-6.654919617E0,-1.154566644E0,6.764029884E0
6.809525917E0,2.813139889E0,-7.241288928E0,-1.431076795E0,7.899240607E0
6.819472917E0,3.366349640E0,-5.993420602E0,-8.407158825E-1,6.925330577E0
6.829418917E0,2.138325448E0,-3.967739278E0,-7.850281700E-1,4.575113106E0
6.839365917E0,5.678612651E-1,-2.676233767E0,-1.024885634E0,2.921486634E0
6.849311917E0,-7.875380874E-1,-2.533172865E0,-6.752469885E-1,2.737359950E0
6.859258917E0,-1.960843450E0,-2.762383134E0,1.857037684E-1,3.392661714E0
6.869204917E0,-2.639998864E0,-2.884496970E0,2.354977798E-1,3.917317446E0
6.879151917E0,-2.615331215E0,-2.659644631E0,-2.310749459E-1,3.737253344E0
6.889097917E0,-2.115083059E0,-2.141545656E0,-1.154436252E-1,3.012162242E0
6.899044917E0,-1.811208231E0,-1.448182240E0,4.432625082E-1,2.360971984E0
6.908990917E0,-1.781900232E0,-9.929881954E-1,6.155372688E-1,2.130746377E0
6.918937917E0,-1.589504764E0,-8.486794978E-1,3.890196428E-1,1.843398646E0
6.928883917E0,-1.240437099E0,-7.018822253E-1,4.148731068E-1,1.484399727E0
6.938830917E0,-8.198451964E-1,-3.930767334E-1,6.157460144E-1,1.098088621E0
6.948777917E0,-3.633837317E-1,-4.313198626E-2,6.559140471E-1,7.510867739E-1
6.958723917E0,3.218570620E-2,4.262982738E-1,7.130258489E-1,8.313675475E-1
6.968670917E0,4.790001056E-1,9.087818581E-1,6.589203930E-1,1.220451413E0
6.978616917E0,8.411971083E-1,1.421933504E0,6.095364176E-1,1.760977600E0
6.988563917E0,1.118642521E0,1.971192876E0,5.532438107E-1,2.333032609E0
6.998509917E0,1.470965331E0,2.538742923E0,2.105851328E-1,2.941649321E0
7.008456917E0,1.874804157E0,3.052524898E0,-6.078297615E-2,3.582805249E0
7.018402917E0,2.566503164E0,3.343429139E0,-1.656852409E-1,4.218164115E0
7.028349917E0,3.013595598E0,3.609557558E0,-1.454573831E-1,4.704447050E0
7.038295917E0,3.278240286E0,3.912213534E0,2.312091395E-2,5.104195204E0
7.048242917E0,3.480035007E0,4.032922284E0,1.212817776E-1,5.328209368E0
7.058188917E0,3.494736954E0,4.036165735E0,5.280868962E-2,5.339158077E0
7.068135917E0,3.474792978E0,3.882415538E0,-9.181181073E-2,5.211119463E0
7.078081917E0,3.507001489E0,3.560990000E0,5.091974661E-2,4.998229891E0
7.088028917E0,3.635548140E0,3.281030577E0,3.686798108E-1,4.911038254E0
7.097975917E0,3.475950435E0,3.049232916E0,5.329479790E-1,4.654469502E0
7.107921917E0,3.355773489E0,2.821006148E0,7.356908262E-1,4.445282037E0
7.117868917E0,3.012016265E0,2.559439727E0,8.490648293E-1,4.042757077E0
7.127814917E0,2.430827295E0,2.221330329E0,8.908162880E-1,3.411272992E0
7.137761917E0,1.709944689E0,1.742397174E0,7.207852502E-1,2.545464619E0
7.147707917E0,6.004489674E-1,1.148789011E0,4.113587840E-1,1.359952647E0
7.157654917E0,-6.450543058E-1,4.662932289E-1,3.608579904E-2,7.967600753E-1
7.167600917E0,-1.638562026E0,-2.097209144E-1,-3.667993462E-1,1.692161380E0
7.177547917E0,-2.383245724E0,-8.007182962E-1,-6.903700809E-1,2.607224735E0
7.187493917E0,-3.178457843E0,-1.903730625E0,-1.560644954E0,4.020248404E0
7.197440917E0,-3.055827405E0,-3.258348643E0,-2.645667447E0,5.191769761E0
7.207386917E0,-1.459790424E0,-3.380867692E0,-2.449002049E0,4.422540613E0
7.217333917E0,-3.862485742E-1,-1.556975534E0,-1.269384764E0,2.045653551E0
7.227279917E0,-5.226216500E-1,5.202092350E-2,-6.379825370E-1,8.263542116E-1
7.237226917E0,-9.736024828E-1,1.058339016E0,-4.469216958E-1,1.505895837E0
7.247173917E0,-1.261914215E0,2.012575960E0,-2.336839736E-3,2.375477834E0
7.257119917E0,-5.831410629E-1,3.019381126E0,1.071301124E0,3.256440078E0
7.267066917E0,7.189416962E-1,3.812287542E0,2.578251097E0,4.658088898E0
7.277012917E0,1.650757564E0,4.413080179E0,3.324144437E0,5.766299805E0
7.286959917E0,2.301511736E0,4.507071832E0,2.534770032E0,5.660009883E0
7.296905917E0,1.908233273E0,3.806210530E0,1.922001127E0,4.671475266E0
7.306852917E0,1.475279114E0,2.965888458E0,2.843683990E0,4.365716601E0
7.316798917E0,1.086139896E0,2.534943402E0,3.060649312E0,4.119855839E0
7.326745917E0,5.006877208E-1,2.058940287E0,2.534315411E0,3.303434258E0
7.336691917E0,-1.065193123E-1,1.583810161E0,3.234266886E0,3.602816020E0
7.346638917E0,-6.224893159E-1,2.332367200E0,3.190530005E0,4.000863834E0
7.356584917E0,-1.220386266E0,3.075862890E0,5.584696135E-1,3.355914699E0
7.366531917E0,-5.807459702E-1,2.579158877E0,-1.434972795E0,3.008068037E0
7.376477917E0,1.215283035E0,6.831974477E-1,1.561753294E0,2.093500647E0
7.386424917E0,2.149955560E0,-1.147892632E0,4.891067839E0,5.464660192E0
7.396371917E0,4.285190463E-1,-2.475760224E0,2.137951373E0,3.299068555E0
7.406317917E0,-1.935451624E0,-4.137504998E0,2.872941703E-1,4.576839361E0
7.416264917E0,-3.733125890E0,-4.909818106E0,2.274304934E0,6.573812111E0
7.426210917E0,-4.799397531E0,-4.053275272E0,3.318548652E0,7.104647933E0
7.436157917E0,-4.644901814E0,-2.598992633E0,3.621615102E0,6.437854574E0
7.446103917E0,-3.778519871E0,-8.108836806E-1,3.762941135E0,5.393929064E0
7.456050917E0,-3.204433514E0,1.006329203E0,3.584275367E0,4.912038530E0
7.465996917E0,-2.694720908E0,2.168375605E0,3.591828800E0,4.986442386E0
7.475943917E0,-1.786799760E0,2.412562348E0,2.763525095E0,4.080463382E0
7.485890500E0,-1.065542932E0,1.539084224E0,2.556879816E0,3.168879357E0
7.495837500E0,-1.740637893E0,8.667824775E-1,1.966147313E0,2.765296981E0
7.505783500E0,-1.666525312E0,2.494480669E-2,2.105456641E0,2.685307529E0
7.515730500E0,-2.000630829E0,-5.579290384E-1,3.186602138E0,3.803714199E0
7.525676500E0,-2.020591908E0,-7.333151025E-1,2.035410506E0,2.960310562E0
7.535623500E0,-1.962673190E0,-5.221639591E-1,1.679154859E0,2.635204412E0
7.545569500E0,-1.762054636E0,-4.481890798E-3,-1.093125857E0,2.073591273E0
7.555516500E0,-6.617615551E-2,-2.780280876E-1,-9.438271451E-1,9.861483564E-1
7.565463500E0,1.374730978E0,-3.667625087E-1,-1.280181794E0,1.913965889E0
7.575409500E0,-8.534742147E-1,-1.241919369E0,-3.415438769E0,3.733095758E0
7.585356500E0,-1.423494710E0,-2.845803021E0,-3.121352473E0,4.457328043E0
7.595302500E0,-1.762632926E0,-3.075904990E0,-4.023096623E0,5.362217151E0
7.605249500E0,-1.168044769E0,-2.850587212E0,-4.084701133E0,5.116146927E0
7.615195500E0,3.221079075E-1,-2.247599823E0,-4.584409445E0,5.115883934E0
7.625142500E0,2.703197617E0,-2.464289741E0,-5.936757574E0,6.973169421E0
7.635088500E0,4.317738112E0,-3.081568603E0,-6.556572958E0,8.433716643E0
7.645035500E0,5.413748692E0,-3.092299413E0,-6.717438632E0,9.164877104E0
7.654981500E0,5.790676001E0,-2.671042901E0,-7.679659948E0,9.982162874E0
7.664928500E0,4.974330436E0,-2.318278042E0,-7.892281666E0,9.612829254E0
7.674874500E0,4.366655333E0,-1.996045296E0,-7.414368850E0,8.833161442E0
7.684821500E0,4.490703429E0,-1.883037329E0,-6.205806677E0,7.888237026E0
7.694767500E0,5.038165659E0,-2.113416748E0,-4.603953179E0,7.144650336E0
7.704714500E0,5.314096350E0,-2.220508795E0,-2.882573236E0,6.440458663E0
7.714660500E0,5.057804117E0,-1.697917405E0,-1.116723465E0,5.450814370E0
7.724607500E0,4.267967489E0,-5.318022171E-1,9.147325695E-2,4.301944612E0
7.734554500E0,3.033344569E0,1.068631870E0,1.036381552E0,3.378940673E0
7.744500500E0,1.560141217E0,2.947869971E0,1.935911946E0,3.856388601E0
7.754447500E0,-9.440212727E-2,4.915254262E0,2.734797724E0,5.625633726E0
7.764393500E0,-1.352800119E0,6.566071175E0,3.366121598E0,7.501608725E0
7.774340500E0,-1.975923273E0,7.647344141E0,3.451468143E0,8.619673865E0
7.784286500E0,-1.911722599E0,7.981914804E0,3.468972952E0,8.910635251E0
7.794233500E0,-1.539573051E0,7.401050647E0,4.042187197E0,8.572345840E0
7.804179500E0,-1.329465928E0,6.004123346E0,5.150663749E0,8.021615414E0
7.814126500E0,-1.506820457E0,4.310118020E0,5.664356847E0,7.275476873E0
7.824072500E0,-2.075648121E0,2.922351844E0,5.763754835E0,6.787438782E0
7.834019500E0,-2.114447028E0,2.720382584E0,6.810868952E0,7.632778230E0
7.843965500E0,-2.282415899E0,2.679836821E0,7.019808678E0,7.852939679E0
7.853912500E0,-2.383954553E0,2.918103842E0,6.410296673E0,7.435756369E0
7.863858500E0,-2.725866687E0,3.365852627E0,6.108663375E0,7.488329676E0
7.873805500E0,-2.830228085E0,3.555639798E0,5.948827397E0,7.486074591E0
7.883751500E0,-2.592875860E0,3.060206385E0,5.142059571E0,6.521399005E0
7.893698500E0,-2.495798047E0,2.793736489E0,4.852228294E0,6.130097135E0
7.903645500E0,-2.440973969E0,2.686380440E0,4.937394159E0,6.128038419E0
7.913591500E0,-2.277664451E0,2.515713664E0,5.090473096E0,6.117964280E0
7.923538500E0,-1.983361370E0,2.332876493E0,5.161167102E0,6.001139968E0
7.933484500E0,-1.595571543E0,2.190745298E0,4.702917303E0,5.427950320E0
7.943431500E0,-1.201408689E0,2.036550713E0,3.961215540E0,4.613258089E0
7.953377500E0,-8.425741276E-1,1.802469129E0,3.587762647E0,4.102543958E0
7.963324500E0,-4.635592170E-1,1.424998614E0,2.896070364E0,3.260786984E0
7.973270500E0,-1.321483894E-1,1.057192377E0,1.353307073E0,1.722370155E0
7.983217500E0,-2.232496172E-2,5.309137326E-1,-1.615866351E-1,5.554079906E-1
7.993163500E0,-2.605588000E-1,-1.205029285E-1,-6.784980404E-1,7.367302321E-1
8.003110500E0,-1.025336162E0,-9.390879768E-1,-5.863856828E-1,1.508989278E0
8.013056500E0,-1.929422998E0,-2.273045443E0,-4.468757951E-1,3.014814533E0
8.023003500E0,-3.698991891E0,-4.341614340E0,2.096370068E-1,5.707547964E0
8.032949500E0,-5.102083327E0,-5.590371442E0,6.474349996E-1,7.596227960E0
8.042896500E0,-5.997991955E0,-5.449949974E0,1.258131359E0,8.201265557E0
8.052843500E0,-5.860217521E0,-3.945927994E0,1.892590802E0,7.313986401E0
8.062789500E0,-5.020288966E0,-2.362274539E0,1.207111186E0,5.678094726E0
8.072736500E0,-3.669758736E0,-1.326499928E0,1.368461886E-1,3.904543267E0
8.082682500E0,-2.503668107E0,-9.971058047E-1,-6.966992533E-1,2.783516450E0
8.092629500E0,-1.356368675E0,-1.095657116E0,-1.208992820E0,2.121759679E0
8.102575500E0,6.491178283E-1,-1.198525427E0,-1.430908687E0,1.976187447E0
8.112522500E0,2.788324306E0,-1.790332648E0,-1.675278740E0,3.713031414E0
8.122468500E0,4.352227913E0,-3.595832389E0,-1.823545418E0,5.932724186E0
8.132415500E0,5.203147187E0,-5.219798888E0,-1.896319864E0,7.610195143E0
8.142361500E0,5.120176951E0,-6.154182195E0,-2.119419061E0,8.281431498E0
8.152308500E0,4.405911785E0,-6.110346789E0,-2.291635788E0,7.874007310E0
8.162254500E0,3.611746463E0,-5.578812082E0,-2.587387079E0,7.131790004E0
8.172201500E0,2.804958173E0,-4.963494376E0,-2.999287169E0,6.442033087E0
8.182147500E0,1.850862878E0,-4.221165791E0,-3.560017608E0,5.823886966E0
8.192094500E0,4.051076719E-1,-3.680158010E0,-4.366370866E0,5.724759361E0
8.202041500E0,-9.327338076E-1,-3.594112723E0,-5.048374897E0,6.266875435E0
8.211987500E0,-1.569435658E0,-3.452748683E0,-4.749858166E0,6.078301930E0
8.221934500E0,-1.400843182E0,-3.354369864E0,-3.365253872E0,4.953694826E0
8.231880500E0,-1.496283190E0,-3.409143072E0,-3.123110147E0,4.859520229E0
8.241827500E0,-1.948481413E0,-3.006488600E0,-2.529792005E0,4.385818180E0
8.251773500E0,-2.343109120E0,-3.107777578E0,-2.138048437E0,4.440686089E0
8.261720500E0,-2.196203966E0,-5.119749520E0,-1.758143141E0,5.841764657E0
8.271666500E0,-1.969497183E0,-8.567221091E0,-2.105963595E0,9.039429132E0
8.281613500E0,-2.081441250E0,-1.050232554E1,-3.378786668E0,1.122708505E1
8.291559500E0,9.076545149E-2,-7.385426887E0,-4.711351327E0,8.760684904E0
8.301506500E0,3.357807150E0,-2.226621475E0,-4.887256039E0,6.333875878E0
8.311452500E0,4.804644238E0,2.820135498E-1,-2.121587355E0,5.259778588E0
8.321399500E0,5.659042897E0,2.021423382E0,8.173354983E-1,6.064565633E0
8.331345500E0,6.237347728E0,3.111235621E0,2.768961836E0,7.500096227E0
8.341292500E0,6.368536443E0,3.490647411E0,4.048285843E0,8.314535107E0
8.351238500E0,5.730540311E0,3.586056429E0,4.002564125E0,7.856170349E0
8.361185500E0,4.444294370E0,3.660454062E0,2.812812445E0,6.408009851E0
8.371131500E0,2.695111502E0,3.289159961E0,1.443067095E0,4.490505751E0
8.381078500E0,7.336217889E-1,2.278860499E0,1.216335461E0,2.685307814E0
8.391025500E0,-7.607976007E-1,1.140905210E0,1.509006146E0,2.039013790E0
8.400971500E0,-1.303744318E0,3.068536913E-1,1.145530942E0,1.762427183E0
8.410918500E0,-1.721337258E0,-3.604749978E-1,9.212909527E-3,1.758700957E0
8.420864500E0,-2.184584379E0,-7.998587555E-1,-6.015007353E-1,2.402911999E0
8.430811500E0,-2.622103752E0,-1.485550625E0,-8.663550460E-1,3.135739118E0
8.440757500E0,-2.598963981E0,-2.354721690E0,-1.570610656E0,3.842674309E0
8.450704500E0,-1.780888518E0,-2.873118289E0,-2.803532329E0,4.391601773E0
8.460650500E0,-2.210498947E-1,-2.381323598E0,-3.242495672E0,4.029062337E0
8.470597500E0,2.056472762E0,-1.194379166E0,-2.271260873E0,3.288502359E0
8.480543167E0,2.692764722E0,-2.733047068E-2,-1.293619280E0,2.987503916E0
8.490490167E0,2.110915017E0,8.103258562E-1,-9.004513299E-1,2.433804183E0
8.500436167E0,1.600229435E0,1.114339555E0,-4.732712960E-1,2.006607238E0
8.510383167E0,1.670874032E0,1.485556473E0,4.573294838E-1,2.282071060E0
8.520329167E0,1.628850678E0,2.033130092E0,1.434605005E0,2.974031611E0
8.530276167E0,1.555931806E0,2.801015103E0,1.127329071E0,3.396686654E0
8.540223167E0,1.673518143E0,3.599530753E0,-2.143215767E-1,3.975326195E0
8.550169167E0,1.646931146E0,4.332364045E0,-2.326631228E-1,4.640678026E0
8.560116167E0,1.718105355E0,4.703852273E0,4.250984982E-1,5.025815452E0
8.570062167E0,2.511105765E0,4.672054530E0,-1.712871659E-1,5.306890331E0
8.580009167E0,3.316886289E0,4.209212328E0,-1.523140036E0,5.571279803E0
8.589955167E0,3.868085766E0,3.513745083E0,-2.543875608E0,5.812038809E0
8.599902167E0,4.051636298E0,2.922764658E0,-3.664923674E0,6.195964450E0
8.609848167E0,4.072112955E0,2.740154359E0,-4.426904751E0,6.609692542E0
8.619795167E0,4.048608609E0,2.300151966E0,-4.797640443E0,6.685752355E0
8.629741167E0,5.651499404E0,1.987343470E0,-3.953898919E0,7.177903332E0
8.639688167E0,7.896038502E0,1.851105684E0,-1.523572730E0,8.251987042E0
8.649634167E0,9.406357933E0,2.182794254E0,2.734289601E-1,9.660172033E0
8.659581167E0,7.257357661E0,2.135773870E0,-7.374844596E-2,7.565461591E0
8.669527167E0,3.901206735E0,1.408908831E0,-5.452819495E-1,4.183511741E0
8.679474167E0,2.463135208E0,1.730746597E-1,-7.161083548E-1,2.570953338E0
8.689420167E0,1.701362877E0,-2.013914387E0,-9.221551712E-1,2.793001424E0
8.699367167E0,4.914973596E-1,-4.759038879E0,-2.227436869E-1,4.789533950E0
8.709314167E0,-8.289170784E-1,-6.500106397E0,5.361639476E-1,6.574645121E0
8.719260167E0,-1.647668188E0,-5.943319904E0,8.052598286E-1,6.219831616E0
8.729207167E0,-1.263349122E0,-4.027870290E0,7.400529952E-1,4.285728469E0
8.739153167E0,-8.167478532E-1,-3.407256176E0,-2.904414341E-2,3.503900008E0
8.749100167E0,-4.117995544E-1,-4.621424659E0,-9.677514665E-1,4.739587287E0
8.759046167E0,-3.641145971E-1,-6.730596621E0,-6.252345836E-1,6.769374314E0
8.768993167E0,-1.403950684E0,-7.662663846E0,-8.152802020E-2,7.790644489E0
8.778939167E0,-2.832790042E0,-8.066405901E0,-7.237850180E-1,8.579945707E0
8.788886167E0,-3.594329947E0,-8.379842387E0,-1.378627270E-1,9.119208975E0
8.798832167E0,-3.689034083E0,-8.477409613E0,-4.417546575E-1,9.255841041E0
8.808779167E0,-3.706899081E0,-8.410581785E0,-1.025028598E0,9.248225256E0
8.818725167E0,-2.929064156E0,-9.079140143E0,-1.241485213E0,9.620368398E0
8.828672167E0,-8.620158273E-1,-1.123251413E1,-1.013451111E0,1.131103568E1
8.838618167E0,1.680885635E0,-1.423042370E1,-8.667935872E-1,1.435554479E1
8.848565167E0,3.718592050E0,-1.654271799E1,-7.216690569E-1,1.697086479E1
8.858511167E0,4.659270762E0,-1.793199889E1,-5.603839919E-2,1.852750735E1
8.868458167E0,4.306933919E0,-1.866075258E1,9.690953028E-1,1.917583146E1
8.878404167E0,1.890450867E0,-1.856938516E1,1.576906499E0,1.873185799E1
8.888351167E0,-1.299326309E0,-1.936418081E1,2.125323726E0,1.952374831E1
8.898298167E0,-3.585959950E0,-2.137917927E1,2.133779969E0,2.178259470E1
8.908244167E0,-4.120713549E0,-2.265170413E1,2.917779322E0,2.320761548E1
8.918191167E0,-3.614149669E0,-1.986353419E1,3.742911497E0,2.053366638E1
8.928137167E0,-2.562243175E0,-1.252170590E1,6.723129727E0,1.444156093E1
8.938084167E0,-4.634915355E-1,-5.781055577E0,1.025165540E1,1.177844924E1
8.948030167E0,-7.068070427E-1,1.572263664E-1,2.507231108E0,2.609694265E0
8.957977167E0,-3.172506840E0,4.493987517E0,-8.228073812E0,9.897571526E0
8.967923167E0,-5.462524996E0,8.851119783E0,-2.700070877E1,2.893475030E1
8.977870167E0,-9.516410717E-1,7.015495772E0,-3.771306278E1,3.837183741E1
8.987816167E0,6.248631685E0,-1.392550660E0,-2.043004285E1,2.140960640E1
8.997763167E0,3.870681053E0,-4.717213746E0,-3.675424104E0,7.123413485E0
9.007709167E0,1.754188377E0,-7.687622101E0,6.914189837E0,1.048726521E1
9.017656167E0,-3.335963999E0,-7.308754102E0,7.419894469E0,1.093624141E1
9.027602167E0,2.095987076E-1,-6.679794842E-1,-1.545166497E0,1.696368979E0
9.037549167E0,9.353729483E-1,4.531324328E0,-7.722410696E0,9.002413547E0
9.047495167E0,-5.668116022E0,6.405921201E0,1.413447293E0,8.669555866E0
9.057442167E0,-7.555235876E0,7.228407512E0,7.686179008E0,1.297724208E1
9.067389167E0,-7.389302421E0,1.023207425E1,5.244839004E0,1.366767975E1
9.077335167E0,-6.639019284E0,1.187591952E1,6.307107350E0,1.499645440E1
9.087282167E0,-7.035219015E0,9.641235323E0,1.059839412E1,1.596163159E1
9.097228167E0,-4.439716878E0,7.936051583E0,1.059264982E1,1.396052402E1
9.107175167E0,-2.198437895E0,5.797509057E0,6.112702047E0,8.706857456E0
9.117121167E0,-1.622590941E0,3.901451148E0,6.263765448E0,7.555718365E0
9.127068167E0,-5.050222617E-1,2.831371508E0,1.034991084E1,1.074208390E1
9.137014167E0,-5.045623782E-1,2.041841274E0,9.745598767E0,9.969974639E0
9.146961167E0,-2.163748411E0,4.078217740E0,9.942528312E0,1.096209544E1
9.156907167E0,-4.854176586E0,8.656961233E0,1.035581419E1,1.434394979E1
9.166854167E0,-7.795423123E0,1.376667284E1,1.004858277E1,1.874203613E1
9.176800167E0,-5.730887051E0,1.810425669E1,8.510649864E0,2.080957323E1
9.186747167E0,-2.434981011E0,2.128817788E1,8.987435921E0,2.323552570E1
9.196693167E0,1.457886279E-1,2.496692554E1,1.024489368E1,2.698752438E1
9.206640167E0,3.188340515E0,2.753498290E1,1.069763774E1,2.971161812E1
9.216587167E0,5.977084066E0,2.694591100E1,9.043983759E0,2.904481530E1
9.226533167E0,6.445098131E0,2.572007031E1,3.964286205E0,2.681001439E1
9.236480167E0,7.975790430E0,2.607519510E1,1.736045929E0,2.732293703E1
9.246426167E0,8.033667340E0,2.459438306E1,5.126426455E0,2.637619641E1
9.256373167E0,7.266491012E0,1.807428620E1,7.263830529E0,2.079050137E1
9.266319167E0,6.525341225E0,1.217843107E1,5.373816302E0,1.482471461E1
9.276266167E0,3.629469082E0,9.277522137E0,1.760866190E0,1.011662555E1
9.286212167E0,7.938253060E-1,8.213613063E0,-2.919920572E0,8.753258497E0
9.296159167E0,-1.140588583E-1,8.605835518E0,-8.733076778E0,1.226132311E1
9.306105167E0,7.651622549E-2,9.533519086E0,-1.813207307E1,2.048574906E1
9.316052167E0,-3.505280653E0,1.704748122E0,-2.771817850E1,2.799090170E1
9.325998167E0,-1.258950670E1,-2.737829389E1,7.683461223E0,3.109826734E1
9.335945167E0,1.684781050E0,-4.148461979E1,2.523986655E1,4.858871299E1
9.345891167E0,2.525929042E0,-4.613589741E1,-1.275349771E1,4.793279724E1
9.355838167E0,-1.272360558E1,-2.523787616E1,-8.309225564E0,2.945986696E1
9.365784167E0,-1.075854234E1,-2.559858388E0,9.939462617E-1,1.110346961E1
9.375731167E0,-2.579875161E0,5.534545151E0,5.100498147E0,7.956257111E0
9.385677167E0,3.440375975E0,7.480511384E0,4.531301524E0,9.398240842E0
9.395624167E0,5.767392973E0,2.790497716E0,2.326114480E0,6.816194523E0
9.405571167E0,5.974256938E0,-8.223132330E-1,-4.130139846E-1,6.044710544E0
9.415517167E0,5.284452721E0,-1.616172161E0,-5.436746961E0,7.752139739E0
9.425464167E0,1.158638412E1,-6.296716847E0,-4.868138568E0,1.405673195E1
9.435410167E0,3.483493343E0,-1.221346642E1,5.596005235E0,1.387871617E1
9.445357167E0,-1.222818035E1,-1.376817791E1,2.163291159E0,1.854106109E1
9.455303167E0,-1.563930914E1,-9.334118507E0,-3.167109860E0,1.848632856E1
9.465250167E0,-7.572925458E0,-1.238213403E0,2.076478425E0,7.949473887E0
9.475196167E0,-2.206427238E0,2.810822053E0,3.036286011E0,4.689144326E0
9.485143375E0,-1.726712018E-1,1.444631225E0,-6.376973391E-2,1.456310853E0
9.495089375E0,6.747847661E-1,-2.175109259E0,-2.357446201E0,3.277802214E0
9.505036375E0,1.294898651E0,-5.455453958E0,-2.192637457E0,6.020498270E0
9.514982375E0,2.784304345E0,-8.052049232E0,-2.232557568E0,8.807505936E0
9.524929375E0,2.964411159E0,-9.817868013E0,-3.293610862E0,1.077154299E1
9.534875375E0,2.206879520E0,-9.158000371E0,-3.014078870E0,9.890599550E0
9.544822375E0,1.140936200E0,-6.496337281E0,-1.497076364E0,6.763532445E0
9.554768375E0,-1.603306532E-1,-4.154948412E0,5.262406379E-2,4.158373663E0
9.564715375E0,-7.150390452E-1,-2.636261616E0,1.088558596E-1,2.733679890E0
9.574661375E0,-1.168849346E0,-2.128876494E0,-8.517405152E-1,2.573671662E0
9.584608375E0,-2.038554408E0,-2.411295841E0,-1.033074952E0,3.322242550E0
9.594555375E0,-2.926976700E0,-2.965218952E0,-6.564145687E-1,4.217890008E0
9.604501375E0,-3.409958759E0,-3.451169350E0,-5.762518734E-2,4.851979934E0
9.614448375E0,-3.273885280E0,-3.411404191E0,5.323509783E-1,4.758087950E0
9.624394375E0,-2.720535488E0,-2.954315064E0,7.595743632E-1,4.087327251E0
9.634341375E0,-2.161280740E0,-2.537432562E0,9.919207862E-1,3.477586129E0
9.644287375E0,-1.925608421E0,-2.237035366E0,1.164500771E0,3.173067454E0
9.654234375E0,-1.764132590E0,-2.069546551E0,1.295183702E0,3.012090229E0
9.664180375E0,-1.662513099E0,-2.007331007E0,1.504878012E0,3.009648718E0
9.674127375E0,-1.397599293E0,-1.740193359E0,1.781383777E0,2.855675904E0
9.684073375E0,-1.196086846E0,-1.215501648E0,1.805571077E0,2.483577040E0
9.694020375E0,-1.024184845E0,-5.264493835E-1,1.521267757E0,1.907972521E0
9.703966375E0,-8.251715713E-1,2.492282116E-1,1.052164064E0,1.360173534E0
9.713913375E0,-5.959356112E-1,1.043773602E0,9.131044123E-1,1.509424477E0
9.723859375E0,-3.420288231E-1,1.879593319E0,9.697998923E-1,2.142514082E0
9.733806375E0,1.159443707E-2,2.637072040E0,1.074520016E0,2.847608934E0
9.743752375E0,4.750842252E-1,3.204706872E0,1.101045910E0,3.421717880E0
9.753699375E0,1.028532835E0,3.797895205E0,9.343593335E-1,4.044121060E0
9.763646375E0,1.690377128E0,4.270371864E0,5.834901416E-1,4.629677250E0
9.773592375E0,2.343791198E0,4.533905289E0,2.877154621E-1,5.111989294E0
9.783539375E0,2.770100874E0,4.703921270E0,1.983866715E-1,5.462571870E0
9.793485375E0,3.039046189E0,4.834212438E0,1.249710783E-1,5.711482242E0
9.803432375E0,3.269879645E0,4.976069398E0,-6.199101090E-2,5.954596748E0
9.813378375E0,3.499932497E0,5.038601861E0,-1.894579732E-1,6.137827834E0
9.823325375E0,3.788727063E0,4.991179773E0,-1.192223883E-1,6.267419107E0
9.833271375E0,3.923735472E0,4.784439184E0,9.435973495E-2,6.188332742E0
9.843218375E0,3.930572914E0,4.420206181E0,1.122785273E-1,5.916099439E0
9.853164375E0,3.701851764E0,4.005448557E0,-5.948109359E-2,5.454435133E0
9.863111375E0,3.425569655E0,3.494762682E0,-3.264825019E-1,4.904537133E0
9.873057375E0,2.806018565E0,3.016264560E0,-4.177576844E-1,4.140786588E0
9.883004375E0,1.915342172E0,2.495900373E0,-7.632852986E-1,3.237384555E0
9.892950375E0,1.268514406E0,1.731652915E0,-1.096774227E0,2.410531958E0
9.902897375E0,1.034386628E0,5.541780496E-1,-7.238247791E-1,1.378764417E0
9.912843375E0,9.328849581E-1,-5.746392113E-1,-3.418071771E-1,1.147744185E0
9.922790375E0,5.582452997E-1,-1.419267758E0,-4.988309374E-1,1.604615558E0
9.932737375E0,-2.210980611E-1,-1.896878858E0,-1.258552212E0,2.287135200E0
9.942683375E0,-8.542489707E-1,-1.565831142E0,-2.087236133E0,2.745564267E0
9.952630375E0,-6.180901632E-1,-3.941894585E-1,-1.960691715E0,2.093258890E0
9.962576375E0,4.321913901E-1,7.273585439E-1,-6.641326010E-1,1.075598420E0
9.972523375E0,1.101290908E0,1.694371653E0,9.239547980E-1,2.222032725E0
9.982469375E0,6.370734411E-1,2.522398201E0,1.308752751E0,2.912248103E0
9.992416375E0,2.015022873E-1,2.875532019E0,1.529483680E0,3.263220479E0
1.000236237E1,-2.516129985E-1,3.097261945E0,1.180354035E0,3.324090297E0
1.001230937E1,-8.300167935E-1,3.112756482E0,1.007179973E0,3.375291438E0
1.002225537E1,-1.032646789E0,2.918439472E0,1.802060993E0,3.582048599E0
1.003220238E1,-2.692297822E-1,3.441088750E0,2.765026660E0,4.422550044E0
1.004214837E1,1.880539837E-1,4.040945249E0,3.157908389E0,5.131957540E0
1.005209537E1,6.014872867E-1,3.521061704E0,3.589924947E0,5.064308798E0
1.006204137E1,1.349211536E0,2.678991898E0,3.928901195E0,4.943038940E0
1.007198837E1,7.526685092E-1,1.927456287E0,2.484372003E0,3.233218501E0
1.008193437E1,-6.394661218E-2,1.109498060E0,1.822451988E0,2.134574048E0
1.009188137E1,-7.004110658E-1,-1.596611470E-1,2.686939434E0,2.781314593E0
1.010182738E1,-2.472330540E0,-1.513017921E0,3.329335303E0,4.414307996E0
1.011177437E1,-3.925903035E0,-2.950334280E0,3.858854182E0,6.245633883E0
1.012172137E1,-4.446286517E0,-3.425207713E0,3.782983636E0,6.768491475E0
1.013166737E1,-4.403000164E0,-2.811282229E0,2.337305759E0,5.722998901E0
1.014161437E1,-3.681133325E0,-2.076731610E0,1.913924661E0,4.639683647E0
1.015156038E1,-2.044292719E0,-1.176168013E0,2.757956792E0,3.628888202E0
1.016150737E1,-1.060926994E0,-5.872463930E-1,2.615964761E0,2.883348061E0
1.017145338E1,-1.404899103E0,-3.719875807E-1,2.539559779E0,2.926000704E0
1.018140037E1,-2.321049037E0,-5.832808113E-1,1.875717199E0,3.040690736E0
1.019134637E1,-2.423252520E0,-1.249623075E0,1.937080219E0,3.344546364E0
1.020129337E1,-2.027699198E0,-1.674290560E0,1.685502596E0,3.123416706E0
1.021123937E1,-1.899599275E0,-1.330073746E0,8.994245589E-2,2.320703173E0
1.022118638E1,-1.265318756E0,-9.219041795E-1,-1.143249359E0,1.938545322E0
1.023113237E1,6.206939283E-1,-1.041500205E0,6.738740623E-2,1.214300083E0
1.024107937E1,-4.620247614E-1,-6.108638817E-1,-1.566851481E0,1.744031286E0
1.025102537E1,-1.241697467E0,-7.459790021E-1,-3.237084074E0,3.546408123E0
1.026097237E1,-1.343415338E0,-1.212731822E0,-4.344891704E0,4.706757606E0
1.027091837E1,-1.380647191E0,-2.497161910E0,-5.668341724E0,6.346030427E0
1.028086537E1,-8.018985566E-1,-3.332213595E0,-5.840138183E0,6.771550984E0
1.029081138E1,2.148302114E-1,-2.463157428E0,-6.495435056E0,6.950105978E0
1.030075837E1,1.785459871E0,-1.409828013E0,-8.158177950E0,8.469436194E0
1.031070437E1,4.583714211E0,-2.945943021E0,-8.596516226E0,1.017787343E1
1.032065137E1,6.587571387E0,-5.726383526E0,-7.122767036E0,1.126593872E1
1.033059837E1,6.108117245E0,-5.341342036E0,-5.551076399E0,9.831250186E0
1.034054438E1,4.749910791E0,-2.271212634E0,-5.263003380E0,7.444411590E0
1.035049137E1,3.632903736E0,6.606479529E-1,-5.217157116E0,6.391648742E0
1.036043737E1,3.238985589E0,2.288751357E0,-4.329427573E0,5.871401326E0
1.037038437E1,2.921313671E0,2.980753834E0,-3.170426985E0,5.241237855E0
1.038033037E1,2.430061895E0,3.291218474E0,-2.455014887E0,4.771207180E0
1.039027738E1,1.798169671E0,3.131798817E0,-2.246755192E0,4.253173743E0
1.040022337E1,1.664776264E0,2.358676747E0,-2.414456261E0,3.763566798E0
1.041017038E1,1.896683268E0,1.130711759E0,-2.223172202E0,3.133434400E0
1.042011637E1,2.033810123E0,-1.312313998E-1,-1.646518625E0,2.620043679E0
1.043006337E1,1.801896394E0,-1.096642957E0,-1.234318573E0,2.443971917E0
1.044000937E1,1.098190715E0,-1.746065133E0,-7.047157860E-1,2.179768481E0
1.044995637E1,3.822617233E-2,-2.020074429E0,2.768106973E-1,2.039310202E0
1.045990238E1,-7.721110860E-1,-1.716356015E0,1.657061740E0,2.507565973E0
1.046984937E1,-1.070933334E0,-8.358129922E-1,3.766921334E0,4.004394824E0
1.047979504E1,-5.502732790E-1,5.308710480E-1,6.037286414E0,6.085511646E0
1.048974204E1,1.107510007E0,2.231280244E0,8.241093807E0,8.609344753E0
1.049968804E1,2.553745124E0,4.208354541E0,9.090831066E0,1.033804003E1
1.050963504E1,2.857941840E0,6.328360809E0,8.601798016E0,1.105472348E1
1.051958104E1,2.445951118E0,8.313057829E0,7.580876502E0,1.151343979E1
1.052952804E1,1.577951543E0,9.472581743E0,6.505070683E0,1.159895170E1
1.053947504E1,3.249847376E-1,9.115380601E0,5.811733578E0,1.081536064E1
1.054942104E1,-1.365614000E0,7.467301354E0,6.062474465E0,9.714890002E0
1.055936804E1,-3.216643378E0,5.994094201E0,6.104926420E0,9.140354835E0
1.056931404E1,-4.969382522E0,5.396017596E0,5.477956383E0,9.155314013E0
1.057926104E1,-5.976601671E0,5.198821417E0,4.854427432E0,9.290477778E0
1.058920704E1,-6.191048305E0,4.975498710E0,5.014216633E0,9.392924729E0
1.059915404E1,-6.115232722E0,4.496526963E0,5.672209073E0,9.475694262E0
1.060910004E1,-5.877650410E0,3.945359645E0,6.263169032E0,9.451979866E0
1.061904704E1,-5.373482426E0,2.921307532E0,6.366556576E0,8.828442315E0
1.062899304E1,-4.896256658E0,1.682553846E0,5.494947807E0,7.549752851E0
1.063894004E1,-4.883564692E0,5.842368311E-1,4.442959451E0,6.628003128E0
1.064888604E1,-4.514080305E0,-5.754817951E-1,3.260725536E0,5.598252523E0
1.065883304E1,-4.482462363E0,-1.403670310E0,2.370443099E0,5.261345803E0
1.066877904E1,-3.990552482E0,-2.236152436E0,1.297781328E0,4.754905173E0
1.067872604E1,-3.379010908E0,-3.407396509E0,4.078473848E-1,4.816057016E0
1.068867204E1,-2.484760258E0,-4.651160674E0,-1.300537705E-1,5.274869016E0
1.069861904E1,-1.192256627E0,-5.414426969E0,-3.275773931E-1,5.553809703E0
1.070856604E1,2.978875709E-1,-5.354332210E0,1.620012027E-1,5.365058696E0
1.071851204E1,2.123815437E0,-4.722939924E0,-3.340806663E-2,5.178597265E0
1.072845904E1,2.675672726E0,-3.570293505E0,-7.758518422E-1,4.528594300E0
1.073840504E1,2.164124826E0,-2.218226042E0,-1.396989282E0,3.399344362E0
1.074835204E1,7.573443814E-1,-1.015061435E0,-8.246439332E-1,1.511276892E0
1.075829804E1,-9.059458123E-1,3.927048504E-2,5.094205374E-1,1.040090991E0
1.076824504E1,-2.216438841E0,6.754329300E-1,9.794135919E-1,2.515563905E0
1.077819104E1,-3.100078256E0,6.113106090E-1,9.629592347E-1,3.303252389E0
1.078813804E1,-3.252666027E0,2.327782398E-1,1.164306059E0,3.462604596E0
1.079808404E1,-2.695010638E0,-1.427755576E-1,1.027475073E0,2.887762495E0
1.080803104E1,-1.596557676E0,-5.542692661E-2,7.841534266E-1,1.779596907E0
1.081797704E1,-2.608591276E-1,3.344314992E-2,4.444097319E-1,5.163970745E-1
1.082792404E1,1.056790966E0,-7.431004179E-1,-3.182019675E-1,1.330510379E0
1.083787004E1,1.525969650E0,-2.955906676E0,-1.161771437E0,3.523589153E0
1.084781704E1,1.067494733E0,-5.129735979E0,-2.156706756E0,5.666138037E0
1.085776304E1,6.366846013E-1,-6.629899381E0,-3.730722392E0,7.634082961E0
1.086771004E1,2.369464275E-1,-8.412963941E0,-5.842558930E0,1.024546733E1
1.087765604E1,-2.109383047E-3,-9.286191804E0,-8.246332912E0,1.241915332E1
1.088760304E1,-8.128799200E-3,-8.439844176E0,-8.670418600E0,1.209988407E1
1.089754904E1,-4.813080016E-1,-8.503730854E0,-6.624670801E0,1.079033637E1
1.090749604E1,-2.004011543E0,-1.022850861E1,-4.258324846E0,1.125929754E1
1.091744204E1,-3.712589884E0,-1.080380213E1,-2.768699881E0,1.175462305E1
1.092738904E1,-3.256725456E0,-8.614480627E0,-2.000443572E0,9.424293695E0
1.093733604E1,-1.175057042E0,-5.126416515E0,-1.690389699E0,5.524339117E0
1.094728204E1,8.004534173E-1,-4.044797394E0,-1.069916503E0,4.259792596E0
1.095722904E1,1.871822661E0,-6.251257669E0,-4.136027992E-1,6.538578576E0
1.096717504E1,2.602702983E0,-6.651763290E0,-1.640439275E0,7.328782894E0
1.097712204E1,3.943233597E0,-3.022448575E0,-2.679297123E0,5.644724941E0
1.098706804E1,5.083379838E0,6.650897902E-1,-2.986178881E0,5.932989071E0
1.099701504E1,5.731564744E0,3.067300227E0,-2.362258751E0,6.916605490E0
1.100696104E1,5.860197056E0,4.318697348E0,-1.023214792E0,7.351192068E0
1.101690804E1,5.386996511E0,4.618505144E0,4.093846178E-1,7.107595722E0
1.102685404E1,4.584212101E0,4.359965242E0,1.124558734E0,6.425646259E0
1.103680104E1,3.666762916E0,3.753899585E0,6.935897040E-1,5.293201210E0
1.104674704E1,2.647074287E0,2.724751623E0,-2.425612164E-1,3.806587663E0
1.105669404E1,1.599872462E0,9.961848682E-1,-8.795335007E-1,2.079796953E0
1.106664004E1,6.975327739E-1,-8.398244745E-1,-4.368115675E-1,1.175866261E0
1.107658704E1,4.851589778E-1,-1.694589754E0,4.192371762E-1,1.811842565E0
1.108653304E1,8.144300169E-1,-1.764933513E0,1.325462047E0,2.352687016E0
1.109648004E1,1.586949823E0,-1.386597610E0,2.504757736E0,3.273358213E0
1.110642604E1,2.797828370E0,-8.890948677E-1,3.412495866E0,4.501495452E0
1.111637304E1,3.726316807E0,-5.343267524E-1,3.464566491E0,5.116069096E0
1.112632004E1,3.791615003E0,2.446065724E-2,2.457389442E0,4.518374212E0
1.113626604E1,3.720585951E0,4.769550419E-1,6.496794534E-1,3.806879210E0
1.114621304E1,3.897204608E0,7.995500225E-1,-1.220092882E0,4.161263106E0
1.115615904E1,2.737576906E0,5.562877250E-1,-1.885677931E0,3.370395320E0
1.116610604E1,6.057548770E-1,2.323940778E-1,-1.371013026E0,1.516780372E0
1.117605204E1,-2.134275375E0,1.534139818E-1,-5.167394606E-1,2.201292097E0
1.118599904E1,-3.814087899E0,4.429844731E-1,-3.764156040E-1,3.858133027E0
1.119594504E1,-4.085577630E0,1.488723909E0,-1.087888432E0,4.482381587E0
1.120589204E1,-3.625636232E0,2.620783451E0,-5.892273565E-1,4.512309039E0
1.121583804E1,-2.654347054E0,3.610204260E0,-5.893970720E-1,4.519570996E0
1.122578504E1,-1.033873974E0,4.348297123E0,-9.958311117E-1,4.579111580E0
1.123573104E1,1.731746471E-1,4.604810380E0,-1.310811117E0,4.790876108E0
1.124567804E1,1.325936548E0,4.323869210E0,-2.051780956E0,4.966261951E0
1.125562404E1,2.592468894E0,3.951222648E0,-1.819082823E0,5.063804666E0
1.126557104E1,3.750285713E0,3.393187775E0,-1.176719406E0,5.192594223E0
1.127551704E1,4.554020296E0,2.590479087E0,-1.268743763E0,5.390676533E0
1.128546404E1,5.160639099E0,1.914700001E0,-1.796250615E0,5.790059436E0
1.129541104E1,6.568380826E0,1.727410176E0,-6.227227660E-1,6.820216729E0
1.130535704E1,6.133333948E0,1.231241183E0,-8.890903361E-1,6.318561687E0
1.131530404E1,5.181326548E0,8.999157250E-1,-9.845541716E-1,5.350265416E0
1.132525004E1,4.062115093E0,6.746827322E-1,8.444711106E-1,4.203463723E0
1.133519704E1,3.126829853E0,2.623791844E-1,1.878466122E0,3.657122193E0
1.134514304E1,2.227293904E0,-6.723496932E-1,5.434064551E-1,2.389180366E0
1.135509004E1,9.185323825E-1,-2.090057999E0,-3.911952455E-1,2.316263780E0
1.136503604E1,-2.620225042E-1,-3.690028110E0,-1.184259975E-1,3.701214390E0
1.137498304E1,-3.796699449E-1,-5.304718001E0,9.965994358E-2,5.319221225E0
1.138492904E1,4.002460045E-1,-6.040731593E0,-2.898347855E-1,6.060910761E0
1.139487604E1,7.585899845E-1,-5.467574651E0,-7.123477180E-1,5.565722828E0
1.140482204E1,1.708173421E-1,-4.798554947E0,-1.416141837E0,5.006072897E0
1.141476904E1,-1.264368584E0,-5.689402226E0,-2.008286881E0,6.164506614E0
1.142471504E1,-2.452862527E0,-7.568934733E0,-1.144779283E0,8.038397053E0
1.143466204E1,-2.475441258E0,-9.739421768E0,-1.093843164E0,1.010844393E1
1.144460804E1,-2.372098446E0,-1.115713300E1,-1.337662701E0,1.148467715E1
1.145455504E1,-2.211945840E0,-1.156948332E1,-1.502178791E0,1.187443430E1
1.146450104E1,-7.692161295E-1,-1.187535468E1,-1.532344577E0,1.199849250E1
1.147444804E1,1.154441806E0,-1.300426141E1,-1.310948965E0,1.312105704E1
1.148439425E1,2.429643819E0,-1.467531027E1,-5.287426615E-1,1.488447075E1
1.149434125E1,3.324029832E0,-1.587235694E1,6.157131238E-1,1.622836996E1
1.150428725E1,3.811947234E0,-1.625499756E1,1.663200877E0,1.677862105E1
1.151423425E1,3.301782638E0,-1.553922937E1,2.528504448E0,1.608610433E1
1.152418025E1,2.080604367E0,-1.572174552E1,2.943017074E0,1.612958606E1
1.153412725E1,-5.857360572E-2,-1.761606096E1,2.520195554E0,1.779551686E1
1.154407425E1,-1.126881832E0,-2.004223914E1,2.235003458E0,2.019793189E1
1.155402025E1,-1.939044884E0,-2.180375261E1,3.826731334E0,2.222177751E1
1.156396725E1,-2.602078793E0,-1.974154256E1,4.115214243E0,2.033308400E1
1.157391325E1,-2.023638599E0,-1.262969579E1,2.861536124E0,1.310697211E1
1.158386025E1,-1.678955177E0,-6.049518789E0,3.484775637E0,7.180475563E0
1.159380625E1,-5.761241117E-1,-1.464018838E0,3.140826041E0,3.512841922E0
1.160375325E1,-8.015971327E-1,3.354942892E0,-6.291516334E0,7.175052442E0
1.161369925E1,-2.751678636E0,7.195534465E0,-2.123906127E1,2.259303378E1
1.162364625E1,7.860493863E-1,6.343241388E0,-3.106765308E1,3.171834883E1
1.163359225E1,6.518467823E0,1.237867248E-1,-1.879536718E1,1.989400848E1
1.164353925E1,5.984172646E0,-2.958286493E0,-6.523011110E0,9.333351765E0
1.165348525E1,6.611707524E0,-5.279904172E0,2.329753933E0,8.776093541E0
1.166343225E1,2.633537106E0,-5.912435496E0,-8.166595602E-1,6.523752296E0
1.167337825E1,-2.602866705E0,-3.976496068E0,-5.756250519E0,7.464707369E0
1.168332525E1,-1.152813181E1,-9.119235671E-1,1.779089037E0,1.170019596E1
1.169327125E1,-1.397629786E1,2.287019704E0,1.126407623E1,1.809549044E1
1.170321825E1,-1.266721035E1,6.798204467E0,1.088151981E1,1.803001041E1
1.171316425E1,-1.042267710E1,1.070431058E1,8.614909812E0,1.724619187E1
1.172311125E1,-9.910912417E0,1.198772063E1,1.080064814E1,1.893635738E1
1.173305725E1,-9.246354724E0,9.382907674E0,1.050115258E1,1.684660909E1
1.174300425E1,-7.819611300E0,5.602327829E0,6.544003783E0,1.163427623E1
1.175295025E1,-5.205260956E0,3.081364535E0,6.761622532E0,9.072435631E0
1.176289725E1,-1.725015741E0,2.850316486E0,1.033155760E1,1.085546249E1
1.177284425E1,2.986308981E-1,3.367519083E0,1.157333079E1,1.205700422E1
1.178279025E1,-9.519480506E-1,5.258334963E0,1.355280976E1,1.456828555E1
1.179273725E1,-3.768383723E0,1.376566244E1,1.323192158E1,1.946221793E1
1.180268325E1,-5.626258144E0,2.288869646E1,1.092222462E1,2.597772502E1
1.181263025E1,-6.260764657E0,2.581454494E1,1.075852012E1,2.865891937E1
1.182257625E1,-2.899876902E0,2.580616705E1,1.500671759E1,2.999281775E1
1.183252325E1,3.312866328E0,2.456124338E1,1.626666392E1,2.964513645E1
1.184246925E1,6.552855883E0,2.170325535E1,1.256712707E1,2.592110908E1
1.185241625E1,7.647296194E0,1.840729683E1,9.155393683E0,2.193469738E1
1.186236225E1,7.511379420E0,1.636934805E1,7.166340487E0,1.938382863E1
1.187230925E1,7.095999652E0,1.625526887E1,7.447044261E0,1.923656532E1
1.188225525E1,7.324663206E0,1.735133178E1,9.017754319E0,2.088155403E1
1.189220225E1,7.973424647E0,1.744331316E1,9.020099053E0,2.119450074E1
1.190214825E1,8.809492285E0,1.495250688E1,6.463060192E0,1.851906486E1
1.191209525E1,8.231369303E0,1.258485700E1,4.160109749E0,1.560258246E1
1.192204125E1,2.944725923E0,1.127110108E1,5.127908725E-1,1.166070687E1
1.193198825E1,-1.070114139E0,1.061489847E1,-7.126224495E0,1.282982032E1
1.194193425E1,-1.372474830E0,1.011699286E1,-1.699313837E1,1.982432806E1
1.195188125E1,-6.334602127E0,5.357934095E0,-9.829067770E0,1.286255088E1
1.196182825E1,-1.203202732E1,-1.122125356E1,-1.240688530E0,1.649925819E1
1.197177425E1,-4.401267926E-1,-4.351370653E1,-6.130726089E0,4.394567294E1
1.198172125E1,1.731061411E1,-5.845061070E1,-3.548977481E0,6.106329907E1
1.199166725E1,6.979830095E-1,-3.949636532E1,-1.122629153E0,3.951848112E1
1.200161425E1,-6.817551150E0,1.563358355E-1,-4.195784197E0,8.006750252E0
1.201156025E1,-4.795783075E0,1.146757220E1,1.575294276E0,1.252941737E1
1.202150725E1,-3.989732995E0,1.116031739E1,5.000528886E0,1.286374529E1
1.203145325E1,-9.105953720E-1,8.446021174E0,1.813854243E0,8.686456402E0
1.204140025E1,2.966509140E0,2.956403689E0,-2.832054462E0,5.055791899E0
1.205134625E1,3.411577268E0,-3.590534227E0,-4.575005953E0,6.742512511E0
1.206129325E1,1.931519810E0,-8.936020769E0,-2.353904250E0,9.440556190E0
1.207123925E1,7.556842107E-1,-1.024966267E1,3.514965981E-1,1.028349130E1
1.208118625E1,1.054687723E0,-8.803101863E0,-9.291746074E-1,8.914613511E0
1.209113225E1,-6.052604949E0,-7.130119325E0,-1.833863999E0,9.530775699E0
1.210107925E1,-1.306321303E1,-4.439910128E0,-2.414535198E0,1.400679538E1
1.211102525E1,-1.027481154E1,-1.120424168E0,-2.262428654E0,1.058043884E1
1.212097225E1,-2.970073310E0,1.121751485E0,-1.459355099E0,3.494192205E0
1.213091825E1,8.662033108E-1,-1.043287114E0,-5.648322612E-1,1.468942361E0
1.214086525E1,2.056496735E0,-4.439630046E0,-2.124205738E0,5.334017603E0
1.215081125E1,3.011141814E0,-6.020589105E0,-3.777443399E0,7.719037947E0
1.216075825E1,3.512171597E0,-5.555563552E0,-3.265559430E0,7.339176664E0
1.217070425E1,3.086059557E0,-3.953114222E0,-2.713828440E0,5.702257487E0
1.218065125E1,2.540339212E0,-3.111209309E0,-1.829715400E0,4.413706506E0
1.219059725E1,1.014596289E0,-3.550324094E0,-1.000194889E0,3.825519131E0
1.220054425E1,-1.356636477E0,-3.989662828E0,-4.440819955E-1,4.237343606E0
1.221049125E1,-2.358445197E0,-4.088586023E0,-1.033879529E0,4.831946429E0
1.222043725E1,-2.492009636E0,-3.946057802E0,-1.368091173E0,4.863451209E0
1.223038425E1,-2.176171698E0,-3.738427852E0,-1.336498082E0,4.527448861E0
1.224033025E1,-1.626011855E0,-3.546971301E0,-9.075714844E-1,4.006071138E0
1.225027725E1,-1.292329530E0,-3.029554111E0,-4.481566277E-1,3.324027390E0
1.226022325E1,-1.257324443E0,-2.367028910E0,-2.933562711E-1,2.696247117E0
1.227017025E1,-1.147423686E0,-1.883128545E0,-2.103658623E-1,2.215176749E0
1.228011625E1,-6.725410433E-1,-1.931122491E0,-9.509736121E-2,2.047092826E0
1.229006325E1,-3.913743165E-1,-2.382501812E0,2.659664512E-1,2.429038265E0
1.230000925E1,-3.492430812E-1,-2.720712951E0,3.916780794E-1,2.770859327E0
1.230995625E1,-3.761668780E-1,-2.976066121E0,5.967715073E-1,3.058530253E0
1.231990225E1,-4.233014296E-1,-2.859374408E0,7.204933280E-1,2.978979144E0
1.232984925E1,-4.748927289E-1,-2.654763960E0,6.904064798E-1,2.783874260E0
1.233979525E1,-6.802466503E-1,-2.328786950E0,1.045799078E0,2.641908378E0
1.234974225E1,-7.544535179E-1,-1.832650702E0,1.209676067E0,2.321879604E0
1.235968825E1,-8.552712833E-1,-1.276341342E0,6.993828329E-1,1.688097313E0
1.236963525E1,-9.662719747E-1,-7.977695453E-1,3.778494143E-1,1.308773455E0
1.237958125E1,-9.581968237E-1,-2.326607108E-1,6.741225690E-1,1.194451086E0
1.238952825E1,-9.432839388E-1,3.669595599E-1,9.926247910E-1,1.417655770E0
1.239947425E1,-9.084702015E-1,1.065213003E0,1.217518645E0,1.855356704E0
1.240942125E1,-9.003510502E-1,1.693578771E0,1.364606817E0,2.353931356E0
1.241936725E1,-6.837482554E-1,2.242211906E0,1.395783878E0,2.728229928E0
1.242931425E1,-4.859132686E-1,2.904839433E0,1.484537595E0,3.298189763E0
1.243926025E1,-1.937030153E-1,3.624539294E0,1.527286004E0,3.937944704E0
1.244920725E1,4.209618124E-1,4.130770760E0,1.439734182E0,4.394691165E0
1.245915425E1,9.952890748E-1,4.406502061E0,1.330690627E0,4.709415920E0
1.246910025E1,1.461596629E0,4.789108770E0,1.187807773E0,5.146135912E0
1.247904725E1,2.109907250E0,5.142297553E0,1.012450068E0,5.649777683E0
1.248899342E1,2.603989371E0,5.417887936E0,7.055276719E-1,6.052440799E0
1.249894042E1,2.855678968E0,5.602137794E0,2.672592705E-1,6.293669657E0
1.250888642E1,3.447106120E0,5.223063973E0,2.900672123E-1,6.264748747E0
1.251883342E1,3.775619068E0,4.616754488E0,6.608186916E-1,6.000533533E0
1.252877942E1,3.420064209E0,4.021869292E0,4.665317953E-1,5.299992803E0
1.253872642E1,3.128103084E0,3.468631475E0,8.902882844E-2,4.671654883E0
1.254867242E1,2.839599710E0,2.853549997E0,-3.301114301E-1,4.039188984E0
1.255861942E1,2.486342807E0,2.246356997E0,-5.651086883E-1,3.398141866E0
1.256856542E1,2.028970090E0,1.638723117E0,-7.321026823E-1,2.708894132E0
1.257851242E1,1.392473331E0,1.062576494E0,-1.228013228E0,2.139174437E0
1.258845842E1,9.073998687E-1,4.210638463E-1,-1.338751599E0,1.671204693E0
1.259840542E1,4.347841917E-1,8.321698844E-2,-7.339512795E-1,8.571154188E-1
1.260835142E1,-2.818034155E-1,6.587765515E-2,-5.197265473E-1,5.948686531E-1
1.261829842E1,-1.175638548E0,4.322150713E-1,-9.460677981E-1,1.569707024E0
1.262824442E1,-2.177116023E0,1.285359503E0,-1.014012152E0,2.724005116E0
1.263819142E1,-2.312982803E0,2.102344753E0,-5.512871861E-1,3.173903034E0
1.264813742E1,-1.551926756E0,2.579064737E0,-5.726470649E-3,3.009997403E0
1.265808442E1,-3.369025326E-1,2.853463458E0,6.553392658E-1,2.947070847E0
1.266803142E1,8.952595872E-1,3.155475655E0,1.193072606E0,3.490263397E0
1.267797742E1,1.237478408E0,3.670318900E0,1.364501567E0,4.106635869E0
1.268792442E1,9.144888867E-1,4.199759134E0,1.152152621E0,4.449912625E0
1.269787042E1,1.004278292E0,4.510146883E0,1.368760679E0,4.819077255E0
1.270781742E1,1.880689818E0,4.009184343E0,2.079147972E0,4.892178408E0
1.271776342E1,2.098053920E0,3.211445788E0,1.796389194E0,4.235826771E0
1.272771042E1,2.143171036E0,2.321862677E0,2.046004199E0,3.764354070E0
1.273765642E1,3.016166619E0,9.164592522E-1,2.359981846E0,3.937851311E0
1.274760342E1,3.115585365E0,-6.483486271E-1,1.840009423E0,3.675984601E0
1.275754942E1,1.246149683E0,-2.198790482E0,1.615981541E0,2.999827488E0
1.276749642E1,-6.518179263E-1,-3.897976148E0,3.492840702E0,5.274373975E0
1.277744242E1,-3.066187502E0,-4.428517413E0,3.732466031E0,6.553211041E0
1.278738942E1,-5.100145560E0,-4.035500906E0,2.956884331E0,7.144222648E0
1.279733542E1,-5.337020359E0,-3.338944910E0,3.932712702E0,7.422841007E0
1.280728242E1,-4.683872630E0,-1.924882343E0,4.471965149E0,6.755909054E0
1.281722842E1,-4.238825844E0,-9.345499527E-1,4.057010474E0,5.941410786E0
1.282717542E1,-3.444186605E0,-8.609183049E-1,4.181267315E0,5.485125163E0
1.283712142E1,-2.848447716E0,-7.569004315E-1,3.331947547E0,4.448418495E0
1.284706842E1,-2.184653669E0,-6.255971110E-1,3.190565965E0,3.917115594E0
1.285701442E1,-1.674021881E0,-6.363542336E-1,2.739666701E0,3.273082584E0
1.286696142E1,-1.949538005E0,-7.279286474E-1,1.278433476E0,2.442328950E0
1.287690742E1,-2.053708783E0,-4.143453956E-2,-1.244623121E0,2.401775031E0
1.288685442E1,-5.468468106E-1,2.898657757E-1,-1.159996954E0,1.314783836E0
1.289680042E1,9.254271269E-1,-1.104112190E-1,-1.654563224E-1,9.465631511E-1
1.290674742E1,-1.133869840E0,7.076475799E-2,-7.905388784E-1,1.384059313E0
1.291669342E1,-2.421599512E0,-5.534068018E-1,-2.173859709E0,3.300919466E0
1.292664042E1,-2.307214817E0,-2.649371073E0,-3.215166371E0,4.762321082E0
1.293658642E1,-1.693969949E0,-3.861036071E0,-3.724510310E0,5.625754241E0
1.294653342E1,-1.060836070E0,-3.074627081E0,-4.475933654E0,5.532873298E0
1.295648042E1,5.836392456E-1,-1.782154148E0,-5.279397803E0,5.602566317E0
1.296642642E1,2.191695763E0,-7.065591207E-1,-7.084290018E0,7.449155735E0
1.297637342E1,3.520959670E0,-1.846752432E-1,-8.606407376E0,9.300618789E0
1.298631942E1,5.690732467E0,-2.532831388E0,-8.665395842E0,1.067186750E1
1.299626642E1,5.856937233E0,-4.874507355E0,-7.380940318E0,1.060861988E1
1.300621242E1,4.214357293E0,-3.544431855E0,-6.146392534E0,8.252390305E0
1.301615942E1,2.962076950E0,-1.026772238E0,-6.047280475E0,6.811590286E0
1.302610542E1,3.175729240E0,7.894483727E-1,-5.450889037E0,6.357725712E0
1.303605242E1,4.866521813E0,1.511629499E0,-4.550302636E0,6.831786909E0
1.304599842E1,5.968165308E0,1.276672295E0,-3.730475054E0,7.152994717E0
1.305594542E1,5.134520756E0,9.823915789E-1,-2.027565297E0,5.607086377E0
1.306589142E1,3.029272860E0,1.102045199E0,-3.001691544E-1,3.237452580E0
1.307583842E1,9.636731797E-1,1.414588816E0,1.184252374E0,2.081389248E0
1.308578442E1,8.789797693E-2,1.910185074E0,3.406984280E0,3.906926536E0
1.309573142E1,-9.592941999E-3,2.815858260E0,5.728432975E0,6.383110066E0
1.310567742E1,-2.155821633E-1,3.986606489E0,6.653634399E0,7.759533342E0
1.311562442E1,-5.674743256E-1,5.118542070E0,6.655721855E0,8.415469888E0
1.312557042E1,-9.500991610E-1,6.041123942E0,6.256878598E0,8.749079762E0
1.313551742E1,-1.364681369E0,6.552001020E0,5.921246080E0,8.936007372E0
1.314546342E1,-1.787992592E0,6.425349745E0,5.961113566E0,8.945217258E0
1.315541042E1,-1.885922053E0,5.851219826E0,5.430696847E0,8.202800966E0
1.316535642E1,-1.950060161E0,5.328391623E0,5.971547338E0,8.237346024E0
1.317530342E1,-2.439024799E0,4.856491499E0,5.810791007E0,7.956107326E0
1.318524942E1,-2.645263989E0,4.955829261E0,5.416319128E0,7.803472185E0
1.319519642E1,-2.642522522E0,4.940989612E0,5.648613803E0,7.956327138E0
1.320514242E1,-2.832690932E0,4.779813452E0,5.877706543E0,8.088151133E0
1.321508942E1,-2.893394678E0,4.622862489E0,5.980823361E0,8.094000150E0
1.322503642E1,-2.705457566E0,4.389317095E0,6.238923553E0,8.093810740E0
1.323498242E1,-2.704266488E0,4.026121387E0,6.120195254E0,7.808937227E0
1.324492942E1,-3.050519011E0,3.567056487E0,5.517731482E0,7.243957408E0
1.325487542E1,-3.381934808E0,3.025924160E0,4.994858256E0,6.748504210E0
1.326482242E1,-3.545608900E0,2.395241141E0,4.416877361E0,6.149579515E0
1.327476842E1,-3.649969712E0,1.530554305E0,3.668410369E0,5.396490528E0
1.328471542E1,-4.009962899E0,2.489931536E-1,3.357274176E0,5.235751134E0
1.329466142E1,-4.860580457E0,-1.744715595E0,3.242693893E0,6.097896241E0
1.330460842E1,-5.227769812E0,-4.793754968E0,2.139540061E0,7.408596060E0
1.331455442E1,-3.513453891E0,-7.714561978E0,1.071274812E0,8.544381457E0
1.332450142E1,-1.436158025E-1,-8.779104306E0,7.538978863E-1,8.812585315E0
1.333444742E1,2.362552574E0,-8.114099300E0,5.348588490E-1,8.467959382E0
1.334439442E1,1.651120676E0,-6.767759770E0,4.896762443E-1,6.983448619E0
1.335434042E1,2.565867864E-1,-5.335544522E0,-3.955752486E-1,5.356337545E0
1.336428742E1,-1.215911538E0,-3.938133071E0,-6.757556963E-1,4.176598941E0
1.337423342E1,-2.463131407E0,-2.546450722E0,-2.257937407E-1,3.549987384E0
1.338418042E1,-2.302586161E0,-1.094850785E0,-1.255195472E-1,2.552715501E0
1.339412642E1,-1.478914328E0,1.282797253E-1,-2.190659344E-1,1.500544288E0
1.340407342E1,-1.828190446E0,8.669093621E-1,-6.740468475E-1,2.132639515E0
1.341401942E1,-1.162164516E0,1.020332699E0,-1.186310009E0,1.949111751E0
1.342396642E1,-3.661362720E-1,6.078549045E-1,-1.317126256E0,1.496116616E0
1.343391242E1,3.028805814E-1,-5.489190638E-1,-1.568057031E0,1.688742620E0
1.344385942E1,7.751952729E-1,-2.363174425E0,-2.158888936E0,3.293375550E0
1.345380542E1,1.191214799E0,-5.079928227E0,-2.834859957E0,5.938105292E0
1.346375242E1,1.900831137E0,-8.364588756E0,-3.977998803E0,9.455367711E0
1.347369842E1,3.079127098E0,-1.165166828E1,-6.270261705E0,1.358523387E1
1.348364550E1,4.165928606E0,-1.096307560E1,-7.842547588E0,1.410849179E1
1.349359150E1,3.208157898E0,-5.869734449E0,-8.695837616E0,1.097103694E1
1.350353850E1,2.634286426E0,-2.689519225E0,-8.235583391E0,9.055264349E0
1.351348550E1,2.093019906E0,-1.428744341E0,-6.483907270E0,6.961544097E0
1.352343150E1,1.643136011E0,-1.101178057E0,-3.713780669E0,4.207690093E0
1.353337850E1,1.967339560E0,-1.521322721E0,-1.356050001E0,2.832617054E0
1.354332450E1,1.309107677E0,-3.136737667E0,2.225298250E-1,3.406230413E0
1.355327150E1,3.843754917E-2,-6.502334186E0,1.742975464E0,6.731997532E0
1.356321750E1,-1.653487044E0,-1.174348477E1,2.081200637E0,1.204055023E1
1.357316450E1,-3.555593897E0,-1.394554384E1,1.558985807E0,1.447587226E1
1.358311050E1,-4.613362518E0,-9.197636307E0,-9.719709635E-1,1.033558682E1
1.359305750E1,-2.937422166E0,-2.074070542E0,-5.979108957E0,6.977102659E0
1.360300350E1,8.958636045E-1,2.052371525E0,-7.537677857E0,7.863293709E0
1.361295050E1,4.797657107E0,3.206078044E0,-4.952833732E0,7.604407414E0
1.362289650E1,6.358200320E0,2.840320671E0,-2.003472430E0,7.246242792E0
1.363284350E1,6.663426731E0,2.523067122E0,4.378044248E-1,7.138543004E0
1.364278950E1,6.781754496E0,2.447573721E0,1.828287510E0,7.438107715E0
1.365273650E1,6.462367882E0,1.909050422E0,1.971255441E0,7.020863207E0
1.366268250E1,6.006449368E0,9.867123789E-1,1.022525990E0,6.172243897E0
1.367262950E1,5.505353512E0,4.573440653E-1,1.995900285E-1,5.527921586E0
1.368257550E1,5.183550829E0,4.702798605E-1,-1.250310123E-1,5.206341815E0
1.369252250E1,4.754722465E0,3.096241021E-1,8.591547847E-2,4.765567571E0
1.370246850E1,3.989322228E0,-5.606064785E-1,6.675239861E-1,4.083449490E0
1.371241550E1,2.840036204E0,-2.139682149E0,1.531747137E0,3.871730186E0
1.372236150E1,1.305119876E0,-3.632840002E0,2.409601318E0,4.550499190E0
1.373230850E1,-3.200122654E-1,-4.068845238E0,2.562102549E0,4.818949978E0
1.374225450E1,-1.647924588E0,-3.023471253E0,2.027105121E0,3.995771394E0
1.375220150E1,-2.363409191E0,-1.001873040E0,8.826594222E-1,2.714505525E0
1.376214750E1,-2.656078999E0,8.221951193E-1,-3.015625459E-1,2.796730311E0
1.377209450E1,-2.636149349E0,1.424429680E0,-7.773452210E-1,3.095569236E0
1.378204150E1,-2.389212077E0,1.382610978E0,-5.425994662E-1,2.813247527E0
1.379198750E1,-1.829909820E0,1.256283054E0,-3.312564977E-1,2.244225462E0
1.380193450E1,-1.117061726E0,1.065469696E0,-3.258150057E-1,1.577722406E0
1.381188050E1,-3.275119042E-1,7.662436974E-1,-1.382223308E-2,8.334173656E-1
1.382182750E1,6.572045276E-1,2.321642822E-1,-1.605879307E-2,6.971914585E-1
1.383177350E1,1.274560865E0,-1.201977038E-1,8.813566625E-1,1.554265889E0
1.384172050E1,1.525540903E0,-2.486692178E-1,1.693454225E0,2.292792759E0
1.385166650E1,1.796665475E0,-2.203119761E-1,1.815458719E0,2.563675985E0
1.386161350E1,1.863780693E0,-1.120472699E-1,1.549132079E0,2.426116910E0
1.387155950E1,1.835025841E0,-8.405606389E-2,8.898357099E-1,2.041125388E0
1.388150650E1,1.578630989E0,-1.063187528E-1,-2.768013418E-2,1.582449262E0
1.389145250E1,1.038793821E0,-1.686635202E-1,-8.212367606E-1,1.334904417E0
1.390139950E1,7.406665143E-1,4.672802389E-2,-1.059853445E0,1.293854597E0
1.391134550E1,5.668062812E-1,6.740021163E-1,-1.471841828E0,1.715187040E0
1.392129250E1,4.749664038E-1,1.377348484E0,-1.712288107E0,2.248246537E0
1.393123850E1,-8.923435807E-3,1.889360508E0,-1.337450008E0,2.314851028E0
1.394118550E1,-3.447473033E-1,2.028430685E0,-7.652508402E-1,2.195219942E0
1.395113150E1,3.728114533E-1,2.166585773E0,-6.606231022E-1,2.295540279E0
1.396107850E1,1.596011692E0,2.046176400E0,-3.555317251E-1,2.619254471E0
1.397102450E1,2.645556350E0,2.316896052E0,2.624964795E0,4.388327232E0
1.398097150E1,5.388322660E0,3.202229991E0,5.030535042E0,8.037075389E0
1.399091750E1,1.048663278E1,3.382769791E0,1.013541158E0,1.106525482E1
1.400086450E1,1.360927164E1,2.930981750E0,-5.303030494E0,1.489714943E1
1.401081050E1,7.367098204E0,3.388490707E0,-8.607652248E0,1.182572122E1
1.402075750E1,-2.186497004E0,5.858279169E0,-8.430664047E0,1.049648990E1
1.403070350E1,-3.469182867E0,7.914073069E0,-5.402399247E0,1.019086355E1
1.404065050E1,-6.639294103E-1,8.091163012E0,-2.378247378E0,8.459537915E0
1.405059650E1,9.316650827E-1,6.897884291E0,-2.022699390E0,7.248456411E0
1.406054350E1,1.137222780E0,4.275898653E0,-8.351037980E-1,4.502664022E0
1.407049050E1,1.105397481E0,8.158888972E-1,7.435928265E-1,1.562212718E0
1.408043650E1,8.465132506E-1,-2.508940249E0,8.154471400E-1,2.770617241E0
1.409038350E1,4.087975574E-1,-5.856578214E0,1.722056465E0,6.118178021E0
1.410032950E1,4.716636406E-1,-9.227904419E0,1.984729911E0,9.450705761E0
1.411027650E1,3.642111127E-1,-9.662137949E0,1.401820982E0,9.770090151E0
1.412022250E1,2.391259772E-1,-6.886017952E0,2.135332990E-1,6.893476694E0
1.413016950E1,1.322696314E0,-3.890696365E0,7.697951500E-1,4.180864541E0
1.414011550E1,1.285937793E0,-9.717978859E-1,2.249309110E0,2.767204114E0
1.415006250E1,3.465431294E-1,1.003510845E0,1.256798193E0,1.645195385E0
1.416000850E1,-6.421078938E-1,1.228536846E0,-3.731505919E-1,1.435564939E0
1.416995550E1,-1.709825844E0,-6.545238715E-1,-1.644470784E0,2.460932765E0
1.417990150E1,-3.132385585E0,-4.376052101E0,-8.622470847E-1,5.450242332E0
1.418984850E1,-4.445573741E0,-8.681949309E0,9.027867079E-1,9.795631349E0
1.419979450E1,-4.186749664E0,-1.136824906E1,1.982395556E0,1.227582386E1
1.420974150E1,-3.730755136E0,-1.216077716E1,1.295475186E0,1.278598025E1
1.421968750E1,-3.562775448E0,-1.088502229E1,-2.403161779E-1,1.145577719E1
1.422963450E1,-2.875825257E0,-9.146667298E0,-1.105299321E0,9.651610237E0
1.423958050E1,-1.184464920E0,-9.252539324E0,-1.655536347E0,9.473818748E0
1.424952750E1,6.300950816E-1,-1.151777756E1,-1.803145506E0,1.167508259E1
1.425947350E1,1.860067711E0,-1.431284020E1,-1.617764357E0,1.452358110E1
1.426942050E1,3.077848020E0,-1.677731530E1,-1.288646661E0,1.710590738E1
1.427936650E1,3.834824465E0,-1.823548926E1,-1.075100499E0,1.866533655E1
1.428931350E1,3.767529737E0,-1.819559254E1,-6.473544542E-1,1.859281947E1
1.429925950E1,3.335266426E0,-1.792395897E1,-9.968815640E-2,1.823190185E1
1.430920650E1,1.807311062E0,-1.874799304E1,2.776092808E-1,1.883694994E1
1.431915250E1,-1.137262979E0,-2.049570474E1,3.420538565E-1,2.053008234E1
1.432909950E1,-2.807583865E0,-2.243020926E1,-4.748881973E-2,2.260528854E1
1.433904550E1,-8.710053366E-1,-1.995440460E1,1.362142800E0,2.001979886E1
1.434899250E1,7.973152167E-1,-1.328121594E1,1.793792446E0,1.342550185E1
1.435893850E1,4.761650831E-1,-7.096173899E0,1.730497506E0,7.319633789E0
1.436888550E1,1.701791185E-1,-3.072608914E0,1.906447241E0,3.620003806E0
1.437883150E1,2.535864338E-1,1.002801577E0,3.230807673E0,3.392349525E0
1.438877850E1,-3.362119764E-1,4.738926796E0,-1.665503950E0,5.034319128E0
1.439872450E1,-2.246712508E0,7.474646627E0,-2.041440506E1,2.185557122E1
1.440867150E1,1.468888107E0,4.731779745E0,-3.132142224E1,3.171086348E1
1.441861850E1,-1.142298017E0,1.172331655E-1,-1.150540953E1,1.156257052E1
1.442856450E1,-3.751577656E0,-2.121984966E0,5.704251230E-1,4.347705133E0
1.443851150E1,-2.154069808E0,-2.715163944E0,2.948505270E0,4.550364305E0
1.444845750E1,2.140952456E0,1.563878757E0,-5.333486302E0,5.956128803E0
1.445840450E1,-2.454079333E0,3.812587504E0,-4.427735933E0,6.337442255E0
1.446835050E1,-8.119731338E0,5.168017116E0,7.002485132E0,1.190265668E1
1.447829750E1,-6.724465231E0,9.037143686E0,8.643447733E0,1.419850652E1
1.448824342E1,-5.522552512E0,1.201340627E1,3.684948049E0,1.372586459E1
1.449819042E1,-4.689138632E0,1.114005094E1,6.810214648E0,1.387327574E1
1.450813642E1,-3.045845331E0,9.102695652E0,8.927318358E0,1.310851841E1
1.451808342E1,-2.726906322E0,7.322910211E0,5.492331762E0,9.551269038E0
1.452802942E1,-4.934568200E0,4.326268322E0,4.799658317E0,8.130392419E0
1.453797642E1,-4.835606414E0,1.998791733E0,9.161344394E0,1.055028383E1
1.454792242E1,-4.078727617E0,1.229647817E0,9.884373075E0,1.076331194E1
1.455786942E1,-5.253790507E0,1.422312988E0,1.091960740E1,1.220094729E1
1.456781542E1,-6.005609123E0,4.912429472E0,1.175264618E1,1.408275529E1
1.457776242E1,-6.683034784E0,1.012262255E1,1.200121600E1,1.706340021E1
1.458770842E1,-6.462235735E0,1.531383090E1,9.523722661E0,1.915659679E1
1.459765542E1,-4.218698850E0,1.922133450E1,7.343039836E0,2.100422229E1
1.460760142E1,-2.197053275E-1,2.148862979E1,9.522270212E0,2.350495928E1
1.461754842E1,2.978595627E0,2.365457880E1,1.149702930E1,2.646871385E1
1.462749442E1,5.144861557E0,2.468956170E1,1.084798135E1,2.745401167E1
1.463744142E1,7.561722193E0,2.461248136E1,8.720447962E0,2.718455617E1
1.464738742E1,9.085968522E0,2.442887177E1,5.872965036E0,2.671734116E1
1.465733442E1,8.509063514E0,2.451630168E1,5.842229732E0,2.660046726E1
1.466728042E1,6.454710369E0,2.170875173E1,8.314638916E0,2.412605247E1
1.467722742E1,5.614021676E0,1.549645347E1,8.455058046E0,1.852418193E1
1.468717342E1,5.927445298E0,1.187614756E1,5.640904834E0,1.442211136E1
1.469712042E1,3.656662435E0,1.029330980E1,2.135475077E0,1.113030370E1
1.470706642E1,-1.304765535E0,9.374893481E0,3.587600094E-1,9.472050972E0
1.471701342E1,-4.703511381E0,9.980734019E0,-7.540925986E-1,1.105923716E1
1.472696042E1,-7.785541914E0,1.095659221E1,-6.690088280E0,1.501395541E1
1.473690642E1,-1.258978269E1,1.011398739E1,-5.638309255E0,1.710514251E1
1.474685342E1,-1.371453205E1,7.186941397E-1,1.231292639E0,1.378843690E1
1.475679942E1,9.218212952E-1,-2.598990528E1,-1.491191785E1,2.997816246E1
1.476674642E1,2.481244444E1,-5.041499741E1,-5.040568280E0,5.641574861E1
1.477669242E1,1.441194349E1,-5.443638021E1,1.289560026E1,5.776954312E1
1.478663942E1,-8.527130826E0,-2.492185988E1,-1.251282866E1,2.916130897E1
1.479658542E1,-9.638674242E0,4.523707160E0,-1.964347540E1,2.234354702E1
1.480653242E1,-5.466511627E0,8.216596897E0,8.826110072E0,1.323991816E1
1.481647842E1,2.025809670E0,1.200723863E1,1.112488560E1,1.649365830E1
1.482642542E1,5.365576991E0,1.060704566E1,2.182962070E0,1.208570054E1
1.483637142E1,6.787098266E0,2.036899792E0,-2.808632271E0,7.622471966E0
1.484631842E1,4.874373454E0,-6.255103968E0,-6.710312630E0,1.038817298E1
1.485626442E1,6.079256558E-1,-1.380331734E1,-3.323194265E0,1.421072705E1
1.486621142E1,-3.319260843E0,-1.514209466E1,1.610433995E0,1.558505762E1
1.487615742E1,-4.379035935E0,-1.197503685E1,5.809284765E-1,1.276381374E1
1.488610442E1,-1.058708327E1,-6.307341238E0,-1.546774482E0,1.242020116E1
1.489605042E1,-1.217564429E1,-1.153831065E-2,-1.888965528E0,1.232130828E1
1.490599742E1,-6.703701768E0,4.553295826E0,-9.599403173E-1,8.160490530E0
1.491594342E1,-1.107232849E0,4.251495298E0,-5.476139653E-1,4.427308201E0
1.492589042E1,1.945205218E0,-9.369718695E-1,-3.656874982E-1,2.189855468E0
1.493583642E1,2.589385950E0,-5.516977192E0,-1.626661188E0,6.307771679E0
1.494578342E1,3.289479512E0,-7.356683729E0,-2.852852424E0,8.548698023E0
1.495572942E1,4.151117901E0,-6.407798742E0,-2.296158902E0,7.972704074E0
1.496567642E1,4.071854508E0,-4.090931926E0,-1.311042228E0,5.918999483E0
1.497562242E1,3.455917289E0,-3.659836012E0,-6.965501493E-1,5.081628287E0
1.498556942E1,9.249008775E-1,-4.542400124E0,-2.654823017E-1,4.643201630E0
1.499551542E1,-1.056351840E0,-4.870952833E0,-2.771328789E-1,4.991879740E0
1.500546242E1,-1.811735796E0,-4.416959222E0,-8.342804369E-1,4.846435722E0
1.501540842E1,-2.106791853E0,-3.620580729E0,-1.226449975E0,4.364785936E0
1.502535542E1,-1.933852556E0,-3.086356888E0,-1.249702013E0,3.850602507E0
1.503530142E1,-1.565131815E0,-3.122547060E0,-1.013819486E0,3.636999820E0
1.504524842E1,-1.207920733E0,-3.274037308E0,-1.077820185E0,3.652408676E0
1.505519442E1,-1.158099240E0,-3.160660381E0,-9.226532078E-1,3.490308988E0
1.506514142E1,-9.744320565E-1,-3.063544561E0,-6.254094154E-1,3.275051151E0
1.507508742E1,-6.141940172E-1,-3.284054173E0,-4.662204310E-1,3.373367396E0
1.508503442E1,-2.773907411E-1,-3.666543353E0,6.162205160E-2,3.677537635E0
1.509498042E1,-1.899883157E-1,-3.696222065E0,3.999919429E-1,3.722653176E0
1.510492742E1,1.119317874E-2,-3.473620319E0,6.615320519E-1,3.536069579E0
1.511487342E1,-7.766900405E-2,-3.095728220E0,1.009073009E0,3.256960857E0
1.512482042E1,-2.722026528E-1,-2.648363013E0,9.108514801E-1,2.813817932E0
1.513476742E1,-6.504752594E-1,-2.203784589E0,5.441249317E-1,2.361325162E0
1.514471342E1,-1.019753387E0,-1.873180093E0,2.560837796E-1,2.148087412E0
1.515466042E1,-1.151101877E0,-1.557252692E0,3.739703715E-1,1.972289359E0
1.516460642E1,-1.289473896E0,-1.052166696E0,7.957335448E-1,1.844719371E0
1.517455342E1,-1.217248285E0,-6.312572157E-1,1.077781301E0,1.744073276E0
1.518449942E1,-1.302758186E0,-6.607236743E-2,1.000346332E0,1.643848299E0
1.519444642E1,-1.357392522E0,5.479636288E-1,1.054173460E0,1.803901406E0
1.520439242E1,-1.301223876E0,1.161868647E0,1.097025072E0,2.060724712E0
1.521433942E1,-1.093162913E0,1.736437107E0,1.185629101E0,2.369796478E0
1.522428542E1,-6.651219499E-1,2.330665076E0,1.363741429E0,2.781038940E0
1.523423242E1,-1.721507996E-1,2.878419959E0,1.439624547E0,3.222957678E0
1.524417842E1,4.086481610E-1,3.336706595E0,1.461120081E0,3.665443509E0
1.525412542E1,9.154900762E-1,3.708859652E0,1.508843009E0,4.107355503E0
1.526407142E1,1.366639601E0,4.084688854E0,1.441990915E0,4.542215828E0
1.527401842E1,2.012587069E0,4.561228158E0,1.262041976E0,5.142767638E0
1.528396442E1,2.644149802E0,4.978310636E0,1.115733823E0,5.746300282E0
1.529391142E1,3.057018191E0,5.199900813E0,8.697712818E-1,6.094327754E0
1.530385742E1,3.297229119E0,5.229784178E0,7.745791957E-1,6.230757205E0
1.531380442E1,3.375439721E0,5.096083499E0,7.568726572E-1,6.159262664E0
1.532375042E1,3.209937206E0,4.807043350E0,4.747075184E-1,5.799716361E0
1.533369742E1,2.890811963E0,4.437127438E0,2.999855518E-2,5.295827945E0
1.534364342E1,2.541953921E0,4.019517542E0,-4.298614208E-1,4.775231078E0
1.535359042E1,2.175291984E0,3.485132318E0,-8.235848562E-1,4.190027984E0
1.536353642E1,1.808053220E0,2.870266601E0,-9.304837990E-1,3.517568323E0
1.537348342E1,1.409259079E0,2.293092037E0,-8.804187691E-1,2.831857951E0
1.538342942E1,8.006934455E-1,1.772136698E0,-1.111605982E0,2.239921054E0
1.539337642E1,5.990098214E-1,1.262595123E0,-1.197753010E0,1.840535651E0
1.540332242E1,7.028756672E-1,7.983244461E-1,-1.078773866E0,1.514961774E0
1.541326942E1,9.484458607E-1,2.093841147E-1,-1.117933838E0,1.480934612E0
1.542321542E1,1.092171299E0,-2.344265699E-1,-1.013994756E0,1.508634922E0
1.543316242E1,8.917056495E-1,1.460014665E-1,-9.202233973E-1,1.289676895E0
1.544310842E1,1.972429562E-1,1.140363758E0,-1.237687154E0,1.694462680E0
1.545305542E1,-3.840927789E-1,1.898924214E0,-1.480559734E0,2.438339098E0
1.546300142E1,5.713109761E-2,2.283804320E0,-8.498004091E-1,2.437454999E0
1.547294842E1,8.881859180E-1,2.547595022E0,2.714414915E-1,2.711603789E0
1.548289442E1,1.749316185E0,2.742534760E0,1.350367385E0,3.522086895E0
1.549284104E1,1.858121758E0,2.787298704E0,1.776344354E0,3.791708032E0
1.550278704E1,1.606269901E0,2.950465257E0,1.669238859E0,3.751227345E0
1.551273404E1,8.979516453E-1,3.429916475E0,2.081081353E0,4.111148718E0
1.552268104E1,5.604965508E-1,3.890416868E0,2.588340175E0,4.706272904E0
1.553262704E1,1.273933313E0,4.277473893E0,2.737717532E0,5.235913127E0
1.554257404E1,1.611246905E0,4.889264558E0,1.729952838E0,5.430815899E0
1.555252004E1,1.721734722E0,4.596435998E0,6.932204524E-1,4.957030253E0
1.556246704E1,1.885800577E0,3.203953165E0,1.693358623E0,4.085220083E0
1.557241304E1,9.369496500E-1,1.670908531E0,3.443226492E0,3.940256165E0
1.558236004E1,-7.008691952E-1,2.057114786E-1,3.716394374E0,3.787495477E0
1.559230604E1,-2.844878868E0,-1.331906848E0,3.378378532E0,4.613106668E0
1.560225304E1,-4.632473558E0,-2.983831809E0,2.949316864E0,6.249922679E0
1.561219904E1,-5.004434241E0,-4.241808801E0,3.408575308E0,7.392948641E0
1.562214604E1,-5.373833844E0,-4.354298120E0,3.380994576E0,7.698644467E0
1.563209204E1,-4.469491484E0,-3.595794967E0,4.395921525E0,7.227047919E0
1.564203904E1,-2.795804064E0,-2.280993564E0,4.195083116E0,5.533369168E0
1.565198504E1,-2.163531480E0,-1.163147433E0,2.925773050E0,3.820200041E0
1.566193204E1,-1.465951928E0,-7.079925656E-1,2.885183433E0,3.312786134E0
1.567187804E1,-1.920898050E0,1.139622331E-2,3.346380229E0,3.858528195E0
1.568182504E1,-1.860285520E0,8.878464872E-1,2.322487160E0,3.105298731E0
1.569177104E1,-1.078827368E0,1.738906386E0,-5.481606799E-1,2.118524024E0
1.570171804E1,1.820851898E0,1.322116855E0,-9.249482399E-1,2.432904408E0
1.571166404E1,2.586944737E0,3.163963473E-1,-1.018498428E0,2.798165251E0
1.572161104E1,4.642543048E-2,-4.758557653E-1,-2.154839886E0,2.207244654E0
1.573155704E1,-9.557993191E-1,-1.673824537E0,-2.967337398E0,3.538408138E0
1.574150404E1,-3.475769171E-1,-3.381046032E0,-3.120680628E0,4.614209528E0
1.575145004E1,2.309647259E-1,-4.613928236E0,-3.053759245E0,5.537790534E0
1.576139704E1,1.653797239E-1,-4.394020595E0,-3.964123945E0,5.920223483E0
1.577134304E1,1.445200160E0,-3.816374453E0,-5.418291394E0,6.783155541E0
1.578129004E1,4.783183787E0,-3.751280325E0,-5.975890065E0,8.524213353E0
1.579123604E1,7.147561569E0,-3.463776824E0,-7.300401354E0,1.078801401E1
1.580118304E1,7.113082293E0,-2.203972285E0,-9.928654039E0,1.241094696E1
1.581112904E1,6.705126150E0,-2.405412665E0,-9.908642528E0,1.220352095E1
1.582107604E1,5.665576576E0,-3.391719539E0,-7.634652759E0,1.009407956E1
1.583102204E1,3.768860856E0,-2.140611856E0,-5.808357981E0,7.247313551E0
1.584096904E1,2.849278606E0,-3.945259658E-1,-5.532110370E0,6.235245341E0
1.585091504E1,3.519653694E0,3.345914206E-1,-5.029994175E0,6.148231855E0
1.586086204E1,4.156867468E0,4.323252913E-1,-3.653049733E0,5.550785950E0
1.587080804E1,3.598750150E0,6.410413617E-1,-2.566042988E0,4.466151955E0
1.588075504E1,2.522804582E0,1.324701616E0,-1.697398172E0,3.316705879E0
1.589070104E1,1.838022539E0,1.977677730E0,-8.867203134E-1,2.841796786E0
1.590064804E1,1.525737369E0,1.929385284E0,-5.155612832E-1,2.513206225E0
1.591059404E1,1.452245762E0,1.046282642E0,-2.680761266E-1,1.809859091E0
1.592054104E1,1.393258758E0,-1.665731406E-1,-2.365198731E-1,1.422975133E0
1.593048704E1,1.182487099E0,-1.151273785E0,6.218075305E-1,1.763618914E0
1.594043404E1,7.026485029E-1,-1.709241123E0,2.310690402E0,2.958802168E0
1.595038004E1,-1.487455648E-1,-1.857538206E0,3.646789119E0,4.095319806E0
1.596032704E1,-9.360816309E-1,-1.437299402E0,4.844239243E0,5.138942716E0
1.597027304E1,-1.115861000E0,-3.326214936E-1,6.030762675E0,6.142139796E0
1.598022004E1,-7.524933851E-1,1.691962308E0,7.377382872E0,7.606231707E0
1.599016604E1,-8.116023034E-1,4.375763249E0,7.790555316E0,8.972109810E0
1.600011304E1,-1.340249363E0,7.241819855E0,7.402657462E0,1.044220095E1
1.601005904E1,-2.070188283E0,9.802481650E0,6.537816260E0,1.196316712E1
1.602000604E1,-2.909800504E0,1.122084894E1,5.721735574E0,1.292720572E1
1.602995304E1,-3.726010413E0,1.097081381E1,5.608447525E0,1.287231886E1
1.603989904E1,-4.387887158E0,9.418175740E0,6.217218688E0,1.210823671E1
1.604984604E1,-4.982557468E0,7.365624706E0,6.390306212E0,1.095053970E1
1.605979204E1,-5.817698323E0,6.000247811E0,5.893541973E0,1.022655487E1
1.606973904E1,-6.374252096E0,5.355682333E0,5.814239695E0,1.015479228E1
1.607968504E1,-6.390298610E0,4.930794992E0,6.245954245E0,1.020591005E1
1.608963204E1,-5.836502969E0,4.269581321E0,6.243382055E0,9.553738066E0
1.609957804E1,-5.068047270E0,3.391604349E0,5.465844460E0,8.189233105E0
1.610952504E1,-4.142147103E0,2.304232153E0,4.312950704E0,6.408464107E0
1.611947104E1,-3.883007568E0,1.415904440E0,3.997265963E0,5.749840723E0
1.612941804E1,-3.669357617E0,6.767602479E-1,3.850566924E0,5.361814561E0
1.613936404E1,-3.375368093E0,1.198737681E-2,3.314802926E0,4.730874327E0
1.614931104E1,-2.573525377E0,-7.031446391E-1,2.119997497E0,3.407614215E0
1.615925704E1,-1.591008376E0,-1.476357048E0,1.131992884E0,2.447926811E0
1.616920404E1,-5.436761579E-1,-2.626207328E0,4.203171569E-1,2.714629848E0
1.617915004E1,2.533431897E-1,-4.129544599E0,4.386054933E-2,4.137540950E0
1.618909704E1,1.842669614E0,-5.790524558E0,-3.272715837E-1,6.085450899E0
1.619904304E1,3.264991373E0,-6.387379096E0,-8.162429461E-1,7.219766819E0
1.620899004E1,2.738978484E0,-6.146366222E0,-5.584184504E-1,6.752159065E0
1.621893604E1,1.045251778E0,-4.978290170E0,2.536200553E-1,5.093156922E0
1.622888304E1,-1.009914861E0,-2.866936027E0,7.230856910E-1,3.124436450E0
1.623882904E1,-2.727594540E0,-7.451650697E-1,1.103375148E0,3.035206693E0
1.624877604E1,-3.370898774E0,1.007057181E0,1.393067554E0,3.783881594E0
1.625872204E1,-2.964701765E0,2.247805352E0,6.489318869E-1,3.776664938E0
1.626866904E1,-2.852323251E0,2.547182794E0,-4.288301182E-1,3.848088276E0
1.627861504E1,-2.607923670E0,2.172396736E0,-6.907713461E-1,3.463775180E0
1.628856204E1,-2.013592206E0,1.941663852E0,-3.147836852E-1,2.814906899E0
1.629850804E1,-1.484816800E0,1.495455224E0,2.623641278E-1,2.123653030E0
1.630845504E1,-1.286922610E0,-2.248839140E-2,7.946212582E-1,1.512646183E0
1.631840104E1,-1.875068305E0,-2.890958143E0,1.049679144E0,3.602130819E0
1.632834804E1,-2.339901630E0,-8.003732520E0,1.449061515E0,8.463725726E0
1.633829404E1,-2.297881492E0,-1.367083230E1,2.685794549E0,1.412038977E1
1.634824104E1,-2.950633072E0,-1.529578054E1,-4.786542428E-1,1.558512906E1
1.635818704E1,-2.335844247E0,-1.589159311E1,-9.955706767E0,1.889748653E1
1.636813404E1,-2.486697148E0,-1.822856850E1,-1.612625590E1,2.446467865E1
1.637808004E1,-5.031952992E-1,-1.758470001E1,-9.902136916E0,2.018730282E1
1.638802704E1,1.707041400E0,-1.239787474E1,-3.316810859E0,1.294691170E1
1.639797304E1,4.842110272E0,-4.059873855E0,-2.573943965E-1,6.324148914E0
1.640792004E1,7.442004545E0,-7.245483720E-1,5.861459470E-1,7.500131270E0
1.641786604E1,7.289850054E0,-2.894124995E0,-1.944374621E-2,7.843357148E0
1.642781304E1,4.473349770E0,-4.396443681E0,-6.179021752E-1,6.302489849E0
1.643775904E1,2.353582653E0,-2.532781101E0,-1.237178446E0,3.672184897E0
1.644770604E1,2.712650226E0,5.194181067E-1,-1.846288748E0,3.322205376E0
1.645765204E1,3.579813357E0,3.110910516E0,-1.008086876E0,4.848614963E0
