"Time (s)","Linear Acceleration x (m/s^2)","Linear Acceleration y (m/s^2)","Linear Acceleration z (m/s^2)","Absolute acceleration (m/s^2)"
2.931583207E-3,3.002486765E-2,1.776641393E-1,2.231572312E-1,2.868190874E-1
1.287758350E-2,9.647087216E-2,2.006910592E-1,1.354782325E-1,2.606489630E-1
2.282358333E-2,1.680016154E-1,2.634620887E-1,4.003939390E-2,3.150237579E-1
3.276958317E-2,1.905508178E-1,3.027390057E-1,-5.790731549E-2,3.623724285E-1
4.271558346E-2,1.868606400E-1,3.286643904E-1,-1.417920560E-1,4.037848034E-1
5.266158329E-2,1.704457515E-1,3.385485238E-1,-2.319007190E-1,4.443476124E-1
6.260758312E-2,1.484935498E-1,2.826386172E-1,-2.873463567E-1,4.295379505E-1
7.255358342E-2,8.557458580E-2,2.117522371E-1,-3.234130061E-1,3.959267510E-1
8.249958325E-2,1.289427996E-2,1.368575907E-1,-3.227218652E-1,3.507786551E-1
9.244558308E-2,-2.891272724E-2,5.704602063E-2,-2.593513499E-1,2.671204166E-1
1.023925832E-1,-6.585134268E-2,-4.102114141E-2,-1.717771626E-1,1.884848189E-1
1.123385835E-1,-1.182160825E-1,-1.187300527E-1,-1.135511738E-1,2.023999423E-1
1.222845833E-1,-1.618082446E-1,-1.628040254E-1,-2.050867036E-2,2.304510019E-1
1.322305831E-1,-1.658282053E-1,-1.979867220E-1,6.672199309E-2,2.667387488E-1
1.421765834E-1,-1.558218652E-1,-1.988421696E-1,1.389631730E-1,2.883217397E-1
1.521225832E-1,-1.369014448E-1,-1.480479920E-1,1.596769345E-1,2.572099083E-1
1.620685831E-1,-8.239019215E-2,-8.642477095E-2,1.695796327E-1,2.073997026E-1
1.720145834E-1,-3.949326396E-2,9.999323487E-3,1.637296396E-1,1.687219585E-1
1.819605832E-1,6.529585719E-3,8.295620263E-2,1.369681031E-1,1.602642452E-1
1.919065835E-1,4.876168549E-2,1.125162166E-1,6.600059286E-2,1.392611907E-1
2.018525833E-1,4.981593847E-2,8.078103840E-2,-1.638097465E-2,9.630960607E-2
2.117985832E-1,7.099104524E-3,4.551881969E-2,-8.570322454E-2,9.730058030E-2
2.217445835E-1,-7.049052358E-2,1.644061625E-2,-1.334925181E-1,1.518534167E-1
2.316905833E-1,-9.005413771E-2,9.960731864E-3,-1.238202001E-1,1.534288299E-1
2.416365831E-1,-1.244305032E-1,-2.259948850E-3,-7.389711142E-2,1.447371431E-1
2.515825834E-1,-1.081845993E-1,-3.998676896E-2,-1.883972883E-3,1.153533639E-1
2.615285832E-1,-1.074694848E-1,-6.101920366E-2,1.055217773E-1,1.625050118E-1
2.714745831E-1,-1.289398760E-1,-7.055308878E-2,1.810430990E-1,2.331948405E-1
2.814205834E-1,-1.313179386E-1,-5.071874857E-2,2.185833929E-1,2.599913309E-1
2.913665832E-1,-1.167957938E-1,-3.039967418E-3,2.473530096E-1,2.735580563E-1
3.013125835E-1,-8.437181354E-2,2.174228668E-2,1.917791717E-1,2.106432544E-1
3.112585833E-1,-6.600103140E-2,7.968994796E-2,1.139433758E-1,1.539146414E-1
3.212045832E-1,-1.815969765E-2,9.483365178E-2,4.301197216E-2,1.057034809E-1
3.311505835E-1,2.463081121E-2,9.328238547E-2,-2.486528456E-2,9.963213676E-2
3.410965833E-1,3.213454306E-2,7.312352479E-2,-1.547524095E-2,8.135823140E-2
3.510425831E-1,1.318196297E-2,7.245401859E-2,-3.244619966E-3,7.371483241E-2
3.609885834E-1,-4.221806645E-2,3.605627060E-2,3.466872633E-2,6.545487277E-2
3.709345832E-1,-1.294538462E-1,-7.249962687E-3,7.838952720E-2,1.515116439E-1
3.808805831E-1,-1.628642517E-1,-7.490049362E-2,1.026313524E-1,2.065624432E-1
3.908265834E-1,-1.564206201E-1,-1.676197922E-1,1.522509706E-1,2.752165750E-1
4.007725832E-1,-1.767519736E-1,-2.282501560E-1,1.617072339E-1,3.308906518E-1
4.107185835E-1,-2.033801937E-1,-2.317818743E-1,1.555827141E-1,3.453872050E-1
4.206645833E-1,-2.398159486E-1,-2.262369597E-1,1.531670831E-1,3.635313006E-1
4.306105832E-1,-2.096361297E-1,-2.282741296E-1,1.178382061E-1,3.315753730E-1
4.405565835E-1,-2.168340522E-1,-2.452474272E-1,1.071858948E-1,3.444591744E-1
4.505025833E-1,-2.488282621E-1,-2.455468047E-1,7.389009476E-2,3.573072675E-1
4.604492085E-1,-2.288623595E-1,-2.398124403E-1,4.020355448E-2,3.339226137E-1
4.703952083E-1,-2.063710445E-1,-2.599099052E-1,4.592344701E-2,3.350389975E-1
4.803412082E-1,-1.813092935E-1,-2.728024310E-1,5.003813267E-2,3.313578745E-1
4.902872085E-1,-1.753685224E-1,-2.815919656E-1,4.956026897E-2,3.354167169E-1
5.002332083E-1,-2.183625144E-1,-2.365327370E-1,4.560170397E-2,3.251298798E-1
5.101792081E-1,-2.424512887E-1,-1.981410885E-1,5.356678113E-2,3.176663633E-1
5.201252084E-1,-2.050846571E-1,-2.056594384E-1,4.554674014E-2,2.939898411E-1
5.300712083E-1,-2.132257354E-1,-1.991327763E-1,7.983890578E-2,3.024786401E-1
5.400172081E-1,-2.274964499E-1,-2.126006681E-1,7.735968634E-2,3.208398352E-1
5.499632084E-1,-2.346780002E-1,-2.161967057E-1,7.824743986E-2,3.285383405E-1
5.599092082E-1,-2.253680634E-1,-2.200810111E-1,5.920525119E-2,3.205178267E-1
5.698552085E-1,-1.812683630E-1,-1.950169212E-1,5.018036619E-2,2.709389011E-1
5.798012083E-1,-1.415336090E-1,-1.675285757E-1,2.422209084E-2,2.206451809E-1
5.897472082E-1,-1.025800431E-1,-1.140598816E-1,-1.594184875E-2,1.542286107E-1
5.996932085E-1,-6.902579606E-2,-5.406101704E-2,-4.831671238E-2,1.001082353E-1
6.096392083E-1,-1.036325419E-1,-1.182190061E-2,-8.037641108E-2,1.316807827E-1
6.195852081E-1,-1.079898870E-1,1.221307933E-2,-1.141522676E-1,1.576125477E-1
6.295312084E-1,-1.252514523E-1,1.898181617E-2,-1.341573465E-1,1.845167452E-1
6.394772083E-1,-1.534958428E-1,1.114830136E-2,-1.539244437E-1,2.176648634E-1
6.494232081E-1,-1.495682681E-1,-5.716881216E-2,-1.808608121E-1,2.415565632E-1
6.593692084E-1,-1.348654443E-1,-6.467956066E-2,-1.757835285E-1,2.308072411E-1
6.693152082E-1,-1.086897987E-1,-7.090450644E-2,-1.642710918E-1,2.093463947E-1
6.792612085E-1,-1.132184672E-1,-3.416411161E-2,-1.541156477E-1,1.942607544E-1
6.892072083E-1,-7.898068070E-2,-1.314687967E-2,-1.187014014E-1,1.431810429E-1
6.991532082E-1,-1.996414840E-2,1.308723807E-2,-6.781542242E-2,7.189418989E-2
7.090992085E-1,1.531210363E-2,2.736847758E-2,-4.424295723E-2,5.423037293E-2
7.190452083E-1,2.736789286E-2,3.236199975E-2,-4.389753297E-2,6.101880029E-2
7.289912081E-1,2.790876031E-2,7.038351953E-2,-6.619881347E-2,1.005734638E-1
7.389372084E-1,4.028907001E-2,9.852850735E-2,-1.034026001E-1,1.484020675E-1
7.488832083E-1,4.958555818E-2,1.345637280E-1,-1.483000070E-1,2.062983678E-1
7.588292081E-1,7.069926918E-2,1.443402725E-1,-1.684414722E-1,2.328197382E-1
7.687752084E-1,8.553482473E-2,1.636343300E-1,-1.598032343E-1,2.441914698E-1
7.787212082E-1,8.073367596E-2,1.970494133E-1,-1.500839925E-1,2.605217890E-1
7.886672085E-1,5.787749469E-2,2.190963399E-1,-1.209607655E-1,2.568745167E-1
7.986132083E-1,4.875759244E-2,2.360982889E-1,-1.371856195E-1,2.773798822E-1
8.085592082E-1,5.212383449E-2,2.364865440E-1,-1.174657385E-1,2.691486194E-1
8.185052085E-1,6.893867254E-2,2.292582160E-1,-1.544553709E-1,2.849005647E-1
8.284512083E-1,6.127121866E-2,2.191203135E-1,-2.063839084E-1,3.071842959E-1
8.383972081E-1,5.068717360E-2,2.361327875E-1,-2.724007273E-1,3.640467540E-1
8.483432084E-1,5.174961269E-2,2.536118692E-1,-3.111589962E-1,4.047430340E-1
8.582892083E-1,4.814129591E-2,2.873310077E-1,-3.609287417E-1,4.638386023E-1
8.682352081E-1,5.088305533E-2,3.389513969E-1,-4.300393224E-1,5.499190428E-1
8.781812084E-1,7.481980205E-2,4.024726242E-1,-4.681352480E-1,6.218784659E-1
8.881272082E-1,1.205754340E-1,4.859539068E-1,-5.009441212E-1,7.082617082E-1
8.980732081E-1,1.316839743E-1,5.477472818E-1,-5.442749128E-1,7.833281142E-1
9.080192083E-1,1.654224086E-1,6.500261933E-1,-5.996535999E-1,8.997127681E-1
9.179652082E-1,1.858332843E-1,7.549515545E-1,-6.678001209E-1,1.024911148E0
9.279112085E-1,2.079942316E-1,8.759895033E-1,-7.132686545E-1,1.148638927E0
9.378572083E-1,2.056752259E-1,1.010654388E0,-7.462030967E-1,1.273005755E0
9.478032081E-1,1.865957612E-1,1.133805521E0,-7.410815205E-1,1.367309313E0
9.577492084E-1,2.218369299E-1,1.181988916E0,-6.774199601E-1,1.380292442E0
9.676952083E-1,2.422741181E-1,1.192023908E0,-6.199054313E-1,1.365247409E0
9.776412081E-1,3.009175980E-1,1.171755704E0,-5.492893387E-1,1.328639006E0
9.875872084E-1,2.550210482E-1,1.164265421E0,-4.730808230E-1,1.282324129E0
9.975332082E-1,1.399957913E-1,1.176164505E0,-3.769148831E-1,1.242990987E0
1.007479208E0,-6.325634837E-2,1.185462747E0,-2.990096515E-1,1.224226312E0
1.017425208E0,-3.219342452E-1,1.179748263E0,-2.295564240E-1,1.244244259E0
1.027371208E0,-6.151107144E-1,1.083488476E0,-2.530506096E-1,1.271354820E0
1.037317208E0,-6.815263134E-1,9.167364103E-1,-3.207391474E-1,1.186489512E0
1.047263208E0,-4.589210594E-1,7.112254912E-1,-4.317356727E-1,9.501820505E-1
1.057209208E0,-3.298601460E-1,4.289792222E-1,-5.706033169E-1,7.863962323E-1
1.067155208E0,-2.782216305E-1,2.118183106E-1,-7.334285384E-1,8.125218110E-1
1.077101208E0,-3.703421742E-1,-5.573332071E-2,-8.879635046E-1,9.637109081E-1
1.087047208E0,-6.189575976E-1,-2.935775882E-1,-8.491017399E-1,1.090994992E0
1.096993208E0,-9.181596226E-1,-4.271309173E-1,-6.267479161E-1,1.190911778E0
1.106939208E0,-1.195215903E0,-4.867128754E-1,-5.018308514E-1,1.384653271E0
1.116885208E0,-1.388692083E0,-3.251151305E-1,-9.000057721E-1,1.686468481E0
1.126831208E0,-1.510040519E0,3.161472559E-2,-1.794787788E0,2.345737637E0
1.136777208E0,-1.617525206E0,3.649177122E-1,-2.627352213E0,3.106852488E0
1.146723208E0,-1.806931724E0,5.638598692E-1,-2.411950729E0,3.066014763E0
1.156669208E0,-2.042793785E0,6.070839491E-1,-1.370423627E0,2.533696566E0
1.166615208E0,-1.999499246E0,7.232128680E-1,-5.039604074E-1,2.185179668E0
1.176561208E0,-1.737056327E0,7.815028837E-1,1.052199879E-1,1.907664197E0
1.186507208E0,-1.310669176E0,7.365819418E-1,3.619005124E-1,1.546408299E0
1.196453208E0,-9.556899762E-1,4.387551820E-1,2.160387943E-1,1.073555868E0
1.206399208E0,-6.869893670E-1,-4.380234030E-1,-1.814081115E-1,8.347022193E-1
1.216345208E0,-7.938688678E-1,-1.789607009E0,-2.970765620E-1,1.980195826E0
1.226291208E0,-1.215452532E0,-3.028810346E0,9.877697747E-2,3.265084051E0
1.236237208E0,-1.325812880E0,-3.942380196E0,8.412535340E-1,4.243565589E0
1.246183208E0,-2.130801398E-1,-4.849095356E0,1.620478050E0,5.117135725E0
1.256129208E0,1.463747528E0,-5.742901325E0,2.446723536E0,6.411702466E0
1.266075208E0,3.554451644E0,-6.824816315E0,3.090510165E0,8.292375854E0
1.276021208E0,6.113524750E0,-8.082362952E0,3.620179026E0,1.076129509E1
1.285967208E0,9.022232702E0,-9.495946047E0,3.955810958E0,1.368291323E1
1.295913208E0,1.180492731E1,-1.091214168E1,4.111305964E0,1.659319082E1
1.305859208E0,1.404528097E1,-1.207267365E1,4.368474110E0,1.902900241E1
1.315805208E0,1.586771775E1,-1.294892336E1,4.743993993E0,2.102295321E1
1.325751208E0,1.721344040E1,-1.334996283E1,5.129441864E0,2.237934789E1
1.335697208E0,1.707158812E1,-1.234597251E1,5.348175677E0,2.173626328E1
1.345643208E0,1.417393726E1,-9.349455169E0,5.224076711E0,1.776524097E1
1.355589208E0,1.040561142E1,-6.347363675E0,4.617463755E0,1.303406100E1
1.365535208E0,7.100877399E0,-4.185172670E0,3.903750858E0,9.120164521E0
1.375481208E0,4.260470189E0,-2.399868042E0,3.248776166E0,5.870734148E0
1.385427208E0,1.855468292E0,-9.357293361E-1,2.634304553E0,3.355281277E0
1.395373208E0,3.089703834E-1,5.391629845E-1,1.548318731E0,1.668367560E0
1.405319208E0,-2.753804684E-1,2.381717700E0,-2.766289951E-1,2.413490669E0
1.415266208E0,-1.168450858E0,3.859618413E0,-2.490527952E0,4.739689988E0
1.425212208E0,-5.313687045E0,4.466697392E0,-1.346260242E1,1.514689142E1
1.435158208E0,-8.050441248E0,4.563429050E0,-2.258417815E1,2.440654813E1
1.445104208E0,-4.950024145E0,5.319285754E0,-2.136275561E1,2.256468185E1
1.455049583E0,-1.248710909E0,6.659806720E0,-1.605446730E1,1.742579194E1
1.464995583E0,-3.915921253E-1,7.893378019E0,-7.870345252E0,1.115352390E1
1.474941583E0,-6.840072870E-2,8.781815075E0,-2.512994124E0,9.134554950E0
1.484887583E0,-6.862713289E-1,8.891847394E0,1.149596511E0,8.992079323E0
1.494833583E0,-2.382089583E0,8.397341350E0,4.729294678E0,9.927533464E0
1.504779583E0,-3.686500484E0,8.244186984E0,4.871685489E0,1.026110249E1
1.514725583E0,-4.935334770E0,8.083537073E0,3.257634698E0,1.001565199E1
1.524671583E0,-5.981344932E0,7.777078654E0,2.403890927E0,1.010139254E1
1.534617583E0,-7.134925151E0,7.534123920E0,2.033285043E0,1.057376131E1
1.544563583E0,-8.392600427E0,7.409364803E0,1.848625880E0,1.134688708E1
1.554509583E0,-9.296236151E0,7.535971640E0,2.502580233E0,1.222594712E1
1.564455583E0,-9.800536281E0,7.606725288E0,3.191696817E0,1.281014089E1
1.574401583E0,-1.009512193E1,7.554954625E0,3.520033178E0,1.309119780E1
1.584347583E0,-1.038015264E1,7.464775357E0,3.873524262E0,1.335943974E1
1.594293583E0,-1.041683223E1,7.140257812E0,4.161493785E0,1.329705628E1
1.604239583E0,-1.057274355E1,6.603922541E0,4.252489325E0,1.317111858E1
1.614185583E0,-1.103761708E1,5.961428731E0,4.317882246E0,1.326694126E1
1.624131583E0,-1.150267070E1,5.322499384E0,4.256901634E0,1.337017743E1
1.634077583E0,-1.192202599E1,4.890206837E0,3.910731264E0,1.346635235E1
1.644023583E0,-1.212370113E1,4.655313367E0,3.279655312E0,1.339448434E1
1.653969583E0,-1.221585793E1,4.403946536E0,2.412319103E0,1.320761953E1
1.663915583E0,-1.174917060E1,3.876670941E0,1.396046126E0,1.245072416E1
1.673861583E0,-9.965051787E0,3.487984589E0,8.821507144E-1,1.059464409E1
1.683807583E0,-8.843670430E0,3.224977414E0,7.212417716E-1,9.440930870E0
1.693753583E0,-8.189930086E0,2.960360500E0,3.136885383E-1,8.714188981E0
1.703699583E0,-7.819270992E0,2.984317420E0,-4.354298705E-1,8.380736751E0
1.713645583E0,-6.932829591E0,3.196354124E0,-4.414192320E0,8.818497585E0
1.723591583E0,2.323520363E0,4.153531047E0,-2.791939289E1,2.832213033E1
1.733537583E0,2.296110370E0,1.854368430E0,-1.454899521E1,1.484533821E1
1.743483583E0,-3.895806246E0,1.023111881E0,4.486563892E0,6.029371426E0
1.753429583E0,-2.656245060E0,9.341350928E-1,6.130149554E0,6.745886135E0
1.763375583E0,1.855127399E0,2.414376739E-1,5.938445665E0,6.226148628E0
1.773321583E0,1.358615526E1,-2.469140006E0,4.839932769E0,1.463233461E1
1.783267583E0,2.851807994E1,-7.566978840E0,2.774189247E0,2.963504983E1
1.793213583E0,3.690049627E1,-1.356658346E1,-1.204308469E0,3.933381714E1
1.803159583E0,3.343947787E1,-1.838970373E1,-9.155494255E-1,3.817352635E1
1.813105583E0,2.294465431E1,-1.735635103E1,2.683217681E0,2.889463168E1
1.823051583E0,1.814900660E1,-1.015645104E1,6.057304941E0,2.166173773E1
1.832997583E0,1.056929136E1,-4.555994900E0,5.294065543E0,1.266862815E1
1.842943583E0,2.373747945E0,-1.163440087E0,3.750293753E-1,2.670003591E0
1.852889583E0,-4.661622512E-1,2.182180882E-2,-3.619605414E0,3.649565287E0
1.862835583E0,2.373592994E0,-1.406398036E0,-4.875361049E0,5.601878657E0
1.872781583E0,8.321955537E0,-4.348163221E0,-6.528650165E-2,9.389660787E0
1.882727583E0,1.169968210E1,-7.324058604E0,3.824710536E0,1.432315630E1
1.892673583E0,1.250445311E1,-8.918595482E0,4.837059447E0,1.610278973E1
1.902619583E0,1.332728031E1,-9.401921650E0,4.581657161E0,1.694119575E1
1.912565583E0,1.341655677E1,-9.785155181E0,4.220503886E0,1.713376522E1
1.922511583E0,1.363260554E1,-1.041240822E1,3.505758371E0,1.750875554E1
1.932457583E0,1.298499834E1,-1.058537588E1,2.888162005E0,1.700005424E1
1.942403583E0,1.106318461E1,-9.802508547E0,2.557405481E0,1.500078499E1
1.952349583E0,8.727163489E0,-7.830296502E0,2.466381290E0,1.198165108E1
1.962295583E0,6.218990394E0,-5.439660044E0,2.629487032E0,8.670636941E0
1.972241583E0,4.250560913E0,-3.602985580E0,2.437948619E0,6.082135039E0
1.982187583E0,2.720814108E0,-1.912902860E0,2.223396735E0,4.000689916E0
1.992133583E0,1.335769519E0,-3.800672632E-1,2.320119038E0,2.704012515E0
2.002079583E0,5.560918432E-1,7.857912317E-1,1.913909458E0,2.142371446E0
2.012025583E0,-1.012930709E-1,1.887548163E0,1.398310022E0,2.351248450E0
2.021971583E0,-1.682859070E0,2.702582197E0,8.966547328E-1,3.307560263E0
2.031917583E0,-3.319479529E0,3.256981564E0,1.135972206E-1,4.651857433E0
2.041863583E0,-4.670508526E0,3.678183990E0,-6.810409945E-1,5.983853624E0
2.051809583E0,-6.619442806E0,3.917334817E0,-6.142424614E0,9.843369101E0
2.061755583E0,-1.471017605E1,4.724017858E0,-4.530997118E1,4.787169427E1
2.071701583E0,-1.054336480E1,6.456420094E0,-2.498730894E1,2.787854928E1
2.081647583E0,-7.344118647E0,5.558489499E0,2.249979347E-1,9.213224641E0
2.091593583E0,-5.496028957E0,5.594076823E0,5.587799252E0,9.629305805E0
2.101539583E0,-5.358108342E0,5.638047885E0,5.957257327E0,9.797235519E0
2.111485583E0,-6.837296612E0,5.539554461E0,4.889523005E0,1.006691233E1
2.121431583E0,-7.965056112E0,5.519475707E0,3.850510790E0,1.042751957E1
2.131377583E0,-8.852274023E0,5.696623537E0,3.303473945E0,1.103300572E1
2.141323583E0,-9.582515244E0,5.973589185E0,3.015839467E0,1.168775658E1
2.151269583E0,-1.005132862E1,6.424349286E0,2.889823199E0,1.227406000E1
2.161215583E0,-1.023830621E1,6.801291797E0,2.910010711E0,1.263125672E1
2.171161583E0,-1.008014136E1,7.033990515E0,2.885433694E0,1.262584651E1
2.181107583E0,-9.907255569E0,7.116404096E0,2.628931546E0,1.247830923E1
2.191053583E0,-9.883308882E0,7.115793062E0,2.317174380E0,1.239691907E1
2.200999583E0,-9.690777612E0,7.000077834E0,1.963201486E0,1.211471917E1
2.210945583E0,-9.517159746E0,6.861761363E0,1.583427168E0,1.183922887E1
2.220891583E0,-9.617457621E0,6.674170990E0,1.198327206E0,1.176758419E1
2.230837583E0,-9.819616331E0,6.430799934E0,8.293252140E-1,1.176723557E1
2.240783583E0,-9.776672625E0,6.101233318E0,3.842579627E-1,1.153065609E1
2.250729583E0,-9.044325237E0,5.590742741E0,-6.483918965E-2,1.063298770E1
2.260675584E0,-8.161316736E0,5.279297231E0,-3.771618183E-1,9.727297731E0
2.270621583E0,-7.767455306E0,5.024141112E0,-6.834541404E-1,9.275907794E0
2.280567583E0,-7.606646935E0,4.829125068E0,-1.051383680E0,9.071214591E0
2.290513583E0,-7.542870770E0,4.719200630E0,-1.484406764E0,9.020488760E0
2.300459583E0,-7.455250243E0,4.674124152E0,-2.159560343E0,9.060457695E0
2.310405583E0,-6.829420413E0,4.764020122E0,-4.313362933E0,9.377738037E0
2.320351583E0,-3.978390566E0,5.006098359E0,-1.187023720E1,1.348299460E1
2.330297583E0,-2.558688945E0,4.652128973E0,-1.370430644E1,1.469684347E1
2.340243583E0,-5.325213661E0,3.550659140E0,-5.592817917E0,8.499687825E0
2.350189583E0,-5.615852439E0,2.600344801E0,-1.058264172E0,6.278496218E0
2.360135583E0,-4.896749579E0,2.270385545E0,3.113495570E0,6.231104366E0
2.370081584E0,-4.326646053E0,2.571696368E0,4.483833243E0,6.740789926E0
2.380027583E0,-7.731498438E-1,1.615750576E0,3.403183590E0,3.845785896E0
2.389973583E0,5.669615248E0,-5.589961553E-1,3.950088288E0,6.932547241E0
2.399920583E0,1.714607346E1,-5.745683430E0,5.057953221E0,1.877720970E1
2.409866583E0,3.046747381E1,-1.348109366E1,4.906153656E0,3.367606257E1
2.419812583E0,4.091732760E1,-1.680550005E1,2.095477783E0,4.428367145E1
2.429758583E0,4.344230033E1,-1.268459646E1,-3.699843246E0,4.540728230E1
2.439704583E0,3.011525391E1,-2.801104858E0,-6.492606758E0,3.093426335E1
2.449650583E0,1.397185982E1,1.278792495E0,-3.677481154E0,1.450420783E1
2.459597333E0,1.315201353E0,6.677491039E-1,9.028978050E-1,1.729412591E0
2.469543333E0,-4.395298796E0,-2.120964334E0,-5.885222554E-1,4.915638276E0
2.479489333E0,-5.490646595E0,-5.486781000E0,-4.312931993E0,8.879940774E0
2.489435333E0,-3.288594536E0,-8.123548400E0,-6.497437143E0,1.090979294E1
2.499381333E0,1.720884098E0,-8.839979083E0,2.826795477E-1,9.010359593E0
2.509327333E0,5.748124058E0,-8.955769740E0,4.882257839E0,1.170825279E1
2.519273333E0,7.270118625E0,-9.654483944E0,4.920025005E0,1.304876742E1
2.529219333E0,9.989410118E0,-1.037761261E1,4.056997025E0,1.496470457E1
2.539165333E0,1.339064542E1,-1.081915575E1,3.059317608E0,1.748493466E1
2.549111333E0,1.507814250E1,-1.122754400E1,2.636642854E0,1.898315071E1
2.559057334E0,1.428126056E1,-1.098875073E1,3.014637864E0,1.827005986E1
2.569003333E0,1.347546279E1,-1.038313589E1,3.666879568E0,1.740240254E1
2.578949333E0,1.323300214E1,-9.267300035E0,4.113067730E0,1.667070850E1
2.588895333E0,1.217731075E1,-7.445329857E0,4.100315537E0,1.485033404E1
2.598841333E0,1.010572176E1,-5.636208351E0,3.660123110E0,1.213626623E1
2.608787333E0,7.917192559E0,-4.200123123E0,3.350300787E0,9.568045131E0
2.618733333E0,6.173916548E0,-2.809602616E0,2.842517470E0,7.354659609E0
2.628679333E0,4.871396052E0,-1.610263257E0,2.197108823E0,5.581284299E0
2.638625333E0,3.556939049E0,-5.049041480E-1,1.448814324E0,3.873732895E0
2.648571333E0,2.815792186E0,9.380354780E-1,6.490555555E-1,3.038069997E0
2.658517333E0,2.254369437E0,2.634922019E0,-3.780068506E-1,3.488249529E0
2.668463334E0,1.178191735E0,3.877282267E0,-1.908317035E0,4.479188258E0
2.678409333E0,-2.757114208E-1,4.713646944E0,-2.481536103E0,5.334089026E0
2.688355333E0,-1.753833743E0,5.087712625E0,-3.385734329E0,6.357983132E0
2.698301333E0,-5.722460629E0,5.011785945E0,-1.079591190E1,1.320667512E1
2.708247333E0,-1.052713644E1,5.236526603E0,-2.228472586E1,2.519624613E1
2.718193333E0,-9.396018886E0,6.083304586E0,-1.940455817E1,2.240153217E1
2.728139333E0,-6.146641626E0,6.604600818E0,-8.752248044E0,1.256995629E1
2.738085333E0,-5.294081331E0,7.613055484E0,-9.184035976E-1,9.318228163E0
2.748031333E0,-4.568281070E0,8.376725237E0,4.321109909E0,1.047428797E1
2.757977333E0,-5.050650049E0,8.189799108E0,6.567271609E0,1.164950350E1
2.767923333E0,-6.491418019E0,7.770080706E0,5.194274037E0,1.137950547E1
2.777869334E0,-7.500748013E0,7.248038954E0,2.886158164E0,1.082243958E1
2.787815333E0,-8.145637427E0,6.758818792E0,1.680588158E0,1.071715527E1
2.797761333E0,-9.042300931E0,6.578255019E0,9.707628556E-1,1.122403785E1
2.807707333E0,-9.976003622E0,6.532191238E0,6.386556246E-1,1.194144261E1
2.817653333E0,-1.028755380E1,6.495949611E0,5.279987495E-1,1.217825551E1
2.827599333E0,-1.034762575E1,6.247839972E0,3.207326424E-1,1.209180435E1
2.837545333E0,-1.043419495E1,5.944665933E0,1.761350924E-1,1.201009995E1
2.847491333E0,-1.059333043E1,5.617819442E0,4.123456478E-2,1.199084005E1
2.857437333E0,-1.032453744E1,5.390949229E0,-1.649283189E-1,1.164841655E1
2.867383333E0,-1.029259176E1,5.171388035E0,-4.708055252E-1,1.152832846E1
2.877329333E0,-1.031374581E1,4.888524008E0,-7.710027462E-1,1.143964444E1
2.887275334E0,-1.046179498E1,4.532271285E0,-1.149404138E0,1.145913465E1
2.897221333E0,-1.066120023E1,4.286295587E0,-1.689755276E0,1.161416347E1
2.907167333E0,-1.061810041E1,4.154704291E0,-2.368129502E0,1.164532787E1
2.917113333E0,-9.716569680E0,4.035912258E0,-3.327222412E0,1.103497726E1
2.927059333E0,-8.113401727E0,3.976707153E0,-4.552952009E0,1.011784855E1
2.937005333E0,-7.105382094E0,3.927699299E0,-4.687904285E0,9.374951897E0
2.946951333E0,-7.172229218E0,3.643614374E0,-3.317390026E0,8.701831660E0
2.956897333E0,-7.615886121E0,3.354567500E0,-1.842258116E0,8.523424164E0
2.966843333E0,-8.002643183E0,3.216013340E0,-1.009743977E0,8.683583513E0
2.976789333E0,-8.315489686E0,3.228544216E0,-7.816008246E-1,8.954427191E0
2.986735333E0,-8.453681027E0,3.488911665E0,-1.773697320E0,9.315751698E0
2.996681333E0,-7.028432736E0,4.424010087E0,-8.872463289E0,1.215283246E1
3.006627333E0,-4.346624819E0,4.704742512E0,-1.140610276E1,1.308154921E1
3.016573333E0,-4.320369067E0,3.159039825E0,-1.252650179E0,5.496749399E0
3.026519333E0,-4.243259495E0,2.685592235E0,-1.097518358E0,5.140253237E0
3.036465333E0,-3.623818917E0,2.060443021E0,-1.723025349E0,4.510687901E0
3.046411333E0,-1.566964917E0,9.893369016E-1,1.588962142E0,2.441099598E0
3.056357333E0,5.145732792E0,-1.121348028E0,4.212455193E0,6.743942921E0
3.066303333E0,1.550626861E1,-6.044976672E0,4.933820926E0,1.735882191E1
3.076249333E0,2.656650623E1,-1.342110590E1,4.976695050E0,3.017735625E1
3.086195333E0,3.991156441E1,-2.023469907E1,6.972732160E0,4.528791245E1
3.096141333E0,4.484750788E1,-1.755068441E1,9.798894968E0,4.914614765E1
3.106087333E0,3.120508837E1,-4.413578947E0,7.208131707E-1,3.152390825E1
3.116033333E0,1.472232773E1,5.552863308E0,-1.593503675E1,2.239434350E1
3.125979333E0,5.425759458E0,5.993784299E0,-8.637830313E0,1.183116344E1
3.135925333E0,-1.159900475E0,4.200984126E0,1.140824518E0,4.505010246E0
3.145871333E0,-3.252830626E0,2.473023727E0,2.733712481E0,4.916293051E0
3.155817333E0,3.101959598E-1,-1.187371571E0,2.269568689E0,2.580119147E0
3.165763333E0,3.486764275E0,-5.200214809E0,2.338137817E-1,6.265335430E0
3.175709333E0,5.487467464E0,-8.122614015E0,-6.264485387E-1,9.822504537E0
3.185655333E0,8.174620321E0,-9.634984649E0,7.190362018E-1,1.265600093E1
3.195601333E0,1.036044285E1,-1.033028525E1,3.648625730E0,1.507866171E1
3.205547333E0,1.118504059E1,-1.107270622E1,4.419005163E0,1.634740232E1
3.215493333E0,1.128161788E1,-1.172872873E1,3.824763161E0,1.671726033E1
3.225439333E0,1.113808160E1,-1.174919867E1,3.421371354E0,1.654709379E1
3.235385333E0,1.019923745E1,-1.140776805E1,3.498939933E0,1.569726719E1
3.245331333E0,9.263694057E0,-1.096012627E1,3.911710673E0,1.487420169E1
3.255277333E0,9.772600624E0,-1.027810353E1,4.065646226E0,1.475373222E1
3.265223333E0,9.887831118E0,-8.787599140E0,3.670596058E0,1.372823289E1
3.275169333E0,8.729465538E0,-6.903901076E0,3.044104323E0,1.153837033E1
3.285115333E0,7.057363590E0,-5.039080748E0,2.316540542E0,8.975805017E0
3.295061333E0,5.441648097E0,-3.238192414E0,1.341261224E0,6.472743297E0
3.305008333E0,4.040578043E0,-1.497114956E0,6.192855533E-1,4.353290562E0
3.314954333E0,2.837361395E0,8.967289925E-2,-1.474293566E-1,2.842603794E0
3.324900333E0,1.640026461E0,1.673682450E0,-1.511971123E0,2.788719494E0
3.334846333E0,1.167766734E0,3.382272778E0,-1.429355228E0,3.853116227E0
3.344792333E0,6.699476570E-1,4.746251019E0,-1.071939202E0,4.911698509E0
3.354738333E0,-6.056376404E-1,5.824023841E0,-2.263344474E0,6.277641186E0
3.364684333E0,-3.607360175E0,6.677524368E0,-9.899996835E0,1.247446658E1
3.374630333E0,-7.453231784E0,8.030329750E0,-2.426422822E1,2.662310333E1
3.384576333E0,-5.262813930E0,9.470625849E0,-2.337590284E1,2.576475884E1
3.394522333E0,-2.141298319E0,8.924963100E0,-1.064865679E1,1.405823660E1
3.404468333E0,-1.836959515E0,8.779431165E0,-6.875740886E-3,8.969552894E0
3.414414333E0,-1.766584182E0,8.536410357E0,6.217361360E0,1.070732010E1
3.424360333E0,-3.042001664E0,8.270036940E0,8.501070371E0,1.224399782E1
3.434306333E0,-5.549617519E0,8.124359994E0,6.837613531E0,1.198150403E1
3.444252333E0,-6.824177215E0,7.540098605E0,4.186919818E0,1.099785339E1
3.454198333E0,-7.997331573E0,7.140537309E0,2.606075950E0,1.103341367E1
3.464143333E0,-9.546516861E0,6.983395143E0,1.933751984E0,1.198512364E1
3.474089333E0,-1.034705740E1,6.455092776E0,1.681296694E0,1.231083174E1
3.484035333E0,-1.039218738E1,5.924336334E0,1.310208415E0,1.203378435E1
3.493981333E0,-1.043263491E1,5.641183162E0,6.388942641E-1,1.187733154E1
3.503927333E0,-1.043845172E1,5.361212629E0,-4.614805318E-2,1.173482019E1
3.513873333E0,-1.069104208E1,4.960443299E0,-3.684356164E-1,1.179152761E1
3.523819333E0,-1.068794774E1,4.588508343E0,-5.984999442E-1,1.164666638E1
3.533765333E0,-1.093212980E1,4.260249165E0,-8.699423128E-1,1.176511728E1
3.543711333E0,-1.105374136E1,3.966379508E0,-1.188381239E0,1.180379661E1
3.553657333E0,-1.108999761E1,3.699007386E0,-1.513196407E0,1.178814938E1
3.563603333E0,-1.102322006E1,3.437423131E0,-1.823659438E0,1.168986707E1
3.573549333E0,-1.102201788E1,3.052704700E0,-2.325440150E0,1.167097065E1
3.583495333E0,-1.070010293E1,2.540005921E0,-3.205068522E0,1.145496822E1
3.593441333E0,-9.227700351E0,2.039277270E0,-5.954213267E0,1.116968044E1
3.603387333E0,-6.837439284E0,2.187214165E0,-8.158925809E0,1.086749981E1
3.613333333E0,-6.245844317E0,2.400066555E0,-6.051417965E0,9.021671136E0
3.623279333E0,-6.673790921E0,2.322617553E0,-3.577100834E0,7.920207568E0
3.633225333E0,-7.170111941E0,2.462606035E0,-1.597803133E0,7.747767974E0
3.643171333E0,-7.794156032E0,2.952013600E0,7.597981654E-2,8.334808064E0
3.653117333E0,-8.393459383E0,3.557919920E0,1.205587694E0,9.195781438E0
3.663063333E0,-8.760137692E0,4.376708451E0,1.403132220E-1,9.793634517E0
3.673009333E0,-7.665855841E0,5.918518939E0,-5.563235099E0,1.116887626E1
3.682955333E0,-2.805311637E0,6.656749796E0,-1.360884713E1,1.540723244E1
3.692901333E0,-8.973341793E-1,4.012630984E0,-6.421943157E0,7.625468507E0
3.702847333E0,-4.001805156E0,2.997632699E0,3.489725890E0,6.097412000E0
3.712793333E0,-4.893780947E0,2.816867197E0,5.009718955E0,7.548583759E0
3.722739333E0,-1.171510121E0,1.862364498E0,3.032801070E0,3.746827968E0
3.732685333E0,9.367528328E0,-1.170392718E0,2.886867431E0,9.871900002E0
3.742631333E0,2.615378870E1,-6.989278026E0,3.942516729E0,2.735715827E1
3.752577333E0,4.344417144E1,-1.273710914E1,4.902932425E0,4.553755294E1
3.762523333E0,5.140349494E1,-1.397383267E1,7.172259623E0,5.374968465E1
3.772469333E0,3.350690329E1,-5.911508127E0,7.188478045E0,3.477546136E1
3.782415333E0,1.077218506E1,2.071452159E0,8.890644622E-1,1.100551320E1
3.792361334E0,8.066976589E-1,5.063594030E0,-7.628466990E0,9.191531659E0
3.802307333E0,-1.614912670E0,4.628526395E0,-7.564553999E0,9.014082134E0
3.812253333E0,-7.170440555E-3,1.595246437E0,-2.520208418E0,2.982668785E0
3.822199333E0,5.103484320E0,-3.468719183E0,4.169789815E-1,6.184774567E0
3.832145333E0,8.463302035E0,-8.159035737E0,2.856147330E0,1.209772388E1
3.842091333E0,6.526577327E0,-1.092674335E1,2.783327276E0,1.302830927E1
3.852037333E0,7.609365891E0,-1.255688392E1,1.716212758E0,1.478252919E1
3.861983333E0,1.199550678E1,-1.365817424E1,1.893000399E0,1.827625118E1
3.871929333E0,1.560149870E1,-1.436455765E1,2.366512601E0,2.133887674E1
3.881875333E0,1.590701572E1,-1.470919722E1,2.338381646E0,2.179132077E1
3.891821333E0,1.304912826E1,-1.438763545E1,2.287747098E0,1.955805688E1
3.901767334E0,1.011170931E1,-1.348828339E1,2.341611063E0,1.701950635E1
3.911713333E0,9.634589962E0,-1.126049657E1,2.743306008E0,1.507149079E1
3.921659333E0,9.260898503E0,-8.723298479E0,3.433150570E0,1.317750736E1
3.931605333E0,7.717431791E0,-6.601408238E0,3.360650359E0,1.069725736E1
3.941551333E0,6.182361097E0,-4.814275187E0,2.920456177E0,8.362290272E0
3.951497333E0,4.920941264E0,-3.442626568E0,2.400017146E0,6.467412382E0
3.961443333E0,3.834207584E0,-2.141023792E0,2.048158021E0,4.845625032E0
3.971389333E0,3.121864690E0,-7.564309001E-1,1.904504212E0,3.734349092E0
3.981335333E0,2.428525831E0,5.949872294E-1,1.641201752E0,2.990867885E0
3.991281333E0,1.704390272E0,2.058203537E0,1.151009637E0,2.909634202E0
4.001227333E0,1.294826730E0,3.787739176E0,8.973692626E-1,4.102293983E0
4.011173334E0,2.618839252E-1,5.157747066E0,3.935835408E-1,5.179367335E0
4.021119333E0,-1.603150411E0,5.831030560E0,-6.181500971E-1,6.078907646E0
4.031065333E0,-3.310545568E0,6.412833195E0,-2.456667311E0,7.623605172E0
4.041011333E0,-6.250767088E0,6.797222135E0,-9.872256474E0,1.351797935E1
4.050957333E0,-1.095931000E1,7.247282324E0,-2.424357117E1,2.757499447E1
4.060904333E0,-8.875999686E0,7.571377115E0,-1.935518194E1,2.259938472E1
4.070849333E0,-6.366740763E0,6.990884841E0,-7.918136299E0,1.233307509E1
4.080796333E0,-5.848195061E0,7.379148147E0,-3.583408371E-1,9.422399959E0
4.090742333E0,-4.699408974E0,8.001701197E0,3.934245842E0,1.007918435E1
4.100688333E0,-4.691085463E0,8.063733138E0,5.514826001E0,1.083712973E1
4.110634333E0,-6.386711928E0,8.012491064E0,4.537150494E0,1.120606251E1
4.120580333E0,-7.947485813E0,7.649084272E0,3.021396076E0,1.143677643E1
4.130526333E0,-9.115004625E0,7.391343684E0,2.089087946E0,1.191971305E1
4.140472333E0,-9.912719207E0,7.047834383E0,1.651215255E0,1.227438322E1
4.150418333E0,-1.014269488E1,6.611402299E0,1.465654889E0,1.219561577E1
4.160364333E0,-1.018322427E1,6.396589045E0,9.191366923E-1,1.206064758E1
4.170310333E0,-1.013417431E1,6.313259790E0,1.630807449E-1,1.194091008E1
4.180256333E0,-1.000430298E1,6.185343177E0,-5.921247250E-1,1.177689093E1
4.190202333E0,-9.840071061E0,5.941903124E0,-1.193376954E0,1.155670194E1
4.200148333E0,-9.892934568E0,5.657367085E0,-1.860141533E0,1.154712446E1
4.210094333E0,-1.010309519E1,5.333452973E0,-3.547355463E0,1.196252414E1
4.220040333E0,-1.082133793E1,5.033867370E0,-7.303833085E0,1.399239626E1
4.229986333E0,-1.024759392E1,4.977204342E0,-7.508316064E0,1.364406664E1
4.239932333E0,-8.503529710E0,4.962289265E0,-5.284719354E0,1.117419308E1
4.249878333E0,-7.570218197E0,4.811916712E0,-3.619462157E0,9.672809949E0
4.259824333E0,-7.143722872E0,4.618639630E0,-2.461450918E0,8.855695858E0
4.269770333E0,-7.087753909E0,4.277418636E0,-1.608264971E0,8.433213022E0
4.279716333E0,-7.269880058E0,3.949020002E0,-1.158998249E0,8.353992577E0
4.289662333E0,-7.586747106E0,3.589043479E0,-9.886564319E-1,8.450881983E0
4.299608334E0,-7.716187504E0,3.305894108E0,-9.143595171E-1,8.444201488E0
4.309554333E0,-7.681915219E0,3.064490055E0,-9.672119147E-1,8.326969414E0
4.319500333E0,-7.577372265E0,3.018899023E0,-1.313608133E0,8.261712176E0
4.329446333E0,-6.117515475E0,3.651197920E0,-6.110109392E0,9.385556916E0
4.339392333E0,-3.294983788E0,4.547749449E0,-1.376404159E1,1.486565788E1
4.349338333E0,-4.585544389E0,3.787979204E0,-5.108643318E0,7.840551024E0
4.359284333E0,-4.649086082E0,3.287564549E0,2.207866530E0,6.107107063E0
4.369230333E0,-3.778891169E0,3.237750949E0,3.708483676E0,6.206118018E0
4.379176333E0,-3.021303105E-1,2.587334162E0,2.314478229E0,3.484593270E0
4.389122333E0,5.651160851E0,1.039351645E0,2.643742543E0,6.324969995E0
4.399068333E0,1.465143843E1,-2.115334927E0,3.974310379E0,1.532757100E1
4.409014334E0,2.637883166E1,-8.416887422E0,4.720352531E0,2.808858276E1
4.418960333E0,3.767201533E1,-1.548159336E1,5.061491371E0,4.104240693E1
4.428906333E0,4.262547705E1,-1.817906129E1,5.439995674E0,4.665836598E1
4.438852333E0,3.090761011E1,-1.093896286E1,6.173748733E0,3.336250057E1
4.448798333E0,1.428728319E1,-3.272519370E0,2.215283723E0,1.482374197E1
4.458744708E0,4.645123424E0,1.347249796E0,-5.935882246E0,7.656823863E0
4.468690708E0,7.953827119E-1,2.467929048E0,-1.034324970E1,1.066330726E1
4.478636708E0,-1.288149794E0,-4.533565566E-1,-6.612031460E0,6.751579229E0
4.488582708E0,2.039291888E0,-3.668243431E0,-1.481870973E0,4.450917080E0
4.498528708E0,4.858315246E0,-7.232598796E0,-3.664391577E-1,8.720549869E0
4.508474708E0,5.508794013E0,-1.018929017E1,4.819624512E-1,1.159313303E1
4.518420708E0,8.027333636E0,-1.163307647E1,1.012930124E0,1.417012988E1
4.528366708E0,1.129292639E1,-1.219042722E1,2.344232955E0,1.678189889E1
4.538312708E0,1.315395714E1,-1.164671335E1,3.822386268E0,1.798007667E1
4.548258708E0,1.315778122E1,-1.097035539E1,3.268780661E0,1.744020731E1
4.558204708E0,1.206543012E1,-1.000458715E1,2.326681952E0,1.584549832E1
4.568150708E0,1.110981967E1,-8.469381385E0,1.938628562E0,1.410378654E1
4.578096708E0,1.102903103E1,-7.804348313E0,2.523467656E0,1.374464503E1
4.588042708E0,1.121327328E1,-7.327285098E0,3.225590202E0,1.377791845E1
4.597988708E0,1.040832453E1,-5.922247708E0,3.794375181E0,1.256198712E1
4.607934708E0,9.001134778E0,-4.319433220E0,4.118832500E0,1.080012555E1
4.617880708E0,7.147524147E0,-2.990340929E0,3.923233781E0,8.684526677E0
4.627826708E0,5.784164541E0,-1.557945879E0,3.420799497E0,6.898233397E0
4.637772708E0,4.532146447E0,-1.369701496E-1,2.954969952E0,5.412112310E0
4.647718708E0,3.058914151E0,1.151749164E0,2.673961539E0,4.222979070E0
4.657664708E0,1.681648697E0,2.400512406E0,2.526540368E0,3.869600545E0
4.667610708E0,8.290229130E-1,3.709245276E0,2.048328175E0,4.317571982E0
4.677556708E0,-4.835892928E-1,4.770366983E0,1.700720414E0,5.087505251E0
4.687502708E0,-1.842653534E0,5.197277752E0,4.188446818E-1,5.530144568E0
4.697448708E0,-2.795449138E0,5.325607764E0,-9.888743868E-1,6.095449654E0
4.707394708E0,-3.739114316E0,5.573136774E0,-7.651064140E0,1.017740693E1
4.717341708E0,-4.622915114E0,8.132259582E0,-4.489587605E1,4.586005534E1
4.727286708E0,-7.136108628E0,7.693910197E0,-2.991899797E1,3.170594171E1
4.737233708E0,-9.350870780E0,5.634667025E0,-2.975430529E0,1.131553992E1
4.747179708E0,-6.099435300E0,5.702920403E0,5.241714252E0,9.859106471E0
4.757125708E0,-4.015129791E0,5.376421822E0,9.478792655E0,1.161355626E1
4.767071708E0,-5.878043928E0,5.487055820E0,8.491070462E0,1.169433451E1
4.777017708E0,-8.618507604E0,5.546018558E0,6.163183984E0,1.195917355E1
4.786963708E0,-1.057044677E1,5.810109222E0,4.993540878E0,1.305477555E1
4.796909708E0,-1.159627410E1,5.533645849E0,4.126191221E0,1.349519408E1
4.806855708E0,-1.164685251E1,5.102669803E0,2.885568765E0,1.303890025E1
4.816801708E0,-1.158371428E1,4.851829514E0,1.760233521E0,1.268152625E1
4.826747708E0,-1.146457492E1,4.695064200E0,1.018354586E0,1.243049283E1
4.836693708E0,-1.153472046E1,4.612721078E0,4.226852793E-1,1.243002955E1
4.846639708E0,-1.145499952E1,4.497254064E0,-9.847880602E-3,1.230619377E1
4.856585708E0,-1.137336771E1,4.385416709E0,-5.023967157E-1,1.219990882E1
4.866531708E0,-1.122959403E1,4.299404460E0,-1.041572710E0,1.206952918E1
4.876477708E0,-1.093268996E1,4.155574357E0,-1.693407740E0,1.181778904E1
4.886423708E0,-1.076748273E1,3.977164990E0,-2.589634164E0,1.176701878E1
4.896369708E0,-1.033132488E1,4.099091130E0,-4.922373247E0,1.215601005E1
4.906315708E0,-8.726226180E0,4.407568594E0,-7.150534294E0,1.211213544E1
4.916261708E0,-7.837028401E0,4.142661073E0,-6.276139326E0,1.086142623E1
4.926207708E0,-7.804896782E0,3.838954353E0,-4.115660970E0,9.622507445E0
4.936153708E0,-7.744060012E0,3.724832784E0,-2.534434694E0,8.959252421E0
4.946099708E0,-7.516846567E0,3.820631811E0,-1.803209386E0,8.622747464E0
4.956045708E0,-7.194345726E0,3.909919963E0,-1.169822688E0,8.271310033E0
4.965991708E0,-6.894627977E0,3.915876814E0,-4.418115947E-1,7.941359056E0
4.975937708E0,-6.811153126E0,3.992047323E0,-5.683091618E-2,7.895028720E0
4.985883708E0,-7.090403867E0,4.134715877E0,-2.144378632E-1,8.210705571E0
4.995829708E0,-7.374387928E0,4.488178601E0,-2.197339350E0,8.908066271E0
5.005775708E0,-5.252302390E0,5.885384522E0,-1.640202229E1,1.820029578E1
5.015721708E0,-3.273960124E0,5.728690252E0,-1.763499659E1,1.882896204E1
5.025667708E0,-4.053328482E0,3.771183662E0,-2.862713168E0,6.232690003E0
5.035613708E0,-3.869352858E0,3.342178127E0,5.672958101E0,7.637047845E0
5.045559708E0,-4.719238052E0,3.171539418E0,5.993851542E0,8.261726598E0
5.055505708E0,-1.798652067E0,2.465149574E0,3.125116911E0,4.367890496E0
5.065451708E0,4.442477641E0,1.005110351E0,3.198844453E0,5.565829699E0
5.075397708E0,1.263881744E1,-2.427083323E0,3.895641940E0,1.344642949E1
5.085343708E0,2.459295166E1,-9.914665160E0,4.568417895E0,2.690695633E1
5.095289708E0,3.889219826E1,-1.779624408E1,6.434034029E0,4.325166104E1
5.105235708E0,4.757300268E1,-2.029543995E1,1.001481744E1,5.268198967E1
5.115181708E0,3.698557794E1,-1.203521756E1,1.068734898E1,4.033607400E1
5.125127708E0,1.723412551E1,-3.070930763E0,7.074273738E0,1.888097050E1
5.135073708E0,6.731956099E0,2.284478504E0,-3.453260314E-1,7.117395944E0
5.145019708E0,3.091266210E0,6.252148200E0,-1.566744126E1,1.714975217E1
5.154965708E0,4.078328252E0,3.961303833E0,-1.389991919E1,1.501773761E1
5.164911708E0,7.244626518E0,-2.672989439E0,-1.534602333E0,7.873022943E0
5.174857708E0,1.252635911E1,-8.872807106E0,-2.107641161E0,1.549446772E1
5.184803708E0,1.176899968E1,-1.318722078E1,-2.254563418E0,1.781839503E1
5.194749708E0,1.077281656E1,-1.415405672E1,-1.296444654E0,1.783456383E1
5.204695708E0,1.149785727E1,-1.250353860E1,1.994521512E0,1.710313759E1
5.214641708E0,1.070155070E1,-1.114627940E1,2.593883920E0,1.566815131E1
5.224587708E0,9.931417433E0,-1.056065619E1,2.296833671E0,1.467773676E1
5.234533708E0,1.038243306E1,-9.692073355E0,2.877189705E0,1.449170186E1
5.244479708E0,1.062346932E1,-8.976580566E0,3.728057815E0,1.439914977E1
5.254425708E0,9.754107635E0,-6.946431384E0,4.050268634E0,1.264121041E1
5.264371709E0,7.756876523E0,-4.400635550E0,4.001014613E0,9.774602016E0
5.274317708E0,6.192518295E0,-2.661639993E0,3.822526601E0,7.748762476E0
5.284263708E0,5.602439511E0,-1.168146510E0,3.473627921E0,6.694623639E0
5.294209708E0,5.227340627E0,1.734953669E-1,3.274404513E0,6.170649527E0
5.304155708E0,4.363715061E0,1.455003601E0,3.061570541E0,5.525600310E0
5.314101708E0,3.104682062E0,2.656192435E0,3.109510692E0,5.134536562E0
5.324047708E0,1.954050593E0,4.094743141E0,2.899008005E0,5.384188196E0
5.333993708E0,8.044944280E-1,5.594587285E0,2.185555310E0,6.059972787E0
5.343940708E0,-4.153002459E-1,6.383002455E0,9.785356325E-1,6.470913893E0
5.353886708E0,-1.478329899E0,6.704379460E0,-5.963171786E-1,6.891281261E0
5.363832708E0,-3.449035701E0,7.359088104E0,-2.053894841E1,2.208846819E1
5.373778708E0,-5.488596561E0,1.099853312E1,-5.634224040E1,5.766749930E1
5.383724708E0,-4.192192252E0,8.379144230E0,-1.633413962E1,1.883052445E1
5.393670708E0,-4.936053978E0,6.562981507E0,2.033366320E0,8.460019723E0
5.403616708E0,-3.034672764E0,6.719823126E0,7.328950385E0,1.039609424E1
5.413562708E0,-3.371840760E0,6.231525655E0,9.139453588E0,1.156420486E1
5.423508708E0,-5.824446595E0,5.926406248E0,6.749201292E0,1.070505428E1
5.433454708E0,-7.775931430E0,5.896918740E0,4.928112874E0,1.093275156E1
5.443400708E0,-9.796735591E0,5.953987564E0,4.004059843E0,1.214324880E1
5.453346708E0,-1.102528296E1,5.255655184E0,2.939664865E0,1.256265917E1
5.463293333E0,-1.120667996E1,4.497439129E0,1.839461685E0,1.221475558E1
5.473239333E0,-1.149842094E1,3.998543580E0,6.574207284E-1,1.219156417E1
5.483185333E0,-1.174279480E1,3.723611300E0,-3.750776879E-1,1.232473910E1
5.493131333E0,-1.175660124E1,3.552919966E0,-1.009059414E0,1.232311300E1
5.503077333E0,-1.191941930E1,3.362620578E0,-1.603602693E0,1.248804689E1
5.513023333E0,-1.205943088E1,3.154055074E0,-2.096101973E0,1.264007832E1
5.522969333E0,-1.224658154E1,2.962332766E0,-2.740603717E0,1.289438186E1
5.532915333E0,-1.252868514E1,2.773473548E0,-3.912634533E0,1.341524565E1
5.542861333E0,-1.269068459E1,2.592061343E0,-5.704411443E0,1.415318223E1
5.552807333E0,-1.248757336E1,2.564607204E0,-6.536960812E0,1.432649836E1
5.562753333E0,-1.140786160E1,2.612872461E0,-5.890586205E0,1.310211490E1
5.572699333E0,-9.808040598E0,2.590029436E0,-4.579498953E0,1.113003700E1
5.582645333E0,-8.794625155E0,2.535384574E0,-3.609100306E0,9.838659033E0
5.592591333E0,-8.255085025E0,2.463448619E0,-3.121469418E0,9.162891421E0
5.602537333E0,-7.684817777E0,2.564739059E0,-2.868006068E0,8.594170670E0
5.612483333E0,-7.242455447E0,2.843418234E0,-2.316786709E0,8.118231877E0
5.622429333E0,-7.296255094E0,2.805824438E0,-1.346076990E0,7.932207286E0
5.632375333E0,-7.438094512E0,3.039874447E0,-6.823203653E-1,8.064220217E0
5.642321333E0,-7.633441216E0,3.585193672E0,-2.922578716E-1,8.438510125E0
5.652267333E0,-7.762228480E0,4.250947706E0,-8.179202199E-2,8.850391930E0
5.662213333E0,-7.559076328E0,4.856301172E0,-3.191679275E-1,8.990281651E0
5.672159333E0,-6.416250892E0,5.946891968E0,-4.528373238E0,9.850886446E0
5.682105333E0,-3.219940038E0,7.471698461E0,-1.329975630E1,1.559095280E1
5.692051333E0,-1.520650291E0,6.452762076E0,-1.008833331E1,1.207166040E1
5.701997333E0,-4.472725872E0,4.950198977E0,2.634621472E0,7.172933635E0
5.711943334E0,-5.228320620E0,5.137567155E0,6.262395446E0,9.640929908E0
5.721889333E0,-2.691248832E0,5.299285938E0,7.088932707E0,9.250849618E0
5.731835333E0,8.364872346E0,4.350191036E0,8.649871484E0,1.279513689E1
5.741781333E0,3.218238498E1,-7.174600849E-1,8.091928997E0,3.319186597E1
5.751727333E0,5.501977797E1,-9.166286461E0,4.295921273E0,5.594329017E1
5.761673333E0,6.219328714E1,-1.446553673E1,1.270618672E0,6.386604098E1
5.771619333E0,3.818903549E1,-1.165689686E1,1.508007442E0,3.995697389E1
5.781565333E0,1.283512601E1,-5.724551593E0,4.314180958E-1,1.406047909E1
5.791511333E0,1.854974787E0,-3.837405426E0,-5.035159020E0,6.596926422E0
5.801457333E0,-5.444786882E0,-6.199428535E0,-1.780753973E1,1.962618378E1
5.811403333E0,-8.767818010E-1,-9.323304666E0,-1.358224464E1,1.649757939E1
5.821349334E0,5.540255542E0,-1.168102364E1,-1.102725230E0,1.297523594E1
5.831295333E0,3.286617592E0,-1.390730773E1,8.726429956E-1,1.431700280E1
5.841241333E0,2.947167428E0,-1.367939847E1,1.266521382E0,1.405047382E1
5.851187333E0,7.131514471E0,-1.254856918E1,2.634630243E0,1.467195841E1
5.861133333E0,1.102482220E1,-1.226272219E1,2.871249518E0,1.673813413E1
5.871079333E0,1.451414463E1,-1.255881350E1,2.088108537E0,1.930658924E1
5.881025333E0,1.645412800E1,-1.264910036E1,1.368421540E0,2.079929435E1
5.890972333E0,1.527302786E1,-1.137296308E1,1.278452187E0,1.908518035E1
5.900917333E0,1.249613603E1,-8.563655459E0,2.362289595E0,1.533199343E1
5.910864333E0,1.005380316E1,-6.036554343E0,3.565307000E0,1.225684953E1
5.920810333E0,8.029759061E0,-4.470271795E0,4.140801659E0,1.008000987E1
5.930756333E0,6.652880693E0,-3.314595057E0,4.233184742E0,8.553783664E0
5.940702333E0,5.472482219E0,-2.459935612E0,4.331403932E0,7.400027357E0
5.950648333E0,4.410471151E0,-1.525409048E0,4.409299954E0,6.420362500E0
5.960594333E0,3.318531695E0,-4.671460453E-1,4.561151560E0,5.659945370E0
5.970540333E0,2.854559226E0,1.249147989E0,4.042233975E0,5.103776502E0
5.980486333E0,2.874801702E0,3.172054850E0,2.872527135E0,5.155368943E0
5.990432333E0,2.163098493E0,4.262535426E0,1.622790624E0,5.047935495E0
6.000378333E0,7.261119175E-1,4.984534412E0,3.706871599E-1,5.050765367E0
6.010324333E0,-7.797642142E-1,5.600262592E0,-7.071656232E-1,5.698338052E0
6.020270333E0,-2.022064821E0,5.972433191E0,-1.599187607E0,6.505083040E0
6.030216333E0,-3.515799794E0,5.937505433E0,-4.887508054E0,8.455918279E0
6.040162333E0,-8.583415539E0,6.446807272E0,-3.894914078E1,4.040138505E1
6.050108333E0,-7.169428402E0,7.351623548E0,-3.390781880E1,3.542862187E1
6.060054333E0,-6.834318041E0,5.657452455E0,-6.795692503E0,1.117569273E1
6.070000333E0,-6.055754845E0,6.558155800E0,2.077613955E0,9.165045225E0
6.079946333E0,-3.665047635E0,6.934329402E0,6.029421909E0,9.892998887E0
6.089892333E0,-3.746838487E0,6.586690797E0,7.211353523E0,1.046073200E1
6.099838333E0,-6.332293646E0,6.082292433E0,5.636535210E0,1.043373151E1
6.109784334E0,-8.115710208E0,5.784122441E0,3.815384227E0,1.067136268E1
6.119730333E0,-9.611890486E0,5.951927590E0,2.916382422E0,1.167557995E1
6.129676333E0,-1.071193068E1,5.729885423E0,2.505098044E0,1.240373178E1
6.139622333E0,-1.102826504E1,5.305340145E0,1.989956006E0,1.239875755E1
6.149568333E0,-1.102471110E1,5.036653569E0,1.126536189E0,1.217297079E1
6.159514333E0,-1.106648712E1,4.950943328E0,2.526809925E-1,1.212612159E1
6.169460333E0,-1.105890796E1,4.860034327E0,-3.355095796E-1,1.208436782E1
6.179406333E0,-1.106097671E1,4.738363125E0,-6.809791602E-1,1.205242811E1
6.189352333E0,-1.106957211E1,4.581301357E0,-8.477277173E-1,1.201009539E1
6.199298333E0,-1.111572302E1,4.380936865E0,-1.230837141E0,1.201111427E1
6.209244333E0,-1.114163554E1,4.151905814E0,-1.633473487E0,1.200177487E1
6.219190334E0,-1.126348216E1,3.849728725E0,-2.138347229E0,1.209375750E1
6.229136333E0,-1.138567493E1,3.629005398E0,-2.629442008E0,1.223589960E1
6.239082333E0,-1.134896260E1,3.544423377E0,-3.598035035E0,1.242206687E1
6.249028333E0,-1.040071379E1,3.700344352E0,-5.678677263E0,1.241429705E1
6.258974333E0,-8.510741081E0,3.767013136E0,-6.185455443E0,1.117510451E1
6.268920333E0,-7.895018163E0,3.450374421E0,-4.672670826E0,9.801543148E0
6.278866333E0,-7.851749936E0,3.145361141E0,-2.954179993E0,8.959377947E0
6.288812333E0,-7.808436686E0,2.955280732E0,-1.700383176E0,8.520367987E0
6.298758333E0,-7.756307589E0,2.845460374E0,-7.246903863E-1,8.293499160E0
6.308704333E0,-7.694946324E0,2.940352790E0,4.575848244E-2,8.237716145E0
6.318650333E0,-7.567606246E0,3.349410841E0,1.007423363E-1,8.276313569E0
6.328596334E0,-7.003882617E0,4.293259036E0,-2.402273587E0,8.559051539E0
6.338542333E0,-3.248970879E0,6.150984353E0,-1.367549720E1,1.534306502E1
6.348488333E0,-1.783465093E0,5.461840872E0,-1.065762992E1,1.210774665E1
6.358434333E0,-4.675069939E0,3.481173460E0,4.290130191E0,7.237407315E0
6.368380333E0,-6.135864038E0,3.614441738E0,8.024988903E0,1.072909425E1
6.378326333E0,-5.223093794E0,3.367284610E0,6.525066991E0,9.010871970E0
6.388273333E0,1.869284678E-1,2.423659486E0,6.991053826E0,7.401614766E0
6.398219333E0,1.827879140E1,-4.338517070E-1,9.390975662E0,2.055463126E1
6.408165333E0,4.837075001E1,-7.088247414E0,9.684435722E0,4.983734546E1
6.418111333E0,6.528195485E1,-1.258639832E1,1.474245619E0,6.650055979E1
6.428057333E0,5.109647402E1,-1.108455268E1,-3.198649156E0,5.238271014E1
6.438003333E0,2.596465700E1,-5.771321132E0,-1.316454996E0,2.663089586E1
6.447949333E0,1.005061059E1,-4.308314447E0,-3.710445417E0,1.154745650E1
6.457894875E0,-1.429005711E0,-5.046416080E0,-1.246864359E1,1.352684167E1
6.467840875E0,-4.890242797E0,-7.077411354E0,-1.522766750E1,1.748959929E1
6.477786875E0,-5.510152906E-1,-7.975719679E0,-4.952252519E0,9.404282390E0
6.487732875E0,-6.625304639E-2,-1.074449850E1,-2.126009751E0,1.095301579E1
6.497678875E0,1.943865913E0,-1.096288499E1,2.896203388E0,1.150441028E1
6.507624875E0,5.591426865E0,-1.043377395E1,4.405912077E0,1.263090474E1
6.517570875E0,1.069017669E1,-1.045310484E1,4.582227264E0,1.563790540E1
6.527516875E0,1.589375658E1,-1.093960605E1,3.708329895E0,1.964785457E1
6.537462875E0,1.996180016E1,-1.141308200E1,2.015682585E0,2.308235002E1
6.547408875E0,1.966769457E1,-1.106791501E1,1.171719452E0,2.259844859E1
6.557354875E0,1.497797735E1,-9.763837987E0,1.915526213E0,1.798170121E1
6.567300875E0,1.112336299E1,-7.498880412E0,3.174484953E0,1.378549115E1
6.577246875E0,9.132483122E0,-5.720754411E0,4.110614238E0,1.153370836E1
6.587192875E0,7.371553198E0,-4.409059341E0,4.542160388E0,9.716523134E0
6.597138875E0,6.171898089E0,-3.380644913E0,4.538366715E0,8.373640695E0
6.607084875E0,5.386428162E0,-2.498086063E0,4.147761015E0,7.242787016E0
6.617030875E0,4.608659602E0,-1.390967527E0,3.727269026E0,6.088273021E0
6.626976875E0,3.491442633E0,-7.983992904E-2,3.767082717E0,5.136872421E0
6.636922875E0,2.099078498E0,1.303387054E0,3.548499763E0,4.323979524E0
6.646868875E0,1.151806759E0,2.965130074E0,2.589778005E0,4.101902642E0
6.656814875E0,7.156290293E-2,4.487558504E0,1.569652297E0,4.754693566E0
6.666760875E0,-1.381464339E0,5.377295396E0,5.859617597E-1,5.582750279E0
6.676706875E0,-2.732807332E0,6.050140348E0,-3.825874132E-1,6.649722346E0
6.686652875E0,-3.959625682E0,6.456889041E0,-1.266498286E0,7.679457633E0
6.696598875E0,-5.729168555E0,6.795872598E0,-8.966996979E0,1.262593725E1
6.706544875E0,-9.981599407E0,9.251889113E0,-3.728848242E1,3.969459283E1
6.716490875E0,-9.916683619E0,8.867359840E0,-2.171815405E1,2.546858653E1
6.726436875E0,-1.004355884E1,7.321616222E0,-3.191689800E0,1.283222592E1
6.736382875E0,-8.452583504E0,7.711223218E0,2.362180399E0,1.168285186E1
6.746328875E0,-6.287998649E0,7.449469686E0,5.730654332E0,1.130813533E1
6.756274875E0,-6.005448325E0,7.266696249E0,7.109230732E0,1.180726241E1
6.766220875E0,-7.625797736E0,7.359586871E0,6.193600615E0,1.227505595E1
6.776166875E0,-9.554568477E0,7.545589140E0,4.558240231E0,1.300012493E1
6.786112875E0,-1.062023698E1,7.716243637E0,3.710359463E0,1.364172338E1
6.796058875E0,-1.063239919E1,7.187852393E0,2.986370670E0,1.317693228E1
6.806004875E0,-1.013897839E1,6.536198335E0,1.936930531E0,1.221771138E1
6.815950875E0,-9.802198645E0,6.147331012E0,9.620295274E-1,1.161026605E1
6.825896875E0,-9.719051238E0,5.996909051E0,1.342982644E-1,1.142107312E1
6.835842875E0,-9.834315062E0,5.692983645E0,-5.170113927E-1,1.137502160E1
6.845788875E0,-1.008806200E1,5.258908575E0,-9.934021783E-1,1.141980570E1
6.855734875E0,-1.005618883E1,4.888541550E0,-1.376855710E0,1.126590005E1
6.865680875E0,-9.998769171E0,4.538525174E0,-1.851876347E0,1.113566530E1
6.875627875E0,-1.002743105E1,4.227535747E0,-2.181282457E0,1.109862267E1
6.885573875E0,-9.925103610E0,4.020644301E0,-2.431849096E0,1.098121816E1
6.895519875E0,-9.877831210E0,3.790756339E0,-2.707571334E0,1.092118700E1
6.905465875E0,-9.352862926E0,3.558615446E0,-2.986046149E0,1.044300055E1
6.915411875E0,-8.586811602E0,3.436125049E0,-3.341101363E0,9.833780919E0
6.925357875E0,-7.935894878E0,3.438832017E0,-4.051217052E0,9.550725248E0
6.935303875E0,-7.726622445E0,3.380599597E0,-4.432982932E0,9.527879392E0
6.945249875E0,-7.848176118E0,3.203414637E0,-4.077166118E0,9.406328576E0
6.955195875E0,-7.923575379E0,3.050289800E0,-3.369434631E0,9.134571932E0
6.965141875E0,-7.693475164E0,2.931897716E0,-2.744035740E0,8.678439748E0
6.975087875E0,-7.112916816E0,2.829436079E0,-2.475404128E0,8.045304206E0
6.985033875E0,-6.377789077E0,2.891345229E0,-2.945305674E0,7.596768804E0
6.994979875E0,-5.114960065E0,3.436805080E0,-7.147423575E0,9.437166386E0
7.004925875E0,-1.502523923E0,4.317016273E0,-2.185807325E1,2.233091072E1
7.014871875E0,-3.092231585E0,3.180370175E0,-1.153601737E1,1.235946388E1
7.024817875E0,-5.279032937E0,2.096576183E0,3.118646967E0,6.479952109E0
7.034763875E0,-4.791828895E0,2.692751274E0,8.294344400E0,9.950310679E0
7.044709875E0,-1.383341296E0,2.711101883E0,8.101645900E0,8.654500150E0
7.054655875E0,5.650141681E0,1.768458799E0,6.939180252E0,9.121610061E0
7.064601875E0,1.704553644E1,-5.166240147E-1,6.067928748E0,1.810074507E1
7.074547875E0,3.248663432E1,-6.079048398E0,3.876300520E0,3.327704832E1
7.084493875E0,4.422469053E1,-1.233471779E1,1.457988605E0,4.593576217E1
7.094439875E0,4.526463889E1,-1.487000150E1,2.399901956E0,4.770496837E1
7.104385875E0,3.215318165E1,-1.158797105E1,3.676553201E0,3.437477573E1
7.114331875E0,1.619718614E1,-6.496579941E0,3.582215978E0,1.781534903E1
7.124277875E0,6.142348015E0,-3.196432477E0,2.671591662E0,7.421793700E0
7.134223875E0,7.105951613E-1,-1.960593335E0,-6.503463283E-2,2.086408688E0
7.144169875E0,-6.322968507E-1,-3.597518141E0,-6.154989111E0,7.157222020E0
7.154115875E0,4.826921545E0,-8.232995414E0,-1.200625630E1,1.533726101E1
7.164061875E0,1.257326314E1,-1.137446114E1,-6.053472676E0,1.800305095E1
7.174007875E0,1.681626009E1,-1.350166299E1,8.410165755E-1,2.158214114E1
7.183953875E0,1.838056570E1,-1.525833030E1,1.603095886E0,2.394225877E1
7.193899875E0,1.849666216E1,-1.591932294E1,2.345211487E-1,2.440504772E1
7.203845875E0,1.631393048E1,-1.449679828E1,1.268604599E-1,2.182470118E1
7.213791875E0,1.197755933E1,-1.111199717E1,1.335975341E0,1.639278008E1
7.223737875E0,8.899027775E0,-8.639043610E0,2.244640839E0,1.260413354E1
7.233683875E0,7.277529386E0,-7.470765245E0,2.411729850E0,1.070472831E1
7.243629875E0,6.985919386E0,-5.722528456E0,2.731297581E0,9.434531683E0
7.253575875E0,6.084602668E0,-3.991117323E0,3.060977048E0,7.894364294E0
7.263521875E0,4.863415187E0,-2.655907676E0,3.070080578E0,6.334986000E0
7.273467875E0,3.632087465E0,-1.450403889E0,2.913617274E0,4.876976154E0
7.283413875E0,2.411064876E0,-1.658858004E-1,2.690921388E0,3.616878467E0
7.293359875E0,1.131208772E0,1.122125707E0,2.532967628E0,2.992444551E0
7.303305875E0,-1.364564717E-1,2.334442669E0,1.990225124E0,3.070706594E0
7.313251875E0,-1.280880536E0,4.160274641E0,1.607076963E0,4.640176333E0
7.323197875E0,-2.629166604E0,5.696244637E0,1.433482486E0,6.435417006E0
7.333143875E0,-3.876712748E0,6.394297521E0,3.723559552E-1,7.486961432E0
7.343090875E0,-4.762944235E0,6.938887891E0,-5.856992197E-1,8.436637157E0
7.353036875E0,-5.392950731E0,7.372772343E0,-1.301776292E0,9.226934004E0
7.362982875E0,-5.555332587E0,7.799140783E0,-4.551749822E0,1.060220466E1
7.372928875E0,-4.538419340E0,1.065631664E1,-2.647869742E1,2.890113755E1
7.382874875E0,-8.120071646E0,1.102872580E1,-2.122273117E1,2.525812096E1
7.392820875E0,-9.686964058E0,9.246496226E0,-2.621642407E0,1.364580426E1
7.402766875E0,-7.691252053E0,8.764870428E0,1.762120417E0,1.179336170E1
7.412712875E0,-6.047721355E0,8.762849631E0,4.420303829E0,1.152829359E1
7.422658875E0,-5.618376682E0,8.898378149E0,5.429094125E0,1.184155198E1
7.432604875E0,-7.075898679E0,8.934782914E0,5.095780029E0,1.248461701E1
7.442550875E0,-8.937479065E0,9.085931684E0,4.536336561E0,1.352815715E1
7.452496875E0,-9.416895200E0,8.617130585E0,4.112930321E0,1.341078113E1
7.462442708E0,-9.490663088E0,7.934909037E0,3.584572406E0,1.287962059E1
7.472388708E0,-9.708302886E0,7.377154246E0,2.726251434E0,1.249423854E1
7.482334708E0,-9.939328716E0,6.948269164E0,1.532593229E0,1.222364683E1
7.492280708E0,-1.005209695E1,6.617184026E0,3.499036704E-1,1.203969310E1
7.502226708E0,-9.998794899E0,6.223365866E0,-6.640906473E-1,1.179606708E1
7.512172708E0,-9.813215969E0,5.803058649E0,-1.404559380E0,1.148683962E1
7.522118708E0,-9.645023734E0,5.374099892E0,-2.014964840E0,1.122352511E1
7.532064708E0,-9.837982435E0,4.989850116E0,-2.815908546E0,1.138480757E1
7.542010708E0,-1.023284491E1,4.640342156E0,-4.822094961E0,1.222687573E1
7.551956708E0,-1.003753855E1,4.347796016E0,-5.818087163E0,1.238973965E1
7.561902708E0,-8.925696926E0,4.224777031E0,-4.801040014E0,1.098029106E1
7.571848708E0,-8.190701333E0,4.206164174E0,-3.442704628E0,9.830138379E0
7.581794709E0,-7.919543724E0,4.189988144E0,-2.536202307E0,9.311685969E0
7.591740708E0,-7.816860770E0,4.132117666E0,-2.218399559E0,9.115865582E0
7.601686708E0,-7.918712250E0,3.939173583E0,-2.108337418E0,9.092204292E0
7.611632708E0,-8.061122357E0,3.656592269E0,-1.991255842E0,9.072897029E0
7.621578708E0,-8.097641727E0,3.297114514E0,-1.914518007E0,8.950315349E0
7.631524708E0,-7.850729012E0,2.995896953E0,-1.644065133E0,8.562259909E0
7.641470708E0,-7.338562038E0,2.862763162E0,-1.598467376E0,8.037723786E0
7.651416708E0,-5.493381922E0,2.700017901E0,-6.061674566E0,8.614594602E0
7.661362708E0,-1.495283316E0,2.619078111E0,-1.361106673E1,1.394118288E1
7.671308708E0,-2.061259292E0,2.310140179E0,-6.138918623E0,6.875453395E0
7.681254708E0,-4.748964127E0,2.464683551E0,5.571703622E0,7.724714010E0
7.691200709E0,-3.260396338E0,3.091308895E0,9.120339625E0,1.016695480E1
7.701146708E0,2.259807347E0,3.274263595E0,9.855729904E0,1.062840267E1
7.711092708E0,1.298326055E1,2.810979343E0,8.476997384E0,1.575836743E1
7.721038708E0,3.026665236E1,5.773520270E-1,4.428736099E0,3.059439955E1
7.730984708E0,4.417772102E1,-3.435422506E0,-1.739718565E0,4.434523405E1
7.740930708E0,4.143591482E1,-8.458793247E0,-1.589311660E0,4.232035127E1
7.750877708E0,3.443465994E1,-1.060332449E1,2.125917218E0,3.609287769E1
7.760823708E0,2.635907274E1,-8.153469188E0,3.356911649E0,2.779475907E1
7.770769708E0,1.237953787E1,-4.206134353E0,-1.963835616E-1,1.307605027E1
7.780715708E0,1.371862042E0,-3.404025005E0,-1.357472980E1,1.406210087E1
7.790661708E0,2.817966766E0,-4.195225788E0,-1.432445043E1,1.518982345E1
7.800607708E0,8.712847166E0,-3.891858206E0,-3.228881015E0,1.007402296E1
7.810553708E0,7.847318332E0,-5.881451685E0,-1.936691964E0,9.996131986E0
7.820499708E0,7.012213730E0,-8.572452010E0,3.742878753E-1,1.108143340E1
7.830445708E0,6.897318281E0,-8.828138471E0,3.067115163E0,1.161534432E1
7.840391708E0,7.181353798E0,-7.655969954E0,3.635773550E0,1.110876085E1
7.850337708E0,8.131394779E0,-7.977110732E0,2.913909050E0,1.175775245E1
7.860283708E0,1.061439210E1,-9.120881077E0,2.132167307E0,1.415633882E1
7.870229708E0,1.395050930E1,-1.016808115E1,1.589759703E0,1.733591416E1
7.880175708E0,1.547532047E1,-1.028473193E1,1.431900083E0,1.863629771E1
7.890121708E0,1.413378209E1,-9.264084066E0,2.079545290E0,1.702678943E1
7.900067708E0,1.097336904E1,-7.338905854E0,2.907552541E0,1.351770058E1
7.910013708E0,8.426092694E0,-5.436322453E0,3.474151247E0,1.061236858E1
7.919959708E0,7.328856829E0,-4.439994328E0,3.843871862E0,9.391541032E0
7.929905708E0,7.282018878E0,-3.772628217E0,4.097653300E0,9.167948798E0
7.939851708E0,7.201011552E0,-2.583474415E0,3.937771128E0,8.604356390E0
7.949797708E0,6.025370373E0,-1.189399970E0,3.694240444E0,7.167089568E0
7.959743708E0,4.010255553E0,6.509792894E-2,3.361878274E0,5.233413118E0
7.969689708E0,2.129738374E0,1.617642735E0,2.669597762E0,3.778796868E0
7.979635708E0,7.751180166E-1,2.954060418E0,1.495956915E0,3.400759913E0
7.989581708E0,-3.357061923E-1,3.999301086E0,4.040879175E-2,4.013569571E0
7.999527708E0,-1.665261875E0,4.773459867E0,-9.525944602E-1,5.144555610E0
8.009473708E0,-3.237305683E0,5.154430525E0,-2.357382174E0,6.527292918E0
8.019419708E0,-7.967535331E0,5.036460026E0,-1.612959934E1,1.868185012E1
8.029365708E0,-1.448134760E1,5.197550817E0,-3.291223210E1,3.633096454E1
8.039311708E0,-9.225672537E0,5.255769789E0,-1.756699113E1,2.052645433E1
8.049257708E0,-6.849103895E0,4.737214147E0,-4.833058197E0,9.628596657E0
8.059203708E0,-6.313726398E0,5.604439259E0,-2.614658493E-1,8.446374655E0
8.069149708E0,-5.116776795E0,6.261484450E0,2.400925219E0,8.435166518E0
8.079095708E0,-5.436664515E0,6.652976587E0,3.751317455E0,9.375062729E0
8.089041709E0,-6.761297427E0,6.921391852E0,4.068525980E0,1.049636660E1
8.098987708E0,-8.267609761E0,7.062097496E0,3.757670454E0,1.150420269E1
8.108933708E0,-9.415798262E0,7.159867035E0,3.227083581E0,1.226111827E1
8.118879708E0,-1.021296204E1,7.318230100E0,2.860792943E0,1.288585355E1
8.128825708E0,-1.065130674E1,7.419543636E0,2.675135660E0,1.325353967E1
8.138771708E0,-1.074306476E1,7.279738464E0,2.487975057E0,1.321355563E1
8.148718708E0,-1.079367475E1,7.078978992E0,2.099325836E0,1.307755815E1
8.158664708E0,-1.087319922E1,6.867477601E0,1.622064400E0,1.296224529E1
8.168610708E0,-1.088254658E1,6.682219682E0,1.043060754E0,1.281287851E1
8.178556708E0,-1.076915387E1,6.543814334E0,5.143607037E-1,1.261192880E1
8.188502708E0,-1.046741415E1,6.457312964E0,1.117167561E-1,1.229943618E1
8.198448708E0,-1.019508476E1,6.364059815E0,-2.976915430E-1,1.202204770E1
8.208394708E0,-1.013189039E1,6.309873667E0,-7.671647801E-1,1.196069607E1
8.218340708E0,-9.868907189E0,6.430846127E0,-1.302049064E0,1.185101020E1
8.228286708E0,-8.859929783E0,6.565660701E0,-2.045495345E0,1.121562782E1
8.238232708E0,-7.484248924E0,6.587971337E0,-2.663814281E0,1.032042900E1
8.248178708E0,-6.532404077E0,6.483756412E0,-3.149538977E0,9.727846422E0
8.258124708E0,-5.913742349E0,6.345370359E0,-3.485970808E0,9.348158430E0
8.268070708E0,-5.942983105E0,6.037356580E0,-2.691985581E0,8.889066826E0
8.278016708E0,-6.399697425E0,5.722337252E0,-1.728498196E0,8.757224262E0
8.287962708E0,-6.801029842E0,5.501688477E0,-1.160866581E0,8.824409001E0
8.297908708E0,-7.103993381E0,5.309552479E0,-7.393933562E-1,8.899706288E0
8.307854708E0,-7.332926491E0,5.121724709E0,-4.769907099E-1,8.957197947E0
8.317800708E0,-7.428560042E0,4.911571686E0,-5.587424592E-1,8.922961048E0
8.327746708E0,-7.273812311E0,4.745378029E0,-1.588656918E0,8.828974401E0
8.337692708E0,-4.596401500E0,5.116097934E0,-1.009151186E1,1.221228793E1
8.347638708E0,-2.401149752E0,5.133628471E0,-1.081282789E1,1.220806735E1
8.357584708E0,-4.154263119E0,4.311722204E0,5.796555376E-1,6.015384523E0
8.367530708E0,-4.193104418E0,3.836944081E0,4.038875334E0,6.972573306E0
8.377476708E0,-1.133495033E0,2.922732790E0,3.812588089E0,4.935889574E0
8.387422708E0,4.926760413E0,1.559331377E0,4.601590319E0,6.919473677E0
8.397368708E0,1.830946122E1,-1.672803906E0,6.030890729E0,1.934958103E1
8.407314708E0,3.727249146E1,-9.874578989E0,5.785542730E0,3.898997864E1
8.417260708E0,4.685737365E1,-1.695925492E1,3.529983970E0,4.995688721E1
8.427206708E0,4.790668691E1,-1.936010530E1,2.785000749E0,5.174572984E1
8.437152708E0,3.945664636E1,-1.639246092E1,3.375691152E0,4.285947979E1
8.447098708E0,2.131110598E1,-9.710888525E0,3.479503788E0,2.367639206E1
8.457044708E0,8.258802685E0,-6.299327629E0,1.086920791E0,1.044369413E1
8.466990708E0,-4.161077464E-1,-8.485386969E0,-1.573171152E1,1.787908513E1
8.476936708E0,1.064260492E0,-1.573913397E1,-2.309985111E1,2.797241695E1
8.486882709E0,1.052929874E1,-1.832689528E1,-3.444412308E0,2.141506943E1
8.496828708E0,1.282263285E1,-1.861002564E1,3.104334737E0,2.281205519E1
8.506774708E0,1.514687184E1,-1.724124041E1,6.199422103E0,2.377227233E1
8.516720708E0,1.601013722E1,-1.399642280E1,6.658628506E0,2.228366394E1
8.526666708E0,1.650517302E1,-1.190850255E1,5.238083131E0,2.101596260E1
8.536612708E0,1.510102148E1,-9.973490489E0,2.498028175E0,1.826886715E1
8.546559708E0,1.252694618E1,-7.323830563E0,9.920455512E-1,1.454465637E1
8.556505708E0,1.008484720E1,-5.141026368E0,8.285737737E-1,1.134992642E1
8.566451708E0,8.703599210E0,-3.727557878E0,9.137027286E-1,9.512212131E0
8.576397708E0,8.129079866E0,-2.338707921E0,1.224268963E0,8.546948503E0
8.586343708E0,7.212953321E0,-7.540715486E-1,1.652653524E0,7.438184132E0
8.596289708E0,5.352535361E0,8.403150558E-1,1.765486659E0,5.698482897E0
8.606235708E0,3.146732313E0,2.550642883E0,1.820668003E0,4.441006119E0
8.616181708E0,2.505385727E-1,3.833232268E0,2.257747373E0,4.455767319E0
8.626127708E0,-2.115753588E0,5.557722344E0,2.331369081E0,6.387485631E0
8.636073708E0,-3.004446167E0,7.578704846E0,1.134346973E0,8.231051389E0
8.646019708E0,-4.190583683E0,8.277488632E0,3.007081215E-1,9.282684689E0
8.655965708E0,-5.492429996E0,8.548884223E0,-5.444634855E-1,1.017578740E1
8.665911708E0,-6.574004093E0,9.031207593E0,-3.503915328E0,1.170716289E1
8.675857708E0,-7.910817339E0,1.212225102E1,-2.663637344E1,3.031544806E1
8.685803708E0,-1.068204673E1,1.177007673E1,-1.813987559E1,2.411837298E1
8.695749708E0,-9.985891263E0,9.624059712E0,-9.612997949E-2,1.386902270E1
8.705695708E0,-8.348979614E0,9.607690431E0,2.603366935E0,1.299194733E1
8.715641708E0,-7.484284008E0,9.306223195E0,4.234174091E0,1.267077454E1
8.725587708E0,-8.046479759E0,8.016899865E0,4.214784139E0,1.211531780E1
8.735533708E0,-9.195944708E0,7.645403450E0,3.702001453E0,1.251888205E1
8.745479708E0,-1.084019403E1,8.520998851E0,4.019822767E0,1.436231886E1
8.755425708E0,-1.143944359E1,9.006522987E0,5.466683536E0,1.555194376E1
8.765371708E0,-1.077302005E1,8.368819216E0,5.490604495E0,1.470516350E1
8.775317708E0,-1.056778044E1,7.506544358E0,3.905367029E0,1.353802361E1
8.785263708E0,-1.057702839E1,6.659409694E0,1.405156526E0,1.257758848E1
8.795209708E0,-1.006358205E1,5.932416016E0,-1.060727896E0,1.173006339E1
8.805155708E0,-9.707538071E0,5.135428829E0,-4.570320286E0,1.189524074E1
8.815101708E0,-1.008605641E1,4.253745307E0,-1.203655657E1,1.626965203E1
8.825047708E0,-8.472645301E0,4.380488384E0,-9.620150263E0,1.354701768E1
8.834993708E0,-7.830245631E0,4.976440111E0,-5.163137029E0,1.061770629E1
8.844939708E0,-7.711533120E0,5.197933810E0,-3.956010933E0,1.010624962E1
8.854885708E0,-7.292697648E0,5.018757581E0,-3.442382154E0,9.498492593E0
8.864831708E0,-7.114418381E0,4.672738654E0,-2.878116488E0,8.985153864E0
8.874777708E0,-7.265267190E0,4.464366108E0,-2.369188287E0,8.850295205E0
8.884723708E0,-7.609093410E0,4.338532565E0,-1.957067903E0,8.975036608E0
8.894670708E0,-7.913851460E0,4.131035639E0,-1.809287859E0,9.108678441E0
8.904616708E0,-8.170142523E0,3.829137463E0,-2.029203687E0,9.248307421E0
8.914562708E0,-8.314904965E0,3.415221838E0,-2.299711086E0,9.278472711E0
8.924508708E0,-8.231771591E0,3.016857467E0,-2.308846191E0,9.066105186E0
8.934454708E0,-7.885025856E0,2.741612070E0,-1.995237211E0,8.583183618E0
8.944400708E0,-7.274087130E0,2.474248426E0,-1.502059215E0,7.828820520E0
8.954346708E0,-6.750182455E0,2.240938967E0,-1.132243437E0,7.201995961E0
8.964292708E0,-6.436600957E0,2.162916060E0,-1.129015481E0,6.883510276E0
8.974238708E0,-6.448651484E0,2.250024078E0,-1.523038440E0,6.997668212E0
8.984184708E0,-5.826052240E0,2.683241362E0,-4.749114400E0,7.981024777E0
8.994130708E0,-2.004783375E0,3.267010416E0,-1.250673118E1,1.308093415E1
9.004076708E0,-2.926240827E0,2.665062954E0,-5.411976401E0,6.704844107E0
9.014022708E0,-1.254714246E0,2.075113685E0,-2.415935606E0,3.423032208E0
9.023968708E0,3.730638192E0,9.553932300E-1,-1.647977505E0,4.188826494E0
9.033914708E0,9.974458787E0,-1.111358937E0,4.079274332E0,1.083353247E1
9.043860708E0,2.275726976E1,-5.574952335E0,6.921240410E0,2.443106607E1
9.053806708E0,3.571121471E1,-1.188632055E1,8.400771326E0,3.856356352E1
9.063752708E0,4.729942783E1,-1.602486752E1,8.771187176E0,5.070469384E1
9.073698708E0,4.998107320E1,-1.302527396E1,8.914177326E0,5.241400573E1
9.083644708E0,3.184322074E1,-6.680130472E0,7.717225385E0,3.343905528E1
9.093590708E0,1.243564541E1,-2.065858712E0,5.227433013E0,1.364694489E1
9.103536708E0,4.520106445E0,-3.142787781E-1,2.531484189E0,5.190235604E0
9.113482708E0,1.052883564E0,-4.298741385E-1,-8.003727257E-2,1.140070849E0
9.123428708E0,3.309708247E0,-3.430453250E0,-2.319591619E0,5.301196417E0
9.133374708E0,1.045393983E1,-7.806655040E0,-5.711332793E0,1.424247321E1
9.143320708E0,1.789655541E1,-1.362338682E1,-1.517956713E1,2.713489676E1
9.153266708E0,2.594968345E1,-1.551903659E1,-6.040234580E0,3.083360183E1
9.163212708E0,2.704245555E1,-1.517316677E1,2.905051687E0,3.114416024E1
9.173158708E0,1.858659819E1,-1.345048465E1,1.550396247E0,2.299523642E1
9.183104708E0,1.103265747E1,-9.238394324E0,1.710751312E0,1.449117423E1
9.193050708E0,7.302269540E0,-6.119843252E0,2.380228999E0,9.820443572E0
9.202996708E0,4.628883367E0,-4.218316442E0,2.610442650E0,6.784921935E0
9.212942708E0,3.290259823E0,-2.751725121E0,2.598357625E0,5.014904106E0
9.222888708E0,2.741570554E0,-1.636350609E0,2.543503726E0,4.082066097E0
9.232834708E0,2.141929234E0,-6.841397265E-1,2.274803847E0,3.198537252E0
9.242780708E0,1.183352487E0,2.108736929E-1,1.733075982E0,2.109109571E0
9.252726708E0,-2.182636964E-1,1.102853284E0,1.327816282E0,1.739833465E0
9.262673708E0,-1.992130001E0,2.104031675E0,1.162600865E0,3.122046124E0
9.272619708E0,-3.233115569E0,3.578694200E0,4.867766100E-1,4.847374539E0
9.282565708E0,-3.978870623E0,4.872861072E0,-4.279356404E-1,6.305498820E0
9.292511708E0,-4.945401921E0,5.769467565E0,-4.802059768E0,8.989078605E0
9.302457708E0,-7.217014797E0,1.090578225E1,-4.302561371E1,4.496915414E1
9.312403708E0,-8.463882664E0,1.117760527E1,-2.517857838E1,2.881903847E1
9.322349708E0,-7.329641526E0,7.557320994E0,-1.172905852E0,1.059303798E1
9.332295708E0,-5.265786070E0,7.042729179E0,2.728068749E0,9.207111182E0
9.342241708E0,-4.194481437E0,6.957748085E0,4.293932635E0,9.189221426E0
9.352187708E0,-4.614722580E0,7.071393984E0,4.566116431E0,9.599463351E0
9.362133708E0,-6.255162440E0,7.037628068E0,4.183881020E0,1.030340363E1
9.372079708E0,-7.736673224E0,6.756735429E0,3.535082742E0,1.086307490E1
9.382025708E0,-8.839136499E0,6.604304949E0,3.075447153E0,1.145449925E1
9.391971708E0,-9.564698194E0,6.567127767E0,2.902908683E0,1.195982849E1
9.401917708E0,-9.852579424E0,6.555024031E0,3.029734790E0,1.221560290E1
9.411863708E0,-1.017221279E1,6.400062291E0,3.422323866E0,1.249587976E1
9.421809708E0,-1.071154710E1,6.119484233E0,3.790258741E0,1.290547906E1
9.431755708E0,-1.103948351E1,5.860747279E0,3.921488972E0,1.309948971E1
9.441701708E0,-1.144765775E1,5.717847176E0,3.685452079E0,1.331635090E1
9.451647708E0,-1.127670739E1,5.698520958E0,3.135153072E0,1.301792823E1
9.461593458E0,-1.077756450E1,5.586481290E0,2.415963673E0,1.237746138E1
9.471539458E0,-1.061199007E1,5.429925599E0,1.755220118E0,1.204903410E1
9.481485458E0,-1.050289272E1,5.241021942E0,1.167105414E0,1.179581288E1
9.491431458E0,-1.027972905E1,5.010162174E0,6.247609591E-1,1.145272372E1
9.501377458E0,-9.954877632E0,4.800302388E0,1.295912375E-1,1.105256918E1
9.511323459E0,-9.431658835E0,4.655726765E0,-3.465381958E-1,1.052388088E1
9.521269458E0,-8.662063513E0,4.566137481E0,-8.542238277E-1,9.829071887E0
9.531215458E0,-8.082793307E0,4.397093014E0,-1.270953718E0,9.288772684E0
9.541161458E0,-7.918737393E0,4.203573273E0,-1.565117782E0,9.100880388E0
9.551107458E0,-7.952630194E0,4.069957671E0,-1.912727736E0,9.136050013E0
9.561053458E0,-7.972890796E0,3.968805225E0,-2.356835897E0,9.212658575E0
9.570999458E0,-7.608511612E0,3.907246324E0,-3.740144595E0,9.335132799E0
9.580945458E0,-6.826993818E0,3.944332581E0,-5.901633934E0,9.848598235E0
9.590892458E0,-6.371944200E0,3.923716176E0,-6.963504669E0,1.022191855E1
9.600838458E0,-5.689006369E0,3.831594755E0,-8.362133510E0,1.081532194E1
9.610784458E0,-5.273834177E0,3.575735216E0,-8.578958791E0,1.068633441E1
9.620730458E0,-5.784334111E0,3.114074444E0,-5.480392917E0,8.555155596E0
9.630676458E0,-5.526194742E0,2.681885101E0,6.476725062E-2,6.142925266E0
9.640622458E0,-6.991022251E0,3.224179561E0,6.216890659E0,9.895425985E0
9.650568458E0,-5.729241645E0,3.542200850E0,6.370235059E0,9.270991932E0
9.660514458E0,1.144744492E0,2.713665302E0,7.104287496E0,7.690599466E0
9.670460458E0,1.869547568E1,-3.307363513E-1,8.377876554E0,2.048948543E1
9.680406458E0,4.495863304E1,-8.051265121E0,5.202795185E0,4.596923572E1
9.690352459E0,6.167152840E1,-1.483648877E1,1.445113621E0,6.344751506E1
9.700298458E0,5.708557587E1,-1.586160741E1,3.310505222E0,5.934065223E1
9.710244458E0,3.376028419E1,-9.245487581E0,3.099974468E0,3.514037096E1
9.720190458E0,1.133114497E1,-4.008417188E0,-7.432266008E0,1.413155450E1
9.730136458E0,-1.006705763E0,-4.079024656E0,-1.281794806E1,1.348894700E1
9.740082458E0,-4.662558067E-1,-3.927431205E0,-1.815349376E0,4.351735711E0
9.750028458E0,-8.284393609E-1,-4.873296104E0,1.021131356E0,5.047577235E0
9.759974458E0,-1.215051413E-1,-7.851542360E0,2.409123600E0,8.213729814E0
9.769920458E0,4.578554628E0,-1.045609394E1,4.519008338E0,1.227658337E1
9.779866458E0,1.109888187E1,-1.159379254E1,6.533293439E0,1.732873703E1
9.789812458E0,1.691901438E1,-1.230058058E1,6.463836703E0,2.189380084E1
9.799758459E0,2.222359439E1,-1.296285376E1,4.159425040E0,2.606193665E1
9.809704458E0,2.249948240E1,-1.223510463E1,1.434359422E0,2.565115749E1
9.819650458E0,1.688501867E1,-1.036260164E1,9.434938538E-1,1.983374773E1
9.829596458E0,1.157892541E1,-7.605195072E0,1.904197233E0,1.398343566E1
9.839542458E0,8.670518587E0,-5.571051657E0,2.580982624E0,1.062431082E1
9.849488458E0,6.945290592E0,-4.523210732E0,2.709512610E0,8.719974502E0
9.859434458E0,5.792452385E0,-3.760003786E0,2.595605341E0,7.377486034E0
9.869380458E0,4.665682819E0,-2.917707109E0,2.328680531E0,5.975312875E0
9.879326458E0,3.317544685E0,-1.916812893E0,2.254403350E0,4.445515591E0
9.889272458E0,1.608018218E0,-8.342178717E-1,2.225673056E0,2.869714725E0
9.899218458E0,3.042657137E-2,4.191366041E-1,1.730778172E0,1.781065510E0
9.909164459E0,-7.684299713E-1,2.232328942E0,6.691517778E-1,2.453882888E0
9.919111458E0,-1.546322492E0,3.971199076E0,-1.952719329E-1,4.266106712E0
9.929057458E0,-2.993679689E0,4.928791736E0,-1.007158338E0,5.854013493E0
9.939003458E0,-4.945885486E0,5.802576839E0,-5.660694736E0,9.496059504E0
9.948949458E0,-1.039372754E1,8.198911409E0,-2.765341006E1,3.065881290E1
9.958895458E0,-1.098352332E1,9.073209313E0,-2.330586255E1,2.731527304E1
9.968841458E0,-9.296723809E0,7.596323091E0,-8.376026495E0,1.463868225E1
9.978787459E0,-8.864057917E0,7.497567127E0,-1.342195024E0,1.168702370E1
9.988733458E0,-7.919264812E0,7.708039409E0,1.841594603E0,1.120357520E1
9.998679458E0,-7.231276156E0,7.712933528E0,4.589362621E0,1.152575150E1
1.000862546E1,-7.498544197E0,8.181311874E0,6.170250928E0,1.269779609E1
1.001857146E1,-8.360821395E0,8.555679857E0,5.894802632E0,1.333610476E1
1.002851746E1,-9.210451065E0,8.580037603E0,5.010565047E0,1.354825510E1
1.003846346E1,-9.836162782E0,8.495831265E0,4.255705293E0,1.367626684E1
1.004840946E1,-1.004652221E1,8.466084725E0,3.484271607E0,1.359217965E1
1.005835546E1,-9.933757489E0,8.121251029E0,2.736295781E0,1.311951107E1
1.006830146E1,-9.724718944E0,7.552620417E0,1.806339986E0,1.244488240E1
1.007824746E1,-9.506608445E0,7.068099078E0,8.837955362E-1,1.187917183E1
1.008819346E1,-9.474304333E0,6.577094346E0,4.560228869E-2,1.153354638E1
1.009813946E1,-9.455676858E0,6.161396490E0,-5.801022649E-1,1.130084732E1
1.010808546E1,-9.392861390E0,5.896654446E0,-1.050120170E0,1.113997895E1
1.011803146E1,-9.304819279E0,5.632126409E0,-1.456373019E0,1.097367450E1
1.012797746E1,-9.113563287E0,5.322516925E0,-1.781915727E0,1.070333807E1
1.013792346E1,-8.816118935E0,5.115513797E0,-2.136523629E0,1.041427711E1
1.014786946E1,-8.246129429E0,5.025115843E0,-2.604186130E0,1.000161113E1
1.015781546E1,-7.353037405E0,5.185156474E0,-3.762055866E0,9.752234158E0
1.016776146E1,-6.257115410E0,5.442828065E0,-5.255620685E0,9.818218748E0
1.017770746E1,-5.942983105E0,5.461091259E0,-4.872784181E0,9.427968582E0
1.018765346E1,-6.404548275E0,5.287538881E0,-3.276172711E0,8.928024062E0
1.019759946E1,-6.872018548E0,5.106110305E0,-2.014193299E0,8.795110916E0
1.020754546E1,-7.151072822E0,4.949989647E0,-1.353541546E0,8.801835873E0
1.021749246E1,-7.427853699E0,4.659914833E0,-1.154487415E0,8.844244344E0
1.022743746E1,-7.672743276E0,4.352028816E0,-9.523056809E-1,8.872318204E0
1.023738446E1,-7.753982736E0,4.158051237E0,-7.218821148E-1,8.828066162E0
1.024733046E1,-7.792743929E0,4.078835791E0,-6.504583025E-1,8.819685672E0
1.025727646E1,-7.671915895E0,4.078740481E0,-1.126492993E0,8.761472700E0
1.026722246E1,-6.465990232E0,4.137850569E0,-6.233633577E0,9.888833328E0
1.027716846E1,-3.300817555E0,4.283295380E0,-1.122128280E1,1.245629172E1
1.028711446E1,-3.696502731E0,3.479823630E0,-2.132596493E0,5.506475528E0
1.029706046E1,-5.658637685E0,3.497113555E0,4.662604845E0,8.123414775E0
1.030700646E1,-3.471772014E0,3.300998819E0,4.103951336E0,6.308106744E0
1.031695246E1,2.271026400E0,2.330190867E0,4.571891726E0,5.611554538E0
1.032689846E1,1.640045523E1,-4.811425254E-1,6.065258324E0,1.749267814E1
1.033684446E1,4.092176213E1,-9.231580564E0,6.215908327E0,4.240813851E1
1.034679046E1,6.105975060E1,-1.752671200E1,2.033575065E0,6.355795941E1
1.035673646E1,6.281881760E1,-1.905459062E1,-7.542463803E-1,6.564944901E1
1.036668246E1,4.536053322E1,-1.310621112E1,1.659019972E0,4.724513828E1
1.037662846E1,2.014782582E1,-7.699594860E0,-2.371262148E0,2.169888316E1
1.038657446E1,-5.184539008E-1,-1.000062859E1,-2.339933146E1,2.545211346E1
1.039652046E1,-2.382009476E0,-1.172289438E1,-1.508339096E1,1.925120528E1
1.040646646E1,1.845849037E-1,-1.270949274E1,-1.847727748E0,1.284442973E1
1.041641246E1,1.918575536E0,-1.419813186E1,2.818721641E0,1.460181743E1
1.042635846E1,6.918372935E0,-1.409228323E1,6.879987718E0,1.714031976E1
1.043630446E1,1.266411952E1,-1.333609323E1,8.811527701E0,2.039299699E1
1.044625046E1,1.706400545E1,-1.297937916E1,7.960038616E0,2.286934149E1
1.045619646E1,1.786184516E1,-1.176573108E1,5.376925267E0,2.205423465E1
1.046614271E1,1.478952042E1,-9.786967818E0,2.912347258E0,1.797210116E1
1.047608871E1,1.038020293E1,-7.861025959E0,1.266531469E0,1.308237150E1
1.048603471E1,7.949418903E0,-6.169376185E0,1.283938630E0,1.014410971E1
1.049598071E1,7.480201482E0,-4.237895259E0,1.722951674E0,8.768222905E0
1.050592671E1,6.817712533E0,-2.330955098E0,1.688222136E0,7.400314171E0
1.051587271E1,5.504531393E0,-7.751779506E-1,1.388983274E0,5.729750540E0
1.052581871E1,3.822527770E0,6.622141296E-1,1.218953844E0,4.066459711E0
1.053576571E1,1.750598479E0,1.912621901E0,1.153364895E0,2.837775212E0
1.054571171E1,-2.862095118E-2,3.526632931E0,7.757885461E-1,3.611067274E0
1.055565771E1,-1.375330026E0,5.169402906E0,2.184999239E-1,5.353690437E0
1.056560371E1,-2.609110655E0,6.012931591E0,-7.721716046E-1,6.599928311E0
1.057554971E1,-3.893079105E0,6.484684365E0,-1.885231204E0,7.794953042E0
1.058549571E1,-6.740415850E0,7.589982955E0,-1.705631519E1,1.984839880E1
1.059544171E1,-9.826817762E0,1.036285190E1,-3.947715371E1,4.198095654E1
1.060538771E1,-8.767565410E0,7.887582843E0,-1.423465240E1,1.848538599E1
1.061533371E1,-8.698040847E0,6.604238876E0,-1.497988238E0,1.102342299E1
1.062527971E1,-7.108485212E0,6.710693284E0,2.192654999E0,1.001856788E1
1.063522571E1,-5.889443659E0,7.027429354E0,5.809850190E0,1.085470724E1
1.064517171E1,-5.834357625E0,7.791400824E0,7.731759224E0,1.243083893E1
1.065511771E1,-6.981590107E0,8.462486349E0,8.274521170E0,1.374132367E1
1.066506371E1,-8.894595585E0,9.213637213E0,7.945474956E0,1.507101568E1
1.067500971E1,-9.971926943E0,9.563458584E0,7.287817562E0,1.562086271E1
1.068495571E1,-1.007963266E1,9.029054064E0,6.210454044E0,1.488934354E1
1.069490171E1,-9.838349640E0,8.258657089E0,4.754352921E0,1.369680299E1
1.070484771E1,-9.680380093E0,7.653359756E0,3.076567479E0,1.271805574E1
1.071479371E1,-9.529109116E0,7.143035240E0,1.505061030E0,1.200383612E1
1.072473971E1,-9.424457404E0,6.679716489E0,2.425635552E-1,1.155412683E1
1.073468571E1,-9.428358082E0,6.258402967E0,-6.871207832E-1,1.133726946E1
1.074463171E1,-9.463860621E0,5.841298855E0,-1.309115571E0,1.119817904E1
1.075457771E1,-9.454879882E0,5.521838567E0,-1.801016534E0,1.109635595E1
1.076452371E1,-9.350502405E0,5.261355050E0,-2.212657885E0,1.095488964E1
1.077446971E1,-9.341711116E0,5.026748385E0,-2.678230006E0,1.094114628E1
1.078441571E1,-9.340604823E0,5.046354100E0,-4.487611713E0,1.152611153E1
1.079436171E1,-8.105897995E0,5.451249225E0,-8.015021154E0,1.263575342E1
1.080430771E1,-6.766779776E0,5.383037946E0,-7.236683661E0,1.127545992E1
1.081425371E1,-6.838843786E0,4.931370943E0,-4.429298016E0,9.524016202E0
1.082420071E1,-7.280634257E0,4.594551440E0,-2.619427482E0,8.998829838E0
1.083414671E1,-7.640004131E0,4.466025840E0,-1.800698154E0,9.030922642E0
1.084409271E1,-7.993657767E0,4.228385055E0,-1.550467583E0,9.175061548E0
1.085403871E1,-8.285146730E0,3.947073171E0,-1.374557608E0,9.279679497E0
1.086398471E1,-8.442081320E0,3.637362823E0,-1.223427110E0,9.273398472E0
1.087393071E1,-8.460533963E0,3.349168474E0,-9.880269060E-1,9.152800751E0
1.088387671E1,-8.272458272E0,3.102039705E0,-6.773590759E-1,8.860870810E0
1.089382271E1,-7.807190645E0,2.922039895E0,-8.187574681E-1,8.376210761E0
1.090376871E1,-5.414571396E0,2.957723991E0,-6.892969707E0,9.250878119E0
1.091371471E1,9.768346775E-1,2.584166140E0,-1.889189769E1,1.909282376E1
1.092366071E1,-1.325469648E0,1.703367302E0,-4.449371508E0,4.945223632E0
1.093360671E1,-3.596471490E0,1.628620883E0,5.004355888E0,6.374212972E0
1.094355271E1,-2.837835020E-1,1.091166747E0,5.207781690E0,5.328430170E0
1.095349871E1,6.115086542E0,-1.857476225E-1,6.329494584E0,8.802913568E0
1.096344471E1,1.934736538E1,-4.321693461E0,6.623317755E0,2.090133775E1
1.097339071E1,3.669777331E1,-1.363595716E1,4.769662685E0,3.943875728E1
1.098333671E1,4.760832922E1,-2.109199444E1,2.679061480E0,5.214022067E1
1.099328271E1,4.733071278E1,-2.157495106E1,3.180675400E0,5.211325725E1
1.100322871E1,2.974495442E1,-1.331948948E1,3.975937659E0,3.283259347E1
1.101317471E1,1.058380415E1,-5.999949603E0,1.517297498E0,1.226044441E1
1.102312071E1,2.848874563E-1,-3.210459947E0,-4.489144853E0,5.526358245E0
1.103306671E1,-1.748259008E0,-3.282484195E0,-5.668087370E0,6.779257075E0
1.104301271E1,5.940346010E0,-5.158165142E0,1.305929277E0,7.974950133E0
1.105295871E1,1.304079013E1,-7.967350559E0,4.743342614E0,1.600125562E1
1.106290471E1,1.695195058E1,-1.048017745E1,6.073322219E0,2.083477839E1
1.107285071E1,1.843396364E1,-1.168129495E1,4.835852582E0,2.235283287E1
1.108279671E1,1.826606084E1,-1.116846724E1,2.748318241E0,2.158557139E1
1.109274271E1,1.601660775E1,-9.751047202E0,1.386267973E0,1.880256323E1
1.110268871E1,1.312301836E1,-8.588103837E0,1.075705393E0,1.572025065E1
1.111263471E1,1.100377223E1,-7.520512186E0,1.474139638E0,1.340948151E1
1.112258171E1,9.220938047E0,-6.172361773E0,1.864239115E0,1.125162814E1
1.113252771E1,7.878882771E0,-4.612641849E0,2.235596366E0,9.399529225E0
1.114247371E1,6.974733662E0,-3.211382638E0,2.112133577E0,7.963730052E0
1.115241971E1,6.013691729E0,-1.807169706E0,1.726679859E0,6.512432256E0
1.116236571E1,4.641663626E0,-4.975732014E-1,1.294830823E0,4.844502779E0
1.117231171E1,2.885630745E0,6.047433087E-1,9.428383078E-1,3.095403583E0
1.118225771E1,1.093141059E0,1.691585747E0,7.139448850E-1,2.136852127E0
1.119220371E1,-7.786082196E-1,3.025773594E0,6.319470410E-1,3.187615671E0
1.120214971E1,-2.380159417E0,4.648350210E0,1.457055974E-1,5.224322793E0
1.121209571E1,-3.620170839E0,5.715236979E0,-1.196033636E0,6.870230497E0
1.122204171E1,-4.464640342E0,6.822791424E0,-9.608311990E0,1.260171240E1
1.123198771E1,-4.001520397E0,1.229380482E1,-4.736217080E1,4.909506111E1
1.124193371E1,-7.122646583E0,1.079588851E1,-2.315049736E1,2.651846207E1
1.125187971E1,-7.215795652E0,8.015752056E0,-1.539505223E0,1.089449697E1
1.126182571E1,-4.331077657E0,7.157474354E0,5.153421296E0,9.825753093E0
1.127177171E1,-2.203833706E0,6.953391910E0,8.104170728E0,1.090339971E1
1.128171771E1,-2.783396857E0,6.999779626E0,7.864828404E0,1.089035071E1
1.129166371E1,-5.842249612E0,6.589227903E0,6.281936256E0,1.081723292E1
1.130160971E1,-8.428471341E0,6.110673648E0,4.810395559E0,1.146818935E1
1.131155571E1,-1.055355065E1,6.363873289E0,4.020499874E0,1.296305264E1
1.132150171E1,-1.134765049E1,6.389010469E0,4.117258430E0,1.365798094E1
1.133144771E1,-1.112471837E1,5.814716828E0,3.737896340E0,1.309741042E1
1.134139371E1,-1.111240414E1,5.270493078E0,2.995082436E0,1.265836252E1
1.135133971E1,-1.123408937E1,4.923904633E0,2.002411745E0,1.242816373E1
1.136128571E1,-1.170457038E1,4.548088003E0,1.406210926E0,1.263564408E1
1.137123171E1,-1.195927158E1,4.289981087E0,1.029527592E0,1.274707973E1
1.138117771E1,-1.228799386E1,4.158050360E0,6.679952717E-1,1.298962638E1
1.139112371E1,-1.231816900E1,4.065470225E0,6.593188807E-2,1.297188046E1
1.140107071E1,-1.227367052E1,3.868387190E0,-6.222199054E-1,1.288388781E1
1.141101671E1,-1.226977277E1,3.495300918E0,-1.187820929E0,1.281309373E1
1.142096271E1,-1.219274272E1,3.125849567E0,-1.789764006E0,1.271366059E1
1.143090871E1,-1.178049764E1,2.801957089E0,-2.178660273E0,1.230356244E1
1.144085471E1,-1.097377133E1,2.557457813E0,-2.419946358E0,1.152477280E1
1.145080071E1,-1.001614242E1,2.444011012E0,-2.564805717E0,1.062424243E1
1.146074671E1,-9.418112006E0,2.405710580E0,-2.666146150E0,1.007951449E1
1.147069233E1,-8.688088301E0,2.153401763E0,-3.646503775E0,9.665247398E0
1.148063833E1,-6.992468852E0,1.885383524E0,-6.389225062E0,9.657716529E0
1.149058433E1,-5.640128324E0,1.722739128E0,-7.483825001E0,9.528195751E0
1.150053033E1,-5.893827317E0,1.521704544E0,-5.883697600E0,8.465853921E0
1.151047633E1,-6.686322089E0,1.256961331E0,-4.360693220E0,8.080996239E0
1.152042233E1,-7.896141998E0,1.297653859E0,-2.976002972E0,8.537538150E0
1.153036833E1,-9.076224137E0,1.837177909E0,-1.389618866E0,9.363979274E0
1.154031433E1,-9.327299484E0,2.644064433E0,-2.450142403E0,9.999639503E0
1.155026033E1,-8.025199403E0,3.691362737E0,-8.654526452E0,1.236651982E1
1.156020633E1,-4.212843449E0,3.636959073E0,-1.247799679E1,1.366293985E1
1.157015233E1,-4.362341550E0,1.829813925E0,-1.710781864E0,5.030409266E0
1.158009833E1,-7.529235063E0,2.816966307E0,7.387638888E0,1.091796172E1
1.159004433E1,-6.356708695E0,3.281276745E0,7.175779063E0,1.013243937E1
1.159999033E1,-4.066796374E0,3.438636428E0,7.153338618E0,8.918144797E0
1.160993633E1,8.398671007E0,1.299211557E0,5.887277266E0,1.033855207E1
1.161988233E1,3.628477979E1,-6.650027837E0,4.792531146E0,3.719914608E1
1.162982833E1,7.004934414E1,-1.582942668E1,4.051395392E0,7.192979333E1
1.163977433E1,7.989451163E1,-1.970227734E1,6.723227960E0,8.256218575E1
1.164972033E1,4.071461633E1,-9.408654134E0,6.355701220E0,4.226816407E1
1.165966633E1,1.027515419E1,-2.319899182E0,2.413368094E0,1.080671418E1
1.166961333E1,-1.344941461E-1,-5.629710925E-1,-1.475530252E0,1.584996735E0
1.167955933E1,-4.863892905E0,-1.891355578E0,-1.065065653E1,1.186048754E1
1.168950533E1,9.271579027E-1,-6.031467850E0,-1.217327032E1,1.361714862E1
1.169945133E1,1.135901397E1,-8.380407228E0,1.493718016E0,1.419470384E1
1.170939733E1,1.452230267E1,-1.176647368E1,4.700505327E0,1.927282875E1
1.171934333E1,1.488403482E1,-1.384226213E1,4.607071499E0,2.084149278E1
1.172928933E1,1.683095064E1,-1.528146773E1,3.869218372E0,2.306024731E1
1.173923533E1,1.833555851E1,-1.526415178E1,2.597580530E0,2.399863455E1
1.174918133E1,1.587405964E1,-1.200572654E1,2.021781231E0,2.000527027E1
1.175912733E1,9.888591256E0,-7.461650020E0,1.892495785E0,1.253163989E1
1.176907333E1,5.718588603E0,-4.529434800E0,2.028921266E0,7.571958579E0
1.177901933E1,3.808999652E0,-2.557664512E0,2.108258042E0,5.049245298E0
1.178896533E1,3.035956228E0,-1.200214103E0,2.125747064E0,3.895682827E0
1.179891133E1,2.929612917E0,2.235098183E-2,2.019463980E0,3.558281351E0
1.180885733E1,2.684200013E0,1.345744869E0,1.847058241E0,3.525277735E0
1.181880333E1,1.937013561E0,2.622522413E0,1.583280403E0,3.624420254E0
1.182874933E1,1.078953960E0,4.118046049E0,1.110328365E0,4.399462921E0
1.183869533E1,1.132956505E-2,5.568402869E0,5.829714205E-1,5.598847608E0
1.184864133E1,-1.427920468E0,6.607010456E0,-6.081251921E-1,6.786852015E0
1.185858733E1,-3.483568772E0,7.204605251E0,-3.791935138E0,8.855527105E0
1.186853333E1,-8.448335502E0,8.594620559E0,-1.985642632E1,2.322755995E1
1.187847933E1,-9.196476805E0,1.013103787E1,-2.338167521E1,2.709088130E1
1.188842533E1,-6.228078722E0,9.050795181E0,-1.145670223E1,1.587330728E1
1.189837133E1,-6.172016203E0,8.104711595E0,-3.171397038E0,1.066948421E1
1.190831733E1,-6.293174019E0,8.208997271E0,4.666042276E-1,1.035419697E1
1.191826333E1,-6.250751885E0,8.098452736E0,2.568935605E0,1.054780859E1
1.192820933E1,-6.821989186E0,8.085780065E0,3.725380375E0,1.121596339E1
1.193815533E1,-7.688706175E0,7.998085864E0,3.942053044E0,1.177392723E1
1.194810233E1,-8.519899575E0,7.699843367E0,3.565049722E0,1.202438590E1
1.195804833E1,-9.250517941E0,7.518900694E0,2.945165341E0,1.227924870E1
1.196799433E1,-9.822150514E0,7.375546846E0,2.642923933E0,1.256417044E1
1.197794033E1,-9.901134703E0,7.011063582E0,2.442374377E0,1.237548680E1
1.198788633E1,-9.761434781E0,6.578490077E0,2.108450416E0,1.195858285E1
1.199783233E1,-9.693536913E0,6.294045255E0,1.503955321E0,1.165510811E1
1.200777833E1,-9.703844969E0,6.075339509E0,7.620125791E-1,1.147410217E1
1.201772433E1,-9.798720136E0,5.844808939E0,9.477510653E-2,1.140989440E1
1.202767033E1,-9.886450006E0,5.607706098E0,-4.213683401E-1,1.137390930E1
1.203761633E1,-9.899116244E0,5.368891193E0,-7.910160112E-1,1.128907443E1
1.204756233E1,-9.913430228E0,5.083350602E0,-1.126087196E0,1.119752761E1
1.205750833E1,-1.000507832E1,4.780245853E0,-1.369159020E0,1.117259768E1
1.206745433E1,-9.977019868E0,4.536040108E0,-1.536757032E0,1.106698728E1
1.207740033E1,-9.792084716E0,4.286622739E0,-1.680691654E0,1.082057217E1
1.208734633E1,-9.613251134E0,4.067736021E0,-1.830925189E0,1.059779981E1
1.209729233E1,-9.237037770E0,3.874297848E0,-2.040550063E0,1.022237229E1
1.210723833E1,-8.679399923E0,3.834096194E0,-2.549866666E0,9.825176673E0
1.211718433E1,-8.093887814E0,3.884377279E0,-3.559014811E0,9.657432020E0
1.212713033E1,-7.909496453E0,3.679713621E0,-3.831053596E0,9.527717362E0
1.213707633E1,-8.055501428E0,3.305735941E0,-3.000327973E0,9.209829603E0
1.214702233E1,-8.196930372E0,3.104090031E0,-2.031883612E0,8.997421489E0
1.215696833E1,-7.983135118E0,3.111718016E0,-1.784661434E0,8.752042719E0
1.216691433E1,-7.356807690E0,3.684965006E0,-3.160532911E0,8.814224569E0
1.217686033E1,-5.534160404E0,4.974408789E0,-7.925690317E0,1.087144154E1
1.218680733E1,-4.199127050E0,5.372995938E0,-9.002474375E0,1.129363972E1
1.219675333E1,-4.963929409E0,4.570384898E0,-1.852523049E0,6.997203366E0
1.220669933E1,-5.363265002E0,3.726347505E0,4.675434220E0,8.031809407E0
1.221664533E1,-5.091251945E0,3.775426694E0,7.181980619E0,9.578911144E0
1.222659133E1,-7.145239055E-2,3.321171128E0,7.030332497E0,7.775658051E0
1.223653733E1,1.196672444E1,1.641826819E0,7.973679585E0,1.447334292E1
1.224648333E1,3.719016032E1,-4.771224477E0,6.972861384E0,3.813782117E1
1.225642933E1,5.811663646E1,-1.366603056E1,1.626060387E0,5.972393069E1
1.226637533E1,6.010544290E1,-1.741543013E1,-1.140370190E0,6.258803334E1
1.227632133E1,4.605701613E1,-1.511421514E1,5.016553619E-1,4.847617861E1
1.228626733E1,2.106847694E1,-8.593360484E0,-7.299200921E0,2.389570880E1
1.229621333E1,4.274676585E0,-6.880663072E0,-1.126831313E1,1.387772549E1
1.230615933E1,1.636225771E0,-6.079017992E0,-2.752373870E0,6.870753703E0
1.231610533E1,9.202073175E-1,-7.333410641E0,-3.454499924E-1,7.398988366E0
1.232605133E1,1.176275017E0,-1.182574223E1,-9.327320534E-1,1.192064559E1
1.233599733E1,5.202194091E0,-1.487094407E1,1.827540236E0,1.586025549E1
1.234594333E1,1.064689210E1,-1.493007463E1,4.667705663E0,1.892223337E1
1.235588933E1,1.478778965E1,-1.442232464E1,5.754838416E0,2.144295539E1
1.236583533E1,1.805306081E1,-1.424874185E1,4.440857962E0,2.342351102E1
1.237578133E1,1.808232496E1,-1.364193302E1,2.185874129E0,2.275633665E1
1.238572733E1,1.468969559E1,-1.172929708E1,7.378792928E-1,1.881244355E1
1.239567333E1,1.127618231E1,-8.922283906E0,6.025519185E-1,1.439175133E1
1.240561933E1,9.337359619E0,-6.271441673E0,1.120328858E0,1.130364552E1
1.241556533E1,7.366776023E0,-4.119453474E0,1.609350799E0,8.592397564E0
1.242551133E1,6.143105814E0,-2.420605778E0,1.739117032E0,6.828001862E0
1.243545733E1,5.537210312E0,-9.592263722E-1,1.609320978E0,5.845573306E0
1.244540333E1,4.230992621E0,3.494758004E-1,1.462087503E0,4.490114894E0
1.245535033E1,2.142815672E0,1.457677241E0,1.556912823E0,3.023319281E0
1.246529733E1,5.362627655E-1,3.077942744E0,1.138266215E0,3.325200636E0
1.247524333E1,-7.577254736E-1,4.834224132E0,-4.234553576E-3,4.893249308E0
1.248518933E1,-1.950008998E0,6.280471528E0,-1.342550096E0,6.711877418E0
1.249513533E1,-5.536382931E0,7.865157017E0,-1.624485498E1,1.887875907E1
1.250508133E1,-9.032760614E0,1.194894306E1,-4.005643503E1,4.276547663E1
1.251502733E1,-4.992987147E0,1.045448128E1,-1.603490836E1,1.978242618E1
1.252497333E1,-4.683739021E0,8.851574696E0,-1.492604268E0,1.012500140E1
1.253491933E1,-3.778076652E0,9.196632925E0,2.831411269E0,1.033773719E1
1.254486533E1,-3.343405166E0,9.428822351E0,5.530186636E0,1.143083607E1
1.255481133E1,-4.363322128E0,9.410730481E0,6.167019757E0,1.206783166E1
1.256475733E1,-5.979561532E0,8.648571648E0,5.278476866E0,1.176500173E1
1.257470333E1,-7.506409872E0,7.976499113E0,4.679474062E0,1.191084400E1
1.258464933E1,-9.172614902E0,7.814371026E0,3.966523057E0,1.268599873E1
1.259459533E1,-1.050864638E1,7.874335976E0,3.747935425E0,1.365590845E1
1.260454133E1,-1.075702206E1,7.511487009E0,3.632641196E0,1.361367117E1
1.261448733E1,-1.064516717E1,6.982760135E0,3.181722052E0,1.312257133E1
1.262443333E1,-1.061165560E1,6.564503537E0,2.226888692E0,1.267513213E1
1.263437933E1,-1.056622274E1,6.162786958E0,1.056567822E0,1.227767656E1
1.264432533E1,-1.036639064E1,5.876923601E0,1.511112021E-1,1.191734536E1
1.265427133E1,-1.068997789E1,5.508004054E0,-3.939205597E-1,1.203199524E1
1.266421733E1,-1.089771426E1,5.180123776E0,-7.228911249E-1,1.208786292E1
1.267416333E1,-1.121693364E1,4.743396116E0,-1.112539782E0,1.222935615E1
1.268410933E1,-1.140212432E1,4.403293110E0,-1.375391421E0,1.229996466E1
1.269405533E1,-1.135749837E1,4.090546010E0,-1.768654681E0,1.220055225E1
1.270400233E1,-1.119669058E1,3.794987677E0,-2.166557267E0,1.201922551E1
1.271394833E1,-1.086878574E1,3.448688961E0,-2.538417233E0,1.168193140E1
1.272389433E1,-1.049067905E1,3.092194456E0,-2.900703698E0,1.131503846E1
1.273384033E1,-9.818695979E0,2.754888465E0,-3.898229917E0,1.091752709E1
1.274378633E1,-8.554502227E0,2.550702525E0,-5.264364612E0,1.036335498E1
1.275373233E1,-7.934959323E0,2.486157450E0,-4.975191731E0,9.690051140E0
1.276367833E1,-7.919459524E0,2.363976956E0,-3.686566558E0,9.049696083E0
1.277362433E1,-7.992426928E0,2.166693946E0,-2.644440701E0,8.692900407E0
1.278357033E1,-7.905141447E0,1.920186152E0,-1.856986814E0,8.344266066E0
1.279351633E1,-7.632636639E0,1.725257231E0,-1.245849428E0,7.923748821E0
1.280346233E1,-7.446169517E0,1.628066274E0,-9.122241870E-1,7.676470103E0
1.281340833E1,-7.479870529E0,1.667048492E0,-9.120340794E-1,7.717468495E0
1.282335433E1,-7.658703527E0,2.051431585E0,-1.455093064E0,8.061104582E0
1.283330033E1,-7.284581128E0,2.819240289E0,-4.750786704E0,9.142385483E0
1.284324633E1,-3.195551301E0,3.978485876E0,-1.434736216E1,1.522782647E1
1.285319233E1,-2.607695628E0,3.023556330E0,-9.118398349E0,9.954253253E0
1.286313833E1,-7.189894241E0,2.762514111E0,4.686265018E0,9.015938289E0
1.287308433E1,-6.927841331E0,3.560926266E0,5.341680590E0,9.445037475E0
1.288303033E1,-4.406497384E0,4.010552591E0,5.801348923E0,8.316092869E0
1.289297633E1,6.922060189E0,2.029576154E0,7.077282715E0,1.010554438E1
1.290292233E1,3.356905217E1,-5.957236862E0,6.601516997E0,3.472679025E1
1.291286833E1,6.231130267E1,-1.610866982E1,5.826232334E0,6.462300416E1
1.292281433E1,7.658323809E1,-2.221057381E1,7.805722994E0,8.012010519E1
1.293276033E1,4.938699609E1,-1.378747606E1,8.901589440E0,5.204236902E1
1.294270633E1,1.925500978E1,-4.214766598E0,7.131503361E0,2.096134536E1
1.295265333E1,7.304801384E0,-9.027908009E-1,4.492526883E0,8.623105722E0
1.296259933E1,2.113149238E0,-3.776447618E-1,7.225866312E-1,2.264982717E0
1.297254533E1,3.592657936E0,-3.717914650E0,-4.085826137E0,6.589693135E0
1.298249133E1,1.138925109E1,-9.471386572E0,-1.013144834E1,1.794626561E1
1.299243733E1,1.785357486E1,-1.401449538E1,-1.096093435E1,2.520512444E1
1.300238333E1,2.300140739E1,-1.542512446E1,-5.556784451E-2,2.769480627E1
1.301232933E1,2.125746363E1,-1.636965093E1,2.576044065E0,2.695331584E1
1.302227533E1,1.473474839E1,-1.452586479E1,2.199201980E0,2.080745173E1
1.303222133E1,9.564846713E0,-1.045036601E1,2.052996153E0,1.431472094E1
1.304216733E1,6.435523900E0,-6.637323006E0,2.548640504E0,9.589869289E0
1.305211333E1,4.360317244E0,-3.941629998E0,2.501792613E0,6.388096727E0
1.306205933E1,2.911286573E0,-2.336785064E0,2.156600190E0,4.311273400E0
1.307200533E1,2.254622036E0,-1.201842845E0,2.053375491E0,3.277819040E0
1.308195133E1,1.669839660E0,-1.777559406E-1,1.836180520E0,2.488276626E0
1.309189733E1,8.534426397E-1,7.602272049E-1,1.562640901E0,1.936015581E0
1.310184333E1,-1.899280894E-1,1.871876163E0,1.250400170E0,2.259091330E0
1.311178933E1,-1.410670597E0,3.185541453E0,8.988199568E-1,3.597991550E0
1.312173533E1,-2.293273301E0,4.841326745E0,-1.187993422E-2,5.357022328E0
1.313168133E1,-3.397629905E0,5.967002297E0,-1.166014469E0,6.964811205E0
1.314162733E1,-4.948603857E0,6.775931253E0,-6.064730905E0,1.035291676E1
1.315157333E1,-8.182019972E0,1.175190710E1,-3.930363174E1,4.183094834E1
1.316151933E1,-8.637159052E0,1.128044376E1,-2.162047515E1,2.587071459E1
1.317146533E1,-7.557963018E0,8.578916107E0,-1.909313546E0,1.159163857E1
1.318141133E1,-6.347637325E0,8.403234758E0,2.154607751E0,1.074938085E1
1.319135833E1,-5.225001740E0,8.431998382E0,4.363239098E0,1.083683973E1
1.320130433E1,-5.100775890E0,8.250724756E0,4.933774148E0,1.088276165E1
1.321125033E1,-6.366582304E0,7.752222140E0,4.434511979E0,1.096791752E1
1.322119633E1,-7.873233776E0,7.223398202E0,3.760466008E0,1.132724134E1
1.323114233E1,-9.392439221E0,7.221748118E0,3.322556334E0,1.230491532E1
1.324108833E1,-1.034242641E1,7.286841661E0,3.553842949E0,1.314129541E1
1.325103433E1,-1.024547139E1,6.763287234E0,3.562348309E0,1.278288166E1
1.326098033E1,-1.034355258E1,6.199953614E0,3.172725525E0,1.246975108E1
1.327092633E1,-1.054843668E1,5.889281107E0,2.425975276E0,1.232227675E1
1.328087233E1,-1.060876942E1,5.582418060E0,1.566359146E0,1.208978333E1
1.329081833E1,-1.097644000E1,5.217310313E0,8.628526369E-1,1.218388594E1
1.330076433E1,-1.109313756E1,4.968791953E0,5.445377451E-1,1.216729698E1
1.331071033E1,-1.122881051E1,4.604673848E0,1.134557911E-1,1.213680678E1
1.332065633E1,-1.139948605E1,4.220873137E0,-2.464719804E-1,1.215832228E1
1.333060233E1,-1.128522795E1,3.875130492E0,-6.382756287E-1,1.194907536E1
1.334054833E1,-1.105908221E1,3.541387795E0,-1.042038880E0,1.165892670E1
1.335049433E1,-1.066563242E1,3.228674316E0,-1.360151969E0,1.122631133E1
1.336044033E1,-1.003436468E1,2.962818962E0,-1.583330251E0,1.058176287E1
1.337038633E1,-9.497016672E0,2.805967110E0,-1.806093818E0,1.006621836E1
1.338033233E1,-9.288174010E0,2.670388890E0,-1.986436128E0,9.866462474E0
1.339027833E1,-9.204689219E0,2.510962801E0,-2.135497881E0,9.777095121E0
1.340022433E1,-9.025693669E0,2.226230881E0,-2.344148755E0,9.587193725E0
1.341017033E1,-8.572508728E0,1.974768448E0,-3.045691257E0,9.309342165E0
1.342011733E1,-7.483428560E0,1.832976684E0,-4.824801929E0,9.090666653E0
1.343006333E1,-6.491823231E0,1.976947120E0,-5.939777661E0,9.018483655E0
1.344000933E1,-6.518121668E0,2.222266761E0,-5.309385833E0,8.695628647E0
1.344995533E1,-7.081074634E0,2.783584261E0,-5.192950813E0,9.211769507E0
1.345990133E1,-7.847691969E0,3.758292306E0,-5.508825004E0,1.029845538E1
1.346984733E1,-8.112493070E0,4.314124533E0,-4.961839029E0,1.044241643E1
1.347979333E1,-8.437209420E0,4.114997311E0,-1.820550474E0,9.562118473E0
1.348973933E1,-8.389235939E0,3.520968148E0,2.711300688E0,9.493558225E0
1.349968533E1,-7.645436195E0,3.535904276E0,3.918987533E0,9.290520811E0
1.350963133E1,-5.720486024E0,4.124442611E0,2.894130258E0,7.623055631E0
1.351957733E1,1.497226346E0,4.216456151E0,3.985909501E0,5.992300372E0
1.352952333E1,2.461468693E1,9.094823545E-1,6.963830944E0,2.559697077E1
1.353946933E1,5.859371312E1,-7.651451225E0,5.041566399E0,5.930586240E1
1.354941533E1,7.617100471E1,-1.562330180E1,2.832648540E0,7.780831199E1
1.355936133E1,6.178977313E1,-1.821825518E1,2.588249543E0,6.447154350E1
1.356930733E1,2.570270408E1,-1.202508901E1,-2.996376425E-1,2.837818784E1
1.357925333E1,6.022759007E0,-7.584679531E0,-6.153974034E0,1.147485887E1
1.358919933E1,-2.241352365E0,-7.555895442E0,-1.039476250E1,1.304478071E1
1.359914533E1,-2.512811691E-1,-8.113277181E0,-3.430349754E0,8.812247629E0
1.360909133E1,5.232890804E0,-1.047880803E1,3.122528349E0,1.212182937E1
1.361903733E1,1.007886082E1,-1.435000627E1,5.845971365E0,1.848462866E1
1.362898333E1,1.480933547E1,-1.626793277E1,8.102928779E0,2.344396529E1
1.363892933E1,1.811620138E1,-1.656690792E1,7.959284910E0,2.580715806E1
1.364887533E1,1.963519574E1,-1.568288025E1,5.503009363E0,2.572502200E1
1.365882233E1,1.793994058E1,-1.357040052E1,3.024629002E0,2.269681957E1
1.366876833E1,1.287314695E1,-1.076578353E1,1.380852721E0,1.683825293E1
1.367871433E1,8.008134888E0,-7.780011617E0,7.980303311E-1,1.119355429E1
1.368866033E1,5.206263753E0,-5.616678650E0,5.899243446E-1,7.681163458E0
1.369860633E1,3.955706293E0,-3.954096262E0,6.051873317E-1,5.625721397E0
1.370855233E1,2.872939948E0,-2.767024361E0,8.310296774E-1,4.074410152E0
1.371849833E1,1.800181113E0,-1.596124105E0,1.135568895E0,2.660409914E0
1.372844433E1,9.226929688E-1,1.110164058E-1,8.854624312E-1,1.283639620E0
1.373839033E1,3.836416662E-2,2.055843894E0,3.680456802E-2,2.056531181E0
1.374833633E1,-9.401001298E-1,3.953710638E0,-8.898791255E-1,4.160228470E0
1.375828233E1,-2.395810075E0,5.363823996E0,-2.366377822E0,6.333265964E0
1.376822833E1,-7.768534702E0,7.244042382E0,-2.332871113E1,2.563308496E1
1.377817433E1,-1.077912220E1,1.052728847E1,-3.688505728E1,3.984370375E1
1.378812033E1,-8.539117033E0,9.269923096E0,-1.502008900E1,1.960742379E1
1.379806633E1,-6.883807120E0,8.337579297E0,-2.019494970E0,1.099910855E1
1.380801233E1,-4.493298715E0,7.963421230E0,2.875220363E0,9.585024944E0
1.381795833E1,-2.971348588E0,7.753365270E0,5.618226408E0,1.002537049E1
1.382790433E1,-2.719662791E0,8.197506908E0,6.031961355E0,1.053471608E1
1.383785033E1,-4.079301814E0,8.286100996E0,5.138804426E0,1.056917612E1
1.384779633E1,-5.804408771E0,8.019397795E0,4.207359345E0,1.075656892E1
1.385774233E1,-7.285666956E0,7.346400231E0,3.680832778E0,1.098176075E1
1.386768833E1,-8.475271870E0,6.554930475E0,3.228743606E0,1.119026953E1
1.387763533E1,-9.335396124E0,6.170084283E0,2.999874229E0,1.158528404E1
1.388758133E1,-1.000454388E1,6.191269330E0,3.073053303E0,1.216003169E1
1.389752733E1,-1.050126134E1,6.046155471E0,3.275538872E0,1.255235598E1
1.390747333E1,-1.061961951E1,5.921129721E0,3.153514498E0,1.256108074E1
1.391741933E1,-1.077597406E1,5.818177210E0,3.087297120E0,1.262949748E1
1.392736533E1,-1.065289953E1,5.778906140E0,3.161414087E0,1.252495762E1
1.393731133E1,-1.086313032E1,5.707272486E0,3.091137571E0,1.265447316E1
1.394725733E1,-1.114183668E1,5.509012699E0,2.927235439E0,1.276943432E1
1.395720333E1,-1.127185771E1,5.255418956E0,2.763233904E0,1.274008109E1
1.396714933E1,-1.134778731E1,4.951504660E0,2.453718560E0,1.262182277E1
1.397709533E1,-1.137548674E1,4.594376901E0,2.159421179E0,1.245684942E1
1.398704133E1,-1.117203404E1,4.205689673E0,1.798012966E0,1.207207608E1
1.399698733E1,-1.079787305E1,3.804853099E0,1.362852652E0,1.152945519E1
1.400693333E1,-1.026287621E1,3.522538126E0,9.380138433E-1,1.089104095E1
1.401687933E1,-9.698678954E0,3.317421016E0,5.264458386E-1,1.026385897E1
1.402682533E1,-9.334883323E0,3.181692815E0,2.149120359E-1,9.864552854E0
1.403677133E1,-9.244324570E0,3.087452364E0,2.158792019E-2,9.746300062E0
1.404671733E1,-9.249875332E0,2.941770155E0,-1.702931392E-1,9.707893956E0
1.405666333E1,-9.194674693E0,2.741648030E0,-2.380711395E-1,9.597674432E0
1.406660933E1,-9.153428434E0,2.559534452E0,-1.577438267E-1,9.505858815E0
1.407655533E1,-9.116334867E0,2.469719465E0,-1.745335583E-1,9.446562211E0
1.408650133E1,-8.978855717E0,2.511906542E0,-3.479099526E-1,9.330089271E0
1.409644733E1,-8.594873158E0,2.780495761E0,-1.155037345E0,9.106981528E0
1.410639433E1,-7.490525910E0,3.855375966E0,-8.167836381E0,1.173394449E1
1.411634033E1,-3.628472131E-1,4.822054615E0,-2.361269870E1,2.410276766E1
1.412628633E1,-3.278556036E0,2.429529213E0,-3.795626485E0,5.572999398E0
1.413623233E1,-7.576988688E0,2.448829410E0,4.858685374E0,9.328148081E0
1.414617833E1,-6.966263970E0,2.524047408E0,4.762316828E0,8.807911818E0
1.415612433E1,-3.019711493E0,2.254443111E0,4.783429370E0,6.089529356E0
1.416607033E1,1.563841568E1,-1.833650284E0,4.687028664E0,1.642834612E1
1.417601633E1,4.364902981E1,-1.295543248E1,6.155545181E0,4.594531283E1
1.418596233E1,7.009640253E1,-2.507687892E1,5.890614856E0,7.467968163E1
1.419590833E1,6.911012694E1,-2.677368945E1,6.372181597E0,7.438847216E1
1.420585433E1,4.560766930E1,-1.659141243E1,6.976757968E0,4.903070076E1
1.421580033E1,2.136915012E1,-8.181072139E0,5.005832895E0,2.342282821E1
1.422574633E1,7.664294050E0,-4.620733810E0,-9.257645112E-1,8.997200907E0
1.423569233E1,-1.657909001E0,-6.383269088E0,-2.536208973E1,2.620554106E1
1.424563833E1,1.210151797E1,-9.459682201E0,-1.469362960E1,2.125641257E1
1.425558433E1,2.241011122E1,-8.085675985E0,2.803597818E0,2.398856814E1
1.426553033E1,2.148109390E1,-7.740863339E0,3.932220367E0,2.316939182E1
1.427547633E1,1.770662966E1,-7.953642347E0,8.017488095E0,2.100155413E1
1.428542233E1,1.500143638E1,-6.552002774E0,6.714239620E0,1.769329951E1
1.429536833E1,1.202968960E1,-4.579724363E0,4.761154987E0,1.372428155E1
1.430531433E1,9.139751796E0,-2.886563961E0,3.410460450E0,1.017342395E1
1.431526033E1,6.979341853E0,-1.526321798E0,2.678178551E0,7.629777931E0
1.432520733E1,5.025077251E0,-3.794682160E-1,2.118540956E0,5.466590646E0
1.433515333E1,3.321729537E0,6.102414456E-1,1.632892858E0,3.751349201E0
1.434509933E1,1.668345112E0,1.351651726E0,1.467692644E0,2.600857454E0
1.435504533E1,2.526488328E-1,2.202146784E0,1.632284748E0,2.752750514E0
1.436499133E1,-1.569378648E0,3.033892161E0,1.937038119E0,3.926775733E0
1.437493733E1,-3.044931704E0,4.400066616E0,1.939137708E0,5.691436581E0
1.438488333E1,-3.964580612E0,5.750938908E0,1.104838780E0,7.071906849E0
1.439482933E1,-4.638846438E0,6.847718689E0,-1.123125874E-1,8.271805223E0
1.440477533E1,-5.385642296E0,7.656715474E0,-1.168591191E0,9.433771258E0
1.441472133E1,-6.005556498E0,8.434055432E0,-6.148411578E0,1.204171769E1
1.442466733E1,-7.689815977E0,1.110712995E1,-2.540932822E1,2.877734466E1
1.443461333E1,-9.648436754E0,1.028682289E1,-1.635099013E1,2.159319187E1
1.444455933E1,-9.159437032E0,8.531998048E0,-2.389944148E0,1.274370866E1
1.445450533E1,-8.406033821E0,8.382919192E0,3.694031113E-1,1.187733966E1
1.446445133E1,-8.010549204E0,7.945724632E0,1.965179599E0,1.145274506E1
1.447439671E1,-8.262702777E0,7.278659652E0,2.927585687E0,1.139394144E1
1.448434271E1,-8.946942784E0,6.884565504E0,3.172061867E0,1.172633804E1
1.449428871E1,-9.956617763E0,6.959825016E0,3.267262723E0,1.257968232E1
1.450423471E1,-1.099513706E1,7.264293044E0,3.831025529E0,1.372369298E1
1.451418071E1,-1.109192251E1,7.189076216E0,4.318709042E0,1.390556758E1
1.452412671E1,-1.093270283E1,6.584475871E0,4.301569099E0,1.346784357E1
1.453407271E1,-1.097956007E1,5.930211031E0,3.525046581E0,1.296703882E1
1.454401971E1,-1.107888322E1,5.465072043E0,2.136788946E0,1.253692677E1
1.455396571E1,-1.097345675E1,5.251452205E0,7.124364495E-1,1.218614250E1
1.456391171E1,-1.076029884E1,5.034250948E0,-4.077158225E-1,1.188671300E1
1.457385771E1,-1.049220401E1,4.799322394E0,-1.215418618E0,1.160159828E1
1.458380371E1,-1.028236849E1,4.546488790E0,-1.808648174E0,1.138722399E1
1.459374971E1,-1.003492368E1,4.248714947E0,-2.319121503E0,1.114134626E1
1.460369571E1,-9.661974227E0,3.941824418E0,-2.893944609E0,1.082897230E1
1.461364171E1,-8.993657359E0,3.637508419E0,-4.326498703E0,1.062242586E1
1.462358771E1,-7.716624291E0,3.513484589E0,-6.778920350E0,1.085562645E1
1.463353371E1,-6.748424197E0,3.773567864E0,-7.270509219E0,1.061326283E1
1.464347971E1,-6.818764447E0,4.090608575E0,-5.916948962E0,9.911554475E0
1.465342571E1,-7.343162627E0,4.199417364E0,-4.431814658E0,9.549770926E0
1.466337171E1,-7.891571229E0,4.058580159E0,-3.062873300E0,9.387766626E0
1.467331771E1,-8.136641486E0,3.734274283E0,-1.914167905E0,9.154986502E0
1.468326371E1,-8.235005102E0,3.433563969E0,-8.835213017E-1,8.965783872E0
1.469320971E1,-8.280659577E0,3.266053812E0,9.356487907E-2,8.901976461E0
1.470315571E1,-8.386862555E0,3.398652875E0,8.776904583E-1,9.091790001E0
1.471310171E1,-8.534134621E0,3.878644376E0,1.973194962E0,9.579605122E0
1.472304771E1,-8.534324656E0,4.622267535E0,2.799409457E0,1.010132406E1
1.473299371E1,-8.293040471E0,5.385216619E0,2.946649364E0,1.031783993E1
1.474293971E1,-7.195899332E0,6.397690076E0,2.029552181E0,9.840248348E0
1.475288671E1,-5.135658624E0,6.519306314E0,2.072605814E0,8.554065652E0
1.476283271E1,-3.762594395E0,6.533885761E0,1.027935834E0,7.609561867E0
1.477277871E1,-1.134242892E0,6.976777849E0,9.393750751E-1,7.130523236E0
1.478272471E1,1.070273651E1,5.938119975E0,2.936973976E0,1.258712254E1
1.479267071E1,3.528558653E1,-1.411897343E0,2.762681342E0,3.542172326E1
1.480261671E1,5.637483511E1,-1.295608386E1,2.779710773E0,5.791121597E1
1.481256271E1,6.549845620E1,-2.221504108E1,3.892462808E0,6.927270084E1
1.482250871E1,5.145365002E1,-2.379471317E1,3.514005868E0,5.679801680E1
1.483245471E1,2.562254811E1,-1.559519307E1,2.416053135E0,3.009256272E1
1.484240071E1,9.981428668E0,-8.883557212E0,5.250653476E-1,1.337244183E1
1.485234671E1,1.853410072E0,-7.598152685E0,-2.484378727E0,8.206045990E0
1.486229271E1,-3.145895576E-1,-1.122502151E1,-9.571107911E0,1.475486974E1
1.487223871E1,6.250084133E0,-1.884250275E1,-1.514876517E1,2.497175500E1
1.488218471E1,1.584754486E1,-1.933711288E1,1.368867390E0,2.503881807E1
1.489213071E1,1.695097760E1,-1.635051884E1,7.271993827E0,2.464867141E1
1.490207671E1,1.577817700E1,-1.377192481E1,5.646081374E0,2.169089711E1
1.491202271E1,1.512102598E1,-1.204583025E1,4.265806943E0,1.979758980E1
1.492196871E1,1.362627651E1,-1.036569248E1,2.976598803E0,1.737766188E1
1.493191471E1,1.133189458E1,-8.277891505E0,2.089160451E0,1.418802008E1
1.494186071E1,8.879793359E0,-6.088626722E0,1.542994257E0,1.087671535E1
1.495180671E1,6.669893167E0,-4.031994331E0,1.326522439E0,7.905954397E0
1.496175271E1,5.059413271E0,-2.415307031E0,1.619924319E0,5.835711225E0
1.497169971E1,3.878491471E0,-1.110842335E0,1.896768930E0,4.458071238E0
1.498164571E1,2.500054235E0,4.918268502E-2,2.030820442E0,3.221322987E0
1.499159171E1,5.192456138E-1,1.006312246E0,2.351412751E0,2.609870163E0
1.500153771E1,-1.417607734E0,2.346623881E0,2.324222029E0,3.594198571E0
1.501148371E1,-1.844168547E0,4.559158829E0,9.299324065E-1,5.005163448E0
1.502142971E1,-2.369350255E0,6.124896415E0,-2.517838834E-1,6.572029508E0
1.503137571E1,-3.764864284E0,6.758398377E0,-1.047815344E0,7.806924407E0
1.504132171E1,-4.613050277E0,8.736872790E0,-1.659718831E1,1.931527476E1
1.505126771E1,-7.430175043E0,1.333798305E1,-3.946056165E1,4.231128950E1
1.506121371E1,-1.002963545E1,1.002574472E1,-9.284914772E0,1.695048043E1
1.507115971E1,-9.083109818E0,8.577379459E0,4.354999640E-1,1.250055929E1
1.508110571E1,-7.459042747E0,8.093555692E0,2.928802493E0,1.138950598E1
1.509105171E1,-6.419487911E0,7.323357523E0,3.946490496E0,1.050791024E1
1.510099771E1,-6.833340386E0,6.770369967E0,3.584929671E0,1.026567928E1
1.511094371E1,-8.214227605E0,6.379850805E0,2.878885982E0,1.079184951E1
1.512088971E1,-8.995957654E0,6.253913475E0,2.527262499E0,1.124392029E1
1.513083571E1,-9.580774528E0,6.313071510E0,2.363473803E0,1.171461143E1
1.514078171E1,-1.008728666E1,6.381737117E0,2.647437399E0,1.222656311E1
1.515072771E1,-1.037194783E1,6.381431308E0,2.906357955E0,1.251985958E1
1.516067371E1,-1.048961954E1,6.308922325E0,2.579313244E0,1.250949542E1
1.517062071E1,-1.059652535E1,6.233945818E0,2.020331706E0,1.245914002E1
1.518056671E1,-1.062965567E1,6.096322242E0,1.464552689E0,1.234097400E1
1.519051271E1,-1.071264871E1,5.960460432E0,9.917971176E-1,1.229925171E1
1.520045871E1,-1.099121942E1,5.907661829E0,5.622670877E-1,1.249093739E1
1.521040471E1,-1.075612861E1,5.948314596E0,3.031202441E-1,1.229506531E1
1.522035071E1,-1.053204693E1,5.944771768E0,-2.881624818E-2,1.209401316E1
1.523029671E1,-1.051001579E1,5.806053008E0,-4.055329838E-1,1.201395607E1
1.524024271E1,-1.026434035E1,5.582236211E0,-6.277161419E-1,1.170094319E1
1.525018871E1,-9.692822968E0,5.262940814E0,-7.490780264E-1,1.105488494E1
1.526013471E1,-9.083099293E0,5.013869308E0,-8.551979738E-1,1.041023255E1
1.527008071E1,-8.662140112E0,4.857416821E0,-1.008633079E0,9.982209684E0
1.528002671E1,-8.326396497E0,4.744739513E0,-1.394144027E0,9.684269164E0
1.528997271E1,-7.970402221E0,4.710814553E0,-1.905771303E0,9.452568412E0
1.529991871E1,-7.802252086E0,4.608454950E0,-2.245034357E0,9.335586425E0
1.530986471E1,-7.788816939E0,4.506752574E0,-2.483005509E0,9.334977473E0
1.531981071E1,-7.375679578E0,4.596615508E0,-3.750954927E0,9.465684668E0
1.532975671E1,-7.001147289E0,4.692342029E0,-4.706503986E0,9.653254210E0
1.533970271E1,-7.311824475E0,4.646105756E0,-3.893155119E0,9.497669853E0
1.534964871E1,-7.899510579E0,4.673612228E0,-2.597397512E0,9.538940847E0
1.535959471E1,-8.369667063E0,4.820869676E0,-1.494305077E0,9.773692181E0
1.536954171E1,-8.003723749E0,5.753383044E0,-3.792390636E0,1.056140318E1
1.537948771E1,-6.739998944E0,6.993898496E0,-7.916830031E0,1.253069829E1
1.538943371E1,-4.991023652E0,5.513413898E0,-3.254501175E0,8.117870891E0
1.539937971E1,-6.523001170E0,3.632992614E0,4.069273839E0,8.503362227E0
1.540932571E1,-7.761850165E0,3.659723160E0,3.910859903E0,9.430520493E0
1.541927171E1,-6.633107164E0,3.681451121E0,4.234067672E0,8.687837594E0
1.542921771E1,3.513362675E0,2.395245818E0,5.903735424E0,7.275645110E0
1.543916371E1,3.388883873E1,-7.688378146E0,1.070796860E1,3.636241385E1
1.544910971E1,6.977077343E1,-2.318375164E1,1.116346319E1,7.436444094E1
1.545905571E1,8.721214766E1,-3.083471638E1,6.696163538E0,9.274468739E1
1.546900183E1,6.239130661E1,-2.262480226E1,3.754021792E0,6.647292304E1
1.547894783E1,3.294648743E1,-1.207948449E1,1.654977207E0,3.513010004E1
1.548889383E1,9.678611310E0,-7.989872864E0,-6.806113411E0,1.427714135E1
1.549883983E1,-7.456261227E0,-1.202077610E1,-3.150340396E1,3.453345263E1
1.550878583E1,-7.780837244E-1,-1.432078189E1,-1.415133075E1,2.014821010E1
1.551873183E1,5.209902475E0,-1.742344082E1,-2.863976167E0,1.840982708E1
1.552867783E1,6.802837216E0,-1.921114163E1,3.673183158E0,2.070842417E1
1.553862383E1,1.103950573E1,-1.711838573E1,9.330415465E0,2.240460822E1
1.554856983E1,1.480411975E1,-1.435800877E1,7.737721630E0,2.202695425E1
1.555851583E1,1.499312515E1,-1.084911103E1,5.398562304E0,1.927800526E1
1.556846283E1,1.224482504E1,-7.479785160E0,3.646014948E0,1.480460574E1
1.557840883E1,8.248262494E0,-4.728088105E0,2.440169392E0,9.815450981E0
1.558835483E1,5.404808884E0,-2.515418964E0,1.584788985E0,6.168536923E0
1.559830083E1,4.073795491E0,-6.829401702E-1,1.188359385E0,4.298187409E0
1.560824683E1,3.057904921E0,6.374119949E-1,1.014739253E0,3.284322199E0
1.561819283E1,2.281290017E0,1.950475606E0,8.585047205E-1,3.121805501E0
1.562813883E1,1.388968656E0,3.404576982E0,6.245826191E-1,3.729675830E0
1.563808483E1,4.802581340E-1,5.021359007E0,1.061021134E-2,5.044284560E0
1.564803083E1,-6.374710518E-1,6.287804521E0,-8.567166419E-1,6.377838070E0
1.565797683E1,-1.847949942E0,7.321253110E0,-3.676938825E0,8.398544232E0
1.566792283E1,-2.038501344E0,1.174066641E1,-3.386372845E1,3.589917604E1
1.567786883E1,-4.732522341E0,1.209179054E1,-2.524883150E1,2.839210557E1
1.568781483E1,-6.152088892E0,9.817374508E0,-4.341444186E0,1.237243620E1
1.569776083E1,-5.394820086E0,9.316649950E0,-1.760158823E-1,1.076731311E1
1.570770683E1,-4.077323116E0,9.121846452E0,3.022901734E0,1.043889752E1
1.571765283E1,-4.131108145E0,9.067489566E0,4.265053822E0,1.083863947E1
1.572759883E1,-5.739074323E0,8.315255798E0,4.219238548E0,1.094908339E1
1.573754483E1,-7.231515307E0,7.554414343E0,4.219584703E0,1.127691823E1
1.574749083E1,-8.313091743E0,7.131430271E0,3.941239697E0,1.164036779E1
1.575743683E1,-9.508659064E0,6.876007519E0,3.969018649E0,1.238738010E1
1.576738383E1,-1.070553031E1,6.996248492E0,5.140539880E0,1.378336035E1
1.577732983E1,-1.105229242E1,6.995599451E0,5.622073292E0,1.423725000E1
1.578727583E1,-1.113001361E1,6.607703351E0,4.675807858E0,1.376234448E1
1.579722183E1,-1.129988809E1,6.172306225E0,3.283536109E0,1.328783069E1
1.580716783E1,-1.112567264E1,5.784761542E0,2.096954790E0,1.271382229E1
1.581711383E1,-1.121152848E1,5.445363418E0,1.048166615E0,1.250795774E1
1.582705983E1,-1.138091062E1,5.204815983E0,4.248013135E-1,1.252180866E1
1.583700583E1,-1.135731827E1,4.969674883E0,-1.575463553E-1,1.239803080E1
1.584695183E1,-1.147974143E1,4.561809079E0,-7.564725615E-1,1.237605818E1
1.585689783E1,-1.142996642E1,4.262799428E0,-1.194386914E0,1.225733052E1
1.586684383E1,-1.134837320E1,3.982776270E0,-1.698605184E0,1.214633034E1
1.587678983E1,-1.115673539E1,3.774468043E0,-2.177655137E0,1.197754296E1
1.588673583E1,-1.080283500E1,3.611040997E0,-2.959744204E0,1.176864252E1
1.589668183E1,-9.812116692E0,3.563725328E0,-4.454089041E0,1.134974367E1
1.590662783E1,-8.370937078E0,3.544136278E0,-5.901669602E0,1.083804381E1
1.591657383E1,-7.877115158E0,3.118199070E0,-4.841078823E0,9.757466517E0
1.592651983E1,-8.232790176E0,2.661557840E0,-3.051832588E0,9.174770099E0
1.593646583E1,-8.543127054E0,2.389340131E0,-1.905892779E0,9.073389301E0
1.594641183E1,-8.694000421E0,2.182118609E0,-8.923758135E-1,9.007975329E0
1.595635883E1,-8.635248767E0,2.062672857E0,1.530676804E-2,8.878196601E0
1.596630483E1,-8.310235378E0,2.116986474E0,3.728488390E-1,8.583743940E0
1.597625083E1,-8.090937894E0,2.474260705E0,2.602799974E-1,8.464808782E0
1.598619683E1,-8.040720252E0,2.903025919E0,-6.272378397E-1,8.571707471E0
1.599614283E1,-7.977032964E0,3.583940614E0,-3.045397142E0,9.260244542E0
1.600608883E1,-4.821175486E0,4.099808291E0,-1.180130320E1,1.339115075E1
1.601603483E1,-9.098571610E-1,2.682123959E0,-1.176711570E1,1.210316657E1
1.602598083E1,-6.162582890E0,3.156975465E0,2.111672232E0,7.238997277E0
1.603592683E1,-6.350792482E0,3.637215181E0,5.712235603E0,9.283939628E0
1.604587283E1,-3.543754748E0,4.023107733E0,6.020973267E0,8.061991852E0
1.605581883E1,1.908566974E1,3.663485259E-2,5.971367828E0,1.999803403E1
1.606576483E1,5.728797373E1,-1.102102385E1,-5.240146029E-1,5.834080469E1
1.607571083E1,8.236311253E1,-2.312494268E1,-5.699058902E-1,8.554981047E1
1.608565683E1,6.574917077E1,-2.516252660E1,5.470586552E0,7.061185112E1
1.609560283E1,2.605845803E1,-1.329417805E1,4.576034478E0,2.960943256E1
1.610554883E1,7.097840940E0,-6.273168941E0,2.613463907E0,9.826606137E0
1.611549483E1,-1.717027275E0,-4.084898476E0,-9.276419060E-1,4.527151172E0
1.612544083E1,-6.509834409E0,-5.124358295E0,-7.565595973E0,1.121941328E1
1.613538683E1,-2.718529601E0,-9.155431105E0,-5.921936637E0,1.123751109E1
1.614533383E1,6.754946766E0,-1.110229430E1,6.070733072E0,1.434378069E1
1.615527983E1,1.252538263E1,-1.172915207E1,1.058475607E1,2.016172809E1
1.616522583E1,1.687065791E1,-1.284637021E1,8.100332031E0,2.269942081E1
1.617517183E1,2.100415289E1,-1.313312117E1,5.239430915E0,2.532005029E1
1.618511783E1,2.152055091E1,-1.217529580E1,2.101657705E0,2.481509428E1
1.619506383E1,1.578442534E1,-1.034748308E1,-7.503089384E-1,1.888865937E1
1.620500983E1,8.497203607E0,-7.848600626E0,-2.027155992E0,1.174360943E1
1.621495583E1,4.737449205E0,-5.263324392E0,-2.205821759E0,7.416984445E0
1.622490183E1,3.007424154E0,-3.085123125E0,-1.566919894E0,4.584519898E0
1.623484783E1,1.920833731E0,-1.338954205E0,-5.499476621E-1,2.405170059E0
1.624479383E1,1.290523764E0,1.685459912E-2,1.453619273E-1,1.298793961E0
1.625473983E1,3.339426720E-1,1.074849799E0,3.738779855E-1,1.186003603E0
1.626468583E1,-9.676013392E-1,2.057801249E0,4.455461383E-1,2.317177096E0
1.627463183E1,-2.294249786E0,3.336829972E0,3.237146493E-1,4.062364769E0
1.628457783E1,-2.989574944E0,4.985178190E0,-2.741839819E-1,5.819341611E0
1.629452383E1,-3.799266962E0,6.032630276E0,-8.114298836E-1,7.175338037E0
1.630446983E1,-5.088982641E0,6.737540190E0,-1.174933666E0,8.524826171E0
1.631441583E1,-6.684435192E0,7.847900130E0,-7.655265364E0,1.284033871E1
1.632436183E1,-9.543590330E0,1.105794317E1,-2.561375857E1,2.948597720E1
1.633430883E1,-1.016336478E1,9.939361460E0,-1.151433239E1,1.829384433E1
1.634425483E1,-8.997806543E0,8.247655553E0,9.466992974E-2,1.220628146E1
1.635420083E1,-7.479831938E0,8.435509635E0,3.476826932E0,1.179805213E1
1.636414683E1,-5.764938312E0,8.937166824E0,4.737422892E0,1.164262171E1
1.637409283E1,-4.857090839E0,8.808054455E0,4.483768923E0,1.101259908E1
1.638403883E1,-5.860198810E0,8.007290550E0,3.638105419E0,1.056855918E1
1.639398483E1,-7.264829233E0,7.557672411E0,3.017667307E0,1.090882542E1
1.640393083E1,-8.529417672E0,7.577072888E0,2.373293617E0,1.165313357E1
1.641387683E1,-9.672892148E0,7.732369089E0,2.365102837E0,1.260746151E1
1.642382283E1,-9.958079567E0,7.639253349E0,2.842085946E0,1.286852722E1
1.643376883E1,-9.919849302E0,7.272550482E0,3.102057831E0,1.268527349E1
1.644371483E1,-9.896390272E0,6.954471890E0,2.842366612E0,1.242506610E1
1.645366083E1,-9.912319257E0,6.674955102E0,2.224604185E0,1.215557331E1
1.646360683E1,-1.000725114E1,6.377192076E0,1.599668394E0,1.197382951E1
1.647355263E1,-1.001994779E1,6.122934675E0,9.966888982E-1,1.178486620E1
1.648349862E1,-9.961166897E0,5.905262716E0,5.014612343E-1,1.159087732E1
1.649344462E1,-1.008962789E1,5.654326533E0,2.379458629E-2,1.156600906E1
1.650339063E1,-9.985583700E0,5.393295717E0,-4.166528530E-1,1.135663331E1
1.651333762E1,-1.006465677E1,5.168027641E0,-8.722799566E-1,1.134754149E1
1.652328363E1,-1.021578975E1,5.039792354E0,-1.423845543E0,1.147994788E1
1.653322962E1,-1.024181921E1,4.916999656E0,-2.254308625E0,1.158247184E1
1.654317563E1,-9.763775421E0,4.595543128E0,-2.904720735E0,1.117531788E1
1.655312162E1,-8.979579018E0,4.120981936E0,-3.173165236E0,1.037710504E1
