"Time (s)","Linear Acceleration x (m/s^2)","Linear Acceleration y (m/s^2)","Linear Acceleration z (m/s^2)","Absolute acceleration (m/s^2)"
4.686291795E-3,-1.341522477E1,2.637576655E-2,-1.636689456E0,1.351472174E1
1.463329187E-2,-1.238050383E1,-2.758565779E-1,-1.260981876E0,1.244761211E1
2.457929170E-2,-1.069339851E1,-2.445657881E-1,-1.141464057E0,1.075692913E1
3.452529199E-2,-9.498541042E0,2.061099663E-1,-9.656624025E-1,9.549726023E0
4.447229160E-2,-8.960407752E0,5.736881617E-1,-9.587492394E-1,9.029796525E0
5.441829190E-2,-8.607655756E0,8.673267071E-1,-1.160642048E0,8.728750380E0
6.436429173E-2,-8.481150076E0,1.132702151E0,-1.496185541E0,8.686281826E0
7.431029202E-2,-8.422787848E0,1.368344942E0,-1.618636762E0,8.685373220E0
8.425729163E-2,-8.357697228E0,1.635650990E0,-1.492066762E0,8.645965552E0
9.420329193E-2,-8.290800987E0,1.898752306E0,-9.586890131E-1,8.559306395E0
1.041492918E-1,-8.228795359E0,1.996821514E0,-1.592692374E-1,8.469104788E0
1.140962918E-1,-8.307424037E0,1.931683824E0,9.969492455E-1,8.587118511E0
1.240422917E-1,-8.994639691E0,1.445214778E0,2.755518503E0,9.517618985E0
1.339882920E-1,-9.845480905E0,4.916952878E-1,4.464425749E0,1.082156901E1
1.439352920E-1,-8.786001096E0,-1.517237125E0,6.923368796E0,1.128843919E1
1.538812919E-1,-5.316894827E0,-7.241425753E0,6.990953254E0,1.138336703E1
1.638272917E-1,2.935886979E-2,-6.157995749E0,4.158174906E0,7.430490706E0
1.737742918E-1,9.916321092E0,-6.259402841E0,-7.119879681E0,1.371882774E1
1.837202921E-1,4.218291299E1,-1.105117677E1,-3.240483645E1,5.432863041E1
1.936662919E-1,9.377700846E1,-2.225007292E1,-4.840663788E1,1.078535843E2
2.036132920E-1,6.903291563E1,-2.854655588E1,-2.341749292E1,7.828683329E1
2.135592918E-1,2.346060093E1,-1.880758552E1,3.122083375E0,3.023032374E1
2.235052916E-1,2.379302449E1,-6.979799690E0,3.239865010E0,2.500644604E1
2.334522917E-1,2.009619490E1,-5.306379780E0,-5.534352193E0,2.150915550E1
2.433982920E-1,1.759100214E1,-6.753710665E0,-9.246274617E0,2.098927245E1
2.533442918E-1,1.309669887E1,-7.592006092E0,-6.517022392E0,1.648131241E1
2.632902917E-1,6.275725343E0,-8.277913724E0,-2.827639815E0,1.076587809E1
2.732372917E-1,2.828971226E0,-8.664338665E0,-4.408811931E-1,9.125142132E0
2.831832920E-1,2.002487174E0,-7.852149886E0,2.312861474E0,8.427071906E0
2.931292919E-1,-4.942774183E-1,-5.049996330E0,7.014324574E0,8.657223708E0
3.030762919E-1,-2.980249220E0,-1.280988417E0,1.055496334E1,1.104219488E1
3.130222918E-1,-5.379284034E0,1.362004806E0,9.900608454E0,1.134961680E1
3.229682921E-1,-7.631889365E0,2.640824198E0,6.840975680E0,1.058388568E1
3.329152917E-1,-9.405834022E0,3.249264409E0,3.841181558E0,1.066686967E1
3.428612920E-1,-1.082803065E1,3.311650107E0,1.481666320E0,1.141965890E1
3.528072918E-1,-1.159733478E1,3.183128892E0,1.646826627E-1,1.202736895E1
3.627542919E-1,-1.182721339E1,2.917139052E0,-7.545440767E-1,1.220499953E1
3.727002917E-1,-1.178948598E1,2.449863490E0,-1.142788159E0,1.209544442E1
3.826462920E-1,-1.177922997E1,2.003789933E0,-1.226346041E0,1.201121798E1
3.925932921E-1,-1.177945099E1,1.593929645E0,-1.134750577E0,1.194084320E1
4.025392919E-1,-1.175771221E1,1.174529916E0,-1.354657195E0,1.189362910E1
4.124852917E-1,-1.196820730E1,7.433287516E-1,-1.733860239E0,1.211597272E1
4.224322918E-1,-1.242494267E1,7.093681231E-2,-2.374959927E0,1.265008565E1
4.323782916E-1,-1.294328664E1,-3.645953844E-1,-3.103077586E0,1.331505499E1
4.423242919E-1,-1.573268917E1,3.044382066E-2,-5.298813483E0,1.660108008E1
4.522702917E-1,-2.185844513E1,4.737735718E-1,-8.682552742E0,2.352451502E1
4.622172918E-1,-2.141785509E1,1.019002896E0,-7.825286608E0,2.282538048E1
4.721632916E-1,-1.723959266E1,1.914651762E0,-5.595835665E0,1.822588333E1
4.821092919E-1,-1.334765903E1,2.548117179E0,-4.301376141E0,1.425323610E1
4.920562920E-1,-1.107551639E1,3.015048923E0,-3.333054425E0,1.195269154E1
5.020022918E-1,-9.698609957E0,3.113499078E0,-2.078296763E0,1.039597177E1
5.119482917E-1,-8.803831596E0,3.197820313E0,-8.766870761E-1,9.407554717E0
5.218952917E-1,-8.369840140E0,3.186767614E0,-5.575312816E-2,8.956161020E0
5.318412920E-1,-8.185504328E0,2.988625064E0,4.410355961E-1,8.725186145E0
5.417872919E-1,-8.107462710E0,2.785164178E0,6.513517570E-1,8.597229217E0
5.517342919E-1,-8.115237168E0,2.664974076E0,6.292469430E-1,8.564759940E0
5.616802918E-1,-8.026992159E0,2.668661038E0,6.418979788E-1,8.483300529E0
5.716262916E-1,-7.986915343E0,2.751939130E0,5.028441374E-1,8.462673212E0
5.815732917E-1,-7.952696267E0,2.802869840E0,2.009844798E-1,8.434562942E0
5.915192920E-1,-7.832148315E0,2.646841275E0,4.294148397E-1,8.278448712E0
6.014652918E-1,-7.639407715E0,2.427387086E0,8.276961797E-1,8.058401781E0
6.114122919E-1,-7.403863158E0,2.196712089E0,1.327708547E0,7.836168939E0
6.213582917E-1,-7.172691733E0,1.700658872E0,2.259366467E0,7.710024911E0
6.313042920E-1,-6.699360210E0,1.504985601E-2,3.611836803E0,7.610980148E0
6.412502918E-1,-3.741652592E0,-5.035956581E0,4.264067981E0,7.585716746E0
6.511972919E-1,7.461485714E-1,-6.889320459E0,6.050857801E0,9.199584459E0
6.611432917E-1,1.015678433E1,-7.618413287E0,-1.816984842E0,1.282583030E1
6.710892920E-1,4.678063947E1,-1.126078074E1,-2.899073611E1,5.617558360E1
6.810362916E-1,8.671631312E1,-2.168326255E1,-5.003255208E1,1.024360244E2
6.909822919E-1,4.359691475E1,-2.372026876E1,-2.310944522E1,5.474841171E1
7.009282918E-1,2.372822565E1,-1.204679154E1,-2.373448860E0,2.671679506E1
7.108752918E-1,2.524921040E1,-1.222566254E0,2.921720345E0,2.544707732E1
7.208212917E-1,2.036574687E1,-1.177717818E0,-2.264753068E0,2.052510100E1
7.307672920E-1,1.938585877E1,-3.280426560E0,-8.347806662E0,2.136021055E1
7.407142920E-1,1.886505429E1,-5.086563647E0,-8.409466721E0,2.127163684E1
7.506602919E-1,1.353942665E1,-7.532241701E0,-4.898555199E0,1.624951021E1
7.606062917E-1,8.379136044E0,-9.417303336E0,-2.450956335E0,1.284144501E1
7.705532918E-1,6.335278065E0,-9.472741957E0,2.180052495E-1,1.139807504E1
7.804992916E-1,3.184471997E0,-7.317617311E0,5.292839967E0,9.576144315E0
7.904452919E-1,-2.928402543E-1,-4.743102293E0,1.016056748E1,1.121694728E1
8.003912917E-1,-3.527196602E0,-2.229971637E0,1.113610524E1,1.189229706E1
8.103382918E-1,-6.103954028E0,-3.719326168E-1,8.538939278E0,1.050286021E1
8.202842916E-1,-8.076247349E0,9.265541777E-1,4.729561311E0,9.404946788E0
8.302302919E-1,-9.125899158E0,1.282022205E0,1.396437889E0,9.320711086E0
8.401772920E-1,-9.555757216E0,8.228993433E-1,-8.527684557E-1,9.628960138E0
8.501232918E-1,-1.021988748E1,4.185216963E-1,-1.711490546E0,1.037065381E1
8.600692917E-1,-1.100033406E1,4.495076269E-2,-1.604373064E0,1.111680633E1
8.700162917E-1,-1.161372570E1,-3.392463890E-1,-1.221952296E0,1.168275995E1
8.799622920E-1,-1.200987573E1,-7.039234883E-1,-6.572036505E-1,1.204842479E1
8.899082919E-1,-1.251262985E1,-1.199806844E0,1.286685743E-1,1.257068009E1
8.998552919E-1,-1.311086316E1,-1.665730529E0,1.236956837E0,1.327401421E1
9.098011670E-1,-1.343354293E1,-1.983987460E0,1.945836425E0,1.371796491E1
9.197471668E-1,-1.366646559E1,-2.279717409E0,1.690849875E0,1.395809323E1
9.296941669E-1,-1.378319356E1,-2.560956495E0,9.976823401E-1,1.405454706E1
9.396401667E-1,-1.414853812E1,-2.974200275E0,3.428608453E-1,1.446183086E1
9.495861670E-1,-1.421736920E1,-3.012630223E0,-9.297186177E-2,1.453334689E1
9.595331666E-1,-1.456220056E1,-2.599542563E0,-5.936279710E-1,1.480431359E1
9.694791669E-1,-1.713067657E1,-2.214734378E0,-1.805430744E0,1.736734604E1
9.794251667E-1,-1.711790158E1,-1.157249712E0,-1.607506002E0,1.723211702E1
9.893711670E-1,-1.419264250E1,5.797960170E-1,-8.543996827E-1,1.423015331E1
9.993181666E-1,-1.021892152E1,1.673943236E0,-1.193413279E0,1.042365954E1
1.009264167E0,-8.564460036E0,1.968774467E0,-8.106884567E-1,8.825149538E0
1.019210167E0,-7.764597187E0,2.072805935E0,-8.427255705E-2,8.036951896E0
1.029157167E0,-7.353363680E0,1.948669693E0,5.227305543E-1,7.625124144E0
1.039103167E0,-7.061415710E0,1.648142104E0,8.062726394E-1,7.295891981E0
1.049049167E0,-6.897193151E0,1.136020811E0,7.600303730E-1,7.031320133E0
1.058996167E0,-6.958225218E0,4.827005160E-1,6.375523281E-1,7.004025339E0
1.068942167E0,-7.208733385E0,-1.763321435E-1,6.425259697E-1,7.239459211E0
1.078888167E0,-7.693387456E0,-8.717437669E-1,6.378609880E-1,7.768848974E0
1.088835167E0,-8.984278425E0,-1.490750262E0,1.074843367E0,9.170326244E0
1.098781167E0,-1.004971362E1,-1.770145428E0,1.884735360E0,1.037701239E1
1.108727167E0,-9.772543906E0,-2.022154868E0,2.769110355E0,1.035662575E1
1.118674167E0,-8.585396576E0,-2.155968398E0,4.062743669E0,9.739770029E0
1.128620167E0,-6.323422251E0,-1.864186783E0,5.770686125E0,8.761374303E0
1.138566167E0,-1.191551453E0,-2.099954704E0,6.685514588E0,7.108143916E0
1.148513167E0,2.177003172E0,-3.532220238E0,3.449111130E0,5.395580618E0
1.158459167E0,9.089311375E0,-1.963496332E0,-6.568452746E0,1.138487903E1
1.168405167E0,2.636740620E1,1.062178444E0,-2.536138807E1,3.660011390E1
1.178352167E0,5.011622340E1,3.989686802E-2,-3.669530110E1,6.211427020E1
1.188298167E0,5.523527827E1,-2.786814263E0,-1.855495774E1,5.833514169E1
1.198244167E0,5.229359086E1,-1.096863514E1,-9.520382731E0,5.427308991E1
1.208190167E0,2.878087018E1,-1.614684161E1,-3.504701487E0,3.318647187E1
1.218137167E0,1.771351534E1,-7.577730700E0,3.644724467E-1,1.926975527E1
1.228083167E0,1.657368017E1,-2.021921418E0,-4.369005329E0,1.725871513E1
1.238029167E0,1.598659165E1,-1.790180767E0,-8.831179608E0,1.835117416E1
1.247976167E0,1.527384997E1,-2.411472865E0,-9.391144062E0,1.809141457E1
1.257922167E0,1.493841275E1,-2.622450785E0,-6.980818859E0,1.669626472E1
1.267868167E0,1.298478901E1,-2.063429194E0,-2.144621730E0,1.332148220E1
1.277815167E0,8.033726982E0,-1.009536985E0,2.569819704E0,8.494934223E0
1.287761167E0,3.000049646E0,1.045569867E-1,5.329181582E0,6.116486440E0
1.297707167E0,-1.324819438E0,8.146533805E-1,5.303824546E0,5.527147681E0
1.307654167E0,-4.168908055E0,1.165084616E0,3.748734155E0,5.726274906E0
1.317600167E0,-6.199775859E0,1.496276758E0,2.593783933E0,6.885040300E0
1.327546167E0,-7.758115548E0,1.519842791E0,1.378271760E0,8.024830965E0
1.337493167E0,-8.788098493E0,1.079806776E0,-3.427450705E-1,8.860820051E0
1.347439167E0,-9.562098522E0,8.376817623E-1,-1.646415714E0,9.738897452E0
1.357385167E0,-1.016028915E1,7.663352063E-1,-2.250339535E0,1.043469086E1
1.367331167E0,-1.070827850E1,5.818927189E-1,-2.388083564E0,1.098675433E1
1.377278167E0,-1.100224493E1,1.809453043E-1,-2.299928602E0,1.124152153E1
1.387224167E0,-1.114827564E1,-4.279480657E-1,-1.984304087E0,1.133157764E1
1.397170167E0,-1.152810609E1,-1.389329429E0,-1.222324033E0,1.167568166E1
1.407117167E0,-1.265390560E1,-3.012258632E0,6.119586267E-2,1.300764290E1
1.417063167E0,-1.466713937E1,-5.012351371E0,7.943488511E-1,1.552029747E1
1.427009167E0,-1.573913514E1,-5.787473481E0,1.398015468E0,1.682764605E1
1.436956167E0,-1.530169442E1,-5.415226284E0,1.948878146E0,1.634823091E1
1.446902167E0,-1.478753822E1,-4.457328106E0,1.821196007E0,1.555171422E1
1.456848167E0,-1.561877255E1,-3.272545975E0,4.907953282E-1,1.596547817E1
1.466795167E0,-1.656449068E1,-1.898371067E0,-1.223970682E0,1.671778300E1
1.476741167E0,-1.646476759E1,-8.506628734E-1,-2.224740425E0,1.663615548E1
1.486687167E0,-1.571944172E1,-2.078538984E-2,-2.745311603E0,1.595738123E1
1.496634167E0,-1.359249364E1,8.143180427E-1,-2.704108028E0,1.388276620E1
1.506580167E0,-1.061407752E1,1.628988672E0,-2.973224959E0,1.114236565E1
1.516526167E0,-9.207005886E0,2.419006856E0,-2.683314160E0,9.890436109E0
1.526473167E0,-8.814581702E0,2.954056617E0,-1.964510093E0,9.501715686E0
1.536419167E0,-8.646062608E0,3.074727653E0,-1.436140484E0,9.288210175E0
1.546365167E0,-8.644217227E0,2.942654839E0,-9.162177622E-1,9.177208941E0
1.556311167E0,-8.748118740E0,2.615525635E0,-3.851654506E-1,9.138867997E0
1.566258167E0,-8.749554232E0,2.258156386E0,-6.853873213E-2,9.036518526E0
1.576204167E0,-8.706180171E0,1.982093255E0,1.913729364E-1,8.931007247E0
1.586150167E0,-8.621766257E0,1.692424530E0,5.372632241E-1,8.802715829E0
1.596097167E0,-8.377792354E0,1.283947108E0,9.507069790E-1,8.528761262E0
1.606043167E0,-8.179668807E0,9.137325494E-1,1.687303539E0,8.401719002E0
1.615989167E0,-8.194550555E0,3.017450521E-1,2.588761759E0,8.599034616E0
1.625936167E0,-8.041244162E0,-7.336096559E-1,4.876559143E0,9.432953932E0
1.635882167E0,-7.264387184E0,-3.084129683E0,8.729103595E0,1.176777067E1
1.645828167E0,-4.032413576E0,-5.929691799E0,1.109531156E1,1.321088728E1
1.655775167E0,2.331280788E0,-8.044705714E0,1.020585650E1,1.320271438E1
1.665721167E0,2.332685874E1,-8.593549933E0,-1.026303291E0,2.488060967E1
1.675667167E0,1.013661611E2,-9.799121840E0,-4.010336244E1,1.094504504E2
1.685614167E0,7.954896458E1,-1.738208463E1,-4.777674774E1,9.440758580E1
1.695560167E0,1.478263357E1,-1.195967387E1,-1.953181580E1,2.725897803E1
1.705506167E0,1.408032801E1,-2.708231485E0,-8.038003635E0,1.643775097E1
1.715453167E0,1.815245529E1,2.436112886E0,-5.255758095E0,1.905437672E1
1.725399167E0,2.025290262E1,2.002520503E0,-8.092749946E0,2.190166100E1
1.735345167E0,2.073078386E1,1.202650784E0,-8.954593281E0,2.261407768E1
1.745291167E0,1.798422154E1,-3.381253316E-1,-6.229804820E0,1.903567759E1
1.755238167E0,1.327786900E1,-1.971035585E0,-1.155280005E0,1.347298995E1
1.765184167E0,8.156990381E0,-2.923120461E0,4.419910312E0,9.727113265E0
1.775130167E0,4.012607303E0,-3.194834433E0,8.412524815E0,9.852845182E0
1.785077167E0,8.324949896E-1,-2.761398170E0,1.030903413E1,1.070488451E1
1.795023167E0,-2.242365103E0,-1.886330773E0,9.527425117E0,9.967862078E0
1.804969167E0,-4.861336502E0,-8.611542401E-1,7.163855420E0,8.700287564E0
1.814916167E0,-6.788441956E0,-1.053633177E-1,4.035564641E0,7.898090123E0
1.824862167E0,-7.924140220E0,4.070905358E-1,1.125652163E0,8.014038540E0
1.834808167E0,-8.981422645E0,8.971254337E-1,-5.831159198E-1,9.044932888E0
1.844755167E0,-1.006400305E1,1.079306255E0,-1.399998844E0,1.021807497E1
1.854701167E0,-1.094425693E1,8.070920536E-1,-1.944110327E0,1.114485182E1
1.864647167E0,-1.153934911E1,3.741346782E-1,-2.065470457E0,1.172871361E1
1.874593167E0,-1.189975277E1,-1.824752283E-1,-1.858261507E0,1.204535384E1
1.884540167E0,-1.219615047E1,-6.865604737E-1,-1.615464063E0,1.232181707E1
1.894486167E0,-1.240214554E1,-1.242693247E0,-9.787923253E-1,1.250262113E1
1.904432125E0,-1.257640894E1,-1.883215084E0,1.027554595E-1,1.271704052E1
1.914379125E0,-1.287196464E1,-2.819865941E0,1.151512059E0,1.322743731E1
1.924325125E0,-1.369264358E1,-4.316473944E0,1.016397523E0,1.439282806E1
1.934271125E0,-1.411969030E1,-5.056174498E0,5.592335157E-1,1.500810770E1
1.944218125E0,-1.410762632E1,-4.902501485E0,5.914242285E-1,1.494688676E1
1.954164125E0,-1.431387633E1,-4.602625568E0,5.718810797E-1,1.504653667E1
1.964110125E0,-1.518730300E1,-4.139084624E0,-4.605898547E-1,1.574796294E1
1.974057125E0,-1.588613298E1,-3.130323272E0,-1.706190630E0,1.628125398E1
1.984003125E0,-1.434257095E1,-2.176299898E0,-1.919182477E0,1.463314335E1
1.993949125E0,-9.750612754E0,-1.251728219E0,-1.795144322E0,9.993188468E0
2.003896125E0,-8.167572087E0,-4.269435140E-1,-1.266690513E0,8.276232199E0
2.013842125E0,-7.995159332E0,4.321364263E-1,-4.562067819E-1,8.019815413E0
2.023788125E0,-7.642216718E0,9.868598749E-1,-4.752728345E-2,7.705817777E0
2.033735125E0,-7.204649105E0,1.365067139E0,-7.993264396E-2,7.333264365E0
2.043681125E0,-6.871968262E0,1.562889554E0,-2.020224337E-1,7.050346418E0
2.053627125E0,-6.783373590E0,1.546875931E0,-2.663289785E-1,6.962608242E0
2.063573125E0,-7.278445644E0,1.068618129E0,-1.946046925E-1,7.359047947E0
2.073520125E0,-8.519719480E0,1.071934962E-1,1.462084579E-1,8.521648161E0
2.083466125E0,-9.239339234E0,-6.307164945E-1,6.871274344E-1,9.286298342E0
2.093412125E0,-9.476442075E0,-1.186741826E0,1.308119205E0,9.639631031E0
2.103359125E0,-8.699333666E0,-1.627611799E0,2.177241154E0,9.114159613E0
2.113305125E0,-7.477044570E0,-1.599325017E0,3.624506550E0,8.461742358E0
2.123251125E0,-3.843864845E0,-8.063178822E-1,4.357433982E0,5.866231872E0
2.133198125E0,6.204118001E-1,-3.391102366E0,6.136621252E0,7.038650897E0
2.143144125E0,8.071118757E0,-3.013488302E0,-6.838821566E-1,8.642439733E0
2.153090125E0,2.006458486E1,1.992536967E0,-1.609902074E1,2.580186501E1
2.163037125E0,3.623657066E1,6.435305799E0,-3.093245610E1,4.807617970E1
2.172983125E0,5.584050719E1,7.756197077E0,-2.589393843E1,6.203883368E1
2.182929125E0,7.450088555E1,2.115642052E0,-1.806606034E1,7.668924582E1
2.192876125E0,3.835820714E1,-1.395652959E1,-1.381716705E1,4.309351318E1
2.202822125E0,1.940152463E1,-9.998396119E0,-7.472456260E0,2.306999535E1
2.212768125E0,1.703157679E1,-2.987855570E0,-8.023729413E0,1.906258437E1
2.222715125E0,1.508686888E1,-2.609349221E0,-9.514599835E0,1.802636752E1
2.232661125E0,1.399989488E1,-3.210690912E0,-7.745337628E0,1.631857371E1
2.242607125E0,1.179708268E1,-4.150519439E0,-2.580907195E0,1.276945784E1
2.252553125E0,8.698820865E0,-3.488455290E0,4.685329463E0,1.047812564E1
2.262500125E0,4.578734137E0,-1.920151214E0,1.058952389E1,1.169571731E1
2.272446125E0,9.139665842E-2,-2.923195598E-1,1.389577936E1,1.389915422E1
2.282392125E0,-3.674640577E0,5.040383215E-1,1.185011927E1,1.241701915E1
2.292339125E0,-5.153589111E0,-5.149690334E-1,6.682070578E0,8.454273537E0
2.302285125E0,-6.668537198E0,-1.197017430E0,2.575961620E0,7.248297548E0
2.312231125E0,-8.663807738E0,-1.005111812E0,5.165617418E-1,8.737199226E0
2.322178125E0,-1.040388064E1,-7.366179022E-1,-3.866026962E-1,1.043708772E1
2.332124125E0,-1.141810359E1,-8.708850302E-1,-9.379068393E-1,1.148961268E1
2.342070125E0,-1.187811691E1,-1.278262006E0,-1.084610556E0,1.199583240E1
2.352017125E0,-1.222647530E1,-1.615300341E0,-7.988963038E-1,1.235856500E1
2.361963125E0,-1.271409684E1,-2.116677156E0,-2.038450474E-1,1.289069949E1
2.371909125E0,-1.307347139E1,-2.744432766E0,7.670447659E-1,1.338043060E1
2.381856125E0,-1.344424567E1,-3.442257609E0,1.667650462E0,1.397776582E1
2.391802125E0,-1.425524279E1,-4.634204918E0,1.238879986E0,1.504069898E1
2.401748125E0,-1.523349951E1,-5.620741881E0,-2.121252529E-1,1.623875746E1
2.411694125E0,-1.618325456E1,-5.794566153E0,-1.567287683E0,1.726068121E1
2.421641125E0,-1.844844602E1,-5.239853668E0,-3.311785762E0,1.946199250E1
2.431587125E0,-1.954156428E1,-3.899780307E0,-4.186625118E0,2.036194615E1
2.441533125E0,-1.697491260E1,-2.562584652E0,-3.036019378E0,1.743364309E1
2.451480125E0,-1.201010143E1,-1.518505679E0,-2.185937133E0,1.230149247E1
2.461426125E0,-9.194548393E0,-6.088989249E-1,-1.602966078E0,9.353073201E0
2.471372125E0,-7.991808293E0,3.027780358E-1,-6.627291962E-1,8.024953851E0
2.481319125E0,-7.352274928E0,9.375554216E-1,-9.035117626E-3,7.411817484E0
2.491265125E0,-7.217395450E0,1.241114353E0,6.769638041E-1,7.354552462E0
2.501211125E0,-7.347049271E0,1.235334673E0,1.201126926E0,7.546382620E0
2.511158125E0,-7.674911424E0,9.013520935E-1,1.524317665E0,7.876563039E0
2.521104125E0,-7.974707526E0,4.675622208E-1,1.688796187E0,8.164962163E0
2.531050125E0,-8.154914035E0,6.382235885E-2,1.826363776E0,8.357170624E0
2.540997125E0,-8.248701620E0,-2.832595184E-1,1.978566945E0,8.487404875E0
2.550943125E0,-8.220925591E0,-5.927014066E-1,2.022181181E0,8.486703085E0
2.560889125E0,-8.088561001E0,-9.026795577E-1,1.976577576E0,8.375351238E0
2.570835125E0,-8.219164410E0,-1.141334395E0,2.001119510E0,8.535911614E0
2.580782125E0,-9.580633026E0,-1.513401206E0,2.571902483E0,1.003461981E1
2.590728125E0,-1.056341725E1,-2.169499440E0,3.442641771E0,1.132008366E1
2.600674125E0,-9.705983881E0,-2.936084615E0,4.240756302E0,1.099139345E1
2.610621125E0,-8.348639306E0,-3.560690038E0,5.709594415E0,1.072276831E1
2.620567125E0,-5.580143493E0,-4.030558839E0,8.864147379E0,1.122303500E1
2.630513125E0,-2.573979998E0,-5.449685095E0,1.063419311E1,1.222335894E1
2.640460125E0,3.745010063E0,-4.813980779E0,4.002429639E0,7.295132235E0
2.650406125E0,2.024189115E1,-6.164739197E-1,-1.514222798E1,2.528638498E1
2.660352125E0,4.999938668E1,3.079131191E0,-4.506890217E1,6.738416476E1
2.670299125E0,9.020505200E1,2.099680469E0,-5.058082912E1,1.034397426E2
2.680245125E0,4.861514491E1,-8.311688996E0,-2.263179787E1,5.426522610E1
2.690191125E0,2.039812173E1,-3.002492613E0,-1.274402990E0,2.065726107E1
2.700138125E0,1.603568604E1,3.114389024E0,4.032108936E0,1.682559206E1
2.710084125E0,1.435770589E1,2.399575682E0,-3.397994771E0,1.494817883E1
2.720030125E0,1.688630974E1,7.725145438E-1,-9.956213136E0,1.961811447E1
2.729976125E0,1.888593236E1,-1.746153426E0,-1.174710302E1,2.230968226E1
2.739923125E0,1.606179620E1,-3.027077523E0,-8.917675130E0,1.861906080E1
2.749869125E0,1.105613755E1,-2.890375761E0,-2.682683538E0,1.173836618E1
2.759815125E0,7.672237492E0,-1.779285504E0,2.947101939E0,8.409191095E0
2.769762125E0,4.672903545E0,-4.426378794E-2,7.030605562E0,8.442002215E0
2.779708125E0,9.368479085E-1,1.211417660E0,8.439964628E0,8.577774751E0
2.789654125E0,-2.559615144E0,1.152948062E0,6.561981633E0,7.137262911E0
2.799601125E0,-4.845744317E0,1.981717864E-1,4.213555055E0,6.424527705E0
2.809547125E0,-7.003462202E0,-8.723760702E-2,2.414783120E0,7.408594383E0
2.819493125E0,-9.089681504E0,1.527438909E-2,9.032381129E-1,9.134461245E0
2.829440125E0,-1.064253826E1,-3.404431678E-2,-1.739113597E-1,1.064401356E1
2.839386125E0,-1.158648469E1,-3.789866247E-1,-6.604991412E-1,1.161148214E1
2.849332125E0,-1.199387424E1,-9.386661733E-1,-7.104881573E-1,1.205151056E1
2.859279125E0,-1.226687372E1,-1.464933051E0,-3.934404302E-1,1.236029996E1
2.869225125E0,-1.235694540E1,-1.884261443E0,2.346417475E-1,1.250198374E1
2.879171125E0,-1.251115518E1,-2.392691609E0,1.384525942E0,1.281291884E1
2.889117125E0,-1.292254540E1,-3.188589022E0,2.316966219E0,1.351027801E1
2.899064125E0,-1.313549397E1,-4.219025710E0,2.647978266E0,1.404824433E1
2.909010000E0,-1.292562220E1,-4.768083352E0,2.130427176E0,1.394076928E1
2.918956000E0,-1.326270249E1,-5.095583562E0,7.987378442E-1,1.423032787E1
2.928903000E0,-1.769248524E1,-5.654867401E0,-2.212972319E0,1.870558221E1
2.938849000E0,-2.112811386E1,-5.884409791E0,-3.714391118E0,2.224455383E1
2.948795000E0,-2.024413180E1,-4.934935990E0,-3.159089234E0,2.107506371E1
2.958742000E0,-1.803154657E1,-3.828081456E0,-2.015026528E0,1.854322548E1
2.968688000E0,-1.395438717E1,-2.910696005E0,-1.365224867E0,1.431994803E1
2.978634000E0,-1.010548553E1,-1.901286050E0,-1.738329266E0,1.042868713E1
2.988581000E0,-8.289133946E0,-7.549046306E-1,-1.760144058E0,8.507510193E0
2.998527000E0,-7.516405687E0,1.253662039E-1,-1.578948201E0,7.681480883E0
3.008473000E0,-7.103912689E0,7.265548441E-1,-1.225574062E0,7.245377093E0
3.018420000E0,-6.740291305E0,1.027603274E0,-6.989036536E-1,6.853901201E0
3.028366000E0,-6.560736176E0,1.012427995E0,7.026951710E-2,6.638765504E0
3.038312000E0,-6.685998153E0,8.707927904E-1,7.637961991E-1,6.785590322E0
3.048258000E0,-7.123989689E0,7.522923139E-1,9.579014663E-1,7.227361070E0
3.058205000E0,-7.647189775E0,4.943108936E-1,7.506491002E-1,7.699826542E0
3.068151000E0,-8.055611941E0,1.196050885E-1,4.332260549E-1,8.068139434E0
3.078097000E0,-8.316059790E0,-3.893248674E-1,3.809542859E-1,8.333879675E0
3.088044000E0,-8.225156636E0,-7.621027724E-1,1.003495642E0,8.321118064E0
3.097990000E0,-8.089405339E0,-8.422393745E-1,2.310412660E0,8.454930665E0
3.107936000E0,-7.301228151E0,-1.398073356E0,4.879450006E0,8.892219857E0
3.117883000E0,-5.132364303E0,-3.593078643E0,9.018699814E0,1.098127150E1
3.127829000E0,-1.433118643E0,-3.792702585E0,1.009722459E1,1.088082563E1
3.137775000E0,5.305198642E0,-1.553626249E0,3.743651755E0,6.676362454E0
3.147722000E0,2.070268916E1,7.792665430E-1,-1.385743566E1,2.492462874E1
3.157668000E0,6.250225402E1,1.222132537E0,-3.936706234E1,7.387686351E1
3.167614000E0,1.184013737E2,-5.047762109E0,-5.453340189E1,1.304540422E2
3.177561000E0,3.869062368E1,-1.765885089E1,-2.495562638E1,4.931108054E1
3.187507000E0,1.379429275E1,-4.421621792E0,-3.609886757E0,1.492864810E1
3.197453000E0,1.553120582E1,3.585710274E0,-8.963109165E-2,1.594000333E1
3.207400000E0,1.582333388E1,1.988417896E0,-4.400342020E0,1.654372119E1
3.217346000E0,1.651198503E1,3.274715585E-1,-6.183006045E0,1.763469452E1
3.227292000E0,1.415951451E1,-1.279900542E0,-3.680269107E0,1.468585637E1
3.237238000E0,1.092568032E1,-1.904704186E0,7.560379672E-1,1.111620358E1
3.247185000E0,6.908094699E0,-1.324686998E0,4.742029914E0,8.483125351E0
3.257131000E0,2.268261836E0,1.147933417E-1,7.746552680E0,8.072624585E0
3.267077000E0,-1.696879524E0,1.164106084E0,7.595365902E0,7.869188413E0
3.277024000E0,-4.745622443E0,5.478046576E-1,5.344705939E0,7.168465937E0
3.286970000E0,-6.702595475E0,-7.693528812E-1,2.430061895E0,7.170905854E0
3.296916000E0,-8.556465722E0,-1.431339920E0,4.971367067E-1,8.689590585E0
3.306863000E0,-1.004545568E1,-1.522111218E0,-2.313176054E-1,1.016275111E1
3.316809000E0,-1.109322293E1,-1.628254701E0,-4.134636354E-1,1.121970412E1
3.326755000E0,-1.167973608E1,-1.832445319E0,-9.115694085E-2,1.182296073E1
3.336702000E0,-1.200454423E1,-2.085545410E0,4.924688745E-1,1.219430636E1
3.346648000E0,-1.253740451E1,-2.492902798E0,1.469986507E0,1.286708733E1
3.356594000E0,-1.309034294E1,-3.114270034E0,2.598433054E0,1.370429169E1
3.366540000E0,-1.408670031E1,-4.155597161E0,3.051284704E0,1.500048171E1
3.376487000E0,-1.459739495E1,-5.195411906E0,2.499881743E0,1.569476515E1
3.386433000E0,-1.409156285E1,-5.440371065E0,1.537578565E0,1.518334379E1
3.396379000E0,-1.333720186E1,-5.361691516E0,9.314673007E-2,1.437488664E1
3.406326000E0,-1.581511503E1,-5.558597088E0,-2.580147057E0,1.696092639E1
3.416272000E0,-1.857798290E1,-5.752284937E0,-4.211750604E0,1.989897168E1
3.426218000E0,-1.854399187E1,-5.593797911E0,-3.303894360E0,1.964906938E1
3.436165000E0,-1.769117663E1,-4.973905928E0,-2.301655869E0,1.852066658E1
3.446111000E0,-1.627821919E1,-4.069281440E0,-1.195203624E0,1.682165221E1
3.456057000E0,-1.309905179E1,-3.399617666E0,-2.359830987E-1,1.353507466E1
3.466004000E0,-9.793285734E0,-2.234435401E0,-2.813207278E-1,1.004889488E1
3.475950000E0,-8.590253273E0,-1.216894747E0,-3.044562598E-1,8.681358058E0
3.485896000E0,-7.786954601E0,-8.913551089E-1,-4.033011746E-1,7.848173528E0
3.495843000E0,-7.074121125E0,-8.056172396E-1,-5.476951685E-1,7.140880816E0
3.505789000E0,-6.658971153E0,-7.332958066E-1,-4.500695443E-1,6.714326634E0
3.515735000E0,-6.531936885E0,-5.413380025E-1,-4.008266695E-1,6.566575083E0
3.525681000E0,-6.642436396E0,-3.238446768E-1,-4.725871352E-1,6.667096464E0
3.535628000E0,-6.960564104E0,-3.969206929E-1,-1.029733853E0,7.047506686E0
3.545574000E0,-8.360565287E0,-9.714641561E-1,-1.494474061E0,8.548464613E0
3.555520000E0,-9.237203246E0,-1.405642430E0,-1.290661173E0,9.432261697E0
3.565467000E0,-9.105511671E0,-1.665034564E0,-5.543710077E-1,9.273079861E0
3.575413000E0,-7.945324098E0,-1.651959898E0,1.168839698E0,8.198983642E0
3.585359000E0,-6.374274316E0,-1.273593151E0,3.519671820E0,7.391989062E0
3.595306000E0,-4.167018235E0,-2.495991590E0,6.258022313E0,7.921922636E0
3.605252000E0,-6.156913429E-1,-3.774899275E0,6.936088829E0,7.920749246E0
3.615198000E0,3.976409529E0,-9.645377637E-1,1.727494522E0,4.441441564E0
3.625145000E0,1.117767544E1,1.948105437E0,-8.649241154E0,1.426691682E1
3.635091000E0,3.177598244E1,1.999592802E0,-2.769875873E1,4.220109793E1
3.645037000E0,7.806661589E1,1.694875976E0,-3.913614176E1,8.734361289E1
3.654983000E0,1.004405328E2,-6.334934249E0,-3.721031918E1,1.072988345E2
3.664930000E0,3.056597835E1,-1.226340983E1,-1.150980079E1,3.488761624E1
3.674876000E0,1.753618800E1,4.095962870E-1,-8.611543863E-1,1.756209684E1
3.684822000E0,1.553182913E1,3.095098768E0,-2.737164677E0,1.607200743E1
3.694769000E0,1.492062903E1,1.957855669E0,-5.988881993E0,1.619645261E1
3.704715000E0,1.426755702E1,1.065291648E0,-5.294588284E0,1.525551359E1
3.714661000E0,1.226349637E1,3.529475116E-1,-2.194909101E0,1.246336796E1
3.724608000E0,1.003329347E1,7.535245416E-1,1.755125978E0,1.021348346E1
3.734554000E0,5.825832385E0,1.911951079E0,5.199781530E0,8.039502961E0
3.744500000E0,1.097674406E0,2.401824521E0,6.979641815E0,7.462509631E0
3.754447000E0,-2.610817457E0,5.855885611E-1,5.871119655E0,6.452079336E0
3.764393000E0,-5.308421043E0,-1.320645111E0,3.489323602E0,6.488360091E0
3.774339000E0,-7.906100975E0,-1.876347822E0,2.012024567E0,8.371102474E0
3.784286000E0,-9.883379048E0,-1.954410928E0,1.193892678E0,1.014525915E1
3.794232000E0,-1.093645557E1,-2.030051972E0,7.348406410E-1,1.114751821E1
3.804178000E0,-1.150808288E1,-2.245142530E0,8.275809896E-1,1.175421315E1
3.814125000E0,-1.176319222E1,-2.582870105E0,1.388760495E0,1.212322420E1
3.824071000E0,-1.201956339E1,-3.106321036E0,2.418080950E0,1.264777648E1
3.834017000E0,-1.238275968E1,-4.086574288E0,3.367489847E0,1.346747247E1
3.843963000E0,-1.373067855E1,-6.092856013E0,2.587449059E0,1.524300890E1
3.853910000E0,-1.563239539E1,-8.153059883E0,2.673902116E-1,1.763280093E1
3.863856000E0,-1.740842166E1,-9.427513744E0,-1.944750012E0,1.989254163E1
3.873802000E0,-1.805811631E1,-9.374409916E0,-3.001188684E0,2.056653251E1
3.883749000E0,-1.789248691E1,-8.555827791E0,-3.242974559E0,2.009627232E1
3.893695000E0,-1.750667593E1,-7.070159637E0,-3.305103564E0,1.916753946E1
3.903641000E0,-1.673673562E1,-4.769876109E0,-3.085357599E0,1.767454296E1
3.913588125E0,-1.569516993E1,-2.984393726E0,-2.066975530E0,1.610954229E1
3.923534125E0,-1.457549245E1,-1.890847747E0,-8.292686422E-1,1.472100445E1
3.933480125E0,-1.149275850E1,-8.105746552E-1,-3.897894287E-1,1.152789942E1
3.943427125E0,-8.920475362E0,-3.021300182E-2,-7.949191008E-1,8.955874602E0
3.953373125E0,-8.179917898E0,5.117934836E-1,-1.256861343E0,8.291724177E0
3.963319125E0,-7.610164036E0,8.462167968E-1,-1.529256223E0,7.808284326E0
3.973265125E0,-7.133779682E0,9.814794132E-1,-1.491698388E0,7.353861467E0
3.983212125E0,-6.774892788E0,9.542541924E-1,-1.134121855E0,6.935128386E0
3.993158125E0,-6.561409775E0,6.264417413E-1,-6.250755394E-1,6.620819203E0
4.003104125E0,-6.572644030E0,7.770233318E-2,-3.078547347E-1,6.580308636E0
4.013051125E0,-7.306618114E0,-6.708010581E-1,1.817249940E-1,7.339595786E0
4.022997125E0,-9.008603427E0,-1.550497550E0,6.558014882E-1,9.164554214E0
4.032943125E0,-9.411975353E0,-1.973780853E0,9.782163745E-1,9.666333233E0
4.042890125E0,-9.505321473E0,-2.209671274E0,1.362027025E0,9.853370036E0
4.052836125E0,-9.779572259E0,-2.514256538E0,1.951103597E0,1.028437284E1
4.062782125E0,-9.725959724E0,-2.684839114E0,3.220314260E0,1.059117923E1
4.072729125E0,-7.945532843E0,-2.073370630E0,4.672657378E0,9.447967237E0
4.082675125E0,-5.485105188E0,-2.973125557E0,5.499838418E0,8.317095474E0
4.092621125E0,-2.817026533E0,-5.173449764E0,6.499821053E0,8.771994908E0
4.102568125E0,2.416011620E0,-1.873097647E0,2.274445267E0,3.810342270E0
4.112514125E0,9.871769986E0,4.725095500E0,-8.922773318E0,1.412070302E1
4.122460125E0,2.633304328E1,8.451656721E0,-2.726428722E1,3.883556395E1
4.132406125E0,4.753136115E1,7.618223838E0,-2.989547579E1,5.666574891E1
4.142353125E0,8.031458496E1,3.467129910E0,-2.505009166E1,8.420190401E1
4.152299125E0,6.253623336E1,-1.279585378E1,-2.493162707E1,6.852809924E1
4.162245125E0,2.286897965E1,-1.128101445E1,-7.131780519E0,2.647855378E1
4.172192125E0,1.695077646E1,-1.315594578E0,-6.625035667E-1,1.701465611E1
4.182138125E0,1.738978775E1,-2.469662163E-1,-1.868893206E0,1.749166865E1
4.192084125E0,1.692995336E1,-1.709964423E0,-2.587558987E0,1.721170417E1
4.202031125E0,1.505180430E1,-2.950511450E0,-9.728480458E-1,1.536908468E1
4.211977125E0,9.953240411E0,-2.644700902E0,2.944021626E0,1.071114844E1
4.221923125E0,5.051606069E0,-1.536250955E0,6.356963049E0,8.263762465E0
4.231870125E0,8.095417446E-1,2.407724069E-1,6.399604454E0,6.455096154E0
4.241816125E0,-2.666905704E0,1.440412313E0,4.760019457E0,5.643133783E0
4.251762125E0,-4.639110732E0,1.846225013E0,2.643617413E0,5.649655583E0
4.261709125E0,-6.205347086E0,1.368816520E0,3.656965613E-1,6.365039285E0
4.271655125E0,-7.964087813E0,4.022801777E-1,-1.092788399E0,8.048770746E0
4.281601125E0,-9.681757112E0,-5.338567094E-1,-1.363273652E0,9.791830208E0
4.291547125E0,-1.092378582E1,-1.343307457E0,-1.105916495E0,1.106149280E1
4.301494125E0,-1.173634532E1,-1.794371320E0,-5.424941432E-1,1.188511126E1
4.311440125E0,-1.225757547E1,-2.141062676E0,3.671490828E-1,1.244857841E1
4.321386125E0,-1.242933276E1,-2.393359799E0,1.342607253E0,1.272867150E1
4.331333125E0,-1.280331365E1,-2.799104525E0,2.226699243E0,1.329353287E1
4.341279125E0,-1.354124396E1,-3.623029543E0,2.834407382E0,1.430124108E1
4.351225125E0,-1.432703490E1,-4.485817495E0,3.281500694E0,1.536732685E1
4.361172125E0,-1.520448913E1,-5.339004904E0,3.093512710E0,1.640887821E1
4.371118125E0,-1.537472263E1,-5.539888337E0,2.434667162E0,1.652271355E1
4.381064125E0,-1.522547362E1,-4.964512961E0,1.605563557E0,1.609469696E1
4.391011125E0,-1.527119651E1,-3.869480620E0,8.152316701E-1,1.577488275E1
4.400957125E0,-1.632084890E1,-2.521422593E0,2.955416679E-2,1.651449528E1
4.410903125E0,-1.685257598E1,-1.212994508E0,-1.990567807E-1,1.689734584E1
4.420849125E0,-1.604625196E1,-2.560176330E-1,1.648424013E-1,1.604914079E1
4.430796125E0,-1.474569788E1,5.724054287E-1,3.729108560E-1,1.476151471E1
4.440742125E0,-1.214877633E1,1.388752309E0,3.757701445E-1,1.223366677E1
4.450688125E0,-9.406335713E0,1.637369487E0,-5.674253186E-2,9.547950047E0
4.460635125E0,-7.981216646E0,1.629800412E0,-7.002356493E-1,8.175964683E0
4.470581125E0,-7.174352342E0,1.569148706E0,-9.796705770E-1,7.409002202E0
4.480527125E0,-6.416761354E0,1.375985060E0,-1.400507551E0,6.710408524E0
4.490474125E0,-5.717287012E0,1.121919739E0,-1.997344548E0,6.159176887E0
4.500420125E0,-5.438855467E0,9.329833375E-1,-2.289692466E0,5.974470545E0
4.510366125E0,-6.035619957E0,6.781855068E-1,-1.912072263E0,6.367469214E0
4.520313125E0,-8.079193761E0,3.122413158E-2,-6.083770609E-1,8.102127463E0
4.530259125E0,-8.467779833E0,-7.809029594E-1,9.274175191E-1,8.554133971E0
4.540205125E0,-7.192578698E0,-1.778521857E0,2.157911428E0,7.717053197E0
4.550151125E0,-5.003621478E0,-2.153103701E0,3.453597114E0,6.449760962E0
4.560098125E0,-1.848170382E0,-3.391167854E0,6.566757638E0,7.618271396E0
4.570044125E0,3.424977332E0,-4.290336890E0,6.682221437E0,8.648094801E0
4.579990125E0,1.239039849E1,-3.319637403E0,-1.293759905E0,1.289246997E1
4.589937125E0,2.827815465E1,-2.106466309E0,-1.546502703E1,3.229950916E1
4.599883125E0,4.794735546E1,-1.202797841E0,-3.161632539E1,5.744551897E1
4.609829125E0,7.568738384E1,1.050281407E0,-3.311392128E1,8.262091107E1
4.619776125E0,5.604180110E1,-6.275978528E0,-1.849469633E1,5.934749506E1
4.629722125E0,1.449963535E1,-2.378053689E0,-4.228097372E0,1.528958378E1
4.639668125E0,1.011878444E1,3.813282445E0,-5.276564827E0,1.203216763E1
4.649615125E0,1.276240653E1,2.342686366E0,-9.961901307E0,1.635868814E1
4.659561125E0,1.528495384E1,-4.971661621E-1,-1.161303455E1,1.920259252E1
4.669507125E0,1.654022825E1,-3.667019901E0,-9.312109587E0,1.933239691E1
4.679454125E0,1.362409901E1,-4.954111934E0,-4.300889068E0,1.512140687E1
4.689400125E0,7.605896738E0,-4.518183296E0,1.840807422E0,9.036161654E0
4.699346125E0,4.147399657E0,-3.364349892E0,7.321234399E0,9.062022249E0
4.709292125E0,1.712283429E0,-1.467293572E0,1.100889205E1,1.123746275E1
4.719239125E0,-2.008408064E0,-3.808116138E-1,1.037271381E1,1.057222362E1
4.729185125E0,-4.594847894E0,-9.780115758E-1,5.987542981E0,7.610506209E0
4.739131125E0,-6.477701036E0,-1.705309162E0,2.452918661E0,7.133407321E0
4.749078125E0,-8.775053355E0,-1.446590774E0,5.949728672E-1,8.913370796E0
4.759024125E0,-1.074122289E1,-1.306859423E0,-3.871938862E-1,1.082735747E1
4.768970125E0,-1.177455570E1,-1.534347540E0,-7.294372290E-1,1.189648952E1
4.778917125E0,-1.197708337E1,-1.787351738E0,-8.277213228E-1,1.213796832E1
4.788863125E0,-1.201251399E1,-2.184982136E0,-6.279354856E-1,1.222574915E1
4.798809125E0,-1.235917786E1,-2.883513469E0,-2.657859184E-2,1.269112421E1
4.808756125E0,-1.300230025E1,-3.904405162E0,6.843499339E-1,1.359310584E1
4.818702125E0,-1.411708244E1,-5.333177569E0,1.076374168E0,1.512922275E1
4.828648125E0,-1.560955149E1,-6.695848373E0,6.568586648E-1,1.699776298E1
4.838594125E0,-1.754079911E1,-7.667080833E0,-1.467462848E0,1.919940648E1
4.848541125E0,-2.027029692E1,-7.505757907E0,-4.086545345E0,2.199820883E1
4.858487125E0,-2.044661854E1,-6.132792495E0,-4.127384053E0,2.174191005E1
4.868433125E0,-1.732381946E1,-3.848146761E0,-2.282079391E0,1.789220055E1
4.878380125E0,-1.522584901E1,-1.760969101E0,-8.097668624E-1,1.534872023E1
4.888326125E0,-1.411485465E1,-2.003162527E-1,4.468898284E-1,1.412334801E1
4.898272125E0,-1.263036705E1,1.096739728E0,1.112223448E0,1.272658834E1
4.908219042E0,-1.078947177E1,2.051248859E0,1.164610918E0,1.104430358E1
4.918165042E0,-9.520507277E0,2.445042461E0,1.226721870E0,9.905712392E0
4.928111042E0,-8.798756213E0,2.642472821E0,1.024076672E0,9.243890227E0
4.938058042E0,-8.201633288E0,2.647802558E0,7.486482561E-1,8.650902911E0
4.948004042E0,-7.743401030E0,2.366193635E0,6.027660728E-1,8.119264670E0
4.957950042E0,-7.540974517E0,1.839182042E0,5.026699269E-1,7.778275150E0
4.967897042E0,-7.519885365E0,1.324326810E0,3.405301817E-1,7.643198166E0
4.977843042E0,-7.709280188E0,7.850204956E-1,4.195038092E-1,7.760492358E0
4.987789042E0,-7.972734091E0,-2.192387927E-2,4.851809049E-1,7.987513383E0
4.997735042E0,-8.243306394E0,-8.061545257E-1,7.443832970E-1,8.316014184E0
5.007682042E0,-8.374381088E0,-1.373025638E0,1.301660371E0,8.585439868E0
5.017628042E0,-7.666568617E0,-1.659919274E0,2.224018879E0,8.153395999E0
5.027574042E0,-6.524289896E0,-2.666940787E0,4.050139410E0,8.129118098E0
5.037521042E0,-3.505190606E0,-5.911530932E0,5.775624683E0,8.977215583E0
5.047467042E0,3.178118412E0,-8.036355890E0,3.150912195E0,9.198461844E0
5.057413042E0,1.404159021E1,-9.401037551E0,-7.321510388E0,1.841603315E1
5.067360042E0,3.733495609E1,-1.068970190E1,-2.810985541E1,4.794092870E1
5.077306042E0,8.261837857E1,-9.850420632E0,-4.930574318E1,9.671547743E1
5.087252042E0,7.413867159E1,-5.092036057E0,-3.220967978E1,8.099342521E1
5.097199042E0,2.108817972E1,-1.639318071E-1,1.472415586E0,2.114015622E1
5.107145042E0,1.559045682E1,5.274007840E0,3.140172322E0,1.675524350E1
5.117091042E0,1.587203768E1,4.758150687E0,-6.103749375E0,1.765835028E1
5.127037042E0,1.381691445E1,1.804471654E0,-1.203149639E1,1.840978404E1
5.136984042E0,1.317854585E1,-4.118018568E-1,-1.263005130E1,1.825819946E1
5.146930042E0,1.113726299E1,-1.625452569E0,-9.337902825E0,1.462453938E1
5.156876042E0,7.133492584E0,-2.647472190E0,-4.184633557E0,8.683719447E0
5.166823042E0,4.937984143E0,-3.071879767E0,1.037028254E0,5.907246423E0
5.176769042E0,1.849340994E0,-2.498679263E0,5.350141511E0,6.187687319E0
5.186715042E0,-1.991959262E0,-2.024806873E0,7.825348588E0,8.324891897E0
5.196662042E0,-4.658094887E0,-1.670879880E0,8.262215120E0,9.630881903E0
5.206608042E0,-6.389110456E0,-1.087137138E0,7.595729599E0,9.984873946E0
5.216554042E0,-7.529583557E0,-6.187304333E-1,5.935882831E0,9.607921777E0
5.226501042E0,-8.122609338E0,-6.557359993E-1,3.830969396E0,9.004615409E0
5.236447042E0,-8.907500975E0,-8.842060107E-1,2.468228425E0,9.285340352E0
5.246393042E0,-1.011778340E1,-1.376757331E0,1.706323947E0,1.035261045E1
5.256339042E0,-1.140674011E1,-1.920786368E0,1.471431354E0,1.166054246E1
5.266286042E0,-1.227863948E1,-2.444631694E0,1.149331048E0,1.257227798E1
5.276232042E0,-1.315072480E1,-3.118901613E0,8.215846699E-1,1.354046201E1
5.286178042E0,-1.420915036E1,-3.883567439E0,6.371482855E-1,1.474408383E1
5.296125042E0,-1.496253954E1,-4.379506344E0,7.715143776E-1,1.560938499E1
5.306071042E0,-1.514145030E1,-4.317593393E0,9.291108727E-1,1.577239287E1
5.316017042E0,-1.477795346E1,-3.764089820E0,7.651140153E-1,1.526897771E1
5.325964042E0,-1.440121970E1,-2.900618036E0,2.650566244E-1,1.469282031E1
5.335910042E0,-1.493463779E1,-2.149909806E0,-6.228641224E-1,1.510143960E1
5.345856042E0,-1.600980626E1,-1.544525350E0,-1.442700475E0,1.614871016E1
5.355803042E0,-1.655161628E1,-1.024429624E0,-1.498681133E0,1.665087093E1
5.365749042E0,-1.575700423E1,-4.335565688E-1,-8.690973902E-1,1.578690863E1
5.375695042E0,-1.442374317E1,3.765221695E-1,-2.336050179E-1,1.443054771E1
5.385641042E0,-1.190305060E1,1.301403093E0,1.209016903E-1,1.197459314E1
5.395588042E0,-9.451071006E0,1.597860435E0,-1.311776145E-1,9.586089333E0
5.405534042E0,-8.065870880E0,1.520922187E0,-1.891895860E-1,8.210193059E0
5.415480042E0,-7.206122603E0,1.525369872E0,-4.483153796E-1,7.379427004E0
5.425427042E0,-6.577082652E0,1.657659910E0,-6.260344827E-1,6.811590986E0
5.435373042E0,-6.079179375E0,1.639896069E0,-7.740637636E-1,6.343883330E0
5.445319042E0,-5.792543601E0,1.409616052E0,-8.372674870E-1,6.020099304E0
5.455266042E0,-5.936683314E0,1.173383861E0,-8.166490352E-1,6.106386338E0
5.465212042E0,-6.385534884E0,7.987650338E-1,-6.815853703E-1,6.471293530E0
5.475158042E0,-7.955222849E0,-1.154454890E-1,9.139790095E-2,7.956585437E0
5.485105042E0,-7.404421567E0,-5.762635678E-1,8.359998107E-1,7.473716219E0
5.495051042E0,-4.481423605E0,-5.575279194E-1,1.159477136E0,4.662443795E0
5.504997042E0,-2.325123670E0,-2.944933791E0,4.102581918E0,5.559677464E0
5.514943042E0,4.000097185E0,-4.397942615E0,4.591051297E0,7.511353323E0
5.524890042E0,1.220171936E1,-5.612948127E0,-3.996912206E0,1.401293864E1
5.534836042E0,2.916090178E1,-4.295536526E0,-1.859448257E1,3.485060414E1
5.544782042E0,8.767474194E1,-1.407575373E-1,-3.916562809E1,9.602513530E1
5.554729042E0,8.839122700E1,-8.408410714E0,-3.331930824E1,9.483610432E1
5.564675042E0,2.208929320E1,-1.127683252E1,-4.202579831E0,2.515483061E1
5.574621042E0,1.718723084E1,-8.161982149E-4,2.053074506E0,1.730941997E1
5.584568042E0,1.625638218E1,1.979655112E0,-1.719406215E0,1.646649184E1
5.594514042E0,1.387763194E1,-9.343214728E-2,-6.989508991E0,1.553868185E1
5.604460042E0,1.134604484E1,-1.842113836E0,-8.637949011E0,1.437846584E1
5.614407042E0,8.667174565E0,-3.408047012E0,-6.268893456E0,1.122647427E1
5.624353042E0,6.034741706E0,-3.382831187E0,-1.948288747E0,7.187314056E0
5.634299042E0,3.495211748E0,-2.381434110E0,2.621175799E0,4.975770911E0
5.644246042E0,4.166053444E-1,-1.628566796E0,5.893847197E0,6.128884450E0
5.654192042E0,-2.768425646E0,-1.163752620E0,7.342834014E0,7.933203141E0
5.664138042E0,-5.480999858E0,-9.586407736E-1,6.904198115E0,8.867260185E0
5.674084042E0,-7.408733304E0,-1.282842569E0,4.507449562E0,8.766533852E0
5.684031042E0,-9.081620532E0,-1.602764787E0,2.304526852E0,9.505552613E0
5.693977042E0,-1.062767347E1,-1.900817250E0,1.064458785E0,1.084866914E1
5.703923042E0,-1.160603193E1,-2.112880851E0,6.603588080E-1,1.181525778E1
5.713870042E0,-1.213885595E1,-2.558230815E0,8.154228010E-1,1.243226781E1
5.723816042E0,-1.289745266E1,-3.316679005E0,9.850079155E-1,1.335345967E1
5.733762042E0,-1.369770025E1,-3.970181660E0,1.268967419E0,1.431780755E1
5.743709042E0,-1.398658428E1,-4.278470258E0,1.645238085E0,1.471858199E1
5.753655042E0,-1.432648760E1,-4.471277516E0,1.858248643E0,1.512262073E1
5.763601042E0,-1.447448180E1,-4.409922098E0,1.849906420E0,1.524402145E1
5.773547042E0,-1.463374475E1,-3.959364019E0,1.236917076E0,1.521029299E1
5.783494042E0,-1.587021452E1,-3.319103845E0,-4.388124847E-1,1.621951650E1
5.793440042E0,-1.902251396E1,-2.736558321E0,-2.876613754E0,1.943243926E1
5.803386042E0,-2.125859097E1,-2.339817138E0,-4.030277588E0,2.176339982E1
5.813333042E0,-1.883108899E1,-2.078342225E0,-2.780698367E0,1.914841253E1
5.823279042E0,-1.369572038E1,-1.345850703E0,-1.718777347E0,1.386860723E1
5.833225042E0,-9.947358112E0,-2.772792055E-1,-1.378852973E0,1.004629547E1
5.843172042E0,-8.839381498E0,8.127585172E-1,-4.934067313E-1,8.890370739E0
5.853118042E0,-7.874363458E0,1.484122735E0,1.182867972E-1,8.013876211E0
5.863064042E0,-7.193098515E0,1.804858301E0,4.109002892E-1,7.427450356E0
5.873011042E0,-6.852519838E0,1.844954998E0,4.544912453E-1,7.111079339E0
5.882957042E0,-6.741907475E0,1.597232737E0,3.900501414E-1,6.939496230E0
5.892903042E0,-6.758743948E0,1.201709821E0,3.548862290E-1,6.873912312E0
5.902850042E0,-6.924225998E0,8.288685465E-1,2.751138353E-1,6.979084206E0
5.912795625E0,-7.204884163E0,4.371330913E-1,1.508968285E-1,7.219709897E0
5.922741625E0,-7.712008499E0,-6.287233248E-2,2.270147856E-1,7.715605208E0
5.932687625E0,-8.628264853E0,-6.123480512E-1,6.045566364E-1,8.671067595E0
5.942634625E0,-8.964608392E0,-8.165958256E-1,1.157813019E0,9.075878103E0
5.952580625E0,-8.027403803E0,-1.010157302E0,1.699964369E0,8.267376152E0
5.962526625E0,-7.133784944E0,-1.223551583E0,3.075496269E0,7.864263692E0
5.972473625E0,-4.624024916E0,-1.312799317E0,5.024479666E0,6.953448380E0
5.982419625E0,2.045005202E-2,-4.311224606E0,7.025815523E0,8.243128021E0
5.992365625E0,6.740120566E0,-6.546537967E0,2.051430123E0,9.617419100E0
6.002312625E0,1.706879432E1,-5.011589479E0,-1.268580801E1,2.184924469E1
6.012258625E0,3.262769723E1,-3.357264821E0,-3.192863453E1,4.577418002E1
6.022204625E0,6.090660500E1,-3.830413033E-1,-3.601614467E1,7.075962076E1
6.032151625E0,8.057133854E1,-2.359796489E0,-2.787606736E1,8.529000155E1
6.042097625E0,2.955486846E1,-9.655813601E0,-6.852904000E0,3.183845598E1
6.052043625E0,1.656429889E1,-1.807331966E0,2.485923562E0,1.684702534E1
6.061989625E0,1.761599898E1,2.032802063E0,-3.027932971E0,1.798955482E1
6.071936625E0,1.593382638E1,9.780821809E-1,-1.024671684E1,1.896941416E1
6.081882625E0,1.515760382E1,1.829009239E-1,-1.252179244E1,1.966168081E1
6.091828625E0,1.296273565E1,-9.500494596E-1,-1.065788252E1,1.680849694E1
6.101775625E0,9.268803939E0,-1.388012636E0,-5.812145222E0,1.102807044E1
6.111721625E0,6.444044462E0,-3.586801218E-1,6.847731261E-1,6.490244579E0
6.121667625E0,3.452208400E0,8.504664800E-1,5.981093502E0,6.958054006E0
6.131614625E0,-3.503441119E-1,1.443482101E0,8.853521819E0,8.977261842E0
6.141560625E0,-3.789107425E0,8.126659119E-1,9.274507313E0,1.005157932E1
6.151506625E0,-5.702561384E0,-9.536077827E-1,7.178816106E0,9.217590511E0
6.161453625E0,-7.178865223E0,-2.189742062E0,4.720774115E0,8.866610651E0
6.171399625E0,-8.834204957E0,-2.593169683E0,3.065487006E0,9.703860923E0
6.181345625E0,-1.037178411E1,-2.585379438E0,1.932252173E0,1.086239803E1
6.191291625E0,-1.147318670E1,-2.326884705E0,1.259067498E0,1.177427944E1
6.201238625E0,-1.199202652E1,-2.082687291E0,8.052943271E-1,1.219814680E1
6.211184625E0,-1.212771232E1,-1.913485389E0,6.058463860E-1,1.229267597E1
6.221130625E0,-1.248666120E1,-2.059522085E0,5.975854397E-1,1.266946911E1
6.231077625E0,-1.288801642E1,-2.365642535E0,6.203217530E-1,1.311800407E1
6.241023625E0,-1.313411403E1,-2.683187860E0,6.740974259E-1,1.342232677E1
6.250969625E0,-1.318318854E1,-2.973357106E0,9.125579900E-1,1.354511258E1
6.260916625E0,-1.306582791E1,-3.403405200E0,1.275879997E0,1.356196504E1
6.270862625E0,-1.312734529E1,-3.856298657E0,1.256012328E0,1.373957062E1
6.280808625E0,-1.346522899E1,-4.179551157E0,6.690138566E-1,1.411483685E1
6.290754625E0,-1.581034020E1,-4.561238099E0,-7.902266371E-1,1.647410721E1
6.300701625E0,-1.931412630E1,-5.056923527E0,-2.478807793E0,2.011846014E1
6.310647625E0,-1.865549008E1,-4.793329875E0,-2.415212306E0,1.941227890E1
6.320593625E0,-1.669475963E1,-3.676528058E0,-1.687160282E0,1.717784525E1
6.330540625E0,-1.335620999E1,-2.225282755E0,-1.101827098E0,1.358507459E1
6.340486625E0,-1.041443487E1,-8.954699408E-1,-1.202340735E0,1.052178423E1
6.350432625E0,-9.132754433E0,5.494190007E-3,-9.354375601E-1,9.180537955E0
6.360379625E0,-8.357814172E0,6.196029840E-1,-4.474570084E-1,8.392686302E0
6.370325625E0,-7.949972634E0,8.407736237E-1,2.242527802E-2,7.994339752E0
6.380271625E0,-7.636501064E0,7.397461626E-1,2.394130754E-1,7.675981469E0
6.390218625E0,-7.271404427E0,5.596485583E-1,6.866782951E-1,7.325165932E0
6.400164625E0,-7.119941661E0,2.820312376E-1,1.068303768E0,7.205163692E0
6.410110625E0,-7.216930597E0,-3.066718429E-3,1.236184419E0,7.322038552E0
6.420057625E0,-7.292204143E0,-2.821525674E-1,1.246988904E0,7.403433842E0
6.430003625E0,-7.326433743E0,-9.281678630E-1,1.208828879E0,7.483274299E0
6.439949625E0,-7.714508768E0,-1.709557457E0,1.559045448E0,8.053996210E0
6.449895625E0,-7.898416564E0,-1.776068804E0,3.103484552E0,8.670122317E0
6.459842625E0,-5.690352398E0,-1.094593800E0,4.879184543E0,7.575268167E0
6.469788625E0,-1.422324098E0,-1.438175315E0,7.333770829E0,7.607598087E0
6.479734625E0,3.491235641E0,-2.883424591E0,5.681642386E0,7.265254564E0
6.489681625E0,1.044368147E1,1.171475038E-1,-4.611074502E0,1.141692666E1
6.499627625E0,2.380745075E1,2.841049234E0,-2.399598369E1,3.392157875E1
6.509573625E0,4.505774569E1,1.847960467E0,-3.482434646E1,5.697675412E1
6.519520625E0,6.995709379E1,2.733263707E0,-2.347109785E1,7.384008489E1
6.529466625E0,6.046809657E1,-9.776867922E0,-2.230730313E1,6.518890720E1
6.539412625E0,2.349945919E1,-1.382622088E1,-9.218893275E0,2.878153851E1
6.549358625E0,1.947921776E1,-2.809682138E0,-3.312055611E0,1.995755372E1
6.559305625E0,1.819549431E1,-2.575250452E-1,-7.108833706E0,1.953657720E1
6.569251625E0,1.659939037E1,-6.425291857E-1,-9.080818294E0,1.893182150E1
6.579197625E0,1.430307769E1,-1.504559923E0,-7.933512722E0,1.642505270E1
6.589144625E0,1.184056024E1,-2.414631677E0,-4.697750996E0,1.296526812E1
6.599090625E0,8.197860079E0,-1.677203643E0,9.288546185E-1,8.419067219E0
6.609036625E0,4.376385977E0,3.254706413E-2,5.496298513E0,7.025888619E0
6.618983625E0,6.651576179E-1,1.239279643E0,7.816921581E0,7.942449981E0
6.628929625E0,-2.834283421E0,1.762718734E0,7.880935729E0,8.558591461E0
6.638875625E0,-5.190292668E0,1.660735399E0,6.296903958E0,8.327555434E0
6.648822625E0,-6.801537380E0,9.324639586E-1,3.947088082E0,7.918958523E0
6.658768625E0,-8.353676682E0,4.241497875E-1,2.226838406E0,8.655785721E0
6.668714625E0,-9.907646163E0,1.891910478E-1,1.243401053E0,9.987156348E0
6.678661625E0,-1.100858799E1,-1.820583949E-1,5.108653843E-1,1.102193895E1
6.688607625E0,-1.163021367E1,-6.038378674E-1,-4.010780632E-2,1.164594775E1
6.698553625E0,-1.195550714E1,-1.018620635E0,-1.455816364E-1,1.199970554E1
6.708499625E0,-1.229493567E1,-1.415008354E0,2.306422520E-1,1.237824251E1
6.718446625E0,-1.269583364E1,-1.854229559E0,7.572647130E-1,1.285285217E1
6.728392625E0,-1.304620465E1,-2.366614781E0,1.386870090E0,1.333145641E1
6.738338625E0,-1.347950204E1,-3.121738974E0,1.999625546E0,1.398001187E1
6.748285625E0,-1.359826484E1,-3.882342740E0,1.977408904E0,1.427919948E1
6.758231625E0,-1.302912260E1,-4.600617342E0,5.357066953E-1,1.382789562E1
6.768177625E0,-1.638844856E1,-5.515393181E0,-2.711801795E0,1.750299052E1
6.778124625E0,-2.121136184E1,-6.697886127E0,-5.209011360E0,2.284551048E1
6.788070625E0,-2.061028678E1,-6.801226308E0,-4.640415831E0,2.219400954E1
6.798016625E0,-1.877268466E1,-5.728534132E0,-3.849844792E0,2.000127740E1
6.807962625E0,-1.528066900E1,-4.169104814E0,-2.829301593E0,1.608991074E1
6.817909625E0,-1.060253044E1,-3.061410327E0,-2.562230018E0,1.132920596E1
6.827855625E0,-8.463693214E0,-1.593833458E0,-2.710028919E0,9.028768723E0
6.837801625E0,-7.701592269E0,-1.920289940E-1,-2.701797794E0,8.164013102E0
6.847748625E0,-7.071146647E0,6.657821736E-1,-2.582867181E0,7.557485275E0
6.857694625E0,-6.741418063E0,1.228622215E0,-1.998668357E0,7.137990281E0
6.867640625E0,-6.670955021E0,1.605287276E0,-8.849690723E-1,6.918219308E0
6.877587625E0,-6.649240801E0,1.614790756E0,3.236562502E-1,6.850161004E0
6.887533625E0,-6.773501151E0,1.382849253E0,1.178181794E0,7.012895424E0
6.897479625E0,-7.036723503E0,1.143519646E0,1.520830386E0,7.289447161E0
6.907426625E0,-7.241221100E0,9.588919115E-1,1.456988146E0,7.448326737E0
6.917373500E0,-7.450205265E0,4.776862362E-1,1.412178594E0,7.597893854E0
6.927319500E0,-7.541939308E0,-3.689023339E-1,1.449047627E0,7.688736989E0
6.937265500E0,-7.637920184E0,-1.286064385E0,2.004827814E0,8.000695026E0
6.947212500E0,-7.321652475E0,-1.765952098E0,3.496404580E0,8.303615283E0
6.957158500E0,-4.260925688E0,-1.390140438E0,5.897272496E0,7.407145270E0
6.967104500E0,1.025478834E0,-2.398447754E0,8.043621640E0,8.456004231E0
6.977051500E0,7.091731769E0,-1.496042284E0,3.917940881E0,8.238996465E0
6.986997500E0,1.715850698E1,2.011414995E0,-7.527404884E0,1.884468032E1
6.996943500E0,3.904917261E1,8.990076524E-1,-3.287425326E1,5.105254767E1
7.006890500E0,7.401495854E1,-1.156424890E0,-4.520189125E1,8.673385947E1
7.016836500E0,7.101168357E1,-7.594130970E0,-3.250161255E1,7.846454516E1
7.026782500E0,1.714061918E1,-1.425757817E1,-7.923219284E0,2.366129254E1
7.036729500E0,1.290479208E1,-7.483470075E0,-1.121033155E0,1.495970248E1
7.046675500E0,1.735372446E1,-3.683598511E0,-6.160194887E0,1.877947421E1
7.056621500E0,1.627374724E1,-3.426259627E0,-9.428478534E0,1.911727783E1
7.066567500E0,1.484553090E1,-3.946146972E0,-8.710966702E0,1.765907145E1
7.076514500E0,1.247569416E1,-4.468838643E0,-5.685209187E0,1.441995378E1
7.086460500E0,8.572973582E0,-3.906772407E0,-7.175960326E-1,9.448475577E0
7.096406500E0,4.131229182E0,-2.384684285E0,4.771292889E0,6.746777714E0
7.106353500E0,-4.096793175E-1,-8.411032605E-1,8.336292325E0,8.388626918E0
7.116299500E0,-4.445916388E0,1.072367072E0,9.797800369E0,1.081263315E1
7.126245500E0,-6.973381786E0,2.642317577E0,8.456350865E0,1.127474016E1
7.136192500E0,-8.630759275E0,3.045764932E0,6.125225029E0,1.101295017E1
7.146138500E0,-9.259709179E0,1.546421017E0,3.124277251E0,9.894177095E0
7.156084500E0,-9.579971706E0,2.985470637E-1,1.209054508E0,9.660579746E0
7.166031500E0,-1.044330491E1,-2.529846092E-1,4.682882258E-1,1.045685959E1
7.175977500E0,-1.134079989E1,-7.823939994E-1,-1.033664936E-1,1.136822621E1
7.185923500E0,-1.180839588E1,-1.272060303E0,-7.024944288E-1,1.189747238E1
7.195869500E0,-1.210697576E1,-1.790018945E0,-9.827555680E-1,1.227798185E1
7.205816500E0,-1.243760891E1,-2.393516504E0,-7.364831239E-1,1.268721577E1
7.215762500E0,-1.278216544E1,-2.984391972E0,4.370263796E-2,1.312601458E1
7.225708500E0,-1.317665603E1,-3.634937105E0,1.066115813E0,1.371034773E1
7.235655500E0,-1.369977601E1,-4.671394379E0,1.152877969E0,1.452015550E1
7.245601500E0,-1.606579102E1,-7.029522073E0,-1.294585825E0,1.758407729E1
7.255547500E0,-1.856997572E1,-8.396047361E0,-3.720442402E0,2.071664310E1
7.265494500E0,-1.910102687E1,-8.073357655E0,-4.356380898E0,2.118977078E1
7.275440500E0,-1.754297077E1,-6.147917488E0,-3.456132467E0,1.890760599E1
7.285386500E0,-1.331349141E1,-3.360676964E0,-1.876323556E0,1.385870821E1
7.295333500E0,-1.008666335E1,-1.059248478E0,-7.219679958E-1,1.016779340E1
7.305279500E0,-8.983278551E0,2.418572847E-1,6.162964156E-3,8.986535843E0
7.315225500E0,-8.196549134E0,9.032196211E-1,8.080407643E-1,8.285659495E0
7.325171500E0,-7.998355420E0,1.350064645E0,1.542530572E0,8.256861664E0
7.335118500E0,-8.001930408E0,1.558350507E0,2.079541197E0,8.413313149E0
7.345064500E0,-8.166542977E0,1.661779273E0,2.281419826E0,8.640533026E0
7.355010500E0,-8.284022310E0,1.555195349E0,2.100601698E0,8.686552003E0
7.364957500E0,-8.390662660E0,1.396243762E0,1.655257874E0,8.665598372E0
7.374903500E0,-8.521463705E0,1.239149542E0,1.158080821E0,8.688612458E0
7.384849500E0,-8.565451723E0,1.077701267E0,7.820580038E-1,8.668334209E0
7.394796500E0,-8.443237315E0,8.576617713E-1,8.165869816E-1,8.525881442E0
7.404742500E0,-8.284477808E0,4.792494162E-1,1.271172988E0,8.395125570E0
7.414688500E0,-8.380270404E0,7.612168461E-2,2.194338412E0,8.663131513E0
7.424634500E0,-8.199617168E0,-4.535029563E-1,3.405200880E0,8.890150711E0
7.434581500E0,-5.314171194E0,-7.610499812E-1,5.737849331E0,7.857641345E0
7.444527500E0,-4.623755944E-1,-3.743339514E0,7.535779266E0,8.427001309E0
7.454473500E0,5.247950892E0,-6.391647563E0,4.493650718E0,9.412069056E0
7.464420500E0,1.746218213E1,-4.521133508E0,-8.286966383E0,1.985049784E1
7.474366500E0,4.942060121E1,-1.177008843E0,-3.698989552E1,6.174166781E1
7.484312500E0,9.722198210E1,-1.540141985E-1,-5.841890944E1,1.134235712E2
7.494259500E0,4.166672080E1,-7.391707381E0,-2.094898090E1,4.721877551E1
7.504205500E0,9.936695130E0,-5.898510936E0,1.818488892E0,1.169774522E1
7.514151500E0,1.717998731E1,-2.933854487E0,-2.373333378E0,1.758954740E1
7.524098500E0,2.144729699E1,-9.754497644E-1,-1.096320775E1,2.410663756E1
7.534044500E0,1.817771409E1,2.383149866E-1,-1.418332905E1,2.305759976E1
7.543990500E0,1.475073117E1,1.174113009E0,-1.233157433E1,1.926214777E1
7.553936500E0,1.209673845E1,1.887153769E0,-8.192922106E0,1.473147661E1
7.563883500E0,8.948427976E0,2.934578080E0,-3.258349228E0,9.965086625E0
7.573829500E0,6.229845750E0,3.673293963E0,1.249510078E0,7.339301196E0
7.583775500E0,3.684182063E0,3.953786652E0,4.586781660E0,7.088313789E0
7.593722500E0,-1.813502240E-1,3.089415566E0,7.389739208E0,8.011592976E0
7.603668500E0,-3.846616545E0,8.562825593E-1,8.077448952E0,8.987483532E0
7.613614500E0,-5.925606934E0,-1.704331216E0,6.624298918E0,9.049801025E0
7.623561500E0,-7.565999431E0,-3.213682055E0,4.834900655E0,9.536685173E0
7.633507500E0,-9.123837429E0,-3.926670774E0,3.298152394E0,1.046618183E1
7.643453500E0,-1.020123720E1,-3.971424778E0,2.422870404E0,1.121194703E1
7.653400500E0,-1.075365407E1,-3.663215995E0,2.062908207E0,1.154624690E1
7.663346500E0,-1.134350364E1,-3.676430117E0,1.895864950E0,1.207416735E1
7.673292500E0,-1.281139918E1,-4.782567490E0,1.291264021E0,1.373580226E1
7.683238500E0,-1.476469666E1,-6.237880994E0,1.044592212E0,1.606233481E1
7.693185500E0,-1.592044093E1,-6.983748314E0,1.573371711E0,1.745590669E1
7.703131500E0,-1.647254205E1,-7.276107928E0,1.775017036E0,1.809522240E1
7.713077500E0,-1.644105596E1,-6.835040756E0,1.743648478E0,1.789040003E1
7.723024500E0,-1.554834284E1,-5.480687617E0,1.317242031E0,1.653856186E1
7.732970500E0,-1.454835435E1,-3.851680233E0,4.675276492E-1,1.505684685E1
7.742916500E0,-1.385292395E1,-2.338226695E0,-6.735266646E-1,1.406500779E1
7.752863500E0,-1.299523564E1,-9.828543860E-1,-1.764310200E0,1.315123350E1
7.762809500E0,-1.242978065E1,8.912969291E-2,-2.614259128E0,1.270203692E1
7.772755500E0,-1.295220014E1,5.417731450E-1,-3.321745909E0,1.338233920E1
7.782701500E0,-1.370275225E1,5.001986012E-1,-3.665514827E0,1.419336524E1
7.792648500E0,-1.357049641E1,5.296836977E-1,-3.158141985E0,1.394319901E1
7.802594500E0,-1.183546615E1,7.609867582E-1,-2.160618689E0,1.205510816E1
7.812540500E0,-9.530614774E0,7.939375725E-1,-1.481984993E0,9.677770113E0
7.822487500E0,-8.998826298E0,6.366933721E-1,-8.467868272E-1,9.060976830E0
7.832433500E0,-8.753486484E0,5.187039058E-1,-5.137257691E-1,8.783876908E0
7.842379500E0,-8.521381259E0,3.872862357E-1,-4.082561052E-1,8.539941583E0
7.852326500E0,-8.389326571E0,3.282986471E-1,-5.079382682E-1,8.411098716E0
7.862272500E0,-8.275244470E0,3.109876728E-1,-6.572048199E-1,8.307123603E0
7.872218500E0,-8.246865009E0,2.384608564E-1,-6.010072303E-1,8.272173581E0
7.882165500E0,-8.229405808E0,2.293257514E-1,-4.465857732E-1,8.244704307E0
7.892111500E0,-8.240826005E0,2.472980458E-1,-1.872149813E-1,8.246661083E0
7.902057500E0,-8.326462571E0,1.296751633E-1,2.961942172E-1,8.332738182E0
7.912002875E0,-8.201816890E0,-3.383315921E-2,1.505564475E0,8.338924953E0
7.921949875E0,-6.273535561E0,1.122747632E-1,4.082173966E0,7.485586039E0
7.931895875E0,-4.346568686E0,-2.393534338E0,6.946810284E0,8.536968964E0
7.941841875E0,-1.415012155E0,-2.799871095E0,8.230613258E0,8.808208226E0
7.951788875E0,4.812320229E1,-1.768253123E0,-1.042546710E0,4.816696192E1
7.961734875E0,1.351876259E2,-1.149879166E1,-4.178701907E1,1.419650357E2
7.971680875E0,5.454507294E1,-1.903144851E1,-3.353917290E1,6.679997854E1
7.981627875E0,1.980884168E1,-5.051497895E0,-9.419483178E0,2.250854289E1
7.991573875E0,1.672121360E1,5.178057370E0,-1.696820175E0,1.758665577E1
8.001519875E0,1.284831850E1,6.904188759E0,-1.996224221E0,1.472182128E1
8.011466875E0,1.317427973E1,5.236830073E0,-6.061586857E0,1.541845877E1
8.021412875E0,1.333941913E1,3.173511684E0,-8.078426607E0,1.591452970E1
8.031358875E0,1.126160403E1,1.451058193E0,-6.837309476E0,1.325436140E1
8.041304875E0,8.940527219E0,3.724430422E-1,-3.351081390E0,9.555181173E0
8.051251875E0,5.954961711E0,-5.948477733E-1,8.263308549E-1,6.041376956E0
8.061197875E0,2.136503602E0,-1.608820456E0,4.259956219E0,5.029928219E0
8.071143875E0,-2.093719525E0,-2.126968548E0,7.564446995E0,8.131944109E0
8.081090875E0,-5.593891466E0,-2.220584224E0,8.519483253E0,1.043092570E1
8.091036875E0,-8.081444355E0,-2.257515823E0,6.505004025E0,1.061702397E1
8.100982875E0,-9.687755186E0,-2.046547990E0,3.387296121E0,1.046492877E1
8.110929875E0,-1.053096403E1,-1.714408015E0,8.388526672E-1,1.070252643E1
8.120875875E0,-1.091556815E1,-1.564944412E0,-4.774679158E-1,1.103751125E1
8.130821875E0,-1.111757892E1,-1.563105024E0,-8.567737254E-1,1.125957014E1
8.140767875E0,-1.129708610E1,-1.791100388E0,-4.928249699E-1,1.144880219E1
8.150714875E0,-1.161808889E1,-2.248543709E0,5.100111792E-1,1.184466334E1
8.160660875E0,-1.218119330E1,-2.978100368E0,2.104667852E0,1.271535209E1
8.170606875E0,-1.365057871E1,-4.593871994E0,2.868311877E0,1.468567915E1
8.180553875E0,-1.499713400E1,-6.345910057E0,2.126758633E0,1.642278006E1
8.190499875E0,-1.570661293E1,-7.424969267E0,4.114932700E-1,1.737806621E1
8.200445875E0,-1.603501478E1,-7.475563470E0,-1.467730651E0,1.775274574E1
8.210392875E0,-1.810922449E1,-6.934484353E0,-4.053141371E0,1.981057898E1
8.220338875E0,-1.879579987E1,-5.543468587E0,-5.240785130E0,2.028491966E1
8.230284875E0,-1.725506790E1,-3.941440256E0,-4.731168418E0,1.832092449E1
8.240231875E0,-1.554538648E1,-3.020422222E0,-3.509779793E0,1.622037440E1
8.250177875E0,-1.265470316E1,-1.882452900E0,-2.067834633E0,1.295997998E1
8.260123875E0,-9.796558421E0,-4.515996145E-1,-1.774338613E0,9.966181647E0
8.270069875E0,-9.086713457E0,8.937431849E-1,-1.550055647E0,9.261199212E0
8.280016875E0,-8.597831849E0,1.475869244E0,-1.625061975E0,8.873653642E0
8.289962875E0,-7.913311177E0,1.515640397E0,-1.772270014E0,8.249763669E0
8.299908875E0,-7.400204555E0,1.429725796E0,-1.788093749E0,7.746252162E0
8.309855875E0,-7.054907175E0,1.377043260E0,-1.869464187E0,7.427170372E0
8.319801875E0,-6.830595703E0,1.346154174E0,-1.926737080E0,7.223675276E0
8.329747875E0,-6.751789269E0,1.200806718E0,-1.838651115E0,7.099945988E0
8.339694875E0,-6.703362629E0,9.270556495E-1,-1.553549650E0,6.943199496E0
8.349640875E0,-6.699726831E0,2.162996898E-1,-1.029812790E0,6.781861068E0
8.359586875E0,-6.988809664E0,-6.839309809E-1,-1.569509625E-1,7.023948727E0
8.369533875E0,-6.453018769E0,-5.796014509E-1,1.058546008E0,6.564899750E0
8.379479875E0,-4.649032288E0,-1.143890798E0,2.932031325E0,5.614160228E0
8.389425875E0,-1.741420105E0,-9.965792629E-1,6.477505739E0,6.781135215E0
8.399371875E0,2.690596282E0,4.343773717E-1,6.466646290E0,7.017514253E0
8.409318875E0,1.637650270E1,-5.099915180E-1,-6.383254470E0,1.758396627E1
8.419264875E0,9.725960074E1,1.883353663E0,-4.551128380E1,1.073976439E2
8.429210875E0,1.061203029E2,-6.855627049E0,-5.159301022E1,1.181962648E2
8.439157875E0,2.438212212E1,-9.641445823E0,-1.263671011E1,2.910552866E1
8.449103875E0,1.713680212E1,-2.824608253E-1,-4.890137255E0,1.782310897E1
8.459049875E0,1.637274411E1,6.338820308E0,-5.085609967E0,1.827869857E1
8.468996875E0,1.514858975E1,4.754938519E0,-8.938044491E0,1.822025936E1
8.478942875E0,1.298035214E1,3.123257496E0,-9.434124606E0,1.634769055E1
8.488888875E0,1.009639662E1,1.911188164E0,-6.585976267E0,1.220511976E1
8.498834875E0,7.398862619E0,1.753723816E0,-2.084769777E0,7.884477173E0
8.508781875E0,4.782089188E0,1.786573473E0,2.785945659E0,5.815643988E0
8.518727875E0,1.045988528E0,1.223368492E0,6.650852294E0,6.842847266E0
8.528673875E0,-2.925988812E0,-7.016217318E-1,8.097038294E0,8.638038708E0
8.538620875E0,-6.009426185E0,-2.866993915E0,7.162305908E0,9.779135090E0
8.548566875E0,-8.465093622E0,-3.851429973E0,5.676167053E0,1.089542084E1
8.558512875E0,-1.023934935E1,-4.093633924E0,4.686007740E0,1.198168529E1
8.568459875E0,-1.117545817E1,-3.990586689E0,4.157291976E0,1.257373151E1
8.578405875E0,-1.163895526E1,-3.873344167E0,4.552538027E0,1.308410016E1
8.588351875E0,-1.243855849E1,-4.412463590E0,5.338986193E0,1.423700621E1
8.598298875E0,-1.394233372E1,-5.805738428E0,5.597321443E0,1.610668419E1
8.608244875E0,-1.557318415E1,-7.438699114E0,4.153639221E0,1.775136693E1
8.618190875E0,-1.742021081E1,-8.899690849E0,2.302089148E0,1.969689967E1
8.628136875E0,-1.766555764E1,-8.791869362E0,1.373215088E0,1.978015706E1
8.638083875E0,-1.665043306E1,-7.495926983E0,4.375594264E-1,1.826519369E1
8.648029875E0,-1.560690270E1,-6.034531791E0,-6.023019500E-1,1.674376760E1
8.657975875E0,-1.469582815E1,-4.414848085E0,-1.755803816E0,1.544477567E1
8.667922875E0,-1.503430943E1,-2.820420257E0,-3.525954069E0,1.569769354E1
8.677868875E0,-1.640576100E1,-1.917602267E0,-5.333381052E0,1.735716411E1
8.687814875E0,-1.608734268E1,-1.394339324E0,-5.176717188E0,1.695715712E1
8.697761875E0,-1.474820751E1,-7.515333454E-1,-3.667720982E0,1.521599830E1
8.707707875E0,-1.186682359E1,4.512670541E-1,-2.520520660E0,1.213994104E1
8.717653875E0,-9.996293460E0,1.358432742E0,-1.814103334E0,1.024998504E1
8.727599875E0,-9.176802678E0,1.329008091E0,-1.291952677E0,9.362110425E0
8.737546875E0,-8.499445429E0,1.034605460E0,-1.152682964E0,8.639424696E0
8.747492875E0,-8.042569726E0,8.895524123E-1,-1.053211812E0,8.159870490E0
8.757438875E0,-7.764251617E0,9.601353219E-1,-9.263650203E-1,7.878046405E0
8.767385875E0,-7.655153682E0,1.174096052E0,-1.041103764E0,7.814331480E0
8.777331875E0,-7.575250311E0,1.343713253E0,-1.315712399E0,7.805195814E0
8.787277875E0,-7.508599069E0,1.428971213E0,-1.660783492E0,7.821714679E0
8.797224875E0,-7.471265182E0,1.385346306E0,-1.938613944E0,7.842015801E0
8.807170875E0,-7.366619318E0,1.281674295E0,-1.898618404E0,7.714565510E0
8.817116875E0,-7.136978694E0,1.116383449E0,-1.553960710E0,7.389016901E0
8.827063875E0,-6.964816784E0,9.172018486E-1,-7.705840856E-1,7.067087937E0
8.837009875E0,-5.850918694E0,1.179183422E0,2.007372522E-1,5.971935913E0
8.846955875E0,-1.053178849E0,1.772464434E0,1.156047159E0,2.363738753E0
8.856901875E0,2.337657176E0,-1.074300453E0,1.896401725E0,3.196107326E0
8.866848875E0,5.956283766E0,-1.305873582E0,-9.387926924E-1,6.169599163E0
8.876794875E0,2.045392288E1,-1.610407683E0,-1.086138668E1,2.321478181E1
8.886740875E0,9.230812240E1,-9.307243534E0,-4.332344749E1,1.023930434E2
8.896687875E0,7.700826050E1,-2.518576344E1,-4.343449313E1,9.193013683E1
8.906633875E0,2.037321727E1,-1.814869202E1,-7.468697670E0,2.828823870E1
8.916580625E0,2.502789563E1,-8.186720549E0,3.088902473E0,2.651337910E1
8.926527625E0,2.645272409E1,3.199195871E-1,1.515933927E0,2.649805683E1
8.936473625E0,1.986527666E1,2.506262224E0,-5.051594374E0,2.065016157E1
8.946419625E0,1.438431657E1,2.431567553E0,-7.785730194E0,1.653598133E1
8.956365625E0,8.739475386E0,2.453771185E0,-6.035662057E0,1.090085499E1
8.966312625E0,5.774485061E0,2.022385833E0,-4.072354152E0,7.349747650E0
8.976258625E0,3.677295213E0,2.377224115E0,-1.569688258E0,4.651625071E0
8.986204625E0,1.081600410E0,2.265519492E0,1.069907294E0,2.728944784E0
8.996151625E0,-1.791430171E0,1.258669302E0,3.377921280E0,4.025397203E0
9.006097625E0,-4.360259941E0,-2.895936244E-1,4.848680788E0,6.527284015E0
9.016043625E0,-6.136699020E0,-1.840673374E0,5.059124418E0,8.163448611E0
9.025990625E0,-7.908148670E0,-2.615658659E0,4.514572055E0,9.474272872E0
9.035936625E0,-9.629314020E0,-2.895196205E0,3.977369642E0,1.081320114E1
9.045882625E0,-1.102067185E1,-2.963558635E0,3.669369897E0,1.198758371E1
9.055829625E0,-1.182633630E1,-2.833111347E0,3.667561938E0,1.270195894E1
9.065775625E0,-1.206527575E1,-2.676404213E0,3.767967986E0,1.292020129E1
9.075721625E0,-1.258786715E1,-2.793007926E0,3.817053607E0,1.344712574E1
9.085667625E0,-1.325553965E1,-3.088160169E0,3.471472637E0,1.404625170E1
9.095614625E0,-1.370976774E1,-3.184017961E0,2.821819496E0,1.435473326E1
9.105560625E0,-1.363535373E1,-3.157515748E0,1.842139564E0,1.411687838E1
9.115506625E0,-1.367233737E1,-3.322090018E0,3.036208389E-1,1.407342449E1
9.125453625E0,-1.401350018E1,-3.592276697E0,-8.463201463E-1,1.449133869E1
9.135399625E0,-1.395462340E1,-3.540637889E0,-1.737239930E0,1.450122869E1
9.145345625E0,-1.553234485E1,-3.816111913E0,-3.373413076E0,1.634614213E1
9.155292625E0,-1.924707511E1,-4.113411546E0,-5.491524847E0,2.043347499E1
9.165238625E0,-1.894506993E1,-3.891414403E0,-4.762967039E0,1.991844963E1
9.175184625E0,-1.689777028E1,-3.219304153E0,-3.254102980E0,1.750679142E1
9.185130625E0,-1.399747180E1,-2.292907850E0,-1.668600050E0,1.428183704E1
9.195077625E0,-1.082714538E1,-1.366333792E0,-1.075760211E0,1.096591105E1
9.205023625E0,-9.142418126E0,-5.541654781E-1,-6.829313993E-1,9.184623230E0
9.214969625E0,-8.200907063E0,-9.678486764E-2,-2.250610846E-1,8.204565587E0
9.224916625E0,-7.356874933E0,1.121990783E-1,-1.073536368E-1,7.358513587E0
9.234862625E0,-6.749451553E0,3.586494970E-1,-6.370775342E-2,6.759273955E0
9.244808625E0,-6.388791783E0,6.187199083E-1,-2.837402691E-1,6.424950063E0
9.254755625E0,-6.225371461E0,8.666772276E-1,-5.627559515E-1,6.310552551E0
9.264701625E0,-6.233753445E0,9.105781227E-1,-7.203769684E-1,6.340960298E0
9.274647625E0,-6.501208012E0,7.187929577E-1,-3.710561192E-1,6.551339678E0
9.284594625E0,-6.860681967E0,4.051471406E-1,4.829823518E-1,6.889584400E0
9.294540625E0,-7.134310024E0,-4.061827282E-2,1.572298747E0,7.305624732E0
9.304486625E0,-7.032136948E0,-4.951208791E-1,2.730673099E0,7.559938512E0
9.314432625E0,-5.385921793E0,-4.169351639E-1,3.987195303E0,6.714142900E0
9.324379625E0,-1.083239384E0,-6.985507742E-1,5.385533538E0,5.537630561E0
9.334325625E0,2.715911218E0,-2.751056492E0,3.852873065E0,5.457940676E0
9.344271625E0,8.081485285E0,-2.464310791E0,-2.173974022E0,8.724069872E0
9.354218625E0,2.645371110E1,-1.425213792E0,-1.400387800E1,2.996562471E1
9.364164625E0,9.803349143E1,-6.293966902E0,-4.540678236E1,1.082217878E2
9.374110625E0,7.538553653E1,-2.195143457E1,-3.245290524E1,8.495902340E1
9.384057625E0,1.248922228E1,-1.582462027E1,4.236947718E0,2.059978169E1
9.394003625E0,1.135820822E1,-5.137999849E0,5.280514621E0,1.353852913E1
9.403949625E0,1.540959075E1,-3.594168856E0,-4.814843828E0,1.653953620E1
9.413895625E0,1.679539489E1,-3.856681942E0,-1.244499394E1,2.125646159E1
9.423842625E0,1.366458279E1,-3.516345924E0,-1.358113016E1,1.958398856E1
9.433788625E0,9.183861437E0,-3.703734275E0,-1.061629128E1,1.451780283E1
9.443734625E0,6.510805047E0,-3.347626563E0,-5.856150198E0,9.375056326E0
9.453681625E0,2.897851426E0,-2.070249679E0,3.039008474E-1,3.574329636E0
9.463627625E0,-2.580323642E-1,-4.969510211E-1,5.278700230E0,5.308315848E0
9.473573625E0,-3.005820848E0,9.380486342E-1,8.060971498E0,8.654140957E0
9.483520625E0,-5.767585931E0,1.975715989E0,8.387917392E0,1.036945801E1
9.493466625E0,-7.907513663E0,2.259933355E0,6.703007119E0,1.060973023E1
9.503412625E0,-9.214040086E0,1.615360275E0,3.766198618E0,1.008425384E1
9.513358625E0,-1.008560266E1,1.256608744E0,1.612618808E0,1.029072330E1
9.523305625E0,-1.077121676E1,9.126506683E-1,4.128577908E-1,1.081769353E1
9.533251625E0,-1.118825656E1,2.688362646E-1,-3.453435731E-1,1.119681294E1
9.543197625E0,-1.129896423E1,-2.419992989E-1,-4.068353780E-1,1.130887578E1
9.553144625E0,-1.149445302E1,-8.589551023E-1,3.214834249E-1,1.153098459E1
9.563090625E0,-1.196583216E1,-1.794161405E0,1.556981381E0,1.219935840E1
9.573036625E0,-1.288527641E1,-3.108840601E0,2.967230394E0,1.358306646E1
9.582983625E0,-1.404057513E1,-4.795134034E0,2.936522571E0,1.512462314E1
9.592929625E0,-1.505252234E1,-5.992142401E0,1.701416963E0,1.629045791E1
9.602875625E0,-1.625313814E1,-6.432243027E0,2.738853171E-1,1.748179805E1
9.612822625E0,-1.747799885E1,-5.759399829E0,-1.449659246E0,1.845948650E1
9.622768625E0,-1.867217453E1,-3.752763471E0,-3.100976096E0,1.929635686E1
9.632714625E0,-1.957759599E1,-1.341461198E0,-4.618690501E0,2.015971441E1
9.642660625E0,-1.633945474E1,1.061502652E0,-5.349356815E0,1.722556784E1
9.652607625E0,-1.207652580E1,2.649827448E0,-5.344549234E0,1.346953107E1
9.662553625E0,-9.731829743E0,3.083916552E0,-4.975522099E0,1.135671042E1
9.672499625E0,-7.646488109E0,2.895019912E0,-4.291528260E0,9.234020549E0
9.682446625E0,-6.929010774E0,2.517789133E0,-3.219337775E0,8.044537783E0
9.692392625E0,-6.844202759E0,2.256848656E0,-2.192860236E0,7.532935236E0
9.702338625E0,-7.076338974E0,2.153204712E0,-1.211414444E0,7.495224397E0
9.712285625E0,-7.383218393E0,1.950582317E0,-2.877344839E-1,7.641955009E0
9.722231625E0,-7.682610453E0,1.508906451E0,8.043476629E-1,7.870595734E0
9.732177625E0,-8.002456073E0,9.114826870E-1,1.851103345E0,8.264180992E0
9.742123625E0,-8.080514063E0,4.987160031E-1,2.742887932E0,8.547915499E0
9.752070625E0,-7.744154152E0,4.348682089E-1,3.638608865E0,8.567409664E0
9.762016625E0,-7.180536942E0,2.433900592E-1,4.727037653E0,8.600246186E0
9.771962625E0,-6.314860173E0,-6.388599848E-1,6.439844992E0,9.041969067E0
9.781909625E0,-4.702028527E0,-3.145015571E0,1.003960613E1,1.152362297E1
9.791855625E0,-1.552418214E0,-5.867545837E0,1.364289664E1,1.493207036E1
9.801801625E0,1.392471138E1,-8.372243931E0,8.799559035E0,1.847767017E1
9.811748625E0,8.965326196E1,-1.011773896E1,-2.230195176E1,9.293789902E1
9.821694625E0,8.810273005E1,-1.925551030E1,-4.797743822E1,1.021503808E2
9.831640625E0,2.411384952E1,-1.132670342E1,-2.391864841E1,3.580326369E1
9.841586625E0,1.134451989E1,2.221244083E0,-8.794958446E0,1.452526595E1
9.851533625E0,9.391024779E0,8.081391145E0,-6.334433727E0,1.391493011E1
9.861479625E0,1.370169741E1,6.902897694E0,-1.284018269E1,2.000641897E1
9.871425625E0,1.566700389E1,3.470616312E0,-1.555609390E1,2.234932317E1
9.881372625E0,1.411462661E1,-1.584925810E-1,-1.387607190E1,1.979376608E1
9.891318625E0,1.228842071E1,-1.429504186E0,-9.011520603E0,1.530543267E1
9.901264625E0,9.554026440E0,-1.034317193E0,-1.909366171E0,9.797699345E0
9.911211625E0,6.799010798E0,-3.808379263E-1,4.036052299E0,7.915889307E0
9.921158250E0,2.917160686E0,-2.422431096E-1,7.601821228E0,8.145931143E0
9.931104250E0,-1.143965642E0,-8.918424743E-1,8.818866541E0,8.937362445E0
9.941050250E0,-4.058902633E0,-2.002926007E0,8.363248574E0,9.509486310E0
9.950997250E0,-6.241577019E0,-2.715399002E0,6.602943717E0,9.483118746E0
9.960943250E0,-8.476223212E0,-2.622917100E0,4.986374531E0,1.017791654E1
9.970889250E0,-1.035990958E1,-2.340857942E0,3.783709860E0,1.127491919E1
9.980836250E0,-1.152071053E1,-2.145784595E0,3.216765584E0,1.215231432E1
9.990782250E0,-1.207778646E1,-2.199484839E0,3.139671215E0,1.267155060E1
1.000072825E1,-1.236881758E1,-2.377507413E0,3.477208171E0,1.306641368E1
1.001067525E1,-1.276954481E1,-2.740164591E0,3.893869064E0,1.362835254E1
1.002062125E1,-1.350033450E1,-3.491294698E0,3.508566788E0,1.437908938E1
1.003056725E1,-1.392953183E1,-4.133466911E0,2.807888505E0,1.479870411E1
1.004051425E1,-1.417754265E1,-4.624374287E0,1.703825431E0,1.500968268E1
1.005046025E1,-1.435914547E1,-4.903911248E0,5.407985238E-1,1.518307832E1
1.006040625E1,-1.434817610E1,-4.698494177E0,-2.393557727E-1,1.509977801E1
1.007035225E1,-1.458730617E1,-4.256848424E0,-1.057809259E0,1.523250538E1
1.008029925E1,-1.591884464E1,-3.756376173E0,-2.354993001E0,1.652470782E1
1.009024525E1,-1.920154635E1,-3.427785750E0,-4.508804362E0,2.001945090E1
1.010019125E1,-1.909996033E1,-2.780934595E0,-4.559928907E0,1.983267591E1
1.011013825E1,-1.403596168E1,-1.632404908E0,-3.578083751E0,1.457654449E1
1.012008425E1,-9.821321379E0,-6.271043039E-1,-3.701596826E0,1.051443924E1
1.013003025E1,-7.781832440E0,4.020088669E-1,-3.360426995E0,8.485929345E0
1.013997725E1,-6.703715217E0,1.361052587E0,-2.664482617E0,7.341098655E0
1.014992325E1,-6.156778359E0,2.070772128E0,-1.689838307E0,6.711897680E0
1.015986925E1,-5.584368691E0,2.622729697E0,-1.061967798E0,6.260324300E0
1.016981525E1,-5.247688937E0,3.113297934E0,-7.043041420E-1,6.142223338E0
1.017976225E1,-5.687088482E0,3.312929478E0,-6.717655563E-1,6.615870774E0
1.018970825E1,-6.827544626E0,3.170568780E0,-8.798796558E-1,7.579054045E0
1.019965425E1,-7.944949291E0,2.491359426E0,-1.243730836E0,8.418785983E0
1.020960125E1,-8.235649465E0,1.898782711E0,-8.773864031E-1,8.497123324E0
1.021954725E1,-7.903471482E0,1.572530882E0,2.851301157E-1,8.063436862E0
1.022949325E1,-6.209223790E0,1.107794766E0,1.301245219E0,6.440101586E0
1.023944025E1,-2.485819189E0,1.335132464E0,2.703302282E0,3.907648777E0
1.024938625E1,3.020537120E0,1.033885668E0,1.617019276E0,3.578730977E0
1.025933225E1,6.396662720E0,-3.134925030E0,-1.961817888E0,7.388760270E0
1.026927825E1,1.192366438E1,-4.607527581E0,-6.937763472E0,1.454426501E1
1.027922525E1,2.271421087E1,-5.209379150E0,-1.588279889E1,2.820170752E1
1.028917125E1,3.764483981E1,-5.845445700E0,-2.292543569E1,4.446210523E1
1.029911725E1,5.750713673E1,-6.071929997E0,-2.054450561E1,6.136787286E1
1.030906425E1,6.125077211E1,-9.853090471E0,-1.069936384E1,6.295408536E1
1.031901025E1,2.754565991E1,-1.255354165E1,-2.152567950E0,3.034778965E1
1.032895625E1,1.340997982E1,-3.574954321E0,-1.805430159E-1,1.387949757E1
1.033890325E1,1.178630276E1,1.199532902E-1,-4.571497916E0,1.264238564E1
1.034884925E1,1.034926297E1,8.042899217E-1,-8.429481740E0,1.337199644E1
1.035879525E1,1.299602502E1,-9.785560247E-1,-1.073332213E1,1.688367383E1
1.036874225E1,1.187936236E1,-4.401419954E0,-9.037172338E0,1.556156264E1
1.037868825E1,6.062255194E0,-5.427445795E0,-4.156621885E0,9.137046098E0
1.038863425E1,2.158803129E0,-4.205660144E0,1.422276735E0,4.936687078E0
1.039858025E1,-1.018273895E0,-2.412202159E0,6.123242823E0,6.659557316E0
1.040852725E1,-4.020922628E0,-7.837996700E-1,9.359909406E0,1.021714563E1
1.041847325E1,-6.396532327E0,-2.051230294E-1,9.502431779E0,1.145660993E1
1.042841925E1,-7.465284065E0,3.997887522E-2,7.137062309E0,1.032810355E1
1.043836625E1,-8.265667900E0,-4.991446406E-2,3.885709859E0,9.133591758E0
1.044831225E1,-9.475507105E0,2.617882501E-2,1.474351453E0,9.589558511E0
1.045825825E1,-1.062949780E1,1.146963510E-1,1.577134395E-1,1.063128648E1
1.046820525E1,-1.125925111E1,-1.701586898E-1,-6.268309466E-1,1.127796997E1
1.047815125E1,-1.156248888E1,-7.306557888E-1,-5.957132343E-1,1.160085692E1
1.048809725E1,-1.188020904E1,-1.317056382E0,-1.689226250E-1,1.195418501E1
1.049804325E1,-1.241381191E1,-2.038411297E0,4.226823556E-1,1.258715643E1
1.050799025E1,-1.301429991E1,-2.939451149E0,1.145149046E0,1.339118148E1
1.051793625E1,-1.373275899E1,-3.782853243E0,1.302800432E0,1.430370361E1
1.052788225E1,-1.429104880E1,-4.347614460E0,7.816043329E-1,1.495816608E1
1.053782925E1,-1.470970476E1,-4.340369760E0,-2.102424860E-1,1.533813632E1
1.054777525E1,-1.632269194E1,-4.088170578E0,-1.932456826E0,1.693746735E1
1.055772125E1,-2.024967964E1,-3.613409996E0,-4.212343512E0,2.099643053E1
1.056766825E1,-2.022771983E1,-2.402233534E0,-4.442651303E0,2.084870562E1
1.057761425E1,-1.719302193E1,-1.286963102E0,-3.494076219E0,1.759161293E1
1.058756025E1,-1.285036035E1,-2.608094993E-1,-3.203819264E0,1.324629158E1
1.059750625E1,-1.004187601E1,4.012303101E-1,-3.240287179E0,1.055934281E1
1.060745325E1,-8.285062530E0,9.398668990E-1,-2.885362358E0,8.823317225E0
1.061739925E1,-7.352853802E0,1.153867902E0,-2.258305782E0,7.777905578E0
1.062734525E1,-6.763175552E0,1.228709339E0,-1.709224166E0,7.083199661E0
1.063729225E1,-6.251464076E0,1.159297627E0,-1.232438693E0,6.476393998E0
1.064723825E1,-5.879329730E0,1.131997927E0,-9.372314858E-1,6.060226088E0
1.065718425E1,-5.602406766E0,1.112256192E0,-7.991377938E-1,5.767382129E0
1.066713125E1,-5.613560915E0,8.577978652E-1,-6.140523684E-1,5.711824895E0
1.067707725E1,-7.198798381E0,2.024920017E-1,-2.131076217E-2,7.201677255E0
1.068702325E1,-9.411614580E0,-3.091320589E-1,1.229800429E0,9.496655239E0
1.069697025E1,-9.110373046E0,-5.496959395E-1,2.151874763E0,9.377186553E0
1.070691625E1,-7.633841166E0,-9.835037924E-1,3.096666698E0,8.296514648E0
1.071686225E1,-5.587177693E0,-1.410418290E0,4.579601279E0,7.360610179E0
1.072680825E1,-2.569470041E0,-3.107724076E0,7.757768809E0,8.743174601E0
1.073675525E1,3.909907976E0,-3.520491892E0,8.482685555E0,9.981843406E0
1.074670125E1,1.327431155E1,-4.084463736E0,-1.548157933E0,1.397451195E1
1.075664725E1,3.455399460E1,-5.066831049E0,-2.168532077E1,4.110844751E1
1.076659425E1,1.081275351E2,-4.915989842E0,-5.989045715E1,1.237036688E2
1.077654025E1,6.517872577E1,-1.422484428E1,-3.619952738E1,7.590137199E1
1.078648625E1,1.086318411E1,-8.781665386E0,1.571040719E0,1.405683410E1
1.079643325E1,1.320208207E1,3.626256037E0,2.432287637E0,1.390542077E1
1.080637925E1,1.541884806E1,4.430288535E0,-6.399217368E0,1.727189378E1
1.081632525E1,1.606026891E1,3.425665842E0,-1.304446335E1,2.097201583E1
1.082627125E1,1.310645436E1,2.581046651E0,-1.367296770E1,1.911520320E1
1.083621825E1,9.682828907E0,1.041507806E0,-9.168340588E0,1.337536479E1
1.084616425E1,6.641876818E0,5.235223039E-1,-1.757773743E0,6.890455123E0
1.085611025E1,4.303318001E0,6.341920064E-1,4.719868966E0,6.418559681E0
1.086605725E1,1.082507898E0,6.791868424E-1,9.250112729E0,9.337971065E0
1.087600325E1,-2.810971157E0,1.353440389E-1,1.217721719E1,1.249817968E1
1.088594925E1,-5.375027261E0,-1.809998589E0,1.082839552E1,1.222379493E1
1.089589625E1,-6.524878711E0,-3.563132713E0,6.891496208E0,1.013719275E1
1.090584225E1,-8.100570012E0,-3.730724438E0,4.112802851E0,9.821032871E0
1.091578700E1,-9.856212884E0,-3.526883191E0,2.523008065E0,1.076798064E1
1.092573300E1,-1.105008919E1,-3.301842864E0,1.780914538E0,1.166954558E1
1.093568000E1,-1.157263263E1,-3.101550878E0,1.677946240E0,1.209797287E1
1.094562600E1,-1.208272969E1,-3.351176700E0,1.739947776E0,1.265899524E1
1.095557200E1,-1.298338568E1,-4.269178448E0,1.196450323E0,1.371953649E1
1.096551900E1,-1.421245053E1,-5.276756616E0,5.887596524E-1,1.517183404E1
1.097546500E1,-1.489506618E1,-5.655755008E0,3.292444342E-1,1.593608995E1
1.098541100E1,-1.461372389E1,-5.233730464E0,2.444054282E-1,1.552458033E1
1.099535800E1,-1.431989779E1,-4.328378583E0,-1.790060753E-1,1.496082809E1
1.100530400E1,-1.454639904E1,-3.522141100E0,-9.931197578E-1,1.499964966E1
1.101525000E1,-1.528406740E1,-3.000310139E0,-2.037817220E0,1.570850968E1
1.102519600E1,-1.605058007E1,-2.745419484E0,-2.862627214E0,1.653339297E1
1.103514300E1,-1.621824079E1,-2.540887681E0,-3.058912396E0,1.669863436E1
1.104508900E1,-1.546456393E1,-2.098205509E0,-2.747472149E0,1.584625530E1
1.105503500E1,-1.258963417E1,-1.170897041E0,-2.531873614E0,1.289497082E1
1.106498200E1,-9.493097869E0,-3.755915486E-1,-2.538686789E0,9.833865301E0
1.107492800E1,-8.013571045E0,4.024487237E-1,-2.055458854E0,8.282765056E0
1.108487400E1,-7.058066425E0,1.195416243E0,-1.126357922E0,7.246654665E0
1.109482100E1,-6.479444675E0,1.749134921E0,-2.009079909E-1,6.714390538E0
1.110476700E1,-6.085164585E0,2.116347080E0,2.627306020E-1,6.448036939E0
1.111471300E1,-5.819595160E0,2.260630927E0,2.591767009E-1,6.248624855E0
1.112466000E1,-6.070716700E0,2.160497652E0,-7.197217148E-2,6.444108266E0
1.113460600E1,-8.005030602E0,1.513147144E0,-3.379047088E-1,8.153791070E0
1.114455200E1,-9.156365490E0,9.446244130E-1,-3.243005769E-1,9.210673978E0
1.115449800E1,-9.889734972E0,4.498922640E-1,1.665645160E-2,9.899976681E0
1.116444500E1,-1.008600729E1,3.996241165E-1,5.338122340E-1,1.010802641E1
1.117439100E1,-8.912373460E0,3.916790295E-1,9.918338820E-1,8.975942714E0
1.118433700E1,-6.861157930E0,2.169694152E-1,1.632647860E0,7.056068516E0
1.119428400E1,-4.068254085E0,-5.433259097E-1,2.099475524E0,4.610172645E0
1.120423000E1,-4.876817590E-1,-2.274927370E0,5.421137234E0,5.899309870E0
1.121417600E1,5.436882032E0,-9.818454489E-1,4.596155039E0,7.186678500E0
1.122412200E1,1.175866648E1,2.196400579E-1,-5.095384172E0,1.281707529E1
1.123406900E1,2.820348571E1,4.239779525E-1,-1.805600430E1,3.349082941E1
1.124401500E1,9.133140349E1,-5.491067594E-1,-3.559886865E1,9.802553867E1
1.125396100E1,7.233773385E1,-1.662466321E1,-2.810341412E1,7.936579269E1
1.126390800E1,1.785325677E1,-1.938642712E1,-6.176280577E0,2.706877862E1
1.127385400E1,1.884084331E1,-1.705173215E0,-9.442013669E-1,1.894139669E1
1.128380000E1,1.735262636E1,3.336207536E0,-4.196768868E0,1.816196000E1
1.129374700E1,1.491677572E1,2.696130087E0,-9.197826927E0,1.773074548E1
1.130369300E1,1.251345080E1,1.835878950E0,-1.050909076E1,1.644377971E1
1.131363900E1,9.691692116E0,7.435106000E-1,-8.168228145E0,1.269652138E1
1.132358600E1,6.967623448E0,3.010442633E-2,-2.994698274E0,7.583989751E0
1.133353200E1,3.852706420E0,-4.693567313E-2,2.322370216E0,4.498772403E0
1.134347800E1,6.766339481E-1,4.048924944E-1,6.036171935E0,6.087457848E0
1.135342400E1,-2.399578021E0,2.790441144E-1,8.066822222E0,8.420775562E0
1.136337100E1,-4.851103874E0,-5.317966622E-1,8.176452838E0,9.522100478E0
1.137331700E1,-6.188704156E0,-1.773400866E0,6.302325497E0,9.009124066E0
1.138326300E1,-7.699104863E0,-2.320407890E0,4.281837670E0,9.110139533E0
1.139321000E1,-9.429774277E0,-2.384866134E0,3.144397520E0,1.022230234E1
1.140315600E1,-1.072954132E1,-2.387130322E0,2.749360800E0,1.133050894E1
1.141310200E1,-1.157521944E1,-2.437848924E0,2.565596845E0,1.210417695E1
1.142304900E1,-1.189788400E1,-2.546082932E0,2.612009704E0,1.244446772E1
1.143299500E1,-1.195306067E1,-2.672262338E0,2.635448853E0,1.252845705E1
1.144294100E1,-1.223025494E1,-2.984175040E0,2.602600949E0,1.285527006E1
1.145288700E1,-1.299173901E1,-3.734395320E0,2.149132419E0,1.368757689E1
1.146283400E1,-1.367779516E1,-4.329027039E0,1.625175118E0,1.443827378E1
1.147278000E1,-1.412160468E1,-4.521595731E0,9.922140241E-1,1.486099038E1
1.148272600E1,-1.487069966E1,-4.414352533E0,1.810040689E-1,1.551312280E1
1.149267300E1,-1.589783325E1,-4.083125601E0,-8.044938433E-1,1.643350928E1
1.150261900E1,-1.730394244E1,-3.610187303E0,-1.834566250E0,1.777148023E1
1.151256500E1,-1.809250145E1,-2.983030155E0,-2.537566463E0,1.851151861E1
1.152251200E1,-1.717041893E1,-2.582111429E0,-2.241852887E0,1.750761235E1
1.153245800E1,-1.300976364E1,-1.868051938E0,-1.861067001E0,1.327430368E1
1.154240400E1,-9.813640476E0,-1.061786096E0,-1.689389241E0,1.001443783E1
1.155235000E1,-8.500687963E0,-6.098982140E-2,-1.013092165E0,8.561061344E0
1.156229700E1,-7.544993894E0,6.932584593E-1,-2.149109030E-1,7.579823668E0
1.157224300E1,-6.964778193E0,1.054566027E0,4.120592073E-1,7.056205607E0
1.158218900E1,-6.610699464E0,1.241661214E0,7.407228669E-1,6.766959461E0
1.159213600E1,-6.556128570E0,1.302949682E0,8.428985019E-1,6.737282656E0
1.160208200E1,-6.650531867E0,1.250859177E0,8.737261192E-1,6.823314453E0
1.161202800E1,-6.868487999E0,1.032929356E0,8.064994383E-1,6.992389563E0
1.162197500E1,-7.207600780E0,6.114148356E-1,7.591768987E-1,7.273217078E0
1.163192100E1,-8.769372784E0,-1.331754528E-1,1.201697688E0,8.852328059E0
1.164186700E1,-9.719626604E0,-6.314558018E-1,1.952401825E0,9.933868866E0
1.165181300E1,-9.186151206E0,-7.629165586E-1,2.469622986E0,9.542874481E0
1.166176000E1,-8.173487130E0,-7.642492852E-1,3.368032469E0,8.873196242E0
1.167170600E1,-6.427527248E0,-6.114118389E-1,4.304177542E0,7.759695565E0
1.168165200E1,-2.487293272E0,-7.365980217E-1,5.741128449E0,6.299980979E0
1.169159900E1,2.070066369E0,-4.210939303E0,7.235265126E0,8.623586610E0
1.170154500E1,9.794632348E0,-4.966189942E0,-7.208558553E-1,1.100533955E1
1.171149100E1,2.202303256E1,-2.793027806E0,-1.606663068E1,2.740349592E1
1.172143800E1,4.964149030E1,-2.015886507E0,-3.411293912E1,6.026635855E1
1.173138400E1,8.576062549E1,-3.388975441E0,-3.540496796E1,9.284331852E1
1.174133000E1,4.125236838E1,-1.250355030E1,-1.423784381E1,4.539617675E1
1.175127600E1,1.144872546E1,-9.018159531E0,-8.853313074E-1,1.460083311E1
1.176122300E1,1.449261636E1,2.851783553E-1,-9.104909992E-1,1.452398876E1
1.177116900E1,1.404904073E1,2.052731567E0,-6.361868863E0,1.555836199E1
1.178111500E1,1.500044236E1,1.265272271E0,-1.256165174E1,1.960635813E1
1.179106200E1,1.619719082E1,7.881724372E-1,-1.387328629E1,2.134099994E1
1.180100800E1,1.403320296E1,-1.022356713E0,-1.051981222E1,1.756822267E1
1.181095400E1,9.887073319E0,-2.528934803E0,-5.892271957E0,1.178425216E1
1.182090100E1,6.695499879E0,-2.247986908E0,-8.840067668E-1,7.117909224E0
1.183084700E1,3.340027229E0,-1.364229379E0,4.010785310E0,5.394747677E0
1.184079300E1,-3.021478522E-1,-5.326366147E-1,7.208922250E0,7.234884595E0
1.185074000E1,-2.920329292E0,-3.444691585E-1,7.408583615E0,7.970827646E0
1.186068600E1,-4.519244565E0,-4.110818087E-1,5.941169883E0,7.475965441E0
1.187063200E1,-5.655479604E0,-7.364902136E-1,4.170096209E0,7.065165941E0
1.188057800E1,-7.242337918E0,-1.030623287E0,2.554170216E0,7.748382307E0
1.189052500E1,-9.110725048E0,-1.130951860E0,1.406864644E0,9.287821657E0
1.190047100E1,-1.060325900E1,-1.114292266E0,7.744134271E-1,1.068973643E1
1.191041700E1,-1.154166695E1,-1.150882095E0,4.605635422E-1,1.160804567E1
1.192036438E1,-1.172722951E1,-1.103188915E0,2.595736903E-1,1.178186387E1
1.193031038E1,-1.174459340E1,-1.178102272E0,2.173550391E-1,1.180553439E1
1.194025638E1,-1.195905640E1,-1.456142200E0,3.162935094E-1,1.205153193E1
1.195020337E1,-1.224334920E1,-1.953099251E0,7.556520510E-1,1.242115962E1
1.196014938E1,-1.250927706E1,-2.537520270E0,1.620346488E0,1.286648920E1
1.197009538E1,-1.302803618E1,-3.308927643E0,2.248287163E0,1.362840872E1
1.198004138E1,-1.339312347E1,-3.969684647E0,1.820763313E0,1.408720453E1
1.198998837E1,-1.364429295E1,-4.460711305E0,7.111792982E-1,1.437255898E1
1.199993438E1,-1.516889596E1,-4.858088958E0,-1.005271368E0,1.595954271E1
1.200988038E1,-2.016965464E1,-5.440449418E0,-4.084460227E0,2.128605820E1
1.201982738E1,-2.037361956E1,-5.661168945E0,-4.408053913E0,2.160009600E1
1.202977338E1,-1.736439212E1,-4.865451187E0,-3.385734329E0,1.834824041E1
1.203971938E1,-1.302197145E1,-3.775032592E0,-2.565243673E0,1.379866250E1
1.204966638E1,-9.495670059E0,-3.071321942E0,-2.554377792E0,1.030172870E1
1.205961238E1,-8.073978045E0,-2.069112980E0,-2.459095659E0,8.690080636E0
1.206955838E1,-7.430935766E0,-9.531208558E-1,-2.032374632E0,7.762589283E0
1.207950438E1,-7.016430742E0,-2.632682535E-1,-1.578590936E0,7.196635316E0
1.208945137E1,-6.658418591E0,1.603490719E-1,-1.027423618E0,6.739128226E0
1.209939738E1,-6.401383177E0,3.851850387E-1,-4.541719508E-1,6.429023740E0
1.210934338E1,-6.282308723E0,5.054818529E-1,-1.966816235E-1,6.305679857E0
1.211929038E1,-6.385651828E0,6.369089882E-1,2.276215986E-1,6.421371654E0
1.212923637E1,-6.988946489E0,5.870442255E-1,9.718037331E-1,7.080564698E0
1.213918238E1,-8.839845766E0,-2.437382609E-2,1.715004723E0,9.004704796E0
1.214912938E1,-9.213782809E0,-4.901314500E-1,2.453274171E0,9.547385854E0
1.215907538E1,-8.210426331E0,-9.358718620E-1,3.555193655E0,8.995907881E0
1.216902138E1,-5.600378952E0,-9.876961729E-1,4.325339785E0,7.144812971E0
1.217896738E1,-2.328482895E0,-1.186627366E0,5.683921630E0,6.255947746E0
1.218891438E1,2.974144726E0,1.318927199E-2,5.741399760E0,6.466017477E0
1.219886038E1,9.783655370E0,2.501047970E0,-3.565769514E-1,1.010456830E1
1.220880638E1,2.118470321E1,1.291631519E0,-1.820972175E1,2.796522713E1
1.221875338E1,4.599144779E1,-3.092987630E0,-3.726835163E1,5.927655418E1
1.222869937E1,6.847690623E1,-4.733521338E0,-3.154553198E1,7.554213062E1
1.223864538E1,5.095343242E1,-9.901798947E0,-1.576508041E1,5.424790925E1
1.224859238E1,1.663188569E1,-1.087632631E1,-4.138337057E0,2.029876669E1
1.225853838E1,9.920526409E0,-1.292277052E0,-1.096382756E0,1.006423764E1
1.226848437E1,1.137163226E1,3.565700810E0,-7.536796682E0,1.410076405E1
1.227843038E1,1.416863851E1,4.130338943E0,-1.351530104E1,2.001183098E1
1.228837738E1,1.645863503E1,2.511842807E0,-1.339896366E1,2.137120138E1
1.229832338E1,1.874485893E1,-2.329092175E-1,-9.667828460E0,2.109243680E1
1.230826938E1,1.501532586E1,-1.991781507E0,-4.391760646E0,1.577069326E1
1.231821638E1,7.995101445E0,-2.403043373E0,1.702614327E0,8.520279345E0
1.232816238E1,3.022369637E0,-9.266971421E-1,6.360694742E0,7.102951740E0
1.233810838E1,-6.668989187E-1,6.694719860E-1,8.497728102E0,8.550107006E0
1.234805538E1,-3.201445879E0,1.324929073E0,8.064989705E0,8.777741834E0
1.235800138E1,-4.195233974E0,9.398741350E-1,6.120261912E0,7.479368781E0
1.236794737E1,-4.876840979E0,5.995734930E-2,3.980382712E0,6.295285486E0
1.237789338E1,-6.594331938E0,-5.415325686E-1,2.276451446E0,6.997192467E0
1.238784038E1,-8.710403030E0,-7.432998810E-1,1.230282825E0,8.828205451E0
1.239778638E1,-1.064889769E1,-9.245447820E-1,3.720899069E-1,1.069543155E1
1.240773237E1,-1.173912508E1,-1.310111936E0,-2.524844529E-1,1.181470268E1
1.241767938E1,-1.200520146E1,-1.607639026E0,-6.098821342E-1,1.212770883E1
1.242762538E1,-1.220966456E1,-1.967811723E0,-7.128082594E-1,1.238774746E1
1.243757138E1,-1.270393672E1,-2.640396474E0,-4.123960070E-1,1.298197874E1
1.244751838E1,-1.342302847E1,-3.654553345E0,3.968551310E-1,1.391728951E1
1.245746438E1,-1.411748005E1,-4.718922010E0,1.386034523E0,1.494966754E1
1.246741038E1,-1.468404952E1,-5.555685174E0,1.982738203E0,1.582460738E1
1.247735638E1,-1.456081477E1,-5.976845500E0,1.486837597E0,1.580982906E1
1.248730338E1,-1.425358569E1,-5.894116754E0,6.472587061E-1,1.543775441E1
1.249724938E1,-1.533032238E1,-5.746095074E0,-7.772002101E-1,1.639025421E1
1.250719538E1,-1.926990615E1,-5.693027499E0,-4.017690872E0,2.049101474E1
1.251714237E1,-1.964837537E1,-4.682453803E0,-5.274915912E0,2.087603329E1
1.252708838E1,-1.492428120E1,-2.710336483E0,-5.039135712E0,1.598352220E1
1.253703438E1,-1.038094669E1,-6.319015058E-1,-4.912148806E0,1.150185027E1
1.254698138E1,-8.246356886E0,9.615067863E-1,-4.973056912E0,9.677716272E0
1.255692738E1,-7.069895343E0,2.166368841E0,-5.150986515E0,9.011616736E0
1.256687338E1,-6.311112692E0,2.865188295E0,-5.203489249E0,8.666934161E0
1.257681938E1,-5.725690631E0,3.281587232E0,-4.812499387E0,8.167771931E0
1.258676638E1,-5.528223726E0,3.608033189E0,-3.661859733E0,7.549064695E0
1.259671238E1,-5.494838464E0,3.885267225E0,-2.256322407E0,7.097854743E0
1.260665838E1,-5.699113281E0,4.125658832E0,-5.837696385E-1,7.059868269E0
1.261660537E1,-6.122178630E0,4.096577997E0,6.917220303E-1,7.398750018E0
1.262655138E1,-6.679430560E0,3.790913630E0,1.245714211E0,7.780592693E0
1.263649738E1,-7.757693964E0,2.569627331E0,9.110704583E-1,8.222824919E0
1.264644438E1,-8.184841838E0,7.893293819E-1,4.106814937E-1,8.233063590E0
1.265639037E1,-7.109551159E0,-4.868491155E-1,5.761249888E-1,7.149451710E0
1.266633638E1,-5.849240543E0,-1.083192607E0,2.355129826E0,6.397933858E0
1.267628238E1,-3.834745528E0,-8.389959240E-1,4.901414487E0,6.279574141E0
1.268622938E1,9.405515349E-1,-6.805448583E-1,5.379264153E0,5.503113784E0
1.269617538E1,5.798277381E0,-1.082181550E0,2.106730896E0,6.263341964E0
1.270612138E1,1.299491755E1,-7.730951723E-1,-4.996144059E0,1.394370876E1
1.271606838E1,2.909820092E1,-2.311273662E0,-1.753367603E1,3.405109510E1
1.272601438E1,5.688694829E1,-6.604359913E0,-3.333485949E1,6.626428384E1
1.273596038E1,8.127160109E1,-1.456984053E1,-3.500901323E1,8.968268731E1
1.274590738E1,3.467446127E1,-2.013649158E1,-1.441208382E1,4.260873992E1
1.275585337E1,1.085912848E1,-9.183785423E0,-7.275035548E-1,1.424050026E1
1.276579938E1,8.480875257E0,-3.072610084E0,-2.290671875E0,9.306629653E0
1.277574538E1,1.067065869E1,-1.374996442E0,-7.896172403E0,1.334552774E1
1.278569238E1,1.368066731E1,-5.911632966E-1,-1.033353045E1,1.715494051E1
1.279563837E1,1.201109545E1,-2.041726815E0,-8.824921918E0,1.504374652E1
1.280558438E1,7.249096130E0,-4.257522608E0,-4.386768001E0,9.482596003E0
1.281553138E1,4.631001229E0,-4.323592344E0,1.496184518E0,6.509853397E0
1.282547738E1,2.474791925E0,-3.152318158E0,7.432752496E0,8.444377686E0
1.283542338E1,-5.871545917E-1,-1.831000910E0,1.180775385E1,1.196329244E1
1.284537038E1,-4.558064230E0,-6.167204529E-1,1.201625504E1,1.286649442E1
1.285531638E1,-7.425767412E0,3.392738709E-1,9.264471737E0,1.187802867E1
1.286526238E1,-8.664646813E0,1.427905557E0,5.640297893E0,1.043685676E1
1.287520838E1,-9.366862915E0,2.069709688E0,2.460165115E0,9.903243481E0
1.288515538E1,-9.627563948E0,1.763850316E0,3.615789521E-1,9.794482878E0
1.289510137E1,-1.018035796E1,1.229774117E0,-7.898980967E-1,1.028474461E1
1.290504738E1,-1.099346709E1,6.735781932E-1,-1.637823815E0,1.113519165E1
1.291499400E1,-1.151399675E1,2.023621935E-1,-2.135815970E0,1.171216383E1
1.292494000E1,-1.194250762E1,-3.478508592E-1,-2.164900605E0,1.214212844E1
1.293488600E1,-1.242982977E1,-9.211618754E-1,-1.816602434E0,1.259560446E1
1.294483300E1,-1.296153346E1,-1.466031158E0,-1.057159048E0,1.308694702E1
1.295477900E1,-1.341636147E1,-1.912750832E0,3.749234676E-2,1.355207647E1
1.296472500E1,-1.359176391E1,-2.447763755E0,1.059687311E0,1.385101190E1
1.297467100E1,-1.373553408E1,-3.483317927E0,1.226454653E0,1.422331154E1
1.298461800E1,-1.454381458E1,-4.664207274E0,4.812603833E-1,1.528100074E1
1.299456400E1,-1.502495622E1,-5.097759311E0,-5.691562772E-2,1.586630703E1
1.300451000E1,-1.542731951E1,-5.138948268E0,-5.517923856E-1,1.627007840E1
1.301445700E1,-1.526994520E1,-4.330137425E0,-7.467853332E-1,1.588958794E1
1.302440300E1,-1.399483821E1,-2.673049081E0,-1.021211536E0,1.428438171E1
1.303434900E1,-1.043636076E1,-9.058065024E-1,-1.399027036E0,1.056860388E1
1.304429600E1,-8.571784258E0,1.252748046E-1,-1.722364029E0,8.744010349E0
1.305424200E1,-7.874300893E0,8.575687274E-1,-1.685429506E0,8.098191853E0
1.306418800E1,-7.319805924E0,1.390419350E0,-1.448425484E0,7.590175302E0
1.307413400E1,-7.040404326E0,1.637092913E0,-1.229807446E0,7.332106971E0
1.308408100E1,-7.259524055E0,1.812007399E0,-8.770344007E-1,7.533475271E0
1.309402700E1,-8.233279588E0,1.589783676E0,-6.190388739E-1,8.408181375E0
1.310397300E1,-8.504265289E0,1.308956527E0,-7.180778432E-1,8.634322851E0
1.311392000E1,-8.882867240E0,1.226766894E0,-4.049243617E-1,8.976316124E0
1.312386600E1,-8.922862780E0,1.274198338E0,1.902766017E-1,9.015390551E0
1.313381200E1,-8.884062996E0,1.179621013E0,1.138753434E0,9.034093227E0
1.314375900E1,-8.594077352E0,6.698412377E-1,2.277499852E0,8.915932839E0
1.315370500E1,-6.845369863E0,5.316458406E-1,3.424709530E0,7.672702993E0
1.316365100E1,-3.400194494E0,3.651832123E-1,5.175439571E0,6.203213371E0
1.317359700E1,2.426218520E0,-3.634193632E-1,6.817756387E0,7.245716810E0
1.318354400E1,1.009491728E1,-5.052140870E-1,1.468420330E0,1.021366018E1
1.319349000E1,2.123153239E1,-3.650036078E0,-1.047118443E1,2.395300471E1
1.320343600E1,4.346336434E1,-1.062786058E1,-2.686842370E1,5.219126031E1
1.321338300E1,7.913137982E1,-1.303506103E1,-3.813068496E1,8.880111049E1
1.322332900E1,5.319061455E1,-1.271921666E1,-2.728156223E1,6.111713005E1
1.323327500E1,1.291550418E1,-6.396413628E0,-7.409802175E0,1.620584844E1
1.324322200E1,7.425722973E0,2.922444815E0,4.531285152E-1,7.992957577E0
1.325316800E1,6.563645166E0,7.997188901E0,-3.034604352E0,1.078171098E1
1.326311400E1,8.421081630E0,8.166296225E0,-1.107357395E1,1.613155448E1
1.327306000E1,1.287483212E1,4.715327434E0,-1.494329284E1,2.028047376E1
1.328300700E1,1.766406309E1,3.259264317E-1,-1.466704348E1,2.296187095E1
1.329295300E1,1.856769999E1,-2.196275010E0,-9.990919869E0,2.119909400E1
1.330289900E1,1.416847946E1,-3.877444235E0,-4.093867228E0,1.524926664E1
1.331284600E1,6.090139396E0,-4.999369383E0,1.930011667E0,8.112239957E0
1.332279200E1,1.423440331E0,-3.876787300E0,5.937218335E0,7.232304177E0
1.333273800E1,-2.027336086E0,-2.081471655E0,7.679508505E0,8.210814012E0
1.334268500E1,-3.771124898E0,-8.977536439E-1,6.926520445E0,7.937507800E0
1.335263100E1,-4.712073458E0,-6.587455612E-1,4.870433600E0,6.808722747E0
1.336257700E1,-5.613931044E0,-9.630247966E-1,2.671546054E0,6.291327113E0
1.337252300E1,-7.297340337E0,-1.249459645E0,9.938933444E-1,7.469949758E0
1.338247000E1,-9.113704789E0,-1.408115510E0,2.146266187E-1,9.224341107E0
1.339241600E1,-1.065793281E1,-1.478126123E0,8.979101300E-2,1.076031835E1
1.340236200E1,-1.129582661E1,-1.580890646E0,1.385936290E-1,1.140675775E1
1.341230900E1,-1.172817442E1,-1.996028339E0,2.378892910E-1,1.189919307E1
1.342225500E1,-1.238854726E1,-2.685442839E0,6.775683331E-1,1.269436116E1
1.343220100E1,-1.312128290E1,-3.602886470E0,1.795664139E0,1.372491405E1
1.344214800E1,-1.394588649E1,-4.636464867E0,2.914485000E0,1.498261590E1
1.345209400E1,-1.452384750E1,-5.349438676E0,3.142598916E0,1.579349766E1
1.346204000E1,-1.437880849E1,-5.240831323E0,2.261492368E0,1.547031978E1
1.347198600E1,-1.377407541E1,-4.656717868E0,6.853403060E-1,1.455609378E1
1.348193300E1,-1.613721592E1,-4.322869921E0,-2.298003552E0,1.686350386E1
1.349187900E1,-1.828773998E1,-3.880201197E0,-4.418453186E0,1.920989650E1
1.350182500E1,-1.843117452E1,-3.201124282E0,-5.023775661E0,1.936991773E1
1.351177200E1,-1.776106256E1,-2.545167843E0,-5.293982513E0,1.870720378E1
1.352171800E1,-1.577937568E1,-2.218923615E0,-4.893112026E0,1.666897910E1
1.353166400E1,-1.162130135E1,-1.860338145E0,-4.288903445E0,1.252638000E1
1.354161100E1,-9.249473044E0,-9.676995724E-1,-4.006056082E0,1.012608905E1
1.355155700E1,-8.524811820E0,1.864863452E-1,-3.834730325E0,9.349457225E0
1.356150300E1,-8.211000527E0,1.008338306E0,-3.545075634E0,9.000268721E0
1.357144900E1,-7.848628693E0,1.289688489E0,-3.100327640E0,8.536761695E0
1.358139600E1,-7.513542305E0,1.330813419E0,-2.616328458E0,8.066570332E0
1.359134200E1,-7.330717413E0,1.258079318E0,-2.241727756E0,7.768366926E0
1.360128800E1,-7.416866781E0,1.306031165E0,-1.702239082E0,7.720961607E0
1.361123500E1,-7.720217990E0,1.358939695E0,-1.098728074E0,7.915534491E0
1.362118100E1,-7.909692920E0,1.339138977E0,-4.485797469E-1,8.034784320E0
1.363112700E1,-7.964548573E0,9.758678403E-1,4.907013343E-1,8.039100685E0
1.364107400E1,-7.958330644E0,2.091049102E-1,1.471477547E0,8.095924757E0
1.365102000E1,-8.034534482E0,-5.702327496E-1,2.491202136E0,8.431191957E0
1.366096600E1,-7.090526074E0,-7.297193572E-1,4.452971638E0,8.404582485E0
1.367091200E1,-3.410594351E0,-1.035322548E0,7.527287940E0,8.328511892E0
1.368085900E1,2.067490085E0,-2.489899376E0,7.604491067E0,8.264526517E0
1.369080500E1,1.032987360E1,-1.890692065E0,8.440922110E-1,1.053534512E1
1.370075100E1,2.921871905E1,-1.434866083E0,-1.422758546E1,3.253024088E1
1.371069800E1,7.867300489E1,-6.395269328E0,-4.107746179E1,8.898145333E1
1.372064400E1,8.779446485E1,-2.046510977E1,-4.794304723E1,1.021039889E2
1.373059000E1,2.090157869E1,-2.053848999E1,-1.317763954E1,3.213029329E1
1.374053700E1,1.191616006E1,-6.691620836E0,-1.925106584E0,1.380140194E1
1.375048300E1,1.460146695E1,-1.213187905E0,-6.691493951E0,1.610747508E1
1.376042900E1,1.468002780E1,-7.518747497E-1,-1.260849612E1,1.936601937E1
1.377037500E1,1.533879500E1,-1.619780185E0,-1.329676486E1,2.036433833E1
1.378032200E1,1.502481472E1,-4.032317390E0,-1.114505850E1,1.913679623E1
1.379026800E1,1.115491223E1,-5.812779061E0,-7.835914507E0,1.481964991E1
1.380021400E1,7.615028919E0,-6.227099313E0,-2.838723797E0,1.023834870E1
1.381016100E1,4.572703904E0,-5.702267269E0,2.674425223E0,7.783188503E0
1.382010700E1,1.222693723E0,-4.163791741E0,7.382802072E0,8.563755487E0
1.383005300E1,-2.464825931E0,-2.073965877E0,1.128372288E1,1.173452612E1
1.384000000E1,-5.111061727E0,3.445500694E-1,1.247867858E1,1.348922110E1
1.384994600E1,-6.810859596E0,1.718877919E0,1.064540106E1,1.275409398E1
1.385989200E1,-7.381453704E0,1.155727901E0,6.432194495E0,9.858736825E0
1.386983800E1,-8.158434058E0,4.235562220E-1,3.178806045E0,8.766085445E0
1.387978500E1,-9.638550282E0,4.181873452E-1,1.826635087E0,9.819018684E0
1.388973100E1,-1.063572976E1,3.599759379E-1,1.243488176E0,1.071422387E1
1.389967700E1,-1.104668026E1,7.029137107E-2,8.525105935E-1,1.107975000E1
1.390962400E1,-1.124100546E1,-2.870359791E-1,7.261820841E-1,1.126809362E1
1.391957013E1,-1.135285568E1,-7.098282990E-1,7.758588588E-1,1.140145365E1
1.392951613E1,-1.152968367E1,-1.200207963E0,1.141316854E0,1.164803454E1
1.393946313E1,-1.208754195E1,-1.851658831E0,1.450555040E0,1.231427711E1
1.394940913E1,-1.267531576E1,-2.684756376E0,1.437475988E0,1.303602254E1
1.395935513E1,-1.405516510E1,-3.474048920E0,-2.158604908E-1,1.447975406E1
1.396930113E1,-1.910823298E1,-4.354632581E0,-4.045425970E0,2.001131839E1
1.397924813E1,-2.200474480E1,-5.351230263E0,-5.456445061E0,2.329414630E1
1.398919412E1,-1.900041500E1,-5.329054697E0,-3.575241419E0,2.005484842E1
1.399914013E1,-1.655699221E1,-4.422731009E0,-1.910988189E0,1.724373558E1
1.400908713E1,-1.538918163E1,-3.390629033E0,-1.013988470E0,1.579086600E1
1.401903313E1,-1.331689098E1,-2.431646929E0,-4.905381969E-1,1.354596323E1
1.402897912E1,-1.028730821E1,-1.398954239E0,-5.844561017E-1,1.039843124E1
1.403892613E1,-9.093974530E0,-1.845170760E-1,-4.800809634E-1,9.108506849E0
1.404887213E1,-8.124068803E0,5.996908759E-1,-8.606282099E-1,8.191508040E0
1.405881813E1,-7.403429294E0,8.748707847E-1,-1.367369041E0,7.579304869E0
1.406876412E1,-6.867940700E0,9.005900551E-1,-1.604057314E0,7.110040209E0
1.407871113E1,-6.578397106E0,9.663895038E-1,-1.492265422E0,6.814401899E0
1.408865713E1,-6.505183534E0,8.860657176E-1,-1.172288386E0,6.669091792E0
1.409860313E1,-6.464596256E0,6.522605605E-1,-8.823004031E-1,6.557049839E0
1.410855013E1,-6.751317984E0,1.139224720E-1,-8.009001446E-1,6.799611304E0
1.411849613E1,-8.693025690E0,-1.022147821E0,-7.145929027E-1,8.782034208E0
1.412844213E1,-9.679679596E0,-1.713124551E0,-2.145875520E-1,9.832448354E0
1.413838913E1,-1.003251696E1,-2.200538361E0,7.164043701E-1,1.029597013E1
1.414833513E1,-1.017709288E1,-2.589989675E0,2.146960763E0,1.071870825E1
1.415828113E1,-9.430256673E0,-2.428030133E0,4.037657944E0,1.054171489E1
1.416822712E1,-7.346898413E0,-1.515463226E0,6.395387442E0,9.857714016E0
1.417817413E1,-4.078886662E0,-1.244903056E0,8.772306333E0,9.753997048E0
1.418812013E1,1.475135565E-2,-3.600813047E0,6.541122276E0,7.466749817E0
1.419806613E1,5.678718778E0,-7.478790548E-1,-7.052376500E-1,5.771007727E0
1.420801313E1,1.666847874E1,3.086032660E0,-1.456986743E1,2.235269151E1
1.421795913E1,4.983566932E1,-1.157528113E0,-4.407712084E1,6.654116312E1
1.422790513E1,7.991700236E1,-3.681489128E0,-4.657721250E1,9.257276788E1
1.423785212E1,6.092434311E1,-4.357058591E0,-1.946606035E1,6.410684089E1
1.424779813E1,2.447204762E1,-6.663834282E0,-2.043317696E0,2.544529326E1
1.425774413E1,1.115646174E1,-1.923225827E0,3.456331564E0,1.183687729E1
1.426769013E1,1.093180937E1,9.175684690E-2,-2.984746313E0,1.133232483E1
1.427763712E1,1.332378601E1,-4.272808253E-1,-1.058147462E1,1.701979576E1
1.428758313E1,1.747917647E1,-2.287945903E0,-1.280225765E1,2.178655796E1
1.429752913E1,1.792219311E1,-4.196482354E0,-1.104966585E1,2.146882823E1
1.430747613E1,1.157217421E1,-4.660200762E0,-7.210391071E0,1.440910915E1
1.431742213E1,4.224398716E0,-3.744801025E0,-2.055862458E0,6.007965519E0
1.432736813E1,1.003897930E0,-1.708065248E0,3.166020523E0,3.734833852E0
1.433731513E1,-8.463254088E-1,-3.580376590E-1,7.347753861E0,7.404994562E0
1.434726113E1,-2.639584004E0,-2.198208831E-1,9.520755783E0,9.882333511E0
1.435720713E1,-4.370123609E0,-1.310293492E0,8.672435889E0,9.799285364E0
1.436715313E1,-5.815900889E0,-2.377374096E0,6.546706951E0,9.073917712E0
1.437710012E1,-7.809115548E0,-2.415947886E0,5.097028409E0,9.633212778E0
1.438704613E1,-9.735974250E0,-2.045694297E0,3.809538181E0,1.065301088E1
1.439699213E1,-1.131155796E1,-2.025886561E0,2.358322406E0,1.173103766E1
1.440693913E1,-1.199100208E1,-2.175323559E0,1.191734982E0,1.224485181E1
1.441688512E1,-1.216336864E1,-2.242477954E0,5.058396294E-1,1.237869613E1
1.442683113E1,-1.233929850E1,-2.279253432E0,2.046841228E-1,1.254970833E1
1.443677813E1,-1.263383562E1,-2.510360830E0,1.447852457E-1,1.288164107E1
1.444672413E1,-1.302011321E1,-2.811681301E0,3.586003804E-1,1.332507013E1
1.445667013E1,-1.330474865E1,-2.941175201E0,5.905361096E-1,1.363875291E1
1.446661613E1,-1.340955297E1,-2.890677477E0,4.784578494E-1,1.372592617E1
1.447656313E1,-1.337661210E1,-2.684648787E0,-4.894240100E-2,1.364344112E1
1.448650913E1,-1.378758950E1,-2.281054375E0,-1.057738507E0,1.401497927E1
1.449645513E1,-1.499312164E1,-2.191883313E0,-2.322647374E0,1.532947292E1
1.450640213E1,-1.769567314E1,-2.145374559E0,-3.983917354E0,1.826502334E1
1.451634812E1,-1.774747480E1,-1.961983803E0,-3.905598578E0,1.827774445E1
1.452629413E1,-1.549287030E1,-1.677675660E0,-2.821765702E0,1.583685535E1
1.453624113E1,-1.174319007E1,-1.073456700E0,-2.251307250E0,1.200513251E1
1.454618713E1,-9.088661749E0,-6.305047522E-1,-2.200603119E0,9.372511015E0
1.455613312E1,-7.944137698E0,-1.393778137E-1,-1.696318191E0,8.124422770E0
1.456607913E1,-7.540664615E0,2.757111284E-1,-1.119278698E0,7.628264827E0
1.457602613E1,-7.290233631E0,5.843683934E-1,-6.579556024E-1,7.343153164E0
1.458597213E1,-7.182389925E0,8.094106939E-1,-1.755778345E-1,7.229986049E0
1.459591813E1,-7.110303696E0,8.316263127E-1,5.326700170E-2,7.158970481E0
1.460586513E1,-7.240590186E0,5.926647153E-1,-6.401414752E-2,7.265087440E0
1.461581113E1,-7.589819233E0,2.574023268E-1,-3.713356161E-1,7.603256019E0
1.462575713E1,-7.997170774E0,-1.983648176E-1,-5.852559277E-1,8.021010753E0
1.463570413E1,-8.808698233E0,-7.064939974E-1,-1.803455993E-1,8.838824745E0
1.464565013E1,-9.025218290E0,-9.028670340E-1,9.618937989E-1,9.121127877E0
1.465559612E1,-8.545861797E0,-7.804550627E-1,2.407312717E0,8.912688622E0
1.466554213E1,-7.927787129E0,-5.245306928E-1,4.217685528E0,8.995210527E0
1.467548913E1,-6.336320039E0,-9.793117773E-1,7.223667759E0,9.658642714E0
1.468543513E1,-2.877182103E0,-2.675843465E0,1.088165196E1,1.156929835E1
1.469538112E1,2.530732822E0,-2.283610193E0,1.064378255E1,1.117629594E1
1.470532813E1,1.186937532E1,8.070699073E-1,1.112594453E0,1.194869444E1
1.471527413E1,3.640540317E1,2.503239799E0,-2.198654359E1,4.260314177E1
1.472522013E1,1.015532439E2,1.443790103E0,-5.807358224E1,1.169943881E2
1.473516612E1,7.015414495E1,-1.097857190E1,-4.222592511E1,8.261453774E1
1.474511313E1,1.055273906E1,-1.335902367E1,-7.836426723E0,1.874122192E1
1.475505913E1,1.100350559E1,-5.538986257E-1,4.004591355E-1,1.102471344E1
1.476500513E1,1.514802608E1,3.413628471E0,-5.529756866E0,1.648313576E1
1.477495213E1,1.726706639E1,2.249256046E0,-1.236572207E1,2.135700861E1
1.478489813E1,1.644409768E1,6.712931013E-1,-1.348123048E1,2.127445788E1
1.479484412E1,1.269983197E1,-1.011563338E0,-1.022009681E1,1.633276986E1
1.480479113E1,9.559172575E0,-7.000801134E-1,-4.405744847E0,1.054886156E1
1.481473713E1,6.655724779E0,5.689890103E-1,1.713323210E0,6.896223405E0
1.482468313E1,3.294925316E0,1.518508749E0,5.523727802E0,6.608628488E0
1.483463013E1,-7.268556833E-1,1.717100658E0,7.284978154E0,7.519817854E0
1.484457613E1,-4.181474306E0,9.455239340E-1,7.415513735E0,8.565546499E0
1.485452213E1,-6.027713937E0,-7.657181058E-1,5.862116697E0,8.442989500E0
1.486446813E1,-7.505605879E0,-2.085373794E0,4.019921000E0,8.765994999E0
1.487441513E1,-9.007075549E0,-2.563618147E0,2.889846003E0,9.800548856E0
1.488436113E1,-1.021845374E1,-2.807878857E0,2.236609104E0,1.083066945E1
1.489430713E1,-1.102803115E1,-2.794259815E0,2.108811189E0,1.157032600E1
1.490425412E1,-1.137575220E1,-2.617718925E0,2.191920004E0,1.187706630E1
1.491420013E1,-1.161284043E1,-2.633238605E0,2.146715180E0,1.209960307E1
1.492414625E1,-1.218757846E1,-3.089279034E0,1.664609910E0,1.268272998E1
1.493409225E1,-1.302667963E1,-3.854238683E0,9.387834100E-1,1.361729974E1
1.494403925E1,-1.399824947E1,-4.667587257E0,5.953928069E-1,1.476793323E1
1.495398525E1,-1.454252936E1,-5.074921841E0,4.569049029E-1,1.540937227E1
1.496393125E1,-1.429138092E1,-4.722458698E0,4.616698354E-1,1.505849673E1
1.497387825E1,-1.341041602E1,-3.937632257E0,1.323809624E-1,1.397718607E1
1.498382425E1,-1.301395726E1,-3.299513918E0,-5.671027350E-1,1.343768883E1
1.499377025E1,-1.374414936E1,-3.070599811E0,-1.689259433E0,1.418392831E1
1.500371725E1,-1.761467283E1,-3.425692447E0,-4.167898825E0,1.842236273E1
1.501366325E1,-1.863730057E1,-3.400491532E0,-4.714842115E0,1.952285971E1
1.502360925E1,-1.571796822E1,-2.704192813E0,-3.654416227E0,1.636221079E1
1.503355525E1,-1.148112722E1,-1.617481644E0,-2.865813947E0,1.194342575E1
1.504350225E1,-9.247220696E0,-6.849996326E-1,-2.605846739E0,9.631757489E0
1.505344825E1,-8.299191157E0,1.733670205E-1,-1.774544581E0,8.488559269E0
1.506339425E1,-7.789275361E0,6.766462272E-1,-8.139920604E-1,7.860867881E0
1.507334125E1,-7.461172888E0,1.008622408E0,5.891881071E-2,7.529268985E0
1.508328725E1,-7.283397067E0,1.161151486E0,6.008399999E-1,7.399807721E0
1.509323325E1,-7.341005589E0,1.259866228E0,7.129100740E-1,7.482370396E0
1.510318025E1,-7.469599310E0,1.354265139E0,3.389280446E-1,7.598935461E0
1.511312625E1,-7.617098833E0,1.500551657E0,-4.517278147E-1,7.776625742E0
1.512307225E1,-7.772997297E0,1.484600160E0,-1.307829183E0,8.020844207E0
1.513301925E1,-7.863653698E0,1.152570990E0,-1.630117770E0,8.113122291E0
1.514296525E1,-8.826020610E0,3.613754690E-1,-8.960998321E-1,8.878751429E0
1.515291125E1,-9.497720093E0,1.015781958E-2,4.121468425E-1,9.506663724E0
1.516285725E1,-8.714387907E0,3.857667636E-2,2.064773469E0,8.955743087E0
1.517280425E1,-4.969915203E0,3.391595578E-1,4.462445297E0,6.687937228E0
1.518275025E1,-1.196053809E-1,-2.166844512E0,7.573872707E0,7.878646354E0
1.519269625E1,7.272915348E0,-2.630861420E0,2.880196051E0,8.253015131E0
1.520264325E1,1.977738600E1,-2.176957856E-1,-1.077075133E1,2.252113391E1
1.521258925E1,4.488694150E1,-3.884529599E0,-3.039172430E1,5.434688578E1
1.522253525E1,9.080846595E1,-9.791193600E0,-4.408609281E1,1.014180878E2
1.523248125E1,5.506100318E1,-1.345465605E1,-2.259262153E1,6.101777108E1
1.524242825E1,1.252727830E1,-1.130972194E1,-1.523639388E0,1.694591363E1
1.525237425E1,9.208780516E0,-2.675009944E0,1.450018558E0,9.698446814E0
1.526232025E1,1.121446612E1,4.781502128E-1,-6.665898349E0,1.305477226E1
1.527226725E1,1.630179283E1,2.127247752E-1,-1.656204655E1,2.323994593E1
1.528221325E1,1.928261566E1,-8.131669452E-1,-1.711499317E1,2.579541623E1
1.529215925E1,1.561013855E1,-2.684860164E0,-1.149480502E1,1.957078032E1
1.530210625E1,9.059723879E0,-3.662734476E0,-5.554396448E0,1.124035322E1
1.531205225E1,5.611801488E0,-2.554879776E0,7.121334176E-1,6.207000935E0
1.532199825E1,2.274256986E0,-1.222767106E0,5.811479809E0,6.359300418E0
1.533194425E1,-1.413725182E0,-3.335801812E-1,9.083289328E0,9.198697714E0
1.534189125E1,-5.052933971E0,-5.794164596E-1,1.039471455E1,1.157229259E1
1.535183725E1,-6.773937353E0,-7.167686516E-1,9.358297913E0,1.157487470E1
1.536178325E1,-6.902276720E0,-1.301340236E0,6.262462104E0,9.410278526E0
1.537173025E1,-6.812307951E0,-1.799300669E0,3.558510781E0,7.893543026E0
1.538167625E1,-8.206721535E0,-1.883331444E0,2.182851557E0,8.698393909E0
1.539162225E1,-1.000214652E1,-1.841977596E0,1.677394263E0,1.030773826E1
1.540156925E1,-1.108095313E1,-1.890829621E0,1.267028482E0,1.131229951E1
1.541151525E1,-1.151696597E1,-1.803714586E0,1.038315226E0,1.170350332E1
1.542146125E1,-1.171301376E1,-1.794819801E0,8.720894104E-1,1.188177635E1
1.543140725E1,-1.202583161E1,-2.009840632E0,6.550191307E-1,1.221020619E1
1.544135425E1,-1.263036939E1,-2.586244533E0,5.463310496E-1,1.290400594E1
1.545130025E1,-1.321484771E1,-3.524465075E0,2.285770519E-1,1.367868055E1
1.546124625E1,-1.363527187E1,-4.151918970E0,1.170725863E-2,1.425339283E1
1.547119325E1,-1.372266552E1,-4.405116271E0,-3.798702121E-1,1.441738186E1
1.548113925E1,-1.381852595E1,-4.322603288E0,-7.495902425E-1,1.449822210E1
1.549108525E1,-1.434237332E1,-4.057120109E0,-1.380066270E0,1.496891709E1
1.550103225E1,-1.649039009E1,-3.695636174E0,-2.832422837E0,1.713514841E1
1.551097825E1,-1.842447127E1,-3.270182238E0,-3.926792396E0,1.912001391E1
1.552092425E1,-1.649841481E1,-2.078073107E0,-2.914518914E0,1.688225398E1
1.553087025E1,-1.293095720E1,-8.932550155E-1,-2.204050637E0,1.314782864E1
1.554081725E1,-1.030396693E1,-1.262004554E-2,-2.174215804E0,1.053086455E1
1.555076325E1,-8.748353798E0,9.505189180E-1,-1.419363652E0,8.913572436E0
1.556070925E1,-7.975006903E0,1.632484723E0,-4.906773241E-1,8.155152096E0
1.557065625E1,-7.406024873E0,1.758389309E0,1.247872017E-1,7.612930397E0
1.558060225E1,-6.971042899E0,1.739428835E0,4.792471504E-1,7.200745073E0
1.559054825E1,-6.800969616E0,1.653192052E0,5.717430854E-1,7.022330228E0
1.560049425E1,-6.747296269E0,1.319337673E0,3.618970406E-1,6.884593547E0
1.561044125E1,-6.775475755E0,9.459247606E-1,-2.919396917E-2,6.841249714E0
1.562038725E1,-7.486567930E0,2.229300669E-1,-6.516277456E-1,7.518179028E0
1.563033325E1,-8.820937625E0,-4.683809772E-1,-7.324175549E-1,8.863676258E0
1.564028025E1,-9.338512105E0,-9.212119422E-1,-4.788155894E-1,9.396047262E0
1.565022625E1,-9.753414155E0,-1.218711185E0,1.900497115E-1,9.831096761E0
1.566017225E1,-9.582767844E0,-1.239155682E0,1.012253602E0,9.715431216E0
1.567011925E1,-8.415661261E0,-1.201408470E0,2.309177874E0,8.809031685E0
1.568006525E1,-5.775619420E0,-8.108638731E-1,3.677761821E0,6.895013555E0
1.569001125E1,-7.465701556E-1,-8.190826464E-1,3.649923227E0,3.814472826E0
1.569995725E1,4.537853914E0,-5.668662152E-1,1.083582908E0,4.699745458E0
1.570990425E1,1.231259310E1,3.311456856E0,-8.949521406E0,1.557753603E1
1.571985025E1,3.201774610E1,3.354228947E0,-2.999711209E1,4.400242778E1
1.572979625E1,6.612753708E1,-1.868753312E0,-3.793640303E1,7.625951792E1
1.573974325E1,7.731071591E1,-6.266700751E0,-2.595570608E1,8.179191287E1
1.574968925E1,3.635611348E1,-1.488995337E1,-1.064659974E1,4.070414948E1
1.575963525E1,1.364274227E1,-8.766435728E0,1.840533041E0,1.632061194E1
1.576958225E1,5.937178574E0,-3.787845303E-1,-4.929778746E-1,5.969639379E0
1.577952825E1,8.176795485E0,1.472960547E0,-1.241400136E1,1.493777182E1
1.578947425E1,1.657594187E1,4.891242671E-1,-2.089598876E1,2.667664592E1
1.579942025E1,2.328182114E1,-2.190296378E0,-2.025183141E1,3.093504921E1
1.580936725E1,1.879338380E1,-4.226644632E0,-1.257603589E1,2.300461863E1
1.581931325E1,9.446042985E0,-3.791293114E0,-3.986521412E0,1.093133041E1
1.582925925E1,5.385236499E0,-1.468431440E0,2.842153773E0,6.263776905E0
1.583920625E1,2.328354256E0,1.244367890E0,7.554314940E0,8.002334609E0
1.584915225E1,-1.163233972E0,2.460473263E0,8.951491917E0,9.356080884E0
1.585909825E1,-3.965181121E0,2.326015078E0,8.103326390E0,9.316485713E0
1.586904525E1,-5.232303743E0,6.760137778E-1,6.515895048E0,8.383965969E0
1.587899125E1,-6.225631077E0,-9.433734743E-1,4.726499124E0,7.873260430E0
1.588893725E1,-7.939733575E0,-1.968803703E0,4.152245829E0,9.173696239E0
1.589888325E1,-9.879301200E0,-2.563280471E0,4.445509422E0,1.113254477E1
1.590883025E1,-1.123157858E1,-2.795019953E0,4.629738230E0,1.246575188E1
1.591877604E1,-1.171980354E1,-2.897651159E0,4.531464077E0,1.289512869E1
1.592872204E1,-1.204162728E1,-3.062577724E0,4.255081980E0,1.313338846E1
1.593866904E1,-1.258268534E1,-3.669859601E0,3.407364349E0,1.354259841E1
1.594861504E1,-1.346406072E1,-4.426469718E0,2.263099914E0,1.435256724E1
1.595856104E1,-1.464794647E1,-5.201194802E0,8.598897797E-1,1.556772859E1
1.596850804E1,-1.508512173E1,-5.249182901E0,2.174854503E-1,1.597379475E1
1.597845404E1,-1.489774420E1,-4.455215800E0,-1.183535834E-2,1.554965820E1
1.598840004E1,-1.455619079E1,-3.427660035E0,-2.233519252E-1,1.495598308E1
1.599834604E1,-1.454570440E1,-2.510758441E0,-8.734056187E-1,1.478662442E1
1.600829304E1,-1.506450445E1,-1.788510948E0,-1.930822529E0,1.529268261E1
1.601823904E1,-1.558327410E1,-1.334720236E0,-2.913300354E0,1.590934407E1
1.602818504E1,-1.532730171E1,-1.270156742E0,-3.555038704E0,1.578536588E1
1.603813204E1,-1.186244988E1,-4.667039958E-1,-4.222113039E0,1.260007017E1
1.604807804E1,-8.722072318E0,2.886252524E-1,-4.252064817E0,9.707620989E0
1.605802404E1,-6.934535224E0,8.570152885E-1,-3.535266345E0,7.830731901E0
1.606797104E1,-6.184528075E0,1.423007053E0,-2.318799906E0,6.756490922E0
1.607791704E1,-5.869858995E0,1.849376662E0,-1.056324066E0,6.244298135E0
1.608786304E1,-5.774065815E0,2.096663891E0,-2.197032809E-2,6.142989354E0
1.609780904E1,-5.998186083E0,2.174301466E0,5.892169046E-1,6.407261483E0
1.610775604E1,-7.210823765E0,1.858774600E0,4.051465559E-1,7.457557651E0
1.611770204E1,-8.019210100E0,1.405126559E0,-4.805148268E-1,8.155550611E0
1.612764804E1,-8.403839945E0,1.035941549E0,-1.014461510E0,8.528002865E0
1.613759504E1,-8.998945581E0,7.552523938E-1,-1.115000875E0,9.099156812E0
1.614754104E1,-9.471229867E0,4.929898614E-1,-1.152206708E0,9.553785349E0
1.615748704E1,-9.892002522E0,1.832193048E-1,-1.205628040E0,9.966886283E0
1.616743404E1,-1.031347216E1,-4.024667770E-2,-1.114643025E0,1.037360868E1
1.617738004E1,-1.075186716E1,-3.512112540E-1,-4.653857045E-1,1.076766366E1
1.618732604E1,-1.104623587E1,-8.462406242E-1,7.781942368E-1,1.110590098E1
1.619727204E1,-1.016104461E1,-1.397805261E0,2.775920023E0,1.062574322E1
1.620721904E1,-6.508705312E0,-1.707390186E0,4.741714164E0,8.231784697E0
1.621716504E1,-1.234592807E-1,-3.004594979E0,7.990466942E0,8.537587196E0
1.622711104E1,8.559826702E0,-3.724981595E0,7.630291321E0,1.205684315E1
1.623705804E1,1.986592453E1,-1.578353831E0,-3.198746220E0,2.018361057E1
1.624700404E1,4.641379920E1,-1.825311862E0,-2.308365666E1,5.186933318E1
1.625695004E1,9.318461535E1,-1.013601268E1,-4.868817430E1,1.056250425E2
1.626689604E1,5.441355268E1,-1.478183835E1,-2.349230687E1,6.108376170E1
1.627684304E1,1.126731325E1,-6.078140325E0,2.684625398E0,1.308064797E1
1.628678904E1,5.434933155E0,-1.048159306E0,9.300487661E-1,5.612675568E0
1.629673504E1,7.198352239E0,-6.297743618E-3,-8.611907267E0,1.122413745E1
1.630668204E1,1.598157240E1,-1.425577489E-1,-2.061242218E1,2.608261734E1
1.631662804E1,2.242348263E1,-1.528310875E0,-2.321779881E1,3.231430780E1
1.632657404E1,2.037515153E1,-3.105735730E0,-1.665302338E1,2.649746369E1
1.633652104E1,1.251357476E1,-4.374039197E0,-8.370091571E0,1.567737877E1
1.634646704E1,7.511168920E0,-3.317746122E0,-9.208287303E-1,8.262749145E0
1.635641304E1,4.118247778E0,-6.888066816E-1,5.473452272E0,6.884264608E0
1.636635904E1,1.385030556E0,1.299363292E0,9.229073278E0,9.422443853E0
1.637630604E1,-1.329822900E0,1.540532579E0,1.027307141E1,1.047271053E1
1.638625204E1,-3.625715169E0,3.298548470E-1,9.096180099E0,9.797709279E0
1.639619804E1,-5.200231766E0,-1.054327826E0,6.893045136E0,8.698740646E0
1.640614504E1,-7.436555525E0,-1.394176771E0,5.043769630E0,9.093167711E0
1.641609104E1,-9.602601015E0,-1.341775779E0,4.294990396E0,1.060458632E1
1.642603704E1,-1.115451111E1,-1.362576079E0,3.817198618E0,1.186805531E1
1.643598404E1,-1.170236364E1,-1.463820910E0,3.214974582E0,1.222391705E1
