"Time (s)","Linear Acceleration x (m/s^2)","Linear Acceleration y (m/s^2)","Linear Acceleration z (m/s^2)","Absolute acceleration (m/s^2)"
7.682583411E-3,-2.205587286E-1,1.003002137E-1,-4.015915219E-1,4.690224260E-1
1.762958337E-2,2.801634908E-2,1.922622979E-2,-2.746436461E-1,2.767375943E-1
2.757558343E-2,2.511987233E-1,-2.861802757E-2,-1.031050500E-1,2.730392672E-1
3.752158338E-2,3.977615225E-1,-3.025583267E-2,4.952123880E-2,4.019726325E-1
4.746858333E-2,5.055537736E-1,-3.921201289E-2,1.460165962E-1,5.276770285E-1
5.741458340E-2,5.680225021E-1,-2.838998616E-2,2.255480846E-1,6.118230893E-1
6.736058334E-2,5.018869847E-1,-7.350125492E-2,2.325063809E-1,5.579894238E-1
7.730758341E-2,3.771834165E-1,-1.545331389E-1,7.767675161E-2,4.149475852E-1
8.725358336E-2,2.527517438E-1,-2.009635395E-1,-1.726589958E-1,3.661706119E-1
9.719958343E-2,1.256356144E-1,-1.874061853E-1,-4.036461604E-1,4.624236247E-1
1.071465834E-1,1.600441396E-2,-1.385281402E-1,-5.417048422E-1,5.593660009E-1
1.170925833E-1,-7.215054810E-2,-7.366673112E-2,-6.542636704E-1,6.623393687E-1
1.270385834E-1,-1.357805336E-1,-1.151901484E-4,-7.198835365E-1,7.325767350E-1
1.369855833E-1,-1.538893604E-1,5.642796993E-2,-6.879775465E-1,7.072334519E-1
1.469315834E-1,-2.100512820E-1,1.270295906E-1,-6.056826274E-1,6.535361528E-1
1.568775834E-1,-2.721463734E-1,1.685758120E-1,-5.260084669E-1,6.157648579E-1
1.668245834E-1,-3.001270545E-1,2.458075905E-1,-4.543929025E-1,5.974701082E-1
1.767707501E-1,-2.527815646E-1,3.162565988E-1,-3.853595781E-1,5.589443265E-1
1.867167500E-1,-1.857818288E-1,3.686920899E-1,-3.124517791E-1,5.177594609E-1
1.966627501E-1,-1.217489702E-1,3.799210829E-1,-2.597847017E-1,4.760787037E-1
2.066097501E-1,-6.552331388E-2,3.781786126E-1,-1.986907998E-1,4.321925516E-1
2.165557500E-1,-9.396884859E-2,3.374381375E-1,-1.677496735E-1,3.883742964E-1
2.265017501E-1,-1.868647331E-1,2.860674244E-1,-2.130539004E-1,4.026722790E-1
2.364487500E-1,-2.842407542E-1,2.399989665E-1,-2.866024446E-1,4.696097013E-1
2.463947501E-1,-3.033360064E-1,1.713473922E-1,-3.541377854E-1,4.967758374E-1
2.563407500E-1,-2.231192243E-1,1.550798535E-1,-3.971170863E-1,4.811797268E-1
2.662877501E-1,-2.519343030E-1,1.879552388E-1,-4.358315011E-1,5.373519910E-1
2.762337500E-1,-2.470992404E-1,1.956671315E-1,-4.410670980E-1,5.421105477E-1
2.861797500E-1,-2.576370925E-1,1.730267125E-1,-5.082772605E-1,5.955341201E-1
2.961267501E-1,-4.100032532E-1,2.328010440E-1,-5.681854932E-1,7.383317333E-1
3.060727500E-1,-4.132315010E-1,2.195173395E-1,-6.599447521E-1,8.089964224E-1
3.160187501E-1,-2.171351838E-1,4.473353863E-2,-6.397263229E-1,6.770513612E-1
3.259657500E-1,-7.263937533E-2,-9.699244380E-2,-6.485649010E-1,6.597881810E-1
3.359117501E-1,6.037367105E-2,-2.038965029E-1,-6.456038710E-1,6.797228275E-1
3.458577500E-1,1.878950125E-1,-3.070799786E-1,-5.255149253E-1,6.369996748E-1
3.558047500E-1,1.720940816E-1,-3.610684901E-1,-2.155997781E-1,4.543898016E-1
3.657507501E-1,1.152977371E-1,-3.465410829E-1,3.677657448E-2,3.670651260E-1
3.756967500E-1,1.200164402E-1,-3.339777553E-1,-4.466797672E-2,3.576874545E-1
3.856427501E-1,1.174992138E-1,-1.771022218E-1,-1.727219995E-1,2.738688579E-1
3.955897500E-1,1.204117119E-2,4.542117119E-2,1.484023333E-3,4.701356103E-2
4.055357501E-1,-1.191884744E-1,3.087563753E-1,2.406958815E-1,4.092320846E-1
4.154817500E-1,-1.508616722E-1,5.672214335E-1,2.992629091E-1,6.588305454E-1
4.254287501E-1,4.205434442E-2,7.782164562E-1,1.106502970E-1,7.871676497E-1
4.353747501E-1,2.461642706E-1,8.854894745E-1,-1.425667389E-1,9.300611446E-1
4.453207500E-1,5.026301658E-1,8.190142339E-1,-3.449621885E-1,1.020989868E0
4.552677501E-1,8.159590638E-1,5.454756385E-1,-3.222179083E-1,1.033033033E0
4.652137500E-1,1.022377471E0,2.729918808E-1,-1.489659318E-1,1.068630483E0
4.751597501E-1,1.051716460E0,-5.816985548E-2,1.120303130E-1,1.059264856E0
4.851067500E-1,8.168285447E-1,-3.094925398E-1,3.243870791E-1,9.317840312E-1
4.950527501E-1,4.800493884E-1,-6.093833667E-1,4.976587900E-1,9.216614206E-1
5.049987501E-1,2.558589542E-1,-6.097856551E-1,5.934164480E-1,8.885074172E-1
5.149457500E-1,2.343330145E-2,-3.389566594E-1,6.477837861E-1,7.314810798E-1
5.248917501E-1,-1.286036611E-1,3.256899118E-3,5.741019253E-1,5.883387881E-1
5.348377500E-1,-2.620534945E-1,3.330875167E-1,5.399389100E-1,6.864061147E-1
5.447847501E-1,-2.235671210E-1,5.702657863E-1,4.539754844E-1,7.624165955E-1
5.547307500E-1,-1.732167470E-1,7.548764178E-1,3.822372015E-1,8.636826534E-1
5.646767501E-1,-6.984557569E-2,9.867813760E-1,4.072527230E-1,1.069799359E0
5.746237501E-1,1.511534482E-1,1.090571500E0,5.486910224E-1,1.230144463E0
5.845697500E-1,1.362448025E-1,1.184809613E0,6.337317574E-1,1.350537821E0
5.945157501E-1,1.757731497E-1,1.297395704E0,6.889095926E-1,1.479435108E0
6.044617500E-1,2.403135467E-1,1.245950439E0,9.140157008E-1,1.563831128E0
6.144087501E-1,-3.431555450E-2,1.278621464E0,9.482078791E-1,1.592214994E0
6.243547500E-1,1.314834148E-1,1.308763276E0,8.721157229E-1,1.578206271E0
6.343007501E-1,1.209976029E-1,1.368467149E0,5.920984125E-1,1.495969013E0
6.442477501E-1,2.859364468E-1,1.411598842E0,2.989622891E-1,1.470968862E0
6.541937500E-1,3.831592709E-1,1.358420170E0,2.368145728E-1,1.431152517E0
6.641397501E-1,5.426824236E-1,1.080879740E0,4.163334489E-1,1.279116401E0
6.740867500E-1,7.791087413E-1,9.003036878E-1,5.438460195E-1,1.308940661E0
6.840327501E-1,1.021474661E0,7.915253037E-1,6.204597473E-1,1.433489828E0
6.939787500E-1,1.427726340E0,6.186178744E-1,3.809285947E-1,1.601935445E0
7.039257501E-1,1.810585064E0,4.351486194E-1,-1.930013859E-1,1.872117019E0
7.138717500E-1,2.103637573E0,2.120966381E-1,-6.256754637E-1,2.204936690E0
7.238177500E-1,2.211371351E0,5.162769824E-2,-9.614296031E-1,2.411882160E0
7.337647501E-1,2.124995112E0,1.575733986E-1,-1.105854660E0,2.400697426E0
7.437107500E-1,2.515632972E0,3.695036834E-1,-1.010436287E0,2.736041614E0
7.536567501E-1,3.006598527E0,4.416013142E-1,-1.311548012E0,3.309804317E0
7.636037500E-1,3.318743949E0,4.431344542E-1,-1.754245387E0,3.779921484E0
7.735497501E-1,3.398114639E0,2.176351207E-1,-2.330559826E0,4.126264321E0
7.834957500E-1,2.938699490E0,-1.361401373E-1,-2.630514972E0,3.946403153E0
7.934417501E-1,2.234677768E0,-3.304963231E-1,-2.407658873E0,3.301489633E0
8.033887501E-1,1.838110247E0,-3.595157620E-1,-2.088583331E0,2.805366499E0
8.133347500E-1,1.544890509E0,-2.519132531E-1,-1.665846012E0,2.285867430E0
8.232807501E-1,1.007403921E0,-4.020256045E-1,-1.172169102E0,1.597018363E0
8.332277500E-1,6.485708213E-1,-3.414928892E-1,-5.056134152E-1,8.904529349E-1
8.431737501E-1,6.642653328E-1,-1.163382491E-1,2.922485161E-1,7.349776975E-1
8.531197500E-1,2.712073106E-1,-2.953745838E-1,-7.096517131E-2,4.072291806E-1
8.630667500E-1,-1.867600679E-1,-6.564392732E-1,-6.083124492E-1,9.142406019E-1
8.730127501E-1,-2.775801909E-1,-1.752800833E0,-1.513610244E-1,1.781087219E0
8.829587500E-1,-1.154039810E0,-3.160542852E0,-4.067644805E-2,3.364891317E0
8.929057501E-1,-1.999744245E0,-3.721818836E0,-5.206966004E-1,4.256998643E0
9.028517500E-1,-2.922813774E0,-3.931645878E0,-1.704224796E0,5.187008948E0
9.127977501E-1,-4.013644599E0,-2.622758933E0,-1.675413226E0,5.078899178E0
9.227447500E-1,-4.948023813E0,-8.343909493E-1,-1.217841704E0,5.163553653E0
9.326907501E-1,-4.314733520E0,-2.340779297E-1,-1.814453582E0,4.686572269E0
9.426367501E-1,-4.213964360E0,-1.243764165E-1,-1.557789466E0,4.494404648E0
9.525837500E-1,-3.191850014E0,5.482909267E-1,-9.949554911E-1,3.387988471E0
9.625297501E-1,-3.485790714E0,4.003553474E-1,-1.467502609E0,3.803233521E0
9.724757500E-1,-4.701307565E0,-3.299509972E-1,-2.241129878E0,5.218603608E0
9.824227501E-1,-4.654887105E0,-2.190381601E-1,-1.864957738E0,5.019364406E0
9.923687500E-1,-5.224110625E0,-7.856611311E-3,-2.917809727E0,5.983728532E0
1.002314750E0,-5.991126155E0,-3.357060461E-1,-4.170107611E0,7.307262732E0
1.012260750E0,-6.950941926E0,-1.249461984E0,-6.207056227E0,9.402355871E0
1.022207750E0,-8.163942136E0,-2.611255413E0,-9.185961757E0,1.256385687E1
1.032153750E0,-1.065036885E1,-4.457595909E0,-1.147359600E1,1.627709812E1
1.042099750E0,-1.456533584E1,-6.400050012E0,-9.959706262E0,1.876980013E1
1.052046750E0,-1.651750012E1,-7.983605819E0,-6.434713476E0,1.944148424E1
1.061992750E0,-1.648182626E1,-8.365406781E0,-3.675857090E0,1.884522626E1
1.071938750E0,-1.665715151E1,-6.769217480E0,-3.955691675E0,1.841006514E1
1.081885750E0,-1.865389730E1,-6.048072188E0,-8.442719836E0,2.135009555E1
1.091831750E0,-2.139981526E1,-7.362847863E0,-1.775588660E1,2.876517219E1
1.101777750E0,-2.077480638E1,-9.289559215E0,-1.698035402E1,2.839402953E1
1.111724750E0,-1.486252876E1,-9.370414513E0,-9.827181458E0,2.013139152E1
1.121670750E0,-1.128559749E1,-6.679423544E0,-4.383138342E0,1.382719463E1
1.131616750E0,-1.050453695E1,-5.036562352E0,-1.980985646E0,1.181679149E1
1.141563750E0,-7.462957458E0,-3.730725900E0,-1.065429350E0,8.411253739E0
1.151509750E0,-3.870255083E0,-1.410974652E0,2.862102427E-2,4.119531896E0
1.161455750E0,-9.199535483E-1,6.940750229E-1,2.399097379E0,2.661526424E0
1.171401750E0,1.458179224E0,2.705931775E0,5.726374755E0,6.499209279E0
1.181348458E0,3.488674561E0,4.387029664E0,7.756143283E0,9.569463835E0
1.191294458E0,5.087031425E0,5.496636482E0,7.761415132E0,1.078566021E1
1.201240458E0,6.510043155E0,6.109243419E0,7.351757450E0,1.156511369E1
1.211187458E0,7.672308244E0,6.657259088E0,7.343723960E0,1.253450015E1
1.221133458E0,8.489600472E0,7.516106894E0,7.288170149E0,1.347896892E1
1.231079458E0,9.296605110E0,8.621753393E0,6.894539684E0,1.443246949E1
1.241026458E0,1.043445690E1,1.018617360E1,5.588766382E0,1.561634827E1
1.250972458E0,1.071466834E1,1.139909429E1,4.221173977E0,1.620375815E1
1.260918458E0,1.061324722E1,1.169634334E1,3.506136393E0,1.617833293E1
1.270865458E0,1.051718565E1,1.061582818E1,2.713699801E0,1.518786254E1
1.280811458E0,9.779518465E0,1.012092803E1,2.388523859E0,1.427505558E1
1.290757458E0,8.030684091E0,9.951511974E0,8.780664343E-1,1.281777977E1
1.300704458E0,6.854065842E0,8.265170887E0,-1.524290476E0,1.084503249E1
1.310650458E0,5.090195353E0,6.982984668E0,-3.257161366E0,9.234785529E0
1.320596458E0,2.112583812E0,6.623104917E0,-8.797561626E0,1.121274363E1
1.330543458E0,-6.085325968E-1,5.908804960E0,-1.907929861E1,1.998259051E1
1.340489458E0,-9.029749882E-1,-2.893996941E0,-3.328741518E1,3.342517901E1
1.350435458E0,5.018654085E0,-1.050951878E1,-1.856982837E1,2.191974908E1
1.360382458E0,7.652424202E0,-9.380242513E0,-1.071125825E1,1.616414548E1
1.370328458E0,8.552998908E0,-4.935354651E0,-1.367497446E1,1.686761520E1
1.380274458E0,9.395028952E0,-1.194140015E0,-1.189677420E1,1.520610982E1
1.390220458E0,1.155039918E1,2.085240478E0,-1.009346834E1,1.548024716E1
1.400167458E0,1.471043917E1,5.352269897E0,-8.422717681E0,1.777599468E1
1.410113458E0,1.624612616E1,6.611644374E0,-3.563816544E0,1.789835872E1
1.420059458E0,1.652064709E1,5.621122534E0,-1.071418068E0,1.748361334E1
1.430006458E0,1.625201197E1,2.454231068E0,-2.701621208E0,1.665682744E1
1.439952458E0,1.506314673E1,1.316722798E-1,-6.152549068E0,1.627174198E1
1.449898458E0,1.294593192E1,-3.981405683E-1,-7.922381963E0,1.518287869E1
1.459845458E0,1.127357445E1,-4.596005058E-1,-8.263223180E0,1.398519113E1
1.469791458E0,1.082170396E1,-6.587305047E-1,-8.314923091E0,1.366313099E1
1.479737458E0,1.089603728E1,-4.996472088E-1,-7.379500734E0,1.316929409E1
1.489684458E0,1.076312656E1,-7.774896473E-2,-4.883921372E0,1.181962885E1
1.499630458E0,1.026581853E1,4.544078860E-1,-2.729984881E0,1.063232496E1
1.509576458E0,9.129679967E0,1.043353772E0,-2.102166998E0,9.426491897E0
1.519523458E0,7.520241460E0,1.885451352E0,-1.387515331E0,7.876176560E0
1.529469458E0,2.925581262E0,1.674357511E0,-6.134156066E-1,3.426189939E0
1.539415458E0,-2.423817302E1,-4.493417999E0,5.791239672E0,2.532228848E1
1.549362458E0,-4.289774680E1,-1.091008112E1,1.338495607E1,4.624287621E1
1.559308458E0,-1.431758346E1,-7.383553439E0,1.378338652E1,2.120122170E1
1.569254458E0,-4.762613867E0,4.488171000E0,1.505738488E1,1.641800869E1
1.579201458E0,-2.397854261E0,9.267918670E0,9.393674737E0,1.341212685E1
1.589147458E0,-5.075383186E-3,8.455639844E0,8.792283345E0,1.219844733E1
1.599093458E0,-1.778642310E0,6.421692896E0,7.682530346E0,1.016970897E1
1.609039458E0,-5.951762699E0,3.874563897E0,4.704296077E0,8.518575362E0
1.618986458E0,-9.263225110E0,1.564068609E-1,3.122082498E0,9.776461613E0
1.628932458E0,-9.632235289E0,-1.263376603E0,1.965259706E0,9.911524747E0
1.638878458E0,-5.507214096E0,8.503041467E-1,-3.107329096E0,6.380275727E0
1.648825458E0,-4.590029204E-1,3.024419964E0,-6.422775800E0,7.114059936E0
1.658771458E0,5.967960656E-2,3.710931028E0,-3.133947961E0,4.857592055E0
1.668717458E0,-1.668925155E0,3.152132801E0,5.968141919E-1,3.616274264E0
1.678664458E0,-3.188270933E0,8.713892063E-1,8.380852202E-1,3.409806084E0
1.688610458E0,-3.961841776E0,-1.715596169E0,8.134731200E-1,4.393312986E0
1.698556458E0,-5.137915649E0,-1.821634548E0,2.425838451E0,5.966675945E0
1.708503458E0,-5.051877379E0,2.598900247E-1,4.566419317E0,6.814777565E0
1.718449458E0,-4.013898368E0,2.959769054E0,6.728305682E0,8.375064795E0
1.728395458E0,-2.994315866E0,4.753629620E0,7.979661287E0,9.758991563E0
1.738342458E0,-2.473207914E0,5.079346429E0,8.216993923E0,9.971735389E0
1.748288458E0,-2.905208977E0,4.096521279E0,7.450660179E0,8.985213570E0
1.758234458E0,-4.362297696E0,1.925236976E0,6.297524933E0,7.899050505E0
1.768181458E0,-5.953171878E0,2.533376348E-1,5.733359839E0,8.268969126E0
1.778127458E0,-5.392559552E0,-1.307513434E-1,4.601962202E0,7.090476045E0
1.788073458E0,-3.624341074E0,2.357547650E-1,2.794610063E0,4.582714690E0
1.798019458E0,-1.789018779E0,7.161634648E-1,1.529081392E0,2.459993537E0
1.807966458E0,-1.361915928E-1,1.033497705E0,5.829712012E-1,1.194370578E0
1.817912458E0,1.118809751E0,1.228269921E0,-2.737227827E-2,1.661665279E0
1.827858458E0,1.841268913E0,1.220875239E0,-4.474090612E-1,2.254103465E0
1.837805458E0,2.351367728E0,9.400457507E-1,-7.850413263E-1,2.651208420E0
1.847751458E0,2.887171487E0,6.447314664E-1,-9.605908200E-1,3.110333194E0
1.857697458E0,3.357201086E0,3.906937006E-1,-1.018248752E0,3.529910937E0
1.867644458E0,3.914806774E0,1.811493722E-1,-1.139763249E0,4.081370779E0
1.877590458E0,4.376228102E0,-1.174815260E-2,-1.284249994E0,4.560790334E0
1.887536458E0,4.737777818E0,-8.695628285E-2,-1.469245664E0,4.961127178E0
1.897483458E0,5.103146351E0,4.242834695E-2,-1.539556971E0,5.330491395E0
1.907429458E0,5.313464851E0,1.842182833E-1,-1.571791209E0,5.544129571E0
1.917375458E0,5.444574044E0,2.932100907E-1,-1.715732117E0,5.716038433E0
1.927322458E0,5.539546275E0,4.665801810E-1,-1.832653333E0,5.853450968E0
1.937268458E0,5.481068271E0,6.622891201E-1,-1.932385198E0,5.849346016E0
1.947214458E0,5.462697489E0,8.560041587E-1,-1.949440941E0,5.862945246E0
1.957161458E0,5.278918916E0,9.645087469E-1,-1.680635959E0,5.623326353E0
1.967107458E0,4.977417181E0,1.034736730E0,-1.430153227E0,5.281164658E0
1.977053458E0,4.702696863E0,1.155359527E0,-1.316019378E0,5.018178995E0
1.986999458E0,4.579309503E0,1.370828254E0,-1.309403839E0,4.956186442E0
1.996946458E0,4.522975674E0,1.653217780E0,-1.278738701E0,4.982530546E0
2.006892458E0,4.343399495E0,1.997064174E0,-1.162570606E0,4.919853138E0
2.016838458E0,4.029574753E0,2.433271431E0,-9.187645170E-1,4.796082859E0
2.026785458E0,3.654201050E0,2.825228423E0,-7.541513631E-1,4.680154403E0
2.036731458E0,3.099387408E0,3.053280651E0,-8.547813597E-1,4.433889512E0
2.046677458E0,2.644271132E0,3.299533214E0,-9.878692505E-1,4.342231558E0
2.056624458E0,2.222229631E0,3.340710769E0,-9.958857831E-1,4.134058716E0
2.066570458E0,1.865071759E0,3.186779016E0,-9.350995910E-1,3.808997822E0
2.076516458E0,1.110090383E0,2.804444495E0,-9.731415761E-1,3.169260815E0
2.086463458E0,6.010832441E-1,1.939595692E0,-8.557683697E-1,2.203558943E0
2.096409458E0,-1.961168994E0,-1.587580445E-1,-6.747561148E-1,2.080068209E0
2.106355458E0,-4.090589864E0,-2.916627128E0,-3.067048797E-1,5.033260089E0
2.116302458E0,4.798587692E-1,-4.568248910E0,-1.136944306E-1,4.594789328E0
2.126248458E0,2.101789268E0,-4.182123932E0,-6.085749891E-1,4.719962100E0
2.136194458E0,1.899635235E0,-2.529366035E0,-1.136973542E-1,3.165317307E0
2.146141458E0,2.951810701E0,-4.162463254E-1,5.565403247E-1,3.032521155E0
2.156087458E0,4.332859304E0,1.666692104E0,5.913947001E-1,4.679880341E0
2.166033458E0,5.483405988E0,3.191667288E0,-2.204078704E-1,6.348469180E0
2.175979458E0,6.214914885E0,4.002886599E0,-1.564650297E0,7.556215899E0
2.185926875E0,6.447477363E0,4.532360747E0,-3.010154512E0,8.436426285E0
2.195872875E0,6.362377571E0,4.816627229E0,-3.501203974E0,8.714251287E0
2.205818875E0,5.874002332E0,4.882382093E0,-3.016267483E0,8.212151230E0
2.215765875E0,5.722471154E0,4.546913590E0,-2.070556950E0,7.596598277E0
2.225711875E0,4.964643939E0,3.916139939E0,-1.417823204E0,6.480282717E0
2.235657875E0,3.748362272E0,3.245117564E0,-1.373693390E0,5.144710026E0
2.245604875E0,2.581427012E0,2.663524843E0,-7.517180443E-2,3.709956982E0
2.255550875E0,1.318446558E0,1.909215021E0,2.872407267E0,3.692441852E0
2.265496875E0,6.299544561E-1,1.106368046E0,3.915027798E0,4.116835621E0
2.275443875E0,-8.540677071E-2,5.808624029E-1,4.027493144E0,4.070060992E0
2.285389875E0,5.149701297E-1,8.722613186E-1,2.956263356E0,3.124984332E0
2.295335875E0,1.321713397E0,1.751394870E0,9.346201193E-1,2.384916154E0
2.305282875E0,1.739292887E0,2.714619276E0,-7.965439689E-1,3.320960682E0
2.315228875E0,1.549475895E0,3.823206632E0,-1.668490707E0,4.449904015E0
2.325174875E0,5.886573261E-1,3.547956557E0,-8.978165746E-1,3.706829882E0
2.335121875E0,-2.615795192E0,1.682569048E0,2.334565169E-1,3.118962172E0
2.345067875E0,-4.405488154E0,3.644206989E-1,9.364076132E-1,4.518626732E0
2.355013875E0,-5.375235422E0,4.511799306E-2,1.476326058E0,5.574471284E0
2.364959875E0,-7.316594049E0,4.068495575E-1,2.036860031E0,7.605713236E0
2.374906875E0,-8.071308791E0,1.962961311E0,2.971056227E0,8.821928237E0
2.384852875E0,-7.957125533E0,2.312009096E0,3.966448213E0,9.186617671E0
2.394798875E0,-7.273952059E0,-1.214563170E-1,5.987045968E0,9.421775290E0
2.404745875E0,-5.427625304E0,-4.808684079E0,7.609484589E0,1.051127084E1
2.414691875E0,-3.443447517E0,-9.301948296E0,8.978552247E0,1.337901242E1
2.424637875E0,-2.400073280E0,-9.592534449E0,9.676026256E0,1.383483115E1
2.434584875E0,-3.834167823E0,-7.362792315E0,8.792518403E0,1.209214346E1
2.444530875E0,-7.971014425E0,-4.312811833E0,6.915899563E0,1.140031068E1
2.454476875E0,-1.108801189E1,-1.352622071E0,4.604461886E0,1.208199749E1
2.464423875E0,-1.257746963E1,9.878101936E-1,3.213388817E0,1.301900069E1
2.474369875E0,-1.202355821E1,1.534350610E0,3.470699050E0,1.260816940E1
2.484315875E0,-9.477333190E0,-4.497858082E-1,3.628084461E0,1.015800908E1
2.494262875E0,-5.289074945E0,-2.255334373E0,2.878633382E0,6.430192614E0
2.504208875E0,-1.285814416E0,-2.777631795E0,3.376932516E0,4.557656231E0
2.514154875E0,8.744113398E-1,-2.730155035E0,4.173826733E0,5.063513731E0
2.524100875E0,1.045612552E0,-2.645881455E0,3.854196875E0,4.790493485E0
2.534047875E0,9.705442429E-2,-3.125944000E0,2.825107386E0,4.214519805E0
2.543993875E0,-7.291436988E-1,-3.925360706E0,1.747949106E0,4.358375073E0
2.553939875E0,-1.017298579E0,-4.143835194E0,2.228832892E0,4.813934210E0
2.563886875E0,-7.815423524E-1,-3.479571908E0,2.731437914E0,4.492102202E0
2.573832875E0,-1.095487547E-1,-2.171586311E0,2.020131147E0,2.967948431E0
2.583778875E0,1.034432091E0,-7.902663982E-1,7.017740518E-1,1.478870363E0
2.593725875E0,2.073068329E0,4.036566854E-1,-5.244975829E-1,2.176154574E0
2.603671875E0,2.988475667E0,1.542545190E0,-1.435217208E0,3.656539472E0
2.613617875E0,3.771865740E0,2.378322222E0,-2.277052540E0,5.006830936E0
2.623564875E0,4.425724198E0,3.002326552E0,-3.102781132E0,6.182899818E0
2.633510875E0,5.245117916E0,3.371211015E0,-3.468365134E0,7.134835833E0
2.643456875E0,6.005942414E0,3.417152004E0,-4.078765039E0,8.024001268E0
2.653403875E0,6.643443287E0,3.532795311E0,-4.536826558E0,8.786283437E0
2.663349875E0,7.099045467E0,3.848531508E0,-4.690199025E0,9.338394305E0
2.673295875E0,7.262780954E0,4.080059905E0,-4.826034522E0,9.627330119E0
2.683241875E0,7.140319793E0,4.339322231E0,-4.703169611E0,9.588205701E0
2.693188875E0,6.903685314E0,4.754004427E0,-4.475959382E0,9.502401875E0
2.703134875E0,6.566765825E0,5.055070544E0,-4.193482440E0,9.287704053E0
2.713080875E0,6.463856583E0,5.237324747E0,-3.808494453E0,9.149625262E0
2.723027875E0,6.310211052E0,5.339382049E0,-3.232334965E0,8.875570602E0
2.732973875E0,6.175380106E0,5.458053630E0,-2.576251642E0,8.634971998E0
2.742919875E0,6.043757527E0,5.431983234E0,-1.960703702E0,8.359294582E0
2.752866875E0,5.781368403E0,5.240429619E0,-1.294609798E0,7.909635752E0
2.762812875E0,5.430893898E0,5.166458248E0,-4.552145094E-1,7.509601828E0
2.772758875E0,5.111566342E0,5.244244342E0,4.080368346E-1,7.334623593E0
2.782705875E0,4.166280901E0,5.242220621E0,1.057369548E0,6.779144780E0
2.792651875E0,2.680364240E0,4.730185794E0,1.216371714E0,5.571226997E0
2.802597875E0,2.682965666E-1,3.125026279E0,8.122881818E-1,3.239997590E0
2.812544875E0,-3.772753347E0,3.471743363E-1,-4.008851051E-3,3.788695542E0
2.822490875E0,-8.593538824E0,-3.441433151E0,-7.124077982E-1,9.284389938E0
2.832436875E0,-1.008865725E1,-7.355468093E0,-1.804516239E0,1.261507807E1
2.842383875E0,-7.412751510E0,-9.758056844E0,-1.092042367E0,1.230289051E1
2.852329875E0,-3.886695115E0,-7.645958351E0,-6.118702241E-1,8.598922211E0
2.862275875E0,-1.685609016E0,-3.756679351E0,-1.689199206E0,4.450540581E0
2.872221875E0,-2.761604285E0,-5.075552171E0,5.371942270E-1,5.803125511E0
2.882168875E0,-2.687990178E0,-3.617027961E0,1.103368424E0,4.639569414E0
2.892114875E0,-3.141454616E0,-2.636690801E0,2.447885670E-2,4.101399115E0
2.902060875E0,-2.498363221E0,-1.684543068E0,-1.108058476E0,3.210498048E0
2.912007875E0,-1.953588663E0,-1.362801197E0,-2.904626595E0,3.756406717E0
2.921953875E0,-8.677899528E-1,-9.708903980E-1,-3.945088919E0,4.154445107E0
2.931899875E0,4.050752199E-1,-5.509644198E-1,-4.555583256E0,4.606624201E0
2.941846875E0,1.061650295E0,1.051744527E-1,-4.078610673E0,4.215830646E0
2.951792875E0,2.083412054E0,2.284797762E0,-2.274341771E0,3.838428987E0
2.961738875E0,2.433842120E0,3.574956660E0,-2.733734408E0,5.116366523E0
2.971685875E0,1.346803799E0,3.588840289E0,-2.979170116E0,4.854802743E0
2.981631875E0,-5.911651969E-1,2.908919621E0,-1.819062942E0,3.481419199E0
2.991577875E0,-2.815806804E0,1.359844844E0,1.387572049E0,3.421008937E0
3.001523875E0,-4.967210281E0,-3.742960614E-1,6.260181105E0,8.000196435E0
3.011470875E0,-7.650212200E0,-1.903412536E0,1.078855142E1,1.336194476E1
3.021416875E0,-1.111512660E1,-4.273873177E0,1.459817497E1,1.883928724E1
3.031362875E0,-1.216444921E1,-5.962360777E0,1.313525190E1,1.886951014E1
3.041309875E0,-1.153305166E1,-7.331034917E0,2.726289441E0,1.393513573E1
3.051255875E0,-8.010657962E0,-9.065978061E0,-9.941350683E0,1.565864147E1
3.061201875E0,4.829554546E-1,-8.875117925E0,-7.399106448E0,1.156493581E1
3.071148875E0,4.843785792E0,-7.422966011E0,-4.269672537E0,9.838332622E0
3.081094875E0,3.796408843E0,-5.185358203E0,-5.024665022E0,8.157690751E0
3.091040875E0,3.786484364E0,-2.697144579E0,-5.435890929E0,7.152689208E0
3.100987875E0,4.975766512E0,-9.412374133E-1,-4.769353952E0,6.956358054E0
3.110933875E0,5.130321286E0,2.244237381E-1,-3.157752853E0,6.028429778E0
3.120879875E0,4.264159490E0,1.074634622E0,6.564025819E-2,4.397977305E0
3.130826875E0,2.443184216E0,1.182100598E0,3.729704391E0,4.612722166E0
3.140772875E0,1.934029435E0,3.742697489E-1,4.998467157E0,5.372636376E0
3.150718875E0,3.062047089E0,-1.110587981E0,4.001557819E0,5.159651444E0
3.160664875E0,3.249507068E0,-2.180799184E0,1.617296580E0,4.234481019E0
3.170611875E0,2.369514269E0,-2.871150700E0,-1.273448432E0,3.934434537E0
3.180557333E0,2.825692692E0,-2.811162361E0,-2.591649699E0,4.754347607E0
3.190503333E0,3.361568956E0,-1.772003381E0,-1.701275461E0,4.163469710E0
3.200450333E0,3.111699890E0,-4.049337173E-1,-2.458181155E-1,3.147550487E0
3.210396333E0,2.682961281E0,8.425492769E-1,6.838114053E-1,2.894092009E0
3.220342333E0,2.348443535E0,1.984347941E0,9.784005618E-1,3.226467333E0
3.230289333E0,1.714878423E0,3.057461702E0,6.591542816E-1,3.566982539E0
3.240235333E0,9.188960794E-1,3.849790413E0,-2.424594748E-1,3.965355322E0
3.250181333E0,2.277022719E-1,4.147083907E0,-1.211679908E0,4.326467550E0
3.260128333E0,-2.224935722E-1,4.004278529E0,-1.856729536E0,4.419411103E0
3.270074333E0,-5.541236705E-1,3.223519118E0,-2.059136753E0,3.864993236E0
3.280020333E0,-1.291908092E0,2.173446895E0,-1.944809069E0,3.189855834E0
3.289966333E0,-2.427937894E0,1.347410740E0,-1.872079647E0,3.348892402E0
3.299913333E0,-2.828333587E0,4.900142133E-2,-2.325317797E0,3.661826713E0
3.309859333E0,-2.374765653E0,-1.450964929E0,-3.029965755E0,4.114061693E0
3.319805333E0,-1.412049370E0,-2.333322051E0,-3.065343164E0,4.102999382E0
3.329752333E0,-1.600727910E-1,-2.724574453E0,-3.340583299E0,4.313748489E0
3.339698333E0,1.237568455E0,-2.691426587E0,-3.822297975E0,4.835836491E0
3.349644333E0,1.861951100E0,-1.188066512E0,-3.346844498E0,4.009954118E0
3.359591333E0,2.370698038E0,2.132321674E-1,-3.269588453E0,4.044241066E0
3.369537333E0,2.648295770E0,6.892171562E-1,-2.928849855E0,4.008322872E0
3.379483333E0,2.313749081E0,1.140787681E0,-2.160756683E0,3.365070696E0
3.389430333E0,2.475371384E0,1.745682140E0,-2.050913521E0,3.658020762E0
3.399376333E0,3.086224156E0,2.124416823E0,-2.237290597E0,4.363873920E0
3.409322333E0,3.371571788E0,2.002569035E0,-1.426979066E0,4.173014296E0
3.419269333E0,3.378331169E0,1.922966795E0,-2.095127535E-1,3.892919005E0
3.429215333E0,3.294907190E0,1.582348357E0,4.325243890E-1,3.680668018E0
3.439161333E0,2.657365971E0,1.856432498E-2,7.637182850E-1,2.764996231E0
3.449107333E0,8.192223948E-1,-2.235856567E0,1.692932653E0,2.921677753E0
3.459054333E0,-1.756615849E0,-4.876650360E0,2.780825252E0,5.882211068E0
3.469000333E0,-4.187087048E0,-7.186979404E0,2.851883540E0,8.793043309E0
3.478946333E0,-5.676095717E0,-8.090875914E0,1.607529976E0,1.001321568E1
3.488893333E0,-5.634113293E0,-8.117339827E0,1.034926765E0,9.935064764E0
3.498839333E0,-5.507067330E0,-8.041313159E0,5.895513654E-1,9.764122015E0
3.508785333E0,-5.327171894E0,-7.111142771E0,7.231713527E-1,8.914599750E0
3.518732333E0,-4.547961411E0,-5.820121409E0,1.041404018E0,7.459375882E0
3.528678333E0,-4.565706541E0,-5.899852872E0,9.166931409E-1,7.516266789E0
3.538624333E0,-5.066359763E0,-7.884189119E0,-3.273008198E-2,9.371739997E0
3.548571333E0,-5.723246495E0,-1.095686235E1,-1.818140544E0,1.249455954E1
3.558517333E0,-6.761960501E0,-1.480549619E1,-3.091818187E0,1.656762406E1
3.568463333E0,-7.889046401E0,-2.049882248E1,-2.748082598E0,2.213573433E1
3.578409333E0,-9.273370029E0,-2.733888599E1,-1.284066976E0,2.889738582E1
3.588356333E0,-1.206817247E1,-2.874836434E1,-1.281803226E0,3.120500374E1
3.598302333E0,-1.439236233E1,-2.250550503E1,-3.780647088E0,2.698019908E1
3.608248333E0,-8.761118855E0,-1.068536327E1,-1.375933458E0,1.388623004E1
3.618195333E0,-5.969434154E-1,-1.219126922E0,2.881601429E0,3.185316105E0
3.628141333E0,-3.115306745E0,-1.270158847E1,5.170349570E0,1.406300112E1
3.638087333E0,-1.369489710E1,-3.263551613E1,9.916898797E0,3.675557102E1
3.648034333E0,-2.862611544E1,-2.953339281E1,1.101637882E1,4.257976489E1
3.657980333E0,-1.133577362E1,-1.847577240E1,7.095931824E0,2.280802880E1
3.667926333E0,7.139425461E-1,-9.452828679E0,3.829088346E0,1.022387410E1
3.677873333E0,1.164400492E0,-1.707944210E0,2.354013446E0,3.132775325E0
3.687819333E0,-4.370632902E-2,3.255378842E0,1.168150896E0,3.458898404E0
3.697765333E0,-9.261605139E-1,6.441053027E0,7.807358752E-1,6.553967188E0
3.707711333E0,-7.130869523E-1,8.669539763E0,6.929761849E-1,8.726375462E0
3.717658333E0,-1.605912197E-1,9.627057579E0,4.402313116E-1,9.638455830E0
3.727604333E0,-8.163318238E-1,1.017420084E1,5.125540602E-1,1.021975891E1
3.737550333E0,-1.799870626E0,1.091527228E1,1.092542012E0,1.111649006E1
3.747497333E0,-3.200577275E0,1.197849606E1,2.000489765E0,1.255906135E1
3.757443333E0,-4.606479760E0,1.302872966E1,3.200869344E0,1.418495742E1
3.767389333E0,-5.273685658E0,1.392703390E1,4.595950094E0,1.558514648E1
3.777336333E0,-4.842898769E0,1.390121727E1,6.015316086E0,1.590224945E1
3.787282333E0,-3.503813879E0,1.353705736E1,5.064782184E0,1.487214350E1
3.797228333E0,-2.087191694E0,1.302689130E1,2.863985522E0,1.350032145E1
3.807175333E0,-8.589970560E-1,1.268294989E1,1.373695144E-1,1.271274810E1
3.817121333E0,-1.818605398E-1,1.318875743E1,-1.740630730E0,1.330436737E1
3.827067333E0,-2.941556586E-1,1.431171988E1,-2.432686417E0,1.451997991E1
3.837014333E0,-2.320474256E0,1.931089981E1,-3.059318193E0,1.968895325E1
3.846960333E0,-6.970423679E0,3.964669958E1,-7.857181415E-1,4.026245083E1
3.856906333E0,-2.477013867E0,4.495164445E1,-8.927061081E0,4.589638718E1
3.866852333E0,2.426995030E0,3.228404701E1,-1.423879106E1,3.536796809E1
3.876799333E0,5.623786526E0,1.665824143E1,-2.722849290E1,3.241164618E1
3.886745333E0,9.472888137E0,-6.053743402E0,-4.795407742E1,4.925420754E1
3.896691333E0,6.363759268E0,-4.163982360E0,-2.138869620E1,2.270049572E1
3.906638333E0,3.597098311E0,6.156038101E0,-2.809879482E-3,7.129931925E0
3.916584333E0,4.305646655E0,3.122991448E0,9.106366534E0,1.054597459E1
3.926530333E0,6.490653203E0,2.522249097E-1,1.765781593E1,1.881463951E1
3.936477333E0,1.201238886E1,-3.908646732E0,1.442973657E1,1.917791185E1
3.946423333E0,1.561063556E1,-6.003254449E0,1.705650347E0,1.681190798E1
3.956369333E0,1.464796401E1,-4.464483052E0,-1.101862064E1,1.886543028E1
3.966316333E0,1.238135284E1,-2.459399130E0,-1.761429043E1,2.167048153E1
3.976262333E0,6.984632998E0,-4.049267006E-1,-1.441743870E1,1.602534251E1
3.986208333E0,3.367036688E0,1.379792621E0,-8.783225423E0,9.507145343E0
3.996155333E0,2.407221209E0,3.135181723E0,-5.678259771E0,6.918577341E0
4.006101333E0,1.433350777E0,4.774783092E0,-3.478082330E0,6.078659780E0
4.016047333E0,5.918155535E-1,5.996964015E0,-1.680326641E0,6.255982790E0
4.025993333E0,-2.901161827E-1,6.494279062E0,-1.153147525E0,6.602240312E0
4.035940333E0,-1.132178679E0,6.512403676E0,-4.580246812E-1,6.625935165E0
4.045886333E0,-4.652690306E0,3.138498264E0,3.538021553E0,6.634402380E0
4.055832333E0,-1.815973390E1,-1.072408353E1,1.669436436E1,2.689765240E1
4.065779333E0,-1.479312465E1,-1.707422288E1,2.307759895E1,3.229460012E1
4.075725333E0,2.870264263E0,-1.333809415E1,1.027835145E1,1.708179385E1
4.085671333E0,1.218629909E-1,-9.475341629E0,4.345358312E-3,9.476126237E0
4.095618333E0,-1.624802066E0,-5.111187442E0,4.346937060E0,6.903628077E0
4.105564333E0,1.259871782E0,-2.725454459E0,7.863415132E0,8.417165583E0
4.115510333E0,-3.417998680E-1,-3.134173079E0,6.937848841E0,7.620604607E0
4.125457333E0,-3.206545821E0,-3.622619653E0,1.910486498E0,5.201467861E0
4.135403333E0,-4.713702200E0,-4.046239318E0,-1.831946113E0,6.476655588E0
4.145349333E0,-7.729132070E0,-3.580226170E0,2.984012195E0,9.025620797E0
4.155295333E0,-7.553627892E0,8.652785736E-1,4.861787322E0,9.024576295E0
4.165242333E0,-7.625686054E0,4.542663249E0,4.090288147E-1,8.885616566E0
4.175188333E0,-8.420738983E0,4.033406433E0,-7.283522782E-1,9.365239427E0
4.185134958E0,-8.090095310E0,1.279822775E0,8.326692367E-1,8.232917255E0
4.195081958E0,-4.803121038E0,-2.688863752E0,1.262246629E0,5.647408834E0
4.205027958E0,-3.107868209E0,-6.252504296E0,1.293142147E0,7.101047204E0
4.214973958E0,-3.473045246E0,-7.511109279E0,3.574756100E0,9.014304580E0
4.224920958E0,-2.825607030E0,-6.213339645E0,4.365154938E0,8.102112210E0
4.234866958E0,-3.172533737E0,-3.965506226E0,4.772400936E0,6.968932532E0
4.244812958E0,-3.215631809E0,-1.274691258E0,6.259557792E0,7.151726329E0
4.254759958E0,-3.027305857E0,6.070579290E-1,7.706254839E0,8.301774733E0
4.264705958E0,-3.188246959E0,3.002843446E-1,6.971242290E0,7.671590997E0
4.274651958E0,-3.044479714E0,-1.309106800E0,5.210129932E0,6.174793215E0
4.284597958E0,-2.924839250E0,-2.403010921E0,3.438048198E0,5.113640732E0
4.294544958E0,-2.740951042E0,-2.526135741E0,2.047969448E0,4.253040472E0
4.304490958E0,-2.221676484E0,-2.204759905E0,1.158774886E0,3.337599717E0
4.314436958E0,-2.064177638E0,-1.650283647E0,9.362906688E-1,2.803730667E0
4.324383958E0,-1.771308732E0,-1.193505592E0,1.064890822E0,2.386625795E0
4.334329958E0,-1.340855134E0,-7.321731412E-1,1.122341470E0,1.895684672E0
4.344275958E0,-8.951590151E-1,-1.572222733E-1,9.625616241E-1,1.323840393E0
4.354222958E0,-3.261951113E-1,4.197371131E-1,4.726950529E-1,7.113530121E-1
4.364168958E0,7.354335487E-2,1.044175306E0,2.129202184E-1,1.068197413E0
4.374114958E0,3.275197980E-1,1.520514051E0,3.507066393E-1,1.594436372E0
4.384061958E0,6.266773841E-1,1.802984269E0,7.020629042E-1,2.033806564E0
4.394007958E0,7.992921603E-1,1.822692309E0,1.261160801E0,2.356183732E0
4.403953958E0,1.356693195E0,1.941133509E0,1.131344427E0,2.624605864E0
4.413899958E0,1.994289377E0,1.994351358E0,7.544931328E-1,2.919569719E0
4.423846958E0,2.382390715E0,1.935357045E0,4.013446963E-1,3.095556489E0
4.433792958E0,2.396959053E0,1.856270530E0,-1.541805518E-1,3.035609432E0
4.443738958E0,2.360083880E0,1.757648467E0,-6.377534723E-1,3.010988798E0
4.453685958E0,2.339902799E0,1.750739982E0,-9.285928094E-1,3.066352915E0
4.463631958E0,2.269014373E0,1.843521261E0,-1.467464603E0,3.271154112E0
4.473577958E0,2.436395306E0,2.119731449E0,-1.897248402E0,3.745508644E0
4.483524958E0,2.705820970E0,2.742582123E0,-2.465866735E0,4.574245575E0
4.493470958E0,2.888531841E0,2.531756085E0,-2.916825056E0,4.822994244E0
4.503416958E0,2.635143336E0,1.697812155E0,-3.152674838E0,4.445886318E0
4.513363958E0,2.089978769E0,1.242632144E0,-3.423169958E0,4.198837751E0
4.523309958E0,1.454116286E0,1.352045243E0,-3.744421833E0,4.238298642E0
4.533255958E0,6.124803445E-1,1.690648146E0,-4.089526255E0,4.467398384E0
4.543201958E0,-1.846980473E-1,2.009717256E0,-4.120743955E0,4.588421031E0
4.553148958E0,-7.013167995E-1,2.299563151E0,-3.917619284E0,4.596474388E0
4.563094958E0,-9.848020935E-1,2.603430085E0,-3.468810400E0,4.447508174E0
4.573040958E0,-9.612196881E-1,3.216308332E0,-2.813754432E0,4.380159424E0
4.582987958E0,-5.784583202E-1,4.188110311E0,-2.443433307E0,4.883159667E0
4.592933958E0,-4.030459437E-1,4.963687919E0,-2.184502226E0,5.438078131E0
4.602879958E0,-3.152172562E-1,5.591400552E0,-1.935831254E0,5.925416838E0
4.612826958E0,-1.558572409E-1,5.969596122E0,-1.640991837E0,6.192997945E0
4.622772958E0,1.955955032E-1,6.159929423E0,-1.361227711E0,6.311571039E0
4.632718958E0,4.787527683E-1,6.168277493E0,-9.158224905E-1,6.254245141E0
4.642665958E0,7.988764232E-1,5.985114048E0,-5.316902429E-1,6.061558233E0
4.652611958E0,1.329585211E0,5.538641126E0,-3.579162562E-1,5.707227558E0
4.662557958E0,1.909081997E0,4.486044660E0,-3.900525534E-1,4.890943851E0
4.672504958E0,2.696578569E0,2.736868224E0,-7.342623514E-1,3.911665227E0
4.682450958E0,3.587865850E0,6.543870467E-1,-1.456742563E0,3.927225822E0
4.692396958E0,4.331744240E0,-1.564999083E0,-1.755446405E0,4.928977822E0
4.702342958E0,4.922379679E0,-3.077914678E0,-1.418393015E0,5.976221148E0
4.712289958E0,4.838766834E0,-2.676134949E0,-1.293086014E0,5.678682433E0
4.722235958E0,4.814620757E0,-1.128633658E0,-1.128826616E0,5.072340337E0
4.732181958E0,4.740512269E0,2.867509639E-1,-7.676458597E-2,4.749797415E0
4.742128958E0,4.260150931E0,1.513362907E0,4.392761689E-1,4.542258997E0
4.752074958E0,2.955292134E0,2.861876432E0,-1.538425827E-1,4.116765216E0
4.762020958E0,1.971257780E0,4.239096862E0,-8.543144596E-1,4.752436495E0
4.771967958E0,1.222671504E0,5.708474674E0,-9.214211994E-1,5.910213679E0
4.781913958E0,9.905393815E-1,6.575451279E0,-5.820257065E-1,6.675064173E0
4.791859958E0,6.883292565E-1,6.324989889E0,1.112850854E0,6.458926481E0
4.801806958E0,-4.108405745E-1,5.413965039E0,2.704554171E0,6.065840477E0
4.811752958E0,-1.457085502E0,4.572729632E0,3.112555338E0,5.720223350E0
4.821698958E0,-2.006200740E0,3.949688339E0,2.794205436E0,5.237600920E0
4.831644958E0,-1.117095055E0,3.572774479E0,8.443847179E-1,3.837395522E0
4.841591958E0,-1.754202703E-1,3.611115257E0,-9.571734148E-1,3.739934039E0
4.851537958E0,-1.695616525E-1,3.567517247E0,-1.152081870E0,3.752762063E0
4.861483958E0,-3.153105193E-1,3.624513566E0,-7.357264942E-1,3.711847625E0
4.871430958E0,-5.075491360E-1,3.699686540E0,-2.223780897E-1,3.740954242E0
4.881376958E0,9.410014781E-1,3.679170415E0,3.880533904E-2,3.797799965E0
4.891322958E0,8.825044709E-1,2.014224290E0,4.239930090E-1,2.239572214E0
4.901269958E0,-2.543316615E-1,-1.270584759E0,1.311134907E0,1.843405806E0
4.911215958E0,-1.174018577E0,-3.078839707E0,2.301674581E0,4.019363064E0
4.921161958E0,-2.127380776E0,-3.839703382E0,2.180226157E0,4.901270970E0
4.931108958E0,-4.516021288E0,-4.475476402E0,2.285467268E0,6.756308010E0
4.941054958E0,-6.140420773E0,-5.133998600E0,2.054591128E0,8.263416581E0
4.951000958E0,-7.194207147E0,-5.773308601E0,1.871479722E0,9.412233796E0
4.960946958E0,-6.901178613E0,-6.360732749E0,2.368397743E0,9.679591687E0
4.970893958E0,-4.618848960E0,-7.745047022E0,3.480888408E0,9.666235213E0
4.980839958E0,-1.336338745E0,-9.941613808E0,4.234309747E0,1.088810660E1
4.990785958E0,-4.070045087E-1,-1.119855000E1,4.346526878E0,1.201937896E1
5.000732958E0,-1.981295695E0,-1.287075076E1,4.808535267E0,1.388177832E1
5.010678958E0,-5.101044277E0,-1.171588591E1,4.355954344E0,1.350025828E1
5.020624958E0,-9.132855005E0,-8.543570273E0,2.231426132E0,1.270357808E1
5.030571958E0,-1.080450613E1,-7.257444200E0,1.999384056E0,1.316834787E1
5.040517958E0,-7.607742119E0,-6.626536648E0,2.732886562E0,1.045262632E1
5.050463958E0,-2.488848924E0,-5.542670442E0,1.626559447E0,6.289774259E0
5.060410958E0,3.693197885E-1,-4.007724878E0,1.576020500E-1,4.027790239E0
5.070356958E0,2.121736751E0,-2.152761201E0,-2.931586352E-1,3.036789360E0
5.080302958E0,2.967485040E0,-7.672260296E-1,-1.800825477E-2,3.065114605E0
5.090248958E0,3.181411857E0,-6.075496799E-1,1.440490812E-1,3.242105512E0
5.100195958E0,2.503645595E0,-1.318705004E0,-1.702525011E-1,2.834820994E0
5.110141958E0,6.538520265E-1,-2.474425305E0,-8.899927077E-1,2.709684498E0
5.120087958E0,-6.397897652E-1,-3.321055938E0,-1.311270562E0,3.627419741E0
5.130034958E0,-9.688681385E-1,-3.270025533E0,-1.275937007E0,3.641399141E0
5.139980958E0,-8.385939279E-1,-2.436836479E0,-1.129797547E0,2.813868209E0
5.149926958E0,-4.872057956E-1,-1.061619889E0,-7.835233891E-1,1.406525925E0
5.159873958E0,-1.271512127E-1,3.717367351E-1,-4.095053628E-1,5.674947341E-1
5.169819958E0,3.690686506E-1,1.611591452E0,-9.445065916E-2,1.656007127E0
5.179765958E0,9.710052958E-1,2.616803836E0,3.781365126E-2,2.791405287E0
5.189712208E0,1.675245411E0,3.389480640E0,2.151249111E-2,3.780937580E0
5.199658208E0,2.444542524E0,4.027055188E0,-1.399624622E-1,4.713019322E0
5.209604208E0,2.946823611E0,4.483258461E0,-3.123682004E-1,5.374099899E0
5.219550208E0,3.238534476E0,4.739122093E0,-3.391819234E-1,5.749993752E0
5.229497208E0,3.479609038E0,4.690217736E0,-5.400538078E-1,5.864936451E0
5.239443208E0,3.298868678E0,4.466800888E0,-9.790320611E-1,5.638559081E0
5.249389208E0,2.930994321E0,4.153690091E0,-1.323782873E0,5.253215223E0
5.259336208E0,2.612137758E0,3.788914467E0,-1.574080979E0,4.863832586E0
5.269282208E0,1.850613348E0,3.424812441E0,-1.609877340E0,4.212578198E0
5.279228208E0,1.032151092E0,3.027129271E0,-1.533053990E0,3.546702981E0
5.289175208E0,2.415785918E-1,2.636838151E0,-1.470633940E0,3.028867748E0
5.299121208E0,-7.481848642E-1,2.232183931E0,-1.654280219E0,2.877337091E0
5.309067208E0,-1.707442227E0,1.604805173E0,-2.044862676E0,3.110019609E0
5.319014208E0,-2.519247428E0,6.294586122E-1,-2.328977716E0,3.488117393E0
5.328960208E0,-2.583617087E0,-4.315777248E-1,-2.380033118E0,3.539194008E0
5.338906208E0,-7.588452154E-1,-7.547720450E-1,-1.573490995E0,1.902997848E0
5.348852208E0,-6.988837731E-1,-6.605500120E-1,-7.480015540E-1,1.218306682E0
5.358799208E0,-3.754573184E-1,-6.534848213E-2,-4.189904237E-1,5.663846725E-1
5.368745208E0,2.533218473E-1,7.602327597E-1,-4.321535294E-1,9.104298327E-1
5.378691208E0,1.216308856E0,1.172244532E0,-1.022056020E0,1.974376606E0
5.388638208E0,2.652137683E0,9.833607548E-1,-1.836940219E0,3.372711377E0
5.398584208E0,3.570791396E0,8.147674012E-1,-2.938448644E0,4.695623233E0
5.408530208E0,3.486400579E0,1.558163688E0,-3.440609279E0,5.140102653E0
5.418477208E0,2.750850378E0,2.593100978E0,-3.384565471E0,5.074114101E0
5.428423208E0,2.012501700E0,3.566818505E0,-2.803461578E0,4.963038803E0
5.438369208E0,1.691337825E0,4.396485781E0,-2.106322029E0,5.160068154E0
5.448316208E0,1.437060543E0,5.113007095E0,-1.325985373E0,5.474141190E0
5.458262208E0,1.277940848E0,5.529097300E0,-1.549968962E-1,5.676977524E0
5.468208208E0,1.018949833E0,5.388816165E0,3.526876394E-1,5.495633448E0
5.478154208E0,1.883475870E-2,4.300062856E0,1.116297422E-1,4.301552803E0
5.488101208E0,-1.514946333E-1,1.953455932E0,-1.336240987E-1,1.963872730E0
5.498047208E0,5.058975899E-1,-1.386861320E0,3.563936412E-1,1.518661621E0
5.507993208E0,1.473343393E-1,-3.854167054E0,1.218176165E0,4.044782350E0
5.517940208E0,-8.942655605E-1,-2.758702896E0,8.356103861E-1,3.018012140E0
5.527886208E0,1.397379291E-1,-2.314784623E0,-9.187729955E-3,2.319016807E0
5.537832208E0,6.778609863E-1,-1.824354088E0,-2.495620877E-1,1.962153050E0
5.547779208E0,8.137783447E-1,-1.492260305E0,-1.090716584E-1,1.703224189E0
5.557725208E0,1.183478495E0,-1.181633990E0,3.080242308E-1,1.700517322E0
5.567671208E0,8.324721855E-1,-1.091699136E0,1.693248403E-1,1.383288778E0
5.577618208E0,6.569674230E-1,-1.485931279E0,-1.555014378E-1,1.632108654E0
5.587564208E0,5.060341224E-1,-1.625317791E0,-2.409502354E-1,1.719239794E0
5.597510208E0,5.306055844E-2,-1.746990162E0,-4.173162927E-1,1.796925969E0
5.607456208E0,-4.166956839E-1,-1.925676395E0,-1.340987574E0,2.383298669E0
5.617403208E0,-2.796755406E-1,-2.284251632E0,-1.738446211E0,2.884132305E0
5.627349208E0,-1.095297512E-1,-2.870916812E0,-1.487122942E0,3.235072604E0
5.637295208E0,-4.238558918E-1,-3.106507562E0,-1.331470061E0,3.406296460E0
5.647242208E0,-5.591389735E-1,-3.038938308E0,-1.202900387E0,3.315833496E0
5.657188208E0,-2.446565661E-1,-2.904164080E0,-1.594632772E0,3.322179935E0
5.667134208E0,-1.315187904E-1,-2.284842201E0,-1.740270542E0,2.875124803E0
5.677081208E0,-3.618872465E-1,-1.695375620E0,-2.400641483E0,2.961138363E0
5.687027208E0,-2.666301101E-1,-1.081626722E0,-2.568636813E0,2.799804110E0
5.696973208E0,-4.982079166E-1,-4.974980646E-1,-1.922683059E0,2.047541354E0
5.706920208E0,-1.581956886E0,-9.205154657E-2,-1.295023781E0,2.046496438E0
5.716866208E0,-2.572236943E0,3.429666799E-1,-2.129129094E-1,2.603720596E0
5.726812208E0,-3.598771492E0,5.418293148E-1,6.335309055E-1,3.694062353E0
5.736758208E0,-4.710961026E0,3.123097283E-1,1.724275483E0,5.026312475E0
5.746705208E0,-5.304077146E0,-4.249580920E-2,2.594450516E0,5.904761955E0
5.756651208E0,-5.790181911E0,-5.300272948E-1,2.994407668E0,6.540153880E0
5.766597208E0,-5.729924015E0,-1.089233950E0,2.973324654E0,6.546687660E0
5.776544208E0,-5.379171767E0,-1.323782142E0,2.357660793E0,6.020502676E0
5.786490208E0,-4.639773222E0,-1.174441915E0,1.515951469E0,5.020450001E0
5.796436208E0,-3.601549504E0,-9.018359506E-1,1.089841768E0,3.869395559E0
5.806383208E0,-2.478305809E0,-4.295540035E-1,8.243892869E-1,2.646910278E0
5.816329208E0,-1.428011977E0,3.524011624E-1,-2.828359607E-1,1.497798707E0
5.826275208E0,-4.001165617E-1,1.436983652E0,-1.561279962E0,2.159307852E0
5.836222208E0,5.407353008E-1,2.611088183E0,-9.386868578E-1,2.826890373E0
5.846168208E0,6.807036833E-1,3.299376801E0,4.528361544E-1,3.399162450E0
5.856114208E0,2.234272264E-1,3.504195410E0,1.675819607E0,3.890716715E0
5.866060208E0,3.343449605E-1,3.510669447E0,2.615010495E0,4.390315070E0
5.876007208E0,8.234016191E-1,3.594326731E0,2.683309482E0,4.560408387E0
5.885953208E0,1.444010251E0,3.452578529E0,2.033744634E0,4.259293526E0
5.895899208E0,1.762255488E0,3.193256269E0,1.369581920E0,3.895918973E0
5.905846208E0,1.879435298E0,2.780815896E0,1.081181164E0,3.526211394E0
5.915792208E0,1.712281382E0,2.336654379E0,1.133384229E0,3.110694621E0
5.925738208E0,1.416160840E0,1.969987764E0,1.271456871E0,2.739154229E0
5.935685208E0,1.245203019E0,1.587906135E0,1.153772593E0,2.324471477E0
5.945631208E0,1.648694374E0,1.117368997E0,7.150077626E-1,2.116115005E0
5.955577208E0,2.260386660E0,6.416570735E-1,-1.036810738E-1,2.351982444E0
5.965524208E0,3.046230370E0,-3.885281843E-1,-7.834076142E-1,3.169258763E0
5.975470208E0,3.753628274E0,-2.058953151E0,-1.984411676E0,4.718781940E0
5.985416208E0,4.426776697E0,-3.199209319E0,-3.400236593E0,6.433731506E0
5.995362208E0,5.272212160E0,-3.844679947E0,-4.657653422E0,8.016952061E0
6.005309208E0,5.768040844E0,-4.489631342E0,-5.481202172E0,9.136227997E0
6.015255208E0,6.016843963E0,-4.835560221E0,-5.716939103E0,9.605646602E0
6.025201208E0,6.007886614E0,-4.671200252E0,-5.345285983E0,9.299833095E0
6.035148208E0,5.483606547E0,-3.742180011E0,-4.643553447E0,8.101631972E0
6.045094208E0,4.960267882E0,-2.398501548E0,-4.418533877E0,7.062613451E0
6.055040208E0,4.601628910E0,-1.379180417E0,-4.088228173E0,6.307989921E0
6.064987208E0,3.960474697E0,-8.417394376E-1,-3.521745828E0,5.366244384E0
6.074933208E0,3.361542059E0,-3.678056520E-1,-2.976496477E0,4.504972507E0
6.084879208E0,2.511440811E0,2.147401643E-1,-2.867181610E0,3.817614264E0
6.094826208E0,1.517224115E0,9.220193696E-1,-2.397880574E0,2.983608550E0
6.104772208E0,6.158541879E-1,1.647113872E0,-9.582756150E-1,2.002636423E0
6.114718208E0,2.270134699E-1,2.145824064E0,1.084902917E0,2.415183299E0
6.124664208E0,2.198918536E-1,2.268191085E0,2.762995922E0,3.581506623E0
6.134611208E0,2.801602748E-1,2.205086764E0,3.776425399E0,4.382041329E0
6.144557208E0,7.056112871E-1,1.440001400E0,3.993405339E0,4.303344922E0
6.154503208E0,-6.242040119E-1,-1.448223170E0,3.614109908E0,3.943193050E0
6.164450208E0,-2.747100559E0,-5.856363037E0,2.872994035E0,7.077968933E0
6.174396208E0,-2.552978554E0,-9.928578025E0,2.016632173E0,1.044802213E1
6.184343000E0,-7.060410574E-1,-1.225621775E1,1.668846218E0,1.238944774E1
6.194290000E0,-1.513635972E0,-1.425548369E1,2.291872308E0,1.451766468E1
6.204236000E0,-2.675946084E0,-1.530700018E1,4.567635537E0,1.619655014E1
6.214182000E0,-2.584093050E0,-1.724256188E1,6.245989328E0,1.852014740E1
6.224129000E0,-3.511029051E0,-2.074690113E1,8.600416903E0,2.273166079E1
6.234075000E0,-5.234161988E0,-2.535976488E1,8.401347277E0,2.722309245E1
6.244021000E0,-7.479211548E0,-3.125097264E1,8.311028261E0,3.319088862E1
6.253967000E0,-1.173961508E1,-3.732575959E1,1.187899984E1,4.089182716E1
6.263914000E0,-1.004248997E1,-3.817104010E1,1.484441525E1,4.216914241E1
6.273860000E0,-3.592093095E0,-3.171883176E1,1.166140155E1,3.398493353E1
6.283806000E0,-2.460778049E-1,-2.352400580E1,6.466235815E0,2.439777876E1
6.293753000E0,-1.470180342E0,-1.666063645E1,2.996141367E0,1.699161853E1
6.303699000E0,-3.425032589E0,-1.054112415E1,8.261080760E-1,1.111434214E1
6.313645000E0,-4.806670590E0,-5.358588983E0,-3.789951763E-1,7.208480797E0
6.323592000E0,-4.784980052E0,-9.246377528E-1,-2.779897884E-1,4.881420632E0
6.333538000E0,-5.263174703E0,3.077873747E0,-5.255182144E-1,6.119680070E0
6.343484000E0,-5.955612506E0,5.856816781E0,-2.755558848E-1,8.357484919E0
6.353430000E0,-7.106127030E0,7.164248938E0,1.464209165E0,1.019644118E1
6.363377000E0,-8.117287202E0,8.187893500E0,3.932160433E0,1.218170091E1
6.373323000E0,-8.416526064E0,9.257554480E0,5.829106826E0,1.380285160E1
6.383269000E0,-9.321984950E0,9.653403379E0,8.365676923E0,1.581366974E1
6.393216000E0,-1.127601391E1,9.402271314E0,1.145492117E1,1.862166519E1
6.403162000E0,-1.269468876E1,9.619218217E0,1.368236768E1,2.099742049E1
6.413108000E0,-1.318104612E1,9.961459258E0,1.312566130E1,2.110103391E1
6.423055000E0,-1.251836948E1,1.050542105E1,9.987401015E0,1.915258794E1
6.433001000E0,-1.059418646E1,1.107099182E1,6.004392902E0,1.645771493E1
6.442947000E0,-1.008848417E1,1.058196578E1,3.385112185E0,1.500714820E1
6.452894000E0,-8.889530727E0,9.974788570E0,-7.945857364E-1,1.338474991E1
6.462840000E0,-5.905251022E0,9.226192355E0,-5.249542505E0,1.214711124E1
6.472786000E0,-2.097973082E0,8.936369264E0,-7.742962489E0,1.200889898E1
6.482732000E0,-1.328383023E0,1.707095545E1,-9.210205482E0,1.944247943E1
6.492679000E0,-1.960077611E0,4.093172111E1,-1.653195911E1,4.418770609E1
6.502625000E0,5.698358406E0,4.164067028E1,-4.260558249E1,5.984690776E1
6.512571000E0,1.628144218E1,5.899327208E0,-4.530229963E1,4.849933786E1
6.522518000E0,1.072355962E1,-5.244493434E0,-3.217331712E1,3.431649424E1
6.532464000E0,-3.778840591E0,1.362161862E1,-4.606437368E0,1.486766274E1
6.542410000E0,-2.526993016E-2,1.081854062E1,1.216503744E1,1.627972959E1
6.552357000E0,5.966366705E0,-1.934861786E0,2.904615134E1,2.971565462E1
6.562303000E0,1.075524568E1,-1.077025548E1,2.225825669E1,2.696486053E1
6.572249000E0,1.134056015E1,-7.590451902E0,-1.100747702E0,1.369068699E1
6.582196000E0,7.834229924E0,-1.780247371E0,-9.190350677E0,1.220684172E1
6.592142000E0,4.419522934E0,2.837410512E0,-1.688173955E1,1.767982499E1
6.602088000E0,3.353748013E0,5.111013780E0,-1.880088461E1,1.976975846E1
6.612034000E0,2.758498244E0,5.137142063E0,-1.421919587E1,1.536831391E1
6.621981000E0,1.454081203E0,4.711370038E0,-9.634582361E0,1.082296341E1
6.631927000E0,9.293757516E-1,4.912777382E0,-6.888689545E0,8.511942465E0
6.641873000E0,4.202066445E-1,5.612164015E0,-5.098372684E0,7.593837145E0
6.651820000E0,-1.846097544E-1,6.776612454E0,-3.438342313E0,7.601233780E0
6.661766000E0,-4.923631860E-1,7.899223480E0,-2.949463337E0,8.446270601E0
6.671712000E0,-7.491458541E-1,7.629227713E0,-3.400992054E0,8.386482096E0
6.681659000E0,-1.167919273E0,6.519423258E0,-3.175216147E0,7.344992351E0
6.691605000E0,-1.309582617E0,5.224041043E0,-2.028239188E0,5.754942715E0
6.701551000E0,-1.415612664E0,2.306250612E0,1.416554942E0,3.054403215E0
6.711498000E0,5.744032761E-1,-9.897925751E0,1.605259268E1,1.886755429E1
6.721444000E0,-1.025780550E0,-2.948759040E1,3.032257513E1,4.230873167E1
6.731390000E0,-3.262867956E0,-2.428589566E1,-5.094972528E0,2.502817972E1
6.741336000E0,2.856972372E0,-1.211356206E1,-8.101700864E0,1.485052975E1
6.751283000E0,3.359927058E0,-3.494288473E0,5.547345876E0,7.366967356E0
6.761229000E0,-1.883764138E0,6.598553628E-1,7.059636403E0,7.336378028E0
6.771175000E0,-5.470492412E0,2.303572002E0,2.582243868E0,6.473076130E0
6.781122000E0,-6.382658054E0,1.574899004E0,1.673139828E0,6.783658864E0
6.791068000E0,-5.236510230E0,1.698648307E0,5.868066239E0,8.046157272E0
6.801014000E0,-3.425293082E-1,8.224985898E-1,5.853667470E0,5.921085467E0
6.810961000E0,-2.668552279E-2,-3.188290814E0,-2.104412913E-3,3.188403183E0
6.820907000E0,-2.012675947E0,-6.183480254E0,3.986600642E0,7.627534149E0
6.830853000E0,-4.120531408E0,-7.629064575E0,6.966268648E0,1.112251340E1
6.840800000E0,-3.137729063E0,-7.829553906E0,2.810095244E0,8.890663266E0
6.850746000E0,-1.625115623E0,-7.122671142E0,3.881628503E0,8.272876453E0
6.860692000E0,-1.879885533E0,-6.711084462E0,5.395986021E0,8.814152790E0
6.870638000E0,-1.958020853E0,-6.400207887E0,6.371363572E0,9.240713199E0
6.880585000E0,-2.163287943E0,-5.430509151E0,6.938821818E0,9.072898797E0
6.890531000E0,-2.599797210E0,-4.414250792E0,7.129950925E0,8.779564669E0
6.900477000E0,-2.353611012E0,-3.870311217E0,6.946616156E0,8.293025366E0
6.910424000E0,-1.430500844E0,-3.726257458E0,6.301832576E0,7.459518827E0
6.920370000E0,-1.005719777E0,-3.532793557E0,5.168719366E0,6.340959113E0
6.930316000E0,-6.337131925E-1,-2.877721217E0,3.786650425E0,4.798082247E0
6.940263000E0,-5.255122210E-1,-2.140537596E0,2.351496366E0,3.222979903E0
6.950209000E0,-8.072016889E-1,-1.477294942E0,1.491288498E0,2.248981168E0
6.960155000E0,-9.166273597E-1,-1.048622113E0,9.774147213E-1,1.701515087E0
6.970102000E0,-9.468248664E-1,-8.538554531E-1,4.766463089E-1,1.361153249E0
6.980048000E0,-1.016909301E0,-7.560976088E-1,1.442016935E-1,1.275375336E0
6.989994000E0,-9.199637809E-1,-6.368483233E-1,-4.828455269E-2,1.119928812E0
6.999940000E0,-9.118212408E-1,-7.171785414E-1,2.000133669E-1,1.177186639E0
7.009887000E0,-9.494960207E-1,-7.230818903E-1,7.724575335E-1,1.421647198E0
7.019833000E0,-9.183892719E-1,-5.407850021E-1,1.224527995E0,1.623377986E0
7.029779000E0,-8.210069650E-1,-4.534445572E-1,1.455502954E0,1.731517615E0
7.039726000E0,-6.322014680E-1,-4.952258366E-1,1.622745600E0,1.810588470E0
7.049672000E0,-6.372275153E-1,-5.522443753E-1,1.681401944E0,1.880995814E0
7.059618000E0,-5.835031517E-1,-5.975731605E-1,1.785756032E0,1.971419341E0
7.069565000E0,-2.711295426E-1,-5.230650151E-1,1.536381640E0,1.645471599E0
7.079511000E0,5.345261425E-2,-4.133846980E-1,1.013876789E0,1.096216326E0
7.089457000E0,2.266024107E-1,-2.970432329E-1,3.611240387E-3,3.736259838E-1
7.099403000E0,3.095898959E-1,-3.423310876E-2,-9.110692888E-1,9.628421773E-1
7.109350000E0,2.613041372E-1,4.550233054E-1,-1.935803187E0,2.005657010E0
7.119296000E0,4.534091815E-1,7.627271819E-1,-2.740403450E0,2.880476299E0
7.129242000E0,3.273657238E-1,1.514846345E0,-2.537737786E0,2.973556934E0
7.139189000E0,5.247010660E-1,2.154022445E0,-2.859667938E0,3.618400837E0
7.149135000E0,5.934569400E-1,2.423551605E0,-3.205995013E0,4.062535851E0
7.159081000E0,4.778934469E-1,3.064199449E0,-3.278584687E0,4.512961108E0
7.169028000E0,3.377612693E-1,3.879565605E0,-3.460634238E0,5.209712208E0
7.178974000E0,2.724549602E-1,4.617486559E0,-3.609980312E0,5.867484272E0
7.188919458E0,1.180039747E-1,5.127717521E0,-3.885026320E0,6.434348562E0
7.198866458E0,-1.099497275E-1,5.414393055E0,-4.299133149E0,6.914498314E0
7.208812458E0,-4.869121192E-1,5.625529581E0,-4.510749146E0,7.227068862E0
7.218758458E0,-1.097859908E0,5.856503955E0,-4.551246961E0,7.497851949E0
7.228704458E0,-1.284078378E0,6.019273481E0,-4.715067233E0,7.753216722E0
7.238651458E0,-1.312951637E0,6.001718386E0,-4.685024239E0,7.726183903E0
7.248597458E0,-1.536096735E0,5.855846143E0,-4.346102663E0,7.452458358E0
7.258543458E0,-1.896806060E0,5.718144799E0,-3.792832101E0,7.119032836E0
7.268490458E0,-2.542450057E0,5.502910545E0,-3.045572559E0,6.783921356E0
7.278436458E0,-3.357093498E0,5.310122582E0,-2.213961668E0,6.661013801E0
7.288382458E0,-3.918858894E0,5.090612844E0,-1.624423167E0,6.626503210E0
7.298329458E0,-4.457126378E0,4.433044327E0,-1.412307233E0,6.443017094E0
7.308275458E0,-5.184168879E0,3.253341088E0,-1.804656572E0,6.380957651E0
7.318221458E0,-5.293363293E0,2.983208495E0,-1.298340322E0,6.213285400E0
7.328168458E0,-4.950710024E0,2.772307613E0,-1.027454023E0,5.766357690E0
7.338114458E0,-4.668515795E0,2.528055382E0,-1.471461759E0,5.509201707E0
7.348060458E0,-4.240030662E0,2.514165321E0,-2.206215277E0,5.400580814E0
7.358006458E0,-3.082453871E0,2.694167762E0,-2.797506773E0,4.958437853E0
7.367953458E0,-1.514573280E0,2.838325016E0,-3.208378923E0,4.543535675E0
7.377899458E0,1.594135174E-1,2.396872514E0,-3.146414225E0,3.958577142E0
7.387845458E0,2.166542503E0,1.256718671E0,-1.616815354E0,2.981164223E0
7.397792458E0,5.041234862E0,-8.894217271E-1,1.148858008E0,5.246426848E0
7.407738458E0,5.404520617E0,-1.457671686E0,1.035336655E0,5.692589202E0
7.417684458E0,4.840753133E0,-7.938823164E-1,-4.822847790E-1,4.929070768E0
7.427631458E0,3.645516765E0,4.663505316E-2,-5.740796328E-2,3.646266993E0
7.437577458E0,2.869075231E0,9.582183123E-1,7.135211080E-1,3.107875060E0
7.447523458E0,1.661112691E0,1.622404708E0,8.433310497E-1,2.470364278E0
7.457470458E0,2.413628295E-1,2.263794563E0,9.081602991E-1,2.451076696E0
7.467416458E0,-3.829025781E-1,2.741367071E0,8.812256849E-1,2.904869448E0
7.477362458E0,-8.469387817E-1,2.874577169E0,6.199136174E-1,3.060194780E0
7.487308458E0,-5.761021847E-1,3.193073836E0,7.171493053E-2,3.245420971E0
7.497255458E0,-9.172815900E-1,3.118374487E0,-6.833196545E-1,3.321534390E0
7.507201458E0,-1.804401341E0,2.940569429E0,-1.122963613E0,3.628203419E0
7.517147458E0,-2.523336971E0,3.234653971E0,-1.548967187E0,4.385147105E0
7.527094458E0,-3.172195183E0,3.688280377E0,-1.840224016E0,5.201217054E0
7.537040458E0,-3.727308202E0,3.495414062E0,-1.417284967E0,5.302776874E0
7.546986458E0,-3.861614068E0,2.702756152E0,-6.035402441E-1,4.751969576E0
7.556933458E0,-3.216461237E0,2.054889920E0,5.961891246E-1,3.863112339E0
7.566879458E0,-2.032577238E0,1.542545775E0,1.422622890E0,2.921416366E0
7.576825458E0,-1.484717982E0,1.193921329E0,1.134808903E0,2.217572292E0
7.586771458E0,-1.906477354E0,1.369054794E0,7.184310150E-1,2.454609960E0
7.596718458E0,-2.418456633E0,1.881200134E0,2.049437392E-1,3.070805817E0
7.606664458E0,-1.944742118E0,2.069993863E0,-4.672574347E-1,2.878406853E0
7.616610458E0,-1.715455543E0,4.340551901E-1,-7.307160151E-1,1.914454890E0
7.626557458E0,-5.706847394E-1,-1.431535801E0,-2.184186476E-1,1.556496877E0
7.636503458E0,6.142324626E-1,-4.161435313E0,1.413589527E0,4.437686417E0
7.646449458E0,5.599966139E-1,-6.674200811E0,3.595573942E0,7.601756681E0
7.656396458E0,4.969082268E-1,-8.175024363E0,5.552642868E0,9.894937289E0
7.666342458E0,5.141129279E-1,-9.151531012E0,6.726034623E0,1.136900936E1
7.676288458E0,1.729515320E0,-9.239298304E0,6.069977027E0,1.118930192E1
7.686234458E0,3.961604964E0,-9.019486849E0,5.504786332E0,1.128486285E1
7.696181458E0,7.519072602E0,-9.085293168E0,6.389433807E0,1.341282480E1
7.706127458E0,7.833891955E0,-9.734186756E0,9.081222922E0,1.544645153E1
7.716073458E0,4.936692494E0,-1.100885463E1,8.954869269E0,1.502516211E1
7.726020458E0,2.001908299E0,-1.058575361E1,6.581698444E0,1.262476022E1
7.735966458E0,2.466269608E0,-9.494640949E0,5.662539532E0,1.132674033E1
7.745912458E0,4.771061339E0,-6.138838516E0,4.660271221E0,9.064573486E0
7.755859458E0,4.630645133E0,-3.287680031E0,2.520978497E0,6.213456922E0
7.765805458E0,2.775345826E0,-1.839765594E0,2.342914993E-1,3.337989575E0
7.775751458E0,1.670712649E0,-3.846736997E-1,-1.425208529E0,2.229455979E0
7.785698458E0,7.549933621E-1,1.936159283E-1,-1.928973055E0,2.080490123E0
7.795644458E0,-9.149109095E-2,2.615050256E-1,-1.891644430E0,1.911824822E0
7.805590458E0,-4.267900246E-1,1.606475723E-1,-1.284645558E0,1.363184352E0
7.815536458E0,-7.889121830E-2,-1.845223385E-1,-6.090296102E-1,6.412405039E-1
7.825483458E0,5.986104566E-1,-5.085300064E-1,-1.167507702E-1,7.940831118E-1
7.835429458E0,9.656548011E-1,-1.399665552E-1,6.323833895E-1,1.162750439E0
7.845375458E0,6.109317094E-1,4.678515118E-1,1.131366647E0,1.368251834E0
7.855322458E0,-2.268883395E-1,1.243039110E0,8.477866280E-1,1.521632911E0
7.865268458E0,-1.502584149E0,2.088778628E0,1.264232343E0,2.866886587E0
7.875214458E0,-2.978064700E0,2.945580493E0,1.253337519E0,4.372204105E0
7.885161458E0,-4.092264506E0,3.734149445E0,9.329475233E-1,5.617908147E0
7.895107458E0,-4.735542428E0,4.225173472E0,3.261743537E-1,6.354828296E0
7.905053458E0,-5.370765810E0,4.530924963E0,-3.914753272E-1,7.037589029E0
7.915000458E0,-6.124666035E0,4.861681488E0,-8.867884335E-1,7.869807790E0
7.924946458E0,-6.788513292E0,4.966874067E0,-8.225665636E-1,8.451648742E0
7.934892458E0,-6.867785749E0,4.929714426E0,-1.079781341E0,8.522587234E0
7.944838458E0,-6.669832941E0,4.968829376E0,-1.751272517E0,8.499581887E0
7.954785458E0,-6.722829764E0,4.888173468E0,-2.106497300E0,8.574847565E0
7.964731458E0,-6.393908097E0,4.649556198E0,-2.501305540E0,8.291981849E0
7.974677458E0,-5.864622229E0,4.150146679E0,-2.834900302E0,7.723611271E0
7.984624458E0,-5.205465024E0,3.341413019E0,-2.767601189E0,6.776542143E0
7.994570458E0,-4.156360515E0,2.360224505E0,-2.374442595E0,5.337037575E0
8.004516458E0,-3.179153370E0,1.177853765E0,-1.585256762E0,3.742645407E0
8.014463458E0,-2.292333069E0,-1.046446949E-1,-4.603518730E-1,2.340441253E0
8.024409458E0,-1.375749271E0,-1.375963864E0,5.570560857E-1,2.023925417E0
8.034355458E0,-5.292420137E-1,-2.551837177E0,1.367929789E0,2.943331785E0
8.044301458E0,5.058923274E-1,-3.110372572E0,2.009408523E0,3.737387750E0
8.054248458E0,1.184929481E0,-2.902725080E0,2.568164358E0,4.052818641E0
8.064194458E0,1.346199782E0,-2.286433228E0,2.337129173E0,3.535845518E0
8.074140458E0,1.966777058E0,-1.453893800E0,2.004603281E0,3.162349363E0
8.084087458E0,2.507215320E0,-5.718307936E-1,1.644131792E0,3.052259568E0
8.094033458E0,3.264233281E0,2.619114071E-1,1.468799522E0,3.589037271E0
8.103979458E0,3.801912827E0,6.422470576E-1,1.143254621E0,4.021697845E0
8.113926458E0,3.271682049E0,1.998420435E-1,1.302385791E-1,3.280366193E0
8.123872458E0,2.684380692E0,-4.215091118E-1,-1.771468946E0,3.243712666E0
8.133818458E0,2.144931194E0,-6.270621309E-1,-3.006790316E0,3.746294803E0
8.143765458E0,1.068896749E0,-7.005437976E-1,-4.022400512E0,4.220545907E0
8.153711458E0,4.470681685E-1,-5.811992025E-1,-4.013958009E0,4.080382502E0
8.163657458E0,4.387756473E-1,-4.567768854E-1,-3.294697859E0,3.355026554E0
8.173603458E0,1.477228868E-1,-9.942862773E-1,-3.132904233E0,3.290215218E0
8.183550458E0,3.709613943E-1,-9.100384247E-1,-2.064304522E0,2.286292950E0
8.193496708E0,8.480140847E-1,-6.727636760E-1,-1.359951264E0,1.738161756E0
8.203442708E0,1.205666631E0,-6.774125049E-1,-9.497947403E-1,1.677685840E0
8.213389708E0,1.202775768E0,-5.252968973E-1,-7.058490495E-1,1.490244698E0
8.223335708E0,5.675289971E-1,-2.768682924E-1,-7.742801106E-1,9.991270708E-1
8.233281708E0,-1.956454968E-1,3.993531346E-2,-9.942792606E-1,1.014131766E0
8.243228708E0,-7.546708882E-1,2.058544430E-1,-1.374881544E0,1.581835472E0
8.253174708E0,-1.830826371E0,4.698885356E-1,-1.188823142E0,2.232939968E0
8.263120708E0,-3.363613143E0,7.603866877E-1,-6.087922132E-1,3.501815136E0
8.273066708E0,-3.549769778E0,1.036192102E0,-2.087561238E-1,3.703800571E0
8.283013708E0,-3.104211946E0,1.214089107E0,2.933828759E-1,3.346074965E0
8.292959708E0,-2.742630070E0,8.245157330E-1,2.679907572E-1,2.876397911E0
8.302905708E0,-2.104560848E0,1.295006605E-1,-1.520404708E-1,2.114015868E0
8.312852708E0,-1.419456623E0,-6.408527890E-1,-3.237913209E-1,1.590720032E0
8.322798708E0,-7.437950671E-1,-1.312990521E0,-1.515405339E-1,1.516621160E0
8.332744708E0,4.816842699E-1,-2.186562493E0,-4.679848284E-1,2.287375148E0
8.342691708E0,2.090029932E0,-3.518868413E0,-3.110134006E-1,4.104557146E0
8.352637708E0,3.820656077E0,-4.605451528E0,2.318584728E-1,5.988435103E0
8.362583708E0,6.744489021E0,-4.890376114E0,1.304910253E0,8.432478962E0
8.372530708E0,1.123892385E1,-2.587223942E0,4.344050582E0,1.232387571E1
8.382476708E0,1.138914116E1,-6.495303494E-1,5.395239916E0,1.261915369E1
8.392422708E0,4.301343981E0,3.680749163E-1,5.161089334E0,6.728586947E0
8.402368708E0,-1.126213496E0,1.690851922E0,4.575731592E0,5.006461491E0
8.412315708E0,-3.735376775E0,2.460781119E0,3.303141239E0,5.560505859E0
8.422261708E0,-5.296077570E0,2.945685451E0,1.417723801E0,6.223780297E0
8.432207708E0,-5.840001358E0,3.566890718E0,-2.606475314E-1,6.848084578E0
8.442154708E0,-5.872112512E0,4.322362382E0,-1.170956975E0,7.384826481E0
8.452100708E0,-5.516010062E0,4.852419206E0,-1.749676958E0,7.552066512E0
8.462046708E0,-4.470339038E0,5.140227638E0,-2.260542927E0,7.177459552E0
8.471993708E0,-2.475774257E0,5.131029968E0,-2.840964450E0,6.366160987E0
8.481939708E0,-5.172838730E-1,4.032518241E0,-3.598139116E0,5.429124337E0
8.491885708E0,1.779973136E0,2.584103283E0,-3.719765294E0,4.866471821E0
8.501831708E0,4.690404847E0,1.594969864E0,-3.004994051E0,5.794291651E0
8.511778708E0,7.251032143E0,9.743497570E-1,-2.044289503E0,7.596442863E0
8.521724708E0,7.889076807E0,-4.630410075E-3,-1.327720242E0,8.000024709E0
8.531670708E0,5.901870162E0,-9.278985988E-1,-8.618312015E-1,6.036209095E0
8.541617708E0,4.200868936E0,-5.468389168E-1,-1.663357437E-1,4.239575473E0
8.551563708E0,2.427794929E0,3.044240271E-1,1.201534112E-1,2.449754896E0
8.561509708E0,6.033811998E-1,9.590543179E-1,-1.566678111E-1,1.143852639E0
8.571456708E0,-7.178439546E-1,1.503554348E0,-5.910817279E-1,1.767866859E0
8.581402708E0,-1.509373936E0,1.742534438E0,-7.668386516E-1,2.429542645E0
8.591348708E0,-1.757250856E0,1.513945874E0,-5.654625911E-1,2.387406673E0
8.601295708E0,-1.604877679E0,8.272965226E-1,-9.984237671E-2,1.808319773E0
8.611241708E0,-1.342831786E0,1.249846731E-1,3.064920411E-1,1.383024130E0
8.621187708E0,-1.253092813E0,-4.476268700E-1,5.691048217E-1,1.447235886E0
8.631133708E0,-1.204011869E0,-8.359824152E-1,6.847678636E-1,1.617843691E0
8.641080708E0,-1.329248119E0,-1.068014843E0,6.405371855E-1,1.821495032E0
8.651026708E0,-1.635544571E0,-1.177809619E0,4.337780321E-1,2.061651019E0
8.660972708E0,-2.092549497E0,-1.157951451E0,2.866525845E-1,2.408689409E0
8.670919708E0,-2.400873764E0,-9.681427914E-1,2.590190819E-1,2.601650664E0
8.680865708E0,-2.584482182E0,-7.978066751E-1,1.868805206E-1,2.711266857E0
8.690811708E0,-2.873259791E0,-6.410906245E-1,3.825584695E-2,2.944160751E0
8.700758708E0,-3.237168859E0,-3.263956708E-1,-3.663953036E-1,3.274147503E0
8.710704708E0,-3.506307424E0,9.701130107E-2,-9.218464382E-1,3.626762165E0
8.720650708E0,-3.542156119E0,9.691523132E-1,-1.632160202E0,4.018715355E0
8.730597708E0,-4.704315373E0,1.628180880E0,-3.102350192E0,5.865674114E0
8.740543708E0,-6.230450352E0,1.919404086E0,-4.626119388E0,7.993972994E0
8.750489708E0,-6.819239241E0,2.507628719E0,-5.126230574E0,8.892045069E0
8.760435708E0,-6.543605003E0,3.449135396E0,-5.381955042E0,9.147717830E0
8.770382708E0,-4.427852000E0,4.552386584E0,-6.170987678E0,8.855009083E0
8.780328708E0,-6.930868435E-1,5.364926196E0,-7.869754098E0,9.549650885E0
8.790274708E0,1.666564050E0,5.328780463E0,-8.699932421E0,1.033741559E1
8.800221708E0,2.356457729E0,4.657908653E0,-7.129482563E0,8.836205502E0
8.810167708E0,2.364329250E0,3.659622003E0,-3.073126978E0,5.331697238E0
8.820113708E0,6.092541432E-1,1.719194838E0,2.109860764E0,2.788966465E0
8.830060708E0,-1.365862799E-1,-2.309194100E-1,5.581493030E0,5.587937368E0
8.840006708E0,3.097989339E0,-2.169410563E-1,4.763579242E0,5.686500555E0
8.849952708E0,6.387847458E0,3.543178797E-2,2.567842761E0,6.884741607E0
8.859898708E0,6.565561298E0,-7.721087471E-1,1.481526572E0,6.774781772E0
8.869845708E0,5.371418359E0,-1.748998388E0,1.874477005E-1,5.652102900E0
8.879791708E0,4.565016569E0,-1.989585000E0,-1.692267240E0,5.259428977E0
8.889737708E0,3.827800205E0,-1.558678243E0,-3.102901000E0,5.168126052E0
8.899684708E0,4.316361970E0,-1.494139308E0,-2.740243821E0,5.326571986E0
8.909630708E0,7.858206432E0,-2.692156320E0,-2.406751969E0,8.648211897E0
8.919576708E0,1.160488704E1,-4.490569527E0,-2.455449920E0,1.268336912E1
8.929523708E0,1.457826169E1,-6.359808304E0,-1.942726291E0,1.602332865E1
8.939469708E0,1.899517940E1,-6.462731579E0,-7.016635394E-1,2.007675451E1
8.949415708E0,2.277243510E1,-2.803313059E0,9.763189530E-1,2.296509445E1
8.959361708E0,2.307308490E1,2.000385100E0,2.593205059E0,2.330436654E1
8.969308708E0,2.530917243E1,4.008042089E0,-1.980076550E0,2.570095939E1
8.979254708E0,3.172547653E1,1.775858451E0,-1.351824336E1,3.453118066E1
8.989200708E0,3.584758113E1,-3.149671124E0,-1.523888596E1,3.907931866E1
8.999147708E0,3.430351391E1,-6.619603604E0,-9.260988550E0,3.614299555E1
9.009093708E0,2.867964553E1,-6.549745749E0,-6.034491445E0,3.003058980E1
9.019039708E0,1.952598379E1,-2.648212155E0,-1.637546365E0,1.977267379E1
9.028986708E0,1.296077566E1,-7.604048871E-1,-1.986553511E-1,1.298458260E1
9.038932708E0,8.224336857E0,-1.872789791E0,-1.916969891E0,8.649961381E0
9.048878708E0,3.408937250E0,-1.988472567E0,-2.034683697E0,4.440136718E0
9.058824708E0,-7.625044030E-1,-1.800314722E0,-3.052619623E0,3.625056224E0
9.068771708E0,-3.859071699E0,-1.521317459E0,-2.157965369E0,4.675858822E0
9.078717708E0,-5.867807207E0,-1.059010569E0,-1.674571227E0,6.193291015E0
9.088663708E0,-6.900638915E0,-4.405602175E-1,-3.275875380E0,7.651422759E0
9.098610708E0,-8.653106748E0,-8.909031191E-1,-4.929247234E0,9.998372021E0
9.108556708E0,-1.080051599E1,-1.835220553E0,-5.263781644E0,1.215428227E1
9.118502708E0,-1.317195721E1,-3.072433498E0,-4.881426658E0,1.437945168E1
9.128449708E0,-1.394626890E1,-3.903205605E0,-1.472887895E0,1.455688253E1
9.138395708E0,-1.440439941E1,-5.180123191E0,4.624871593E0,1.599092980E1
9.148341708E0,-1.574527472E1,-6.487907935E0,1.362553509E1,2.180967289E1
9.158288708E0,-1.813600123E1,-7.298874646E0,2.265099779E1,2.992082573E1
9.168234708E0,-1.951056819E1,-7.923020478E0,2.142391047E1,3.004031398E1
9.178180708E0,-2.074389800E1,-7.364772767E0,1.151713437E1,2.484338073E1
9.188126333E0,-2.013318439E1,-5.444541299E0,4.173355447E0,2.126981522E1
9.198073333E0,-1.933523007E1,-3.743425760E0,-5.850115871E-1,1.970295909E1
9.208019333E0,-1.852447503E1,-2.146988537E0,-5.150531017E0,1.934667167E1
9.217965333E0,-1.865264132E1,-7.855734229E-1,-7.691684162E0,2.019158634E1
9.227912333E0,-2.130942900E1,1.640662639E0,-1.340166742E1,2.522673637E1
9.237858333E0,-2.147427371E1,4.764316284E0,-2.402510048E1,3.257374087E1
9.247804333E0,-1.607528923E1,6.921502950E0,-3.009478632E1,3.481405306E1
9.257751333E0,-6.679375012E0,5.797944674E0,-2.887628739E1,3.020049977E1
9.267697333E0,2.460990157E0,2.547977430E0,-2.673141408E1,2.696511006E1
9.277643333E0,3.062486215E0,-4.077304405E-1,-1.523432631E1,1.554444479E1
9.287589333E0,6.918156588E-1,-1.222522985E0,2.562168038E-1,1.427871985E0
9.297536333E0,9.753756802E0,3.299893695E0,1.422354620E1,1.755945149E1
9.307482333E0,1.567065022E1,1.176367754E1,1.101175718E1,2.247692558E1
9.317428333E0,5.074333611E0,1.224972734E1,-1.041495819E0,1.329997726E1
9.327375333E0,-8.934609836E-1,1.135804801E1,-4.435452503E0,1.222606911E1
9.337321333E0,-2.665973073E0,1.119470370E1,-5.763003468E0,1.287015976E1
9.347267333E0,-3.381303309E0,1.046707267E1,-7.936948546E0,1.356421670E1
9.357214333E0,-4.166661555E0,9.541723899E0,-9.377028299E0,1.401193146E1
9.367160333E0,-5.832181292E0,8.610724375E0,-9.410082024E0,1.402528276E1
9.377106333E0,-7.844926236E0,7.997630950E0,-8.345473623E0,1.396967782E1
9.387053333E0,-9.336080248E0,7.317244259E0,-6.052228389E0,1.331667851E1
9.396999333E0,-1.005992403E1,6.531464429E0,-3.588747903E0,1.251963301E1
9.406945333E0,-1.002552603E1,5.565835941E0,-1.753075067E0,1.160012819E1
9.416891333E0,-9.765537772E0,4.250291649E0,-7.911367562E-1,1.067972867E1
9.426838333E0,-9.416194119E0,3.256668153E0,-5.425327349E-1,9.978223335E0
9.436784333E0,-8.910601754E0,2.515892881E0,-1.033001277E-1,9.259547047E0
9.446730333E0,-7.329914591E0,6.476300043E-1,2.418056391E0,7.745583854E0
9.456677333E0,-4.910817980E0,-4.633418468E0,8.380776772E0,1.076206854E1
9.466623333E0,8.389468074E-2,-1.582448929E1,1.754793388E1,2.362946219E1
9.476569333E0,1.526396467E1,-2.260305296E1,2.009123646E1,3.387542477E1
9.486516333E0,2.715543545E1,-1.603538549E1,1.082413407E1,3.334236255E1
9.496462333E0,2.316535864E1,-9.978625513E0,6.714962921E0,2.610167686E1
9.506408333E0,1.384324797E1,-9.271942139E0,2.821305526E0,1.689864463E1
9.516354333E0,7.091109041E0,-9.162361810E0,1.607605697E0,1.169688409E1
9.526301333E0,1.118664156E0,-6.762161061E0,2.932792925E0,7.455166399E0
9.536247333E0,-3.248041756E0,-4.824644639E0,2.421137582E0,6.299910978E0
9.546193333E0,-5.541688694E0,-2.809535373E0,4.887322113E-1,6.232388128E0
9.556140333E0,-6.107835410E0,-1.993826863E0,4.195535105E-1,6.438712922E0
9.566086333E0,-4.526242513E0,-9.203692853E-1,1.950525892E0,5.013831086E0
9.576032333E0,-1.911575249E0,-8.655697650E-1,2.645745215E0,3.376877062E0
9.585979333E0,6.657481867E-1,-3.581128103E0,1.095726406E0,3.803723899E0
9.595925333E0,4.298557783E0,-5.888616863E0,1.610423470E0,7.466382747E0
9.605871333E0,7.986707182E0,-6.999197243E0,3.403734983E0,1.115175616E1
9.615817333E0,9.278741282E0,-7.311967147E0,5.508279458E0,1.303460954E1
9.625764333E0,7.595005129E0,-7.162474893E0,7.507883370E0,1.285898372E1
9.635710333E0,4.073582652E0,-6.616874709E0,8.502518141E0,1.151824298E1
9.645656333E0,1.116140497E0,-5.564996865E0,7.797400067E0,9.644397727E0
9.655603333E0,3.661467969E-1,-3.659655333E0,6.461200193E0,7.434665330E0
9.665549333E0,1.116325269E0,-1.927670880E0,4.277847822E0,4.823077764E0
9.675495333E0,2.291586964E0,-8.543208915E-1,1.732728218E0,2.997262431E0
9.685442333E0,2.627526460E0,-1.976288724E-1,4.539462483E-1,2.673765073E0
9.695388333E0,2.424666084E0,2.663868660E-1,1.353829229E-1,2.443009643E0
9.705334333E0,1.433705703E0,3.366277134E-1,1.926090378E-1,1.485236850E0
9.715280333E0,2.945143121E-1,2.491995603E-1,3.694335169E-1,5.341537459E-1
9.725227333E0,-6.359133536E-1,8.406249583E-2,6.594524896E-1,9.199618919E-1
9.735173333E0,-9.564115226E-1,-3.363903165E-3,9.148191082E-1,1.323490959E0
9.745119333E0,-1.195288408E0,-2.010442311E-1,1.292539299E0,1.771945541E0
9.755066333E0,-1.095490471E0,-3.237679321E-1,1.425252676E0,1.826545985E0
9.765012333E0,-7.022219485E-1,-3.404266495E-1,1.487393375E0,1.679685989E0
9.774958333E0,-7.657835215E-1,-1.704463363E-3,1.126712263E0,1.362317082E0
9.784905333E0,-1.048733795E0,5.173721659E-1,1.082477492E-1,1.174407981E0
9.794851333E0,-1.309089258E0,1.326915665E0,-1.038985317E0,2.133989306E0
9.804797333E0,-1.661415576E0,1.964389055E0,-2.056624205E0,3.293756092E0
9.814744333E0,-1.980972344E0,2.563464658E0,-2.883557323E0,4.337107943E0
9.824690333E0,-2.313942039E0,2.994407083E0,-3.373328876E0,5.069531462E0
9.834636333E0,-2.602479912E0,3.254315819E0,-3.524133831E0,5.457379627E0
9.844582333E0,-2.880874035E0,3.351527241E0,-3.501000491E0,5.638188937E0
9.854529333E0,-2.945500971E0,3.473493142E0,-3.281897720E0,5.613553529E0
9.864475333E0,-3.216234657E0,3.500005588E0,-2.668813065E0,5.451308803E0
9.874421333E0,-3.642375641E0,3.462603288E0,-2.297135387E0,5.525699306E0
9.884368333E0,-4.079158557E0,3.384455251E0,-2.222698578E0,5.747561295E0
9.894314333E0,-4.493657150E0,3.249687747E0,-2.364665465E0,6.028687071E0
9.904260333E0,-4.950305981E0,3.056541643E0,-2.434261657E0,6.306631901E0
9.914207333E0,-5.511367958E0,2.820754133E0,-2.223385625E0,6.578394507E0
9.924153333E0,-5.845895351E0,2.459327209E0,-1.928071414E0,6.628743633E0
9.934099333E0,-6.027209322E0,1.988249788E0,-1.740335446E0,6.580969298E0
9.944045333E0,-6.169399574E0,1.401221496E0,-1.515159171E0,6.505430047E0
9.953992333E0,-6.196877394E0,7.278444475E-1,-1.067663571E0,6.330162121E0
9.963938333E0,-6.066372219E0,-2.513375947E-1,-3.971253455E-1,6.084550191E0
9.973884333E0,-5.943424569E0,-1.570450442E0,1.119461131E-1,6.148425989E0
9.983831333E0,-5.900037060E0,-2.902720402E0,-6.079057753E-2,6.575706695E0
9.993777333E0,-5.935477034E0,-3.918630560E0,2.864878392E-1,7.118119722E0
1.000372333E1,-5.760855786E0,-4.354652169E0,6.972541541E-1,7.255109803E0
1.001367033E1,-4.503609111E0,-3.334823792E0,1.685996686E0,5.852019273E0
1.002361633E1,-3.016103761E0,-1.041649894E0,2.125428976E0,3.833975056E0
1.003356233E1,-1.067406294E0,1.257414198E0,1.205750831E0,2.043105902E0
1.004350833E1,1.127689333E0,3.318241673E0,-9.394206834E-1,3.628349798E0
1.005345533E1,2.619854329E0,4.619574600E0,-2.528792716E0,5.882082861E0
1.006340133E1,2.791184764E0,4.818020328E0,-3.483414406E0,6.567968346E0
1.007334733E1,1.398156386E0,4.224864739E0,-3.388194545E0,5.593226763E0
1.008329433E1,-1.399928677E-1,3.675987775E0,-2.669394279E0,4.545123754E0
1.009324033E1,-2.245724913E0,2.751769853E0,-2.664459229E0,4.440141967E0
1.010318633E1,-3.661035275E0,2.495124156E0,-2.570350631E0,5.122062691E0
1.011313333E1,-4.806081483E0,2.787206318E0,-2.610442066E0,6.138513343E0
1.012307933E1,-5.740203420E0,3.326710780E0,-2.688570807E0,7.158585957E0
1.013302533E1,-5.827831548E0,3.962806567E0,-2.959354779E0,7.643640307E0
1.014297233E1,-5.254700333E0,4.476865700E0,-3.099590891E0,7.567143833E0
1.015291833E1,-4.569096757E0,4.432656949E0,-2.712373068E0,6.919686442E0
1.016286433E1,-4.493518571E0,3.755089493E0,-2.298732262E0,6.290991675E0
1.017281033E1,-5.176961601E0,2.606975836E0,-1.689216163E0,6.037441981E0
1.018275733E1,-5.676649448E0,9.640900862E-1,-6.199446076E-1,5.791213169E0
1.019270371E1,-5.943257924E0,-4.135384798E-1,-3.047931325E-1,5.965419321E0
1.020264971E1,-5.215753784E0,-1.321441501E0,-3.354687953E-1,5.390995686E0
1.021259671E1,-3.436920855E0,-1.687746173E0,-6.935499430E-1,3.891262473E0
1.022254271E1,-1.226601125E0,-2.153392115E0,-8.773980975E-1,2.628968494E0
1.023248871E1,1.109776095E0,-2.873990693E0,1.005783657E0,3.240837276E0
1.024243571E1,1.281203887E0,-2.702522264E0,8.620210898E-1,3.112585797E0
1.025238171E1,-5.001070923E-1,-1.684084647E0,1.166629450E0,2.108855727E0
1.026232771E1,-2.255476022E0,-6.847867209E-1,1.376770195E0,2.729762097E0
1.027227371E1,-2.379561540E0,-9.216539186E-1,1.353913429E0,2.888743782E0
1.028222071E1,2.173123544E-1,-2.969317850E0,3.806388286E0,4.832459512E0
1.029216671E1,2.576785200E0,-4.980526146E0,9.304361442E0,1.086354475E1
1.030211271E1,2.728426014E0,-7.986628245E0,1.567699327E1,1.780445611E1
1.031205971E1,1.440684355E0,-7.731390849E0,1.691960378E1,1.865805371E1
1.032200571E1,-9.235311672E-1,-4.054081896E0,9.745857214E0,1.059576437E1
1.033195171E1,8.682109523E-1,-5.373260817E-1,2.599496663E0,2.792828759E0
1.034189871E1,6.768414073E0,-1.082321371E0,1.788219464E0,7.083825059E0
1.035184471E1,9.249245587E0,6.119251513E-1,6.483041298E0,1.131162326E1
1.036179071E1,8.441924615E0,-1.868273986E0,1.197246290E1,1.476808745E1
1.037173671E1,8.060782049E0,-5.652280008E0,1.035385538E1,1.428729497E1
1.038168371E1,9.184215778E0,-7.406548784E0,6.345814748E0,1.339687087E1
1.039162971E1,9.992502126E0,-6.229894867E0,4.334229891E0,1.254779811E1
1.040157571E1,8.311893649E0,-3.247252382E0,3.358143073E0,9.534639424E0
1.041152271E1,5.844237081E0,-1.658635810E0,1.645061499E0,6.293838824E0
1.042146871E1,3.842674937E0,-1.069694309E0,3.245514590E-1,4.001965796E0
1.043141471E1,2.307838131E0,-8.126749751E-1,5.954219699E-3,2.446751500E0
1.044136171E1,7.460403979E-1,-3.834998712E-1,6.875284803E-1,1.084593858E0
1.045130771E1,2.368332839E-1,-2.190983865E-1,1.153080282E0,1.197367214E0
1.046125371E1,9.405030030E-1,-1.750463408E-1,1.857570950E0,2.089439388E0
1.047119971E1,1.384772109E0,-1.741444078E-1,2.732206239E0,3.068040254E0
1.048114671E1,1.241322368E0,1.867860880E-1,3.734317845E0,3.939657349E0
1.049109271E1,4.968215418E-1,7.369327748E-1,4.633739480E0,4.718203379E0
1.050103871E1,-7.859581697E-1,1.282964483E0,4.872253253E0,5.099272485E0
1.051098571E1,-2.122749197E0,1.698088143E0,3.902099605E0,4.755622864E0
1.052093171E1,-2.828055552E0,1.573080228E0,2.315290407E0,3.979076435E0
1.053087771E1,-3.427733125E0,1.375105492E0,1.032651613E0,3.834923578E0
1.054082471E1,-4.301579039E0,2.274256694E0,1.055744022E-1,4.866926309E0
1.055077071E1,-4.505366199E0,3.309587209E0,-4.919642597E-1,5.611926667E0
1.056071671E1,-4.154791122E0,3.918298438E0,-1.225302751E0,5.840951870E0
1.057066371E1,-3.769934989E0,4.393218942E0,-2.006429951E0,6.126870624E0
1.058060971E1,-3.783551400E0,4.477083509E0,-3.181775261E0,6.669575081E0
1.059055571E1,-4.133102630E0,4.435935776E0,-4.151995568E0,7.348410083E0
1.060050171E1,-4.972434769E0,4.312526196E0,-4.439558710E0,7.939311763E0
1.061044871E1,-5.953204038E0,3.977702349E0,-4.657969172E0,8.541629300E0
1.062039471E1,-6.563789592E0,3.428583310E0,-4.942087719E0,8.902962897E0
1.063034071E1,-6.985370917E0,3.011304951E0,-4.811952965E0,9.001014148E0
1.064028771E1,-7.333782524E0,2.635250047E0,-4.159409253E0,8.833436152E0
1.065023371E1,-7.345568756E0,2.362078072E0,-3.332880762E0,8.405051300E0
1.066017971E1,-7.354043126E0,2.239192988E0,-2.372704948E0,8.045226181E0
1.067012671E1,-7.468601775E0,2.093706661E0,-1.540284949E0,7.907976845E0
1.068007271E1,-7.331917262E0,1.834826743E0,-9.171924931E-1,7.613464519E0
1.069001871E1,-6.899546655E0,1.205502909E0,-3.785988812E-1,7.014293865E0
1.069996471E1,-6.129065480E0,1.141206926E-1,3.972072065E-2,6.130256514E0
1.070991171E1,-5.010779055E0,-1.395254705E0,9.482691287E-1,5.287140699E0
1.071985771E1,-3.536537529E0,-3.498737911E0,1.320423940E0,5.147017005E0
1.072980371E1,-1.994291716E0,-5.861309196E0,9.466057420E-2,6.192019507E0
1.073975071E1,4.354865885E-1,-7.859057202E0,-2.182331740E0,8.168047532E0
1.074969671E1,3.525741230E0,-7.357037485E0,-2.342185845E0,8.487796317E0
1.075964271E1,7.391122659E0,-2.089214246E0,-6.352175349E-1,7.706945676E0
1.076958971E1,1.003498449E1,2.312758563E0,5.686721277E-1,1.031373617E1
1.077953571E1,1.086030260E1,3.174656276E0,-1.002989273E0,1.135916382E1
1.078948171E1,1.024472996E1,1.901666850E0,-2.653723741E0,1.075235223E1
1.079942771E1,7.950981279E0,-1.002379408E-1,-2.801103396E0,8.430559363E0
1.080937471E1,5.261727517E0,-1.678550549E0,-2.317450368E0,5.989481165E0
1.081932071E1,3.325803877E0,-2.644062971E0,-1.825232924E0,4.624231358E0
1.082926671E1,1.490106776E0,-3.003037281E0,-1.657879765E0,3.739948720E0
1.083921371E1,7.457375121E-1,-2.410369642E0,-1.013289728E0,2.718963464E0
1.084915971E1,-4.351661611E-1,-1.530628273E0,-9.166083562E-1,1.836399569E0
1.085910571E1,-1.291799626E0,-7.377110392E-1,-1.371986003E0,2.023687091E0
1.086905271E1,-1.708747618E0,-1.596322033E-1,-2.286347859E0,2.858791247E0
1.087899871E1,-2.166745402E0,5.287052393E-2,-2.925367838E0,3.640790837E0
1.088894471E1,-2.490287046E0,1.950838718E-1,-3.040358012E0,3.934890612E0
1.089889071E1,-2.123122249E0,4.333494312E-1,-2.076860833E0,3.001464765E0
1.090883771E1,-1.713001467E0,8.049189359E-1,-6.235237614E-1,1.992749457E0
1.091878371E1,-1.422749190E0,1.219230710E0,1.171922350E-1,1.877357931E0
1.092872971E1,-1.273493748E0,1.289745499E0,-3.983602043E-2,1.812957994E0
1.093867671E1,-1.166555775E0,9.234969610E-1,-4.175356364E-1,1.545326833E0
1.094862271E1,-8.495121413E-1,1.884537140E-1,-4.981932986E-1,1.002687510E0
1.095856871E1,-1.944889176E-1,-7.521855292E-1,-6.676619804E-1,1.024393249E0
1.096851571E1,5.600451458E-1,-1.700229101E0,-4.758440709E-1,1.852257310E0
1.097846171E1,1.422646864E0,-2.599773236E0,-3.683704931E-1,2.986376031E0
1.098840771E1,1.919347953E0,-3.705671166E0,-8.582578218E-1,4.260575295E0
1.099835371E1,2.491993849E0,-5.198476431E0,-8.392210418E-1,5.825674425E0
1.100830071E1,3.241456622E0,-6.045260262E0,-2.851687805E-1,6.865386653E0
1.101824671E1,3.638435787E0,-6.400600235E0,1.749340743E-3,7.362465715E0
1.102819271E1,3.225886656E0,-5.716152653E0,8.729846191E-1,6.621393208E0
1.103813971E1,2.336577196E0,-3.647825538E0,2.296125573E0,4.902898815E0
1.104808571E1,3.638759723E0,1.423929451E0,2.781741511E0,4.796481339E0
1.105803171E1,2.970499572E0,4.633516993E0,1.495200724E0,5.703417628E0
1.106797871E1,-6.091863155E-2,4.513154690E0,5.059084073E-2,4.513849330E0
1.107792471E1,-2.340416477E0,4.072305328E0,-4.288534340E-1,4.716474874E0
1.108787071E1,-3.853520937E0,3.588571317E0,-4.334599435E-2,5.265866176E0
1.109781671E1,-4.637918485E0,3.150821563E0,1.880709954E-1,5.610110079E0
1.110776371E1,-4.950930464E0,2.955963686E0,4.375459778E-1,5.782809028E0
1.111770971E1,-4.904659107E0,2.946045932E0,9.032661796E-1,5.792301562E0
1.112765571E1,-3.936585313E0,3.094640346E0,1.364689847E0,5.189978919E0
1.113760271E1,-2.290307593E0,3.413493986E0,1.630176827E0,4.422095267E0
1.114754871E1,-2.251739359E-1,3.681518657E0,1.489640168E0,3.977852530E0
1.115749471E1,2.155353271E0,3.925306034E0,1.024372541E0,4.593790841E0
1.116744171E1,4.083761485E0,3.766048637E0,3.323335183E-1,5.565130347E0
1.117738771E1,5.114506906E0,3.296816013E0,-4.777958715E-1,6.103725552E0
1.118733396E1,5.018088074E0,2.254247522E0,-1.242610509E0,5.639762468E0
1.119728096E1,3.536918183E0,5.279453936E-1,-1.695387315E0,3.957632464E0
1.120722696E1,1.555324865E0,-8.910528079E-1,-1.785633241E0,2.530117905E0
1.121717296E1,3.479099160E-1,-1.118822323E0,-1.066208199E0,1.584173167E0
1.122711896E1,-1.566129935E-1,-7.569439933E-1,-6.346146870E-1,1.000113813E0
1.123706596E1,-4.333862686E-1,-5.241777402E-1,-5.701421177E-1,8.874953496E-1
1.124701196E1,-5.674447972E-1,-6.364296627E-1,-6.481860745E-1,1.071065591E0
1.125695796E1,-6.257830524E-1,-8.326335686E-1,-5.503586483E-1,1.178039783E0
1.126690496E1,-2.583177084E-1,-8.752053916E-1,-2.636111927E-1,9.498438698E-1
1.127685096E1,2.339529455E-1,-9.148761186E-1,-1.088085155E-1,9.505638254E-1
1.128679696E1,3.495243323E-1,-9.970601964E-1,2.225333333E-2,1.056783566E0
1.129674396E1,4.299516141E-1,-9.273795122E-1,1.754773172E-1,1.037151599E0
1.130668996E1,3.738733077E-1,-7.216882065E-1,3.927925587E-1,9.027187335E-1
1.131663596E1,-8.927294970E-2,-5.172005136E-1,6.321495008E-1,8.216319262E-1
1.132658196E1,-7.717880273E-1,-3.057927506E-1,8.088418329E-1,1.159047487E0
1.133652896E1,-1.799427992E0,-1.151182641E-1,9.410720102E-1,2.033914905E0
1.134647496E1,-2.717449620E0,7.664914001E-2,8.979276717E-1,2.862984742E0
1.135642096E1,-3.780345372E0,1.966605735E-1,1.005840960E0,3.916810252E0
1.136636796E1,-5.212246624E0,1.529722247E-1,1.031514330E0,5.315537337E0
1.137631396E1,-6.718687012E0,2.004834831E-2,6.686355418E-1,6.751905701E0
1.138625996E1,-7.579161513E0,2.687855400E-2,-1.062848481E-1,7.579954365E0
1.139620696E1,-7.902078091E0,2.752205470E-1,-9.897780740E-1,7.968578615E0
1.140615296E1,-7.779525129E0,8.223377913E-1,-1.866765697E0,8.042516076E0
1.141609896E1,-7.363275880E0,1.697942255E0,-2.661714545E0,8.011589349E0
1.142604496E1,-6.689118812E0,2.455429163E0,-3.182829514E0,7.804091656E0
1.143599196E1,-5.538358120E0,3.538703923E0,-3.562967529E0,7.475999848E0
1.144593796E1,-4.310394301E0,4.774872555E0,-4.130030503E0,7.644348167E0
1.145588396E1,-3.093895703E0,5.955492638E0,-4.647154747E0,8.163095639E0
1.146583096E1,-2.332059637E0,6.193108864E0,-5.985026339E0,8.922647580E0
1.147577696E1,-1.417463307E0,5.258840162E0,-6.504173720E0,8.483447286E0
1.148572296E1,-1.060200185E0,2.537341053E0,-5.088679755E0,5.784184099E0
1.149566896E1,-1.037717056E0,-2.047263397E0,-3.307882161E0,4.026192804E0
1.150561596E1,1.183174732E0,-4.245000503E0,-1.019590688E0,4.523217537E0
1.151556196E1,5.597828981E0,-3.842273818E0,1.770541577E0,7.016664084E0
1.152550796E1,9.995454969E0,-2.158899315E0,4.295343568E0,1.109143555E1
1.153545496E1,1.211394798E1,-1.892592556E0,5.180884498E0,1.331056747E1
1.154540096E1,1.343623966E1,-3.166092444E0,4.234518492E0,1.443910747E1
1.155534696E1,1.405381089E1,-3.656823526E0,-1.059112018E0,1.456034605E1
1.156529396E1,1.214710988E1,-2.753605878E0,-7.314894848E0,1.444445604E1
1.157523996E1,1.055439733E1,-2.751350315E0,-9.178055152E0,1.425489137E1
1.158518596E1,1.000593084E1,-2.564193513E0,-6.632648742E0,1.227541322E1
1.159513296E1,1.129449813E1,-2.034747432E0,-3.347672464E0,1.195461400E1
1.160507896E1,1.515945271E1,-2.102473977E0,-2.953089488E0,1.558685795E1
1.161502496E1,2.063168525E1,-1.405405472E0,-5.977695100E0,2.152613387E1
1.162497096E1,2.632429351E1,-8.851471201E-2,-9.528240219E0,2.799577870E1
1.163491796E1,2.978267832E1,-8.644285347E-1,-1.369353469E1,3.279128020E1
1.164486396E1,3.353549617E1,-3.279964338E0,-1.694264064E1,3.771525874E1
1.165480996E1,3.264171184E1,-3.104232703E0,-1.624765112E1,3.659376694E1
1.166475696E1,2.432890778E1,1.225949453E0,-1.663296743E1,2.949668305E1
1.167470296E1,1.657566120E1,2.273589819E0,-2.210831770E1,2.772542996E1
1.168464896E1,1.133036378E1,-2.456919618E-1,-1.608536749E1,1.967680247E1
1.169459596E1,5.946453427E0,-1.324614493E0,-5.906927419E0,8.485676369E0
1.170454196E1,2.617458724E0,-2.036639445E0,7.304371029E-2,3.317276863E0
1.171448796E1,-1.348794776E-1,-2.610458730E0,2.271023476E0,3.462691855E0
1.172443396E1,-3.478027951E0,-2.415328958E0,3.736938567E0,5.647583753E0
1.173438096E1,-5.732548245E0,-2.214593752E0,3.801083107E0,7.225978664E0
1.174432696E1,-6.970423679E0,-2.468088677E0,4.280378205E0,8.543998219E0
1.175427296E1,-7.777555786E0,-3.127090346E0,4.763942939E0,9.641795495E0
1.176421996E1,-7.978288946E0,-3.788404005E0,4.308879873E0,9.827082230E0
1.177416596E1,-8.277955239E0,-4.228574213E0,3.600720077E0,9.968478715E0
1.178411196E1,-8.726091694E0,-5.358745689E0,5.041417880E0,1.141388303E1
1.179405796E1,-9.354830514E0,-7.390206401E0,9.010360515E0,1.494371444E1
1.180400496E1,-9.693298931E0,-9.588882862E0,1.266376400E1,1.860853668E1
1.181395096E1,-1.025210564E1,-1.037157244E1,1.178843816E1,1.875213212E1
1.182389696E1,-1.049873067E1,-1.015922379E1,7.882632006E0,1.660027292E1
1.183384396E1,-9.120626723E0,-9.917380607E0,3.242631912E-2,1.347372708E1
1.184378996E1,-8.412138898E0,-9.217163669E0,-4.135942622E0,1.314633821E1
1.185373596E1,-8.963859948E0,-7.385509332E0,-6.655641164E0,1.338633977E1
1.186368296E1,-9.017440909E0,-6.840713725E0,-7.132901430E0,1.337863549E1
1.187362896E1,-1.095458311E1,-8.684908585E0,-7.516387560E0,1.587219614E1
1.188357496E1,-1.513617728E1,-1.082676765E1,-9.186647050E0,2.075372845E1
1.189352096E1,-2.584828337E1,-1.453512444E1,-1.939995173E1,3.543672845E1
1.190346796E1,-3.629056619E1,-2.030429731E1,-2.686455518E1,4.950731268E1
1.191341396E1,-2.209365289E1,-1.650177111E1,-1.780411677E1,3.282414541E1
1.192335996E1,-8.776818629E0,-9.583554879E0,-1.960376813E1,2.351988083E1
1.193330696E1,-2.077216344E0,-2.591378388E0,-1.557376887E1,1.592395511E1
1.194325296E1,2.714102089E0,4.295693232E0,-1.342119829E1,1.435088478E1
1.195319896E1,6.791612316E0,9.945113951E0,-7.925278673E0,1.441670321E1
1.196314596E1,1.991332440E0,7.521705018E0,1.296076865E0,7.888045798E0
1.197309196E1,-3.224023733E0,5.288457479E0,4.565957386E0,7.694808535E0
1.198303796E1,-7.478891121E0,3.879106306E0,4.057992806E0,9.351394748E0
1.199298396E1,-9.429527525E0,2.111352389E0,1.554219157E0,9.787205701E0
1.200293096E1,-9.763452655E0,2.206262639E-1,-2.037993221E0,9.976326983E0
1.201287696E1,-1.003493303E1,-1.348067383E0,-5.246698419E0,1.140372794E1
1.202282296E1,-9.972205271E0,-2.031076550E0,-7.323456341E0,1.253806854E1
1.203276996E1,-9.945902156E0,-2.269549393E0,-8.760234171E0,1.344669204E1
1.204271596E1,-9.716022965E0,-3.086372383E0,-9.086578971E0,1.365623353E1
1.205266196E1,-8.701777217E0,-4.106026805E0,-7.756496454E0,1.235894899E1
1.206260896E1,-7.412888335E0,-4.731468673E0,-5.788439441E0,1.052823539E1
1.207255496E1,-6.034795500E0,-4.188778940E0,-4.910258401E0,8.836020784E0
1.208250096E1,-5.168583711E0,-2.370452747E0,-5.144680878E0,7.668183953E0
1.209244696E1,-3.918812116E0,1.334273216E0,-5.657923740E0,7.010668618E0
1.210239396E1,-1.877149183E-1,1.221510130E1,-7.230373930E0,1.419585305E1
1.211233996E1,6.518795852E0,1.701846617E1,-5.853640573E0,1.914126427E1
1.212228596E1,1.429303451E1,8.357584376E0,5.498471339E0,1.744629586E1
1.213223296E1,1.057542041E1,-5.086519209E0,1.185413981E1,1.668031250E1
1.214217896E1,8.587538996E0,-1.432213844E1,1.524008464E1,2.260817674E1
1.215212496E1,6.766817783E0,-1.835132143E1,1.444965920E1,2.431776043E1
1.216207196E1,6.444595855E0,-1.655938606E1,1.382228688E1,2.251225660E1
1.217201796E1,6.719957027E0,-1.117248896E1,1.363744937E1,1.886696471E1
1.218196396E1,6.802677587E0,-1.003882143E0,1.201756481E1,1.384579596E1
1.219191008E1,8.179712076E0,9.633356200E0,8.991642408E0,1.550996049E1
1.220185708E1,5.473309600E0,9.801026278E0,4.646915596E0,1.214952915E1
1.221180308E1,2.463632514E0,1.648772142E0,1.110563423E0,3.165641460E0
1.222174908E1,1.634464590E0,-4.189793432E0,-7.081036627E-1,4.552719440E0
1.223169608E1,1.024743254E0,-6.289068689E0,-2.082516260E0,6.703682398E0
1.224164208E1,1.379668660E0,-6.232791578E0,-3.080641819E0,7.088126020E0
1.225158808E1,2.986882886E0,-3.638434618E0,-2.586635127E0,5.371252844E0
1.226153508E1,4.215097550E0,-4.515566374E-1,-7.384729314E-1,4.303056242E0
1.227148108E1,4.985306829E0,-1.448198904E-1,2.537543659E0,5.595836381E0
1.228142708E1,5.805991028E0,-1.542910057E0,5.104847306E0,7.883499811E0
1.229137308E1,6.322443427E0,-2.992191573E0,7.332714822E0,1.013386441E1
1.230132008E1,6.621365370E0,-3.683911922E0,9.542788677E0,1.218517551E1
1.231126608E1,6.383518764E0,-2.672210005E0,1.133177296E1,1.327776700E1
1.232121208E1,5.661333836E0,-3.779489632E-1,1.139108477E1,1.272597181E1
1.233115908E1,5.414838613E0,1.396032970E0,8.544094183E0,1.021131386E1
1.234110508E1,5.057245123E0,1.738185279E0,5.465410597E0,7.646419377E0
1.235105108E1,4.281255872E0,1.040597249E0,3.605863872E0,5.693351275E0
1.236099808E1,3.165277927E0,-2.321914718E-2,2.306190970E0,3.916381017E0
1.237094408E1,1.891881827E0,-1.015783858E0,1.355032586E0,2.539123274E0
1.238089008E1,6.983288723E-1,-1.749680028E0,9.391002560E-1,2.104982827E0
1.239083608E1,-2.600116467E-1,-2.116550564E0,5.705169243E-1,2.207460511E0
1.240078308E1,-1.042743323E0,-2.186682945E0,1.517820239E-2,2.422627978E0
1.241072908E1,-1.667558076E0,-2.008899523E0,-7.171267936E-1,2.707526190E0
1.242067508E1,-2.363612967E0,-1.850715675E0,-1.615288646E0,3.408954704E0
1.243062208E1,-3.024996207E0,-1.833347105E0,-2.513277714E0,4.339162192E0
1.244056808E1,-3.536559749E0,-1.874128219E0,-3.115097707E0,5.071828581E0
1.245051408E1,-3.728811522E0,-1.912658738E0,-3.226066750E0,5.288648740E0
1.246046108E1,-3.772863275E0,-1.973921479E0,-2.906866078E0,5.155650657E0
1.247040708E1,-3.848303466E0,-2.084265162E0,-2.600363805E0,5.090726152E0
1.248035308E1,-3.837921735E0,-2.169701169E0,-2.353914190E0,4.997815365E0
1.249029908E1,-3.914203926E0,-2.228044979E0,-2.305666475E0,5.059770222E0
1.250024608E1,-4.243058935E0,-2.245563237E0,-2.375070001E0,5.356030330E0
1.251019208E1,-4.540536032E0,-2.178466438E0,-2.504298729E0,5.624384020E0
1.252013808E1,-4.849635054E0,-2.051206174E0,-2.624033918E0,5.883193090E0
1.253008508E1,-4.737529896E0,-1.706911007E0,-2.808730504E0,5.765995296E0
1.254003108E1,-4.550183353E0,-1.193199198E0,-2.883919265E0,5.517688212E0
1.254997708E1,-4.794016923E0,-2.156920910E-1,-2.711691867E0,5.512022689E0
1.255992408E1,-5.184306874E0,1.026081097E-1,-3.111045586E0,6.046996844E0
1.256987008E1,-5.269462799E0,-3.900092840E-2,-3.133466735E0,6.130854185E0
1.257981608E1,-5.211623311E0,-4.549163014E-1,-2.311184492E0,5.719225484E0
1.258976208E1,-4.995710195E0,-7.019067836E-1,-1.536143074E0,5.273474095E0
1.259970908E1,-4.388085671E0,-1.049111525E0,-1.012563504E0,4.623982666E0
1.260965508E1,-3.498445258E0,-1.504154711E0,-9.054238021E-2,3.809172947E0
1.261960108E1,-2.632935135E0,-1.935330732E0,9.050794011E-1,3.390725762E0
1.262954808E1,-1.891514622E0,-2.221701043E0,1.785683527E0,3.420884205E0
1.263949408E1,-1.281689790E0,-2.147490520E0,2.362901945E0,3.440603124E0
1.264944008E1,-7.568413746E-1,-2.017710984E0,2.292764593E0,3.146543495E0
1.265938708E1,1.597050011E-1,-2.056962758E0,1.513167610E0,2.558569462E0
1.266933308E1,1.225174112E0,-2.129993312E0,1.815788502E-1,2.463918423E0
1.267927908E1,1.449803088E0,-2.249069520E0,-5.088282144E-1,2.723811457E0
1.268922508E1,1.688487015E0,-1.959500783E0,-1.027779129E0,2.783336425E0
1.269917208E1,1.176142285E0,-1.442711000E0,-8.172267401E-1,2.032876103E0
1.270911808E1,2.099489558E-1,-8.679963595E-1,-6.704832619E-1,1.116711265E0
1.271906408E1,-6.895913780E-1,-6.442751643E-1,-1.400865986E0,1.689098063E0
1.272901108E1,-1.333769186E0,-1.178009301E0,-2.568770129E0,3.124936181E0
1.273895708E1,-1.848543434E0,-1.774755958E0,-2.837733863E0,3.823559208E0
1.274890308E1,-2.249647225E0,-2.206802922E0,-2.709607919E0,4.156063865E0
1.275885008E1,-2.623614088E0,-2.517776561E0,-2.709578099E0,4.534794722E0
1.276879608E1,-3.012434633E0,-2.758950233E0,-2.594493200E0,4.839211070E0
1.277874208E1,-3.145529541E0,-2.762215903E0,-2.359480155E0,4.805344877E0
1.278868808E1,-3.240359684E0,-2.602317359E0,-2.470025275E0,4.834564239E0
1.279863508E1,-3.367336065E0,-1.990121482E0,-2.666988149E0,4.734169566E0
1.280858108E1,-3.509274886E0,-1.519811216E0,-2.785383741E0,4.731088558E0
1.281852708E1,-3.258511781E0,-1.270813969E0,-2.639268839E0,4.381621523E0
1.282847408E1,-2.880143133E0,-1.225646567E0,-1.950845734E0,3.688256100E0
1.283842008E1,-2.576687844E0,-1.526662399E0,-1.017482767E0,3.163113894E0
1.284836608E1,-2.325430648E0,-2.307558926E0,1.056767285E-1,3.277746706E0
1.285831308E1,-2.408400300E0,-3.614371863E0,1.468947456E0,4.584962661E0
1.286825908E1,-2.469145269E0,-4.650913337E0,2.808944512E0,5.968068573E0
1.287820508E1,-2.260430076E0,-4.823144536E0,4.075731504E0,6.707000420E0
1.288815108E1,-1.489166543E0,-4.132942708E0,5.308906361E0,6.890814116E0
1.289809808E1,-7.159436095E-1,-3.555995893E0,5.937398429E0,6.957756977E0
1.290804408E1,-7.357434511E-2,-2.712817456E0,6.159024859E0,6.730407042E0
1.291799008E1,4.698255318E-1,-1.929608355E0,5.717299876E0,6.052407976E0
1.292793708E1,1.495355237E-1,-2.180995066E0,4.528993628E0,5.029004239E0
1.293788308E1,-9.891763955E-1,-2.507562060E0,2.777863052E0,3.870770022E0
1.294782908E1,-2.170545507E0,-2.825650299E0,1.099365420E0,3.728829808E0
1.295777608E1,-3.064193017E0,-3.619845442E0,-8.146258986E-1,4.812086369E0
1.296772208E1,-3.637348205E0,-4.233562180E0,-3.026624072E0,6.349315236E0
1.297766808E1,-3.716593180E0,-3.845164389E0,-4.914578909E0,7.263018649E0
1.298761408E1,-2.637128173E0,-2.093016105E0,-5.715183769E0,6.633135528E0
1.299756108E1,-5.348103172E-1,4.315923429E-1,-4.859488782E0,4.907843238E0
1.300750708E1,1.704987273E0,2.014958700E0,-3.505442621E0,4.388071118E0
1.301745308E1,4.014419355E0,3.166414626E0,-1.983553305E0,5.484179797E0
1.302740008E1,6.797218042E0,3.616015808E0,-5.154215348E-1,7.716437183E0
1.303734608E1,9.044326991E0,3.181413319E0,1.589238131E-1,9.588873667E0
1.304729208E1,9.719846460E0,2.808772019E0,1.434831877E0,1.021877478E1
1.305723908E1,8.702109924E0,2.922955277E0,2.796585837E0,9.596420011E0
1.306718508E1,7.054939334E0,5.368746182E0,5.280126366E0,1.031868882E1
1.307713108E1,4.694941117E0,1.002196625E1,8.214938042E0,1.378286931E1
1.308707708E1,1.572925569E0,1.352226624E1,1.093328404E1,1.746031154E1
1.309702408E1,2.684489450E0,1.288711829E1,1.159517599E1,1.754230337E1
1.310697008E1,8.075293084E0,6.804805389E0,9.165968957E0,1.398323002E1
1.311691608E1,1.113412303E1,7.196349567E-1,6.575707387E0,1.295092652E1
1.312686308E1,1.275150265E1,5.086218077E-1,4.844068505E0,1.365007383E1
1.313680908E1,1.102874919E1,3.352293518E0,3.319505841E0,1.199542828E1
1.314675508E1,6.190166545E0,4.713488485E0,2.320939987E0,8.119230134E0
1.315670108E1,2.027034370E0,3.388372593E0,7.472420007E-1,4.018495710E0
1.316664808E1,-5.971632707E-1,1.214985339E0,-5.504779315E-1,1.461444251E0
1.317659408E1,-2.590007216E0,-2.520594335E-1,-1.015009979E0,2.793191113E0
1.318654008E1,-3.648105327E0,-2.372092599E-1,-1.475765018E0,3.942438725E0
1.319648783E1,-3.536873159E0,7.940986633E-1,-1.865632507E0,4.076843029E0
1.320643383E1,-2.471719798E0,2.096319782E0,-1.505849819E0,3.573729014E0
1.321637983E1,-9.619108289E-1,3.125661287E0,-1.168644986E-1,3.272413212E0
1.322632683E1,-7.605765760E-2,3.059069102E0,1.432671623E0,3.378792168E0
1.323627283E1,1.431117725E-1,1.784745049E0,1.756510599E0,2.508211584E0
1.324621883E1,-4.567727923E-1,-2.582165515E-1,2.070231260E0,2.135690671E0
1.325616583E1,-1.319661609E0,-2.482335418E0,1.050365753E0,3.001127139E0
1.326611183E1,-2.384817894E0,-3.792969511E0,4.518546993E-1,4.503126332E0
1.327605783E1,-3.543316206E0,-4.626614063E0,-4.656924275E-1,5.846154023E0
1.328600383E1,-4.609639596E0,-5.101678115E0,-1.595468632E0,7.058428787E0
1.329595083E1,-5.539924005E0,-5.238706445E0,-2.096138518E0,7.907502759E0
1.330589683E1,-6.230101274E0,-5.427935207E0,-2.296199833E0,8.576081632E0
1.331584283E1,-6.462791805E0,-5.749438512E0,-2.517909586E0,9.009083738E0
1.332578983E1,-6.324095850E0,-5.941503759E0,-2.527801905E0,9.037999652E0
1.333573583E1,-5.967958902E0,-6.014208623E0,-2.635060598E0,8.873036863E0
1.334568183E1,-5.478020117E0,-5.938223471E0,-2.873529932E0,8.574868901E0
1.335562883E1,-4.492373101E0,-5.857141301E0,-3.672499326E0,8.244681413E0
1.336557483E1,-3.431591118E0,-5.849624121E0,-3.916695424E0,7.831629652E0
1.337552083E1,-2.346878820E0,-5.805551902E0,-3.829966013E0,7.340361895E0
1.338546683E1,-1.467143590E0,-5.591863067E0,-3.426253195E0,6.720167694E0
1.339541383E1,-6.239844489E-1,-5.315624812E0,-2.934077851E0,6.103608488E0
1.340535983E1,4.988084257E-2,-4.707992687E0,-2.082632474E0,5.148304697E0
1.341530583E1,3.052264112E-1,-3.737757177E0,-1.184079881E0,3.932688271E0
1.342525283E1,9.821971589E-1,-2.877417746E0,-6.786793041E-1,3.115260782E0
1.343519883E1,1.816098989E0,-2.044228692E0,-2.614126031E-1,2.746893342E0
1.344514483E1,2.315092186E0,-1.098917524E0,3.644603869E-1,2.588455703E0
1.345509183E1,2.316539372E0,1.954858679E-1,9.508193187E-1,2.511697984E0
1.346503783E1,2.630423171E0,1.775692974E0,-2.331344449E-1,3.182226150E0
1.347498383E1,3.673239584E0,3.744746938E0,-4.302773771E-1,5.263169890E0
1.348492983E1,3.779667095E0,5.156651883E0,-4.764896035E-1,6.411238907E0
1.349487683E1,2.757552164E0,5.001909998E0,-5.337273397E-1,5.736554928E0
1.350482283E1,1.486604878E0,4.551878461E0,-5.292852831E-1,4.817648233E0
1.351476883E1,6.229196709E-1,4.215153099E0,-1.247517493E0,4.439802299E0
1.352471583E1,4.530077702E-1,3.759322878E0,-2.096411583E0,4.328125006E0
1.353466183E1,6.453542680E-1,3.314936827E0,-2.712170754E0,4.331415299E0
1.354460783E1,6.785799015E-1,2.837894077E0,-2.731864176E0,3.997148402E0
1.355455483E1,1.993777746E-1,2.138886927E0,-2.318308740E0,3.160560741E0
1.356450083E1,-4.849037468E-1,1.186969575E0,-1.969738088E0,2.350297120E0
1.357444683E1,-1.358818073E0,3.288298666E-1,-1.769307815E0,2.254986869E0
1.358439283E1,-1.799981139E0,-2.021592951E-1,-1.802429368E0,2.555298829E0
1.359433983E1,-1.674952465E0,-8.493460804E-1,-2.078453469E0,2.801218190E0
1.360428583E1,-1.717036631E0,-1.279949074E0,-2.319640004E0,3.157089510E0
1.361423183E1,-1.842866372E0,-1.617449777E0,-2.761057570E0,3.692660173E0
1.362417883E1,-1.423548797E0,-2.240726713E0,-2.862727786E0,3.904171840E0
1.363412483E1,-1.077064432E0,-2.739374340E0,-2.158452442E0,3.650089932E0
1.364407083E1,-7.420265767E-1,-3.058631145E0,-1.426683197E0,3.455611794E0
1.365401683E1,-5.842052561E-1,-3.733697455E0,-1.045561535E0,3.921095687E0
1.366396383E1,-4.914736784E-1,-4.000517015E0,-6.775038676E-1,4.087137660E0
1.367390983E1,-1.082951117E-1,-3.438546966E0,-6.996076584E-1,3.510667165E0
1.368385583E1,3.808838269E-1,-2.731394060E0,-9.912846091E-1,2.930568405E0
1.369380283E1,1.493080670E0,-8.532058275E-1,-1.432391834E0,2.238078737E0
1.370374883E1,2.781548260E0,6.841768563E-1,-1.864137958E0,3.417618911E0
1.371369483E1,4.977292051E0,2.960724197E0,-2.039771944E0,6.140032045E0
1.372364183E1,7.864496282E0,5.394350554E0,-9.570588094E-1,9.584637773E0
1.373358783E1,1.092681702E1,7.169876298E0,2.309111069E0,1.327156548E1
1.374353383E1,1.121833346E1,7.848323468E0,7.397172189E0,1.556166262E1
1.375347983E1,7.743361269E0,9.232117338E0,1.004949026E1,1.569024821E1
1.376342683E1,1.914476345E0,6.890471191E0,6.149764624E0,9.432042082E0
1.377337283E1,-1.228442998E0,3.583957863E0,1.307115238E0,4.007789467E0
1.378331883E1,-2.498227273E0,2.036906809E-1,-1.741215452E0,3.051960133E0
1.379326583E1,-3.172244300E0,-2.623268518E0,-3.318779032E0,5.287623840E0
1.380321183E1,-3.852193327E0,-4.371690078E0,-3.828152207E0,6.971787209E0
1.381315783E1,-4.294079693E0,-4.959031781E0,-3.735431154E0,7.548811994E0
1.382310483E1,-4.671906303E0,-4.819299114E0,-3.489185607E0,7.564837649E0
1.383305083E1,-4.947314546E0,-3.801252092E0,-3.100952123E0,6.967161742E0
1.384299683E1,-5.547573332E0,-1.433952456E0,-2.522226000E0,6.260464321E0
1.385294283E1,-6.657597642E0,2.828899890E0,-1.727631201E0,7.437135908E0
1.386288983E1,-7.503352947E0,7.544106871E0,-9.336804718E-1,1.068108670E1
1.387283583E1,-6.465805460E0,9.792418592E0,6.712258583E-1,1.175366523E1
1.388278183E1,-4.771457781E0,8.229071347E0,2.306723651E0,9.788023222E0
1.389272883E1,-3.112811446E0,4.041651008E0,4.537077404E0,6.827123064E0
1.390267483E1,-1.830021501E0,1.050949890E0,5.590907047E0,5.975928043E0
1.391262083E1,-1.358494430E0,-3.424661583E-1,4.696875960E0,4.901370622E0
1.392256783E1,-1.213797039E0,-1.049724898E0,3.117402679E0,3.506198095E0
1.393251383E1,-1.235562860E0,-1.569088041E0,1.630056374E0,2.577932630E0
1.394245983E1,-1.276146338E0,-1.884344766E0,3.809279734E-1,2.307468482E0
1.395240583E1,-1.127400773E0,-1.804127984E0,-5.664156872E-1,2.201530608E0
1.396235283E1,-9.608261704E-1,-1.366158668E0,-1.399136379E0,2.178797614E0
1.397229883E1,-6.983826667E-1,-6.007704180E-1,-2.037565205E0,2.236142976E0
1.398224483E1,-3.924341244E-1,2.648227358E-1,-2.201124691E0,2.251462975E0
1.399219183E1,1.186826903E-1,9.486756563E-1,-2.037745299E0,2.250883601E0
1.400213783E1,8.558490613E-1,1.380642221E0,-1.593772647E0,2.275689304E0
1.401208383E1,1.502436799E0,1.292681971E0,-1.016978152E0,2.227686597E0
1.402203083E1,1.814821957E0,8.472978008E-1,-4.812936759E-1,2.059887351E0
1.403197683E1,1.710959619E0,4.848101914E-2,-2.650613022E-1,1.732048129E0
1.404192283E1,1.321935299E0,-8.230950058E-1,-3.187662238E-1,1.589531449E0
1.405186883E1,8.400270805E-1,-1.606746449E0,-3.401161623E-1,1.844710994E0
1.406181583E1,2.964707905E-1,-2.200610136E0,-2.456947392E-1,2.234042480E0
1.407176183E1,-2.102825394E-1,-2.534237058E0,-2.452035731E-1,2.554740888E0
1.408170783E1,-5.457840791E-1,-2.853914278E0,-2.333448350E-1,2.914988298E0
1.409165483E1,-8.202529666E-1,-3.026837495E0,-1.752515781E-1,3.140903256E0
1.410160083E1,-1.185181204E0,-2.946889100E0,-1.919330996E-1,3.182082364E0
1.411154683E1,-1.388683897E0,-2.879474212E0,-6.601974249E-2,3.197526123E0
1.412149383E1,-1.292103682E0,-2.738292021E0,-1.584940428E-1,3.031978805E0
1.413143983E1,-8.478237578E-1,-2.457397043E0,-7.411749297E-1,2.703136258E0
1.414138583E1,-9.103629452E-1,-1.705856169E0,-1.344074319E0,2.354833696E0
1.415133183E1,-1.040395666E0,-8.542337680E-1,-1.739675295E0,2.199683751E0
1.416127883E1,-1.016134106E0,-1.911051339E-1,-1.945507811E0,2.203190944E0
1.417122483E1,-7.342363313E-1,4.608927405E-1,-2.451994216E0,2.600730809E0
1.418117083E1,-1.399516448E0,1.393051767E0,-1.844191936E0,2.701903664E0
1.419111708E1,-2.379090546E0,2.615724440E0,-1.825917633E0,3.979454910E0
1.420106308E1,-2.027008642E0,3.753154650E0,-2.803068645E0,5.104128494E0
1.421100908E1,-2.106996506E0,3.550035827E0,-3.110179614E0,5.168694794E0
1.422095608E1,-2.490577945E0,1.772876371E0,-2.634340221E0,4.035569046E0
1.423090208E1,-2.426871654E0,-8.298134565E-1,-2.716862560E0,3.736259970E0
1.424084808E1,-2.202138598E0,-3.634137499E0,-3.701255348E0,5.635216138E0
1.425079408E1,-1.829589685E0,-5.733660970E0,-4.561397728E0,7.551729323E0
1.426074108E1,-1.356393525E0,-6.521811261E0,-5.403509048E0,8.577396782E0
1.427068708E1,-1.257576750E0,-5.179202839E0,-5.481512074E0,7.645431051E0
1.428063308E1,-1.189775946E0,-1.211967591E0,-5.117041090E0,5.391524993E0
1.429058008E1,-9.816121450E-1,3.629266768E0,-4.454311820E0,5.828896420E0
1.430052608E1,-3.229390892E-1,5.933316488E0,-2.473810762E0,6.436479930E0
1.431047208E1,7.436167270E-1,6.520441259E0,4.435832280E-1,6.577680908E0
1.432041808E1,1.870540952E0,6.416517525E0,3.072077987E0,7.355833315E0
1.433036508E1,2.757303658E0,6.183670873E0,4.990971027E0,8.411319796E0
1.434031108E1,3.979834828E0,5.818796430E0,6.464129063E0,9.564645404E0
1.435025708E1,5.994957250E0,5.476827870E0,8.790160221E0,1.196670684E1
1.436020408E1,7.472354518E0,5.013896205E0,1.040552839E1,1.375682588E1
1.437015008E1,7.789850727E0,4.275379420E0,1.048992944E1,1.374770029E1
1.438009608E1,7.867823932E0,4.148761473E0,9.578128079E0,1.307116723E1
1.439004308E1,7.586379316E0,4.840257289E0,7.115686058E0,1.147232452E1
1.439998908E1,6.128761425E0,6.753959171E0,4.459372001E0,1.015202836E1
1.440993508E1,4.403634002E0,9.658289897E0,3.290000206E0,1.111299498E1
1.441988108E1,3.631910587E0,1.361720514E1,4.000083736E0,1.464990513E1
1.442982808E1,4.000411180E0,1.733045021E1,6.465053508E0,1.892471164E1
1.443977408E1,3.638538990E0,1.847337270E1,5.045451874E0,1.949258961E1
1.444972008E1,5.310692686E0,1.819508500E1,4.209795295E0,1.941615182E1
1.445966708E1,6.359473844E0,1.740967530E1,5.812729944E0,1.942492036E1
1.446961308E1,1.155877005E1,2.021542899E1,1.480030386E1,2.759198667E1
1.447955908E1,1.883250518E1,2.366811160E1,2.808210219E1,4.127283878E1
1.448950608E1,1.592283361E1,1.762049081E1,2.062559245E1,3.145526014E1
1.449945208E1,1.302343793E1,1.544022431E1,8.510081515E0,2.191875794E1
1.450939808E1,1.184664953E1,1.744362891E1,3.954533342E0,2.145370897E1
1.451934508E1,2.236479442E0,1.483947787E1,-1.456258999E0,1.507755398E1
1.452929108E1,-4.500239360E-1,7.401293306E0,-3.392221815E0,8.154068493E0
1.453923708E1,5.635015811E-1,3.428514898E-2,-2.298792780E0,2.367099016E0
1.454918308E1,-2.195076916E-1,-4.892157760E0,-2.812566862E0,5.647293470E0
1.455913008E1,-1.232167090E0,-8.265255087E0,-3.154772235E0,8.932259806E0
1.456907608E1,-1.789179577E0,-1.013228917E1,-2.889342265E0,1.068703636E1
1.457902208E1,-2.292231327E0,-1.109316914E1,-1.998149709E0,1.150240532E1
1.458896908E1,-2.686244785E0,-1.149518041E1,-2.784356385E-2,1.180490826E1
1.459891508E1,-3.298033111E0,-1.206904136E1,3.417303447E0,1.296983981E1
1.460886108E1,-3.352687036E0,-1.262890057E1,7.149372452E0,1.489440050E1
1.461880708E1,-2.971370223E0,-1.378838121E1,1.334507339E1,1.941750450E1
1.462875408E1,-2.510159101E0,-1.467933900E1,1.558273265E1,2.155470828E1
1.463870008E1,-2.016912109E0,-1.403303690E1,1.130530027E1,1.813294993E1
1.464864608E1,-1.857439242E0,-1.212350467E1,2.066814147E0,1.243789237E1
1.465859308E1,-2.285153419E0,-1.198393397E1,-1.343109821E0,1.227357094E1
1.466853908E1,-3.001550626E0,-1.170359155E1,-2.947326472E0,1.243664323E1
1.467848508E1,-3.546879792E0,-1.133565083E1,-4.610706128E0,1.274111247E1
1.468843208E1,-4.077004443E0,-1.106118721E1,-7.047777665E0,1.373473690E1
1.469837808E1,-6.163953477E0,-1.411867522E1,-1.671141133E1,2.272889309E1
1.470832408E1,-6.439370783E0,-2.566101343E1,-4.042423892E1,4.831223653E1
1.471827008E1,-3.477751962E0,-3.068139303E1,-3.140483160E1,4.404209446E1
1.472821708E1,-9.494080201E-1,-2.126067024E1,-2.039522385E1,2.947681514E1
1.473816308E1,-9.465663317E0,-4.334597096E0,-1.385789876E1,1.733288412E1
1.474810908E1,-1.419824647E1,-5.619719787E0,-9.847318100E0,1.816978610E1
1.475805608E1,-9.661489493E0,-8.865811497E0,-6.347076577E0,1.456819734E1
1.476800208E1,-6.153814990E0,-6.532784146E0,-4.419144911E0,1.000377676E1
1.477794808E1,-3.870557969E0,-3.523253825E0,-2.012806047E0,5.607666600E0
1.478789508E1,-3.952099730E0,-3.099935292E0,-2.622724142E0,5.666336825E0
1.479784108E1,-5.240344834E0,-3.702797844E0,-1.962892168E0,6.710057490E0
1.480778708E1,-5.891213027E0,-4.163067856E0,1.405249643E-1,7.215072568E0
1.481773308E1,-5.802672733E0,-3.197890188E0,2.975438715E0,7.262971021E0
1.482768008E1,-4.940098497E0,-7.552573639E-1,4.397792049E0,6.656993447E0
1.483762608E1,-4.104403911E0,6.761369348E-1,3.015442441E0,5.137721843E0
1.484757208E1,-4.457655551E0,-8.137780523E-1,-5.868476129E-1,4.569170367E0
1.485751908E1,-5.424325136E0,-3.195868805E0,-2.776511761E0,6.880835571E0
1.486746508E1,-6.222291732E0,-4.963673301E0,-4.271968739E0,9.033531090E0
1.487741108E1,-6.406589538E0,-6.019425509E0,-4.831830867E0,1.003117453E1
1.488735708E1,-6.389716812E0,-6.534999071E0,-4.528157476E0,1.019994627E1
1.489730408E1,-5.952644459E0,-6.561495729E0,-3.987803414E0,9.715440202E0
1.490725008E1,-5.486039574E0,-6.072152191E0,-4.073960967E0,9.141379568E0
1.491719608E1,-6.064933219E0,-4.215306880E0,-4.964695394E0,8.899462197E0
1.492714308E1,-1.021143007E1,1.047579087E1,-7.027817609E0,1.622977876E1
1.493708908E1,-4.843477643E0,4.373376298E1,-1.168551079E1,4.552639304E1
1.494703508E1,5.719683786E0,2.737725776E1,7.380753207E-1,2.797809465E1
1.495698208E1,4.257010977E0,2.642385405E0,1.118790923E1,1.225861559E1
1.496692808E1,5.165774708E0,-1.483241209E1,1.536898768E1,2.197479145E1
1.497687408E1,7.399727422E0,-2.499133884E1,2.165667877E1,3.388708778E1
1.498682008E1,1.030924229E1,-2.515310323E1,1.929711441E1,3.333673204E1
1.499676708E1,1.190799267E1,-1.887991324E1,1.079117799E1,2.479316308E1
1.500671308E1,1.122926776E1,-2.153734177E0,3.596477337E0,1.198622854E1
1.501665908E1,1.339397014E1,1.744288865E1,7.886128056E-1,2.200624255E1
1.502660608E1,1.105559259E1,1.599736456E1,-1.597787345E0,1.951139987E1
1.503655208E1,5.681575727E0,3.529103379E0,5.661309278E-1,6.712330269E0
1.504649808E1,2.690967873E0,-4.223709914E0,8.713631862E-1,5.083336241E0
1.505644508E1,2.417430155E0,-5.268625478E0,-6.530872107E-1,5.833430027E0
1.506639108E1,4.908480263E0,-1.243636111E0,-8.066584826E-1,5.127426955E0
1.507633708E1,6.313655062E0,3.695067240E0,1.164584094E0,7.407564935E0
1.508628308E1,5.498822756E0,4.839432832E0,3.839318050E0,8.270279616E0
1.509623008E1,4.386791098E0,2.803775573E0,6.102526138E0,8.021590794E0
1.510617608E1,3.861504433E0,8.593296164E-1,8.436439342E0,9.317895290E0
1.511612208E1,3.859923930E0,6.543981564E-1,1.125835766E1,1.191964206E1
1.512606908E1,4.316297650E0,1.493179488E0,1.304939022E1,1.382557758E1
1.513601508E1,4.342319514E0,2.073912082E0,1.240862543E1,1.330905087E1
1.514596108E1,3.075109184E0,2.413701970E0,9.687205548E0,1.044625316E1
1.515590708E1,1.425724254E0,2.172227166E0,6.147143902E0,6.673727493E0
1.516585408E1,3.365405899E-1,1.395187755E0,3.058593138E0,3.378579646E0
1.517580008E1,-2.087853599E-1,7.480167568E-1,8.279902947E-1,1.135204089E0
1.518574608E1,-5.061633459E-1,4.390218151E-1,-7.764032346E-1,1.025545450E0
1.519569325E1,-7.069105384E-1,3.418358284E-1,-1.921778641E0,2.076007559E0
1.520563925E1,-8.587454796E-1,1.310799569E-1,-2.232027810E0,2.395114590E0
1.521558525E1,-1.016376766E0,-9.958042145E-2,-2.057510642E0,2.297017204E0
1.522553225E1,-9.949704015E-1,-3.767776197E-1,-1.827762430E0,2.114862401E0
1.523547825E1,-7.608177736E-1,-6.883120072E-1,-1.505003142E0,1.821442166E0
1.524542425E1,-5.150867817E-1,-9.211791247E-1,-8.215712214E-1,1.337484446E0
1.525537025E1,-1.324382651E-1,-1.059448233E0,1.561534023E-1,1.079052519E0
1.526531725E1,2.877724725E-1,-1.208899557E0,1.194089729E0,1.723398218E0
1.527526325E1,6.100651520E-1,-1.317347866E0,2.163561008E0,2.605490573E0
1.528520925E1,9.010231876E-1,-1.264544585E0,2.882823497E0,3.274383470E0
1.529515625E1,9.351370132E-1,-1.108520991E0,3.272961420E0,3.579884981E0
1.530510225E1,8.108561987E-1,-8.908525407E-1,3.374736886E0,3.583288305E0
1.531504825E1,5.666437286E-1,-5.990139145E-1,2.925873622E0,3.039841976E0
1.532499525E1,3.490442759E-1,-4.336336058E-1,2.020894793E0,2.096159769E0
1.533494125E1,4.872484803E-2,-3.694709390E-1,1.253111524E0,1.307352813E0
1.534488725E1,-2.867158806E-1,-4.089080697E-1,5.123049688E-1,7.154496396E-1
1.535483325E1,-4.757820904E-1,-4.352550387E-1,-4.367706370E-1,7.788351146E-1
1.536478025E1,-7.849138570E-1,-1.212028402E-1,-1.445161568E0,1.649021482E0
1.537472625E1,-1.093429619E0,3.126044279E-1,-2.420813354E0,2.674630284E0
1.538467225E1,-1.395588581E0,3.528280091E-1,-2.862063543E0,3.203679574E0
1.539461925E1,-1.891907847E0,2.198032683E-1,-3.151609476E0,3.682427333E0
1.540456525E1,-2.293738447E0,-2.790408254E-2,-3.689234642E0,4.344245268E0
1.541451125E1,-2.618936608E0,-3.574917483E-1,-4.133809558E0,4.906629268E0
1.542445825E1,-2.739970756E0,-8.959536517E-1,-4.172083093E0,5.071138928E0
1.543440425E1,-2.602268243E0,-1.543714049E0,-4.038427438E0,5.046161833E0
1.544435025E1,-2.659494650E0,-2.089600162E0,-4.219114003E0,5.407426708E0
1.545429625E1,-2.641134685E0,-2.696585585E0,-4.254917089E0,5.687836643E0
1.546424325E1,-2.651890638E0,-3.314235161E0,-4.122867079E0,5.917323010E0
1.547418925E1,-2.739804403E0,-3.858577609E0,-4.137837705E0,6.286242932E0
1.548413525E1,-2.527137954E0,-4.420483924E0,-3.862573596E0,6.391132853E0
1.549408225E1,-2.212868531E0,-4.934036688E0,-3.449770111E0,6.414235652E0
1.550402825E1,-1.940171642E0,-5.372289594E0,-3.077886611E0,6.488385583E0
1.551397425E1,-1.759769544E0,-5.763423298E0,-2.525504826E0,6.533912426E0
1.552392125E1,-1.686983989E0,-6.073765438E0,-1.845473646E0,6.568280944E0
1.553386725E1,-1.510053090E0,-6.317577374E0,-1.235420188E0,6.611982097E0
1.554381325E1,-1.172868137E0,-6.420609407E0,-6.571627200E-1,6.559855765E0
1.555375925E1,-9.365996942E-1,-6.458916271E0,-2.310258293E-1,6.530558270E0
1.556370625E1,-9.976943269E-1,-6.412660702E0,1.684231997E-1,6.491993347E0
1.557365225E1,-1.250826140E0,-6.100029377E0,-6.558237076E-3,6.226954909E0
1.558359825E1,-1.338136764E0,-5.627612944E0,-4.301866722E-1,5.800491187E0
1.559354525E1,-1.494967858E0,-4.911279910E0,-9.397849649E-1,5.219079903E0
1.560349125E1,-1.806377700E0,-4.239504413E0,-1.685349399E0,4.906811660E0
1.561343725E1,-2.241007672E0,-3.251275266E0,-2.209046499E0,4.524687025E0
1.562338325E1,-2.751209105E0,-1.651495190E0,-2.728447648E0,4.212008365E0
1.563333025E1,-3.120616894E0,1.040071730E0,-3.239767946E0,4.616935709E0
1.564327625E1,-3.069183615E0,3.673382256E0,-3.230863221E0,5.775127914E0
1.565322225E1,-3.309686612E0,4.524638622E0,-2.495163040E0,6.136140377E0
1.566316925E1,-3.382047952E0,4.530285863E0,-1.525858406E0,5.855764871E0
1.567311525E1,-3.169495524E0,3.464225013E0,-7.970795739E-1,4.762551067E0
1.568306125E1,-2.954420021E0,1.068649412E0,1.966851318E-1,3.147903154E0
1.569300825E1,-2.748320288E0,-1.633753569E0,1.718062817E0,3.629621877E0
1.570295425E1,-2.565751212E0,-4.148220021E0,2.322876000E0,5.402458842E0
1.571290025E1,-2.641125914E0,-6.420104207E0,2.234129884E0,7.292778652E0
1.572284625E1,-2.875617388E0,-8.067371276E0,1.894887296E0,8.771673303E0
1.573279325E1,-3.236441173E0,-9.104568515E0,1.252698126E0,9.743560535E0
1.574273925E1,-3.755699066E0,-9.521933997E0,5.636815292E-1,1.025135305E1
1.575268525E1,-3.825398461E0,-9.101360148E0,2.676276451E-1,9.876236858E0
1.576263225E1,-2.689242944E0,-6.900063549E0,5.929924518E-1,7.429303106E0
1.577257825E1,-4.082470420E-1,-2.901463836E0,8.540928501E-1,3.051988308E0
1.578252425E1,7.658688909E-1,8.038635135E-2,-2.194518507E-1,8.007348114E-1
1.579247025E1,1.944701480E0,1.403597805E0,-5.181282109E-1,2.453651868E0
1.580241725E1,2.136462087E0,1.938135057E0,5.705701339E-1,2.940474116E0
1.581236325E1,2.266427565E0,2.067262044E0,1.655536786E0,3.485838251E0
1.582230925E1,3.030813602E0,2.985242742E0,2.631715990E0,5.002342888E0
1.583225625E1,4.643242959E0,4.657375095E0,4.092672642E0,7.746019449E0
1.584220225E1,7.129864386E0,5.518606226E0,5.167396141E0,1.039191819E1
1.585214825E1,9.745763074E0,4.922643389E0,6.244572548E0,1.257803650E1
1.586209525E1,1.144778873E1,3.986539831E0,7.780054886E0,1.440394462E1
1.587204125E1,8.630152919E0,4.671715976E0,7.807306420E0,1.254027524E1
1.588198725E1,3.662744417E0,8.646043897E0,6.817498525E0,1.160379498E1
1.589193325E1,5.180960512E-1,1.197347798E1,5.702861931E0,1.327234842E1
1.590188025E1,3.613918412E-1,1.248635130E1,3.375888788E0,1.293971398E1
1.591182625E1,2.647715142E0,9.621831923E0,5.429163122E-1,9.994238497E0
1.592177225E1,6.148648975E0,6.666351508E0,-8.850064945E-1,9.112044949E0
1.593171925E1,1.023362142E1,5.697329296E0,-2.103266859E-1,1.171455529E1
1.594166525E1,1.258935468E1,5.933910565E0,1.420673136E0,1.399004853E1
1.595161125E1,1.208256129E1,5.797925963E0,2.133875864E0,1.357047011E1
1.596155825E1,9.251434200E0,3.919338366E0,2.307186166E0,1.030889693E1
1.597150425E1,5.610691102E0,1.306910586E0,2.690810583E0,6.358327729E0
1.598145025E1,2.995018994E0,-9.335839927E-2,2.511767670E0,3.909965651E0
1.599139625E1,1.899109863E0,1.943614483E-2,1.186350939E0,2.239291090E0
1.600134325E1,9.526362678E-1,7.401177531E-1,-2.224666750E-1,1.226695386E0
1.601128925E1,-1.170115853E0,2.157314427E0,-3.325761777E-1,2.476647646E0
1.602123525E1,-3.771280726E0,3.694801776E0,1.191738564E-1,5.280939395E0
1.603118225E1,-5.462574112E0,3.993644198E0,4.856133065E-1,6.784152872E0
1.604112825E1,-5.927765726E0,3.051147294E0,2.536551386E-2,6.666974555E0
1.605107425E1,-5.915269641E0,1.342480368E0,-3.819398341E-1,6.077708985E0
1.606102125E1,-5.687090821E0,-6.127121866E-1,-3.657222891E-1,5.731681344E0
1.607096725E1,-5.113349742E0,-2.537871687E0,-2.931045485E-1,5.716034339E0
1.608091325E1,-4.578349391E0,-4.358525657E0,-2.079085699E-1,6.324654538E0
1.609085925E1,-4.157528496E0,-5.766507120E0,-2.739689505E-1,7.114260787E0
1.610080625E1,-3.903947617E0,-6.765402172E0,-5.197971524E-1,7.828260511E0
1.611075225E1,-3.846438789E0,-7.366114703E0,-6.707762074E-1,8.336946557E0
1.612069825E1,-3.718925634E0,-7.928352554E0,-7.479087295E-1,8.789115403E0
1.613064525E1,-3.345808371E0,-8.297966166E0,-8.777214485E-1,8.990054009E0
1.614059125E1,-3.054422904E0,-8.259686199E0,-9.627412798E-1,8.858825326E0
1.615053725E1,-3.117546228E0,-8.037084453E0,-5.952044535E-1,8.641069918E0
1.616048425E1,-2.984503361E0,-7.893267506E0,-4.408659538E-1,8.450165385E0
1.617043025E1,-3.037021006E0,-7.566374238E0,-6.620053840E-1,8.179961297E0
1.618037625E1,-2.904478660E0,-7.014819249E0,-1.541491522E0,7.747249931E0
1.619032225E1,-1.707545138E0,-6.414797859E0,-2.936557655E0,7.258699114E0
1.620026846E1,5.593355861E-1,-5.617552224E0,-3.425042821E0,6.603080161E0
1.621021446E1,9.219828245E-1,-4.392859923E0,-3.675394868E0,5.801361742E0
1.622016046E1,8.926856428E-1,-2.986022176E0,-3.155955126E0,4.435455878E0
1.623010746E1,1.113236478E0,-1.661511471E0,-2.931370005E0,3.548640011E0
1.624005346E1,1.268469236E0,-5.992442948E-1,-2.994355627E0,3.306701309E0
1.624999946E1,1.470515680E0,2.029194331E-1,-3.061237834E0,3.402171327E0
1.625994546E1,2.321309238E0,6.059949052E-1,-2.914362794E0,3.774813492E0
1.626989246E1,3.041101485E0,7.341114932E-1,-2.954822602E0,4.303277186E0
1.627983846E1,3.056912941E0,8.432111818E-1,-2.452018189E0,4.008505336E0
1.628978446E1,3.196411134E0,1.440566826E0,-1.327963486E0,3.749101751E0
1.629973146E1,3.342188360E0,2.339314862E0,-2.471542042E-1,4.087016303E0
1.630967746E1,2.817284396E0,3.129063781E0,6.463874710E-1,4.259806131E0
1.631962346E1,1.627928572E0,3.726461526E0,4.602688426E-1,4.092494880E0
1.632957046E1,5.886555719E-1,4.202665200E0,-5.293827854E-2,4.244020809E0
1.633951646E1,6.562160558E-1,4.645927416E0,-4.699646956E-1,4.715519895E0
1.634946246E1,1.014933673E0,4.425082174E0,-6.447016456E-1,4.585529721E0
1.635940846E1,1.317903351E0,3.736346244E0,-7.376706934E-1,4.030050936E0
1.636935546E1,8.785549691E-1,2.381783189E0,-8.696856932E-1,2.683487134E0
1.637930146E1,4.501148602E-1,6.038185716E-1,-1.143482078E0,1.369215658E0
1.638924746E1,-1.765771419E-2,-1.253202156E0,-1.480464717E0,1.939743080E0
1.639919446E1,-7.764046964E-1,-2.639109210E0,-1.914747949E0,3.351710217E0
1.640914046E1,-1.099599601E0,-3.214317940E0,-2.083719617E0,3.985328913E0
1.641908646E1,-9.511089751E-1,-3.122432454E0,-2.056866133E0,3.858094219E0
1.642903346E1,-3.921648601E-1,-3.058550454E0,-2.739733944E0,4.124883785E0
