"Time (s)","Linear Acceleration x (m/s^2)","Linear Acceleration y (m/s^2)","Linear Acceleration z (m/s^2)","Absolute acceleration (m/s^2)"
6.635541562E-3,1.406249517E-1,-1.920886356E-1,1.886002598E-1,3.037161157E-1
1.658154163E-2,1.067222106E-1,-4.514073873E-1,1.210846899E-1,4.793952040E-1
2.652854158E-2,1.988842696E-1,-4.028597099E-1,1.672361052E-1,4.793942150E-1
3.647454164E-2,2.768639070E-1,-2.186946362E-1,1.793890679E-1,3.958047556E-1
4.642054159E-2,3.564293092E-1,-2.250178152E-1,1.850403653E-1,4.603420537E-1
5.636754166E-2,4.322507393E-1,-1.945783800E-1,2.795816928E-1,5.503338719E-1
6.631354161E-2,4.269946772E-1,-1.207023185E-1,2.691479943E-1,5.189741293E-1
7.625954167E-2,3.854016781E-1,-1.918471456E-1,1.521041689E-1,4.565911288E-1
8.620654163E-2,2.752652782E-1,-2.802342421E-1,4.578837633E-2,3.954728552E-1
9.615254158E-2,1.540782255E-1,-3.277837998E-1,-8.969281632E-2,3.731315053E-1
1.060995416E-1,-3.795310736E-2,-3.606200087E-1,-1.809175301E-1,4.052386725E-1
1.160455416E-1,-1.873664242E-1,-2.462870622E-1,-1.665351337E-1,3.514220321E-1
1.259915417E-1,-2.654676837E-1,-9.575049520E-2,-2.043245556E-1,3.484103506E-1
1.359385416E-1,-3.094516093E-1,-1.422054541E-1,-3.021314069E-1,4.552648423E-1
1.458845416E-1,-2.804792404E-1,-2.850365603E-1,-3.233352381E-1,5.142568631E-1
1.558315416E-1,-1.095136714E-1,-2.654138893E-1,-1.517854591E-1,3.247716158E-1
1.657775416E-1,5.334707201E-2,-2.187244570E-1,-3.642581463E-2,2.280638905E-1
1.757235416E-1,1.686489022E-1,-2.101395750E-1,6.100290455E-3,2.695149471E-1
1.856705416E-1,2.186484432E-1,-1.530619794E-1,8.301990073E-2,2.795128176E-1
1.956165417E-1,1.824916005E-1,-1.176149887E-1,7.884031098E-2,2.309810911E-1
2.055625416E-1,1.450331676E-1,-1.380843365E-1,3.588783424E-2,2.034449320E-1
2.155095416E-1,1.419054919E-1,-1.717701459E-1,-7.927143350E-3,2.229461623E-1
2.254555416E-1,1.244901448E-1,-1.616585559E-1,-2.639144439E-2,2.057371945E-1
2.354025416E-1,9.315667033E-2,-1.426726466E-1,2.091673292E-2,1.716716606E-1
2.453485416E-1,3.783908665E-2,-1.564071715E-1,2.422150612E-2,1.627319303E-1
2.552945416E-1,2.770995498E-2,-1.573339552E-1,8.009106696E-2,1.787075658E-1
2.652415417E-1,4.785946012E-2,-7.177691102E-2,1.858910986E-1,2.049340221E-1
2.751875416E-1,9.499152660E-2,3.317944050E-2,2.075895312E-1,2.306895725E-1
2.851345416E-1,9.064646065E-2,1.127109289E-1,1.420587621E-1,2.027343735E-1
2.950805416E-1,5.882591307E-2,1.753726155E-1,2.553179406E-2,1.867295231E-1
3.050265416E-1,1.171489656E-2,2.264842969E-1,-4.926871218E-2,2.320771026E-1
3.149735417E-1,-4.286009073E-4,3.132107842E-1,-8.736916937E-2,3.251684960E-1
3.249195416E-1,-1.944608510E-2,3.561234999E-1,-1.550523716E-1,3.889001611E-1
3.348665417E-1,-3.600364566E-2,3.268804049E-1,-2.753735248E-1,4.289261473E-1
3.448125416E-1,-1.185698390E-2,2.659149957E-1,-3.018806344E-1,4.024714778E-1
3.547585416E-1,4.611465096E-2,2.434336209E-1,-2.774247281E-1,3.719556003E-1
3.647055416E-1,7.300774992E-2,2.564740813E-1,-2.493656212E-1,3.650921787E-1
3.746515416E-1,1.260028195E-1,2.705600238E-1,-2.860329989E-1,4.133936544E-1
3.845975416E-1,1.579081517E-1,2.746741247E-1,-2.803290401E-1,4.230428228E-1
3.945445416E-1,1.764941114E-1,2.353059912E-1,-2.285303108E-1,3.724851457E-1
4.044905417E-1,1.612094897E-1,2.274724764E-1,-1.596131998E-1,3.212609541E-1
4.144375416E-1,9.497106135E-2,2.251879692E-1,-1.341397317E-1,2.787877178E-1
4.243835416E-1,6.176647782E-2,2.099647433E-1,-9.238425314E-2,2.375608163E-1
4.343295416E-1,3.539436579E-2,2.490446091E-1,1.209723137E-2,2.518378872E-1
4.442765416E-1,7.382869899E-2,3.452424163E-1,7.846203268E-2,3.616618495E-1
4.542225417E-1,5.461591780E-2,3.885457259E-1,7.295687914E-2,3.990906988E-1
4.641695416E-1,1.188563526E-2,3.673799747E-1,1.048113406E-2,3.677215908E-1
4.741155417E-1,-9.053243995E-3,3.588336843E-1,3.065461278E-2,3.602544650E-1
4.840615416E-1,-3.003071487E-2,4.063721323E-1,1.446769991E-1,4.324021136E-1
4.940085416E-1,-6.263888240E-2,5.010841620E-1,2.382687753E-1,5.583735097E-1
5.039545416E-1,-7.873392820E-2,5.662730151E-1,2.627118909E-1,6.291913038E-1
5.139015416E-1,-8.818770647E-2,5.522543156E-1,3.063332891E-1,6.376534990E-1
5.238475417E-1,-5.772195876E-2,6.906701893E-1,3.233154307E-1,7.647810161E-1
5.337935416E-1,-1.681676763E-1,7.553094041E-1,2.919514044E-1,8.270479345E-1
5.437405417E-1,-1.184686822E-1,7.183070540E-1,2.593274494E-1,7.728198875E-1
5.536865416E-1,-1.739587587E-1,7.328800696E-1,2.200300672E-1,7.847216555E-1
5.636335416E-1,-1.321435654E-1,4.781262392E-1,2.114171185E-1,5.392252039E-1
5.735795416E-1,-2.360234445E-1,2.466916895E-1,1.568632543E-1,3.757258796E-1
5.835255416E-1,-1.112824541E-1,4.543292409E-1,3.646663550E-1,5.931107774E-1
5.934725417E-1,-1.649628174E-1,5.185609049E-1,3.877176871E-1,6.681640129E-1
6.034185416E-1,-3.231352633E-1,5.483290797E-1,4.754328655E-1,7.944290954E-1
6.133645417E-1,-2.412444234E-1,6.168409055E-1,4.725234371E-1,8.136153718E-1
6.233115416E-1,-3.294455785E-1,6.071672720E-1,6.300092737E-1,9.349321742E-1
6.332575416E-1,-3.926124644E-1,6.176554227E-1,4.772690374E-1,8.737439570E-1
6.432045416E-1,-5.306166941E-1,2.376425385E-1,3.484420127E-1,6.778199528E-1
6.531505416E-1,-5.055321389E-1,6.121333122E-2,1.899483354E-1,5.434981008E-1
6.630965417E-1,-4.790360659E-1,-2.241635370E-1,-1.361570942E-1,5.461351464E-1
6.730435416E-1,-5.564514470E-1,-8.016439104E-1,4.189573869E-2,9.767427629E-1
6.829895417E-1,-3.697024888E-1,-8.658358133E-1,8.392344904E-1,1.261216126E0
6.929365416E-1,4.480171716E-1,1.649691909E0,1.039216867E0,2.000543545E0
7.028825416E-1,8.319108528E-1,2.937242364E0,-2.091473025E-1,3.059936431E0
7.128285416E-1,3.622203916E-1,1.176562700E0,-3.905891816E-1,1.291535253E0
7.227755416E-1,2.653548324E-1,7.713401306E-1,-3.218056065E-1,8.768908897E-1
7.327215417E-1,5.360908574E-1,7.014436841E-1,-3.940719295E-1,9.668036693E-1
7.426675416E-1,6.603991538E-1,5.297571534E-1,-3.154064137E-1,9.034660424E-1
7.526145416E-1,6.963039815E-1,1.906081206E-1,-3.250303459E-1,7.917167524E-1
7.625605416E-1,7.062173510E-1,2.513297009E-1,-1.423191825E-1,7.629969299E-1
7.725075416E-1,6.659908462E-1,3.403149676E-1,-1.127460122E-1,7.563529253E-1
7.824535416E-1,5.702444440E-1,4.939523131E-1,-2.624502280E-1,7.987789029E-1
7.923995416E-1,4.746331125E-1,2.087678182E-1,-3.971183288E-1,6.531183358E-1
8.023465417E-1,5.171686828E-1,2.429342687E-2,-4.013634074E-1,6.550925140E-1
8.122925416E-1,9.011337000E-1,2.407608587E-1,-6.888055122E-1,1.159508849E0
8.222393750E-1,1.132904465E0,-7.818955243E-2,-1.039226807E0,1.539343525E0
8.321853749E-1,1.267858202E0,-5.145807052E-1,-7.814932358E-1,1.575750424E0
8.421313750E-1,1.658365084E0,-1.868945539E-2,-5.722178793E-1,1.754410827E0
8.520783749E-1,1.953032593E0,5.461632711E-1,-4.824134177E-1,2.084551111E0
8.620243750E-1,2.217895090E0,9.457801151E-1,-7.327321351E-2,2.412245348E0
8.719713750E-1,1.633233751E0,-1.120034158E-1,-1.578335120E0,2.274013853E0
8.819173749E-1,1.301333511E0,-1.737629939E0,-1.275185933E0,2.517722359E0
8.918633750E-1,1.191431585E0,-2.006421180E0,-4.719802308E-1,2.380756290E0
9.018103749E-1,1.251468456E0,-1.526622053E0,-7.325733832E-1,2.105566895E0
9.117563750E-1,2.022566512E0,6.677631372E-1,-7.101770854E-1,2.245224799E0
9.217023749E-1,1.346448289E0,6.857164282E-1,-7.977499571E-1,1.708664686E0
9.316493749E-1,2.596309930E-1,-1.357056892E0,-5.500727195E-1,1.487142111E0
9.415953750E-1,5.193163651E-1,-6.331452817E-1,-4.405847758E-2,8.200631587E-1
9.515423749E-1,6.437720114E-1,-1.598865572E-1,-8.602525994E-1,1.086296759E0
9.614883750E-1,-5.497248101E-1,-9.614816433E-1,-2.474377942E-1,1.134843504E0
9.714343749E-1,-1.368833184E-2,-7.379396653E-1,-4.987540466E-1,8.907850016E-1
9.813813750E-1,-7.118879807E-1,-1.501032298E0,-3.702740541E-1,1.702053270E0
9.913273749E-1,-1.328340631E0,-1.748598146E0,5.408066368E-1,2.261538443E0
1.001274375E0,-4.197686881E-1,-7.528372014E-1,-5.508793429E-1,1.022955353E0
1.011220375E0,-4.619013852E-1,-6.227284670E-1,-4.999930716E-1,9.225707045E-1
1.021166375E0,-1.412967383E0,-9.577312392E-1,-4.013177991E-2,1.707435654E0
1.031113375E0,-1.520120534E0,-4.235287401E-1,-1.638685110E-1,1.586504308E0
1.041059375E0,-1.743095332E0,-3.453403571E-1,-5.428525776E-2,1.777804316E0
1.051006375E0,-2.210043449E0,-8.728691366E-1,1.431708294E-1,2.380481141E0
1.060952375E0,-2.243028177E0,-1.083919123E0,1.639091492E-1,2.496582119E0
1.070898375E0,-2.318760729E0,-1.267805869E0,1.720394102E-1,2.648316560E0
1.080845375E0,-2.420266639E0,-1.638928354E0,1.130401272E-1,2.925158940E0
1.090791375E0,-2.324574031E0,-1.385795372E0,6.790839314E-2,2.707154371E0
1.100738375E0,-2.267021642E0,-1.383082556E0,6.186471105E-2,2.656338029E0
1.110684375E0,-2.221291153E0,-1.384737611E0,7.886899889E-2,2.618750266E0
1.120630375E0,-1.998587081E0,-1.401852996E0,1.998142692E-1,2.449381123E0
1.130577375E0,-1.800550658E0,-1.402330713E0,3.219064710E-1,2.304807557E0
1.140523375E0,-1.620915422E0,-1.332605006E0,3.930819958E-1,2.134880877E0
1.150470375E0,-1.621539320E0,-1.312198808E0,3.520734259E-1,2.115469492E0
1.160416375E0,-1.794623920E0,-1.089745581E0,2.349744540E-1,2.112683942E0
1.170362375E0,-1.944759952E0,-1.128590974E0,1.568591613E-1,2.253977297E0
1.180309375E0,-2.108362123E0,-1.524101903E0,7.123925954E-2,2.602528095E0
1.190255375E0,-2.205429996E0,-1.701206464E0,1.146057191E-1,2.787679926E0
1.200201375E0,-2.518255448E0,-2.129135526E0,1.923997074E-1,3.303308378E0
1.210148375E0,-2.209761028E0,-2.199371696E0,2.220589779E-1,3.125634311E0
1.220094375E0,-1.283187262E0,-8.231283349E-1,7.360942841E-1,1.692910098E0
1.230041375E0,-1.342491478E0,8.957232714E-2,3.721887249E-1,1.396005378E0
1.239987375E0,-1.725426800E0,-7.731282091E-1,-2.505998223E-1,1.907255919E0
1.249933375E0,-2.054720936E0,-2.000328382E0,-4.825690998E-1,2.907931343E0
1.259880375E0,-2.057956785E0,-2.892077885E0,-6.283074416E-1,3.604728959E0
1.269826375E0,-1.970556114E0,-3.714471225E0,-5.069647068E-1,4.235256910E0
1.279773375E0,-2.049997555E0,-4.283253281E0,-5.031067139E-1,4.775129842E0
1.289719375E0,-2.083097473E0,-4.369323710E0,-1.114671677E0,4.967169991E0
1.299665375E0,-1.585203552E0,-3.852656134E0,-1.505955069E0,4.429867973E0
1.309612375E0,-1.024799972E0,-4.393977910E0,-1.318289267E0,4.700547144E0
1.319558375E0,-1.250210720E0,-5.504858252E0,-2.399164038E0,6.133716598E0
1.329505375E0,-1.550927174E0,-6.614877300E0,-2.940992183E0,7.403472956E0
1.339451375E0,-2.809992333E0,-8.939314506E0,1.330711165E-2,9.370569771E0
1.349397375E0,-5.455909456E0,-1.187254217E1,7.269819832E-1,1.308635581E1
1.359344375E0,-5.980251503E0,-1.378294447E1,-7.746343788E-1,1.504436854E1
1.369290375E0,-5.873521691E0,-1.327232701E1,-9.005436429E-1,1.454179838E1
1.379236375E0,-5.146805756E0,-1.118294495E1,2.324295265E0,1.252797732E1
1.389183375E0,-5.929583040E0,-1.045326623E1,4.488137963E0,1.282864421E1
1.399129375E0,-6.762937571E0,-1.032354224E1,5.399280342E0,1.347089742E1
1.409076375E0,-7.029438457E0,-1.001299545E1,6.034479750E0,1.364140860E1
1.419022375E0,-6.920003724E0,-1.001568049E1,5.508929669E0,1.336220840E1
1.428968375E0,-5.655953813E0,-1.102228100E1,2.883289520E0,1.271982117E1
1.438915375E0,-4.193735332E0,-1.097257850E1,5.020594776E-2,1.174680448E1
1.448861375E0,-2.609241632E0,-6.660082124E0,-2.757248109E0,7.665980233E0
1.458808375E0,-1.686445752E0,-1.239723739E0,-3.436570607E0,4.023808117E0
1.468754375E0,-3.827162274E0,2.977808007E0,-2.091535590E0,5.281006790E0
1.478700375E0,-5.026437314E0,3.813164039E0,-6.483550590E-1,6.342369931E0
1.488647375E0,-3.118665678E0,4.786436008E0,-1.297602403E-1,5.714270119E0
1.498593375E0,5.486015600E-1,6.050362542E0,4.389837351E-1,6.091022680E0
1.508540375E0,3.114166245E0,7.108034976E0,9.441089078E-1,7.817514583E0
1.518486375E0,5.097580386E0,7.520348464E0,1.307344449E0,9.178786212E0
1.528432375E0,6.374636258E0,7.629817697E0,1.101184343E0,1.000313513E1
1.538379375E0,6.785723001E0,7.578328870E0,5.782516211E-1,1.018879188E1
1.548325375E0,7.081333081E0,7.957872807E0,2.255592674E-1,1.065475926E1
1.558272375E0,7.187079976E0,8.183186492E0,-1.794662511E-1,1.089269792E1
1.568218375E0,6.966595507E0,7.945632831E0,-6.175454950E-1,1.058526790E1
1.578164375E0,6.643794120E0,8.297894245E0,-1.128556037E0,1.068965331E1
1.588111375E0,6.025287927E0,9.483589711E0,-1.651734341E0,1.135653093E1
1.598057375E0,5.689687570E0,1.001937476E1,-2.034787924E0,1.170046055E1
1.608003375E0,5.604578422E0,1.052313110E1,-1.904353500E0,1.207369660E1
1.617950375E0,5.669847382E0,1.017801440E1,-1.792802804E0,1.178784494E1
1.627896375E0,5.751271030E0,9.784926555E0,-1.917826800E0,1.151086295E1
1.637843375E0,5.912702129E0,9.430556635E0,-2.105231231E0,1.132817035E1
1.647789375E0,6.002036474E0,9.023437813E0,-2.417993534E0,1.110376353E1
1.657735375E0,5.737454644E0,9.172813708E0,-3.006578355E0,1.122935486E1
1.667682375E0,5.599152206E0,8.785594715E0,-3.337648874E0,1.093970200E1
1.677628375E0,5.656474800E0,8.584858632E0,-3.332397782E0,1.080742244E1
1.687575375E0,5.690727205E0,8.723385603E0,-3.198242775E0,1.089543892E1
1.697521375E0,5.499157802E0,8.963106827E0,-3.194911031E0,1.099024463E1
1.707467375E0,5.342757062E0,9.188474890E0,-3.200193698E0,1.110019655E1
1.717414375E0,5.137543182E0,9.307404333E0,-3.140527540E0,1.108535243E1
1.727360375E0,5.009115522E0,9.309988217E0,-3.185760139E0,1.104156631E1
1.737307375E0,4.915045516E0,9.538703227E0,-3.348587261E0,1.124088824E1
1.747253375E0,4.870585043E0,9.703170201E0,-3.661012179E0,1.145762282E1
1.757199375E0,5.060070498E0,9.870216966E0,-3.926024657E0,1.176601742E1
1.767146375E0,5.247697123E0,1.049499897E1,-3.876403723E0,1.235758206E1
1.777092375E0,5.424163753E0,1.133763187E1,-3.544456706E0,1.305858423E1
1.787039375E0,5.681019657E0,1.171704249E1,-3.392275317E0,1.345624765E1
1.796985375E0,5.850640367E0,1.172349314E1,-3.291059722E0,1.350930635E1
1.806931375E0,6.030263323E0,1.144089019E1,-3.395659978E0,1.337118359E1
1.816877875E0,6.226314032E0,1.120129936E1,-3.530281593E0,1.329281693E1
1.826823875E0,6.212985304E0,1.110879056E1,-3.439780143E0,1.318478295E1
1.836769875E0,6.157358403E0,1.099690292E1,-3.193623767E0,1.300169870E1
1.846716875E0,6.135382227E0,1.093359862E1,-2.828604898E0,1.285252892E1
1.856662875E0,6.133740329E0,1.092760055E1,-2.346950448E0,1.274925098E1
1.866609875E0,6.282195872E0,1.104997108E1,-1.865478725E0,1.284709526E1
1.876555875E0,6.453507012E0,1.121895912E1,-1.353309411E0,1.301323337E1
1.886501875E0,6.624030531E0,1.138392076E1,-5.644963387E-1,1.318294689E1
1.896448875E0,6.624232845E0,1.143888693E1,5.711042771E-1,1.323082594E1
1.906394875E0,6.233783850E0,1.119074747E1,2.195911606E0,1.299672720E1
1.916341875E0,5.333480455E0,1.094517026E1,4.048208075E0,1.283085166E1
1.926287875E0,3.721428827E0,1.095665302E1,8.410328600E0,1.430492590E1
1.936233875E0,9.593304527E-1,1.016326538E1,1.775546560E1,2.048093838E1
1.946180875E0,-3.905438365E0,7.895610486E0,2.739340543E1,2.877484622E1
1.956126875E0,-8.883640827E0,4.027660959E0,3.246066801E1,3.389448472E1
1.966073875E0,-1.695532793E1,-4.737759107E0,2.902355770E1,3.394549172E1
1.976019875E0,-3.099603638E1,-2.089486141E1,2.630038307E1,4.570623212E1
1.985965875E0,-5.195560776E1,-7.537572724E1,2.376532974E1,9.458158559E1
1.995912875E0,-7.312123268E0,-7.466969700E1,2.397480040E1,7.876434378E1
2.005858875E0,7.106142232E0,-3.966039609E1,3.135675813E0,4.041381866E1
2.015805875E0,-4.426691035E0,-1.948762488E1,-1.019364985E1,2.243376060E1
2.025751875E0,-4.509197295E0,-7.290835310E0,-5.627763217E0,1.025479686E1
2.035697875E0,-1.102065080E0,2.997215500E-1,-4.292895924E0,4.442221951E0
2.045644875E0,-2.730000669E-1,2.943191321E0,-4.951661950E0,5.766789424E0
2.055590875E0,-1.101354058E0,4.156061722E0,-5.601468873E0,7.061323058E0
2.065536875E0,-4.343139294E0,5.265377934E0,-3.115772476E0,7.503006186E0
2.075483875E0,-9.841289620E0,4.165709043E0,2.484042220E0,1.097153494E1
2.085429875E0,-1.077084488E1,-7.875611839E-1,1.417831565E1,1.782290624E1
2.095376875E0,-3.540328279E0,-4.819044760E0,1.164504104E1,1.309061105E1
2.105322875E0,-1.006802242E0,-5.295281764E0,-3.929086259E0,6.670185796E0
2.115268875E0,-4.396660613E0,-7.958034191E-1,-4.109474616E0,6.070560868E0
2.125215875E0,-2.757714132E0,2.191918250E0,1.667680868E0,3.897518740E0
2.135161875E0,-1.191480702E0,2.564320398E0,2.718715543E0,3.922598573E0
2.145108875E0,1.548459649E-2,1.920985758E0,2.049788225E0,2.809280659E0
2.155054875E0,8.269044667E-1,1.945655161E-1,2.899813167E0,3.021678861E0
2.165000875E0,1.972544752E0,-1.489780063E0,3.219074650E0,4.058672078E0
2.174947875E0,2.074100947E0,-9.841891591E-1,1.064542328E0,2.530567803E0
2.184893875E0,1.445527604E0,5.300204243E-1,-1.143587912E0,1.917880345E0
2.194840875E0,1.093711163E0,-9.876254216E-2,-1.409972439E0,1.787171068E0
2.204786875E0,1.013601385E0,-5.247723290E-1,-1.615868690E0,1.978333993E0
2.214732875E0,6.810889417E-1,-2.425395817E-2,-1.667920019E0,1.801784557E0
2.224679875E0,8.303514004E-2,-9.124378297E-1,-1.475556564E0,1.736866374E0
2.234625875E0,-1.141312176E0,-1.669742304E0,-1.065876077E0,2.286203109E0
2.244572875E0,-1.955479653E0,-2.136191361E0,-2.032714355E-1,2.903193669E0
2.254518875E0,-2.114915682E0,-1.478002455E0,9.445270568E-1,2.747633702E0
2.264464875E0,-2.028478047E0,-8.521045775E-1,1.706991114E0,2.784712564E0
2.274411875E0,-1.776000538E0,-4.652436537E-1,2.495943058E0,3.098444984E0
2.284357875E0,-1.440606587E0,-2.938836899E-1,2.886710726E0,3.239569999E0
2.294303875E0,-1.484612147E0,-1.292882238E0,2.978824253E0,3.570575814E0
2.304250875E0,-1.203525381E0,-2.010556331E0,2.702563779E0,3.576962550E0
2.314196875E0,-1.309968680E0,-2.412184618E0,2.354765545E0,3.616569278E0
2.324143875E0,-2.141414094E0,-2.504597814E0,2.079408465E0,3.896486122E0
2.334089875E0,-2.222257113E0,-2.364706688E0,1.776375929E0,3.699429123E0
2.344035875E0,-2.881002674E0,-1.718264838E0,1.684723163E0,3.753785103E0
2.353982875E0,-2.759974081E0,-1.057959094E0,1.507293497E0,3.317931292E0
2.363928875E0,-2.335279698E0,-6.569788250E-1,1.380153394E0,2.791052819E0
2.373875875E0,-1.594462618E0,-4.765980694E-1,1.328768063E0,2.129573038E0
2.383821875E0,-8.872489017E-1,-4.517376088E-1,1.407863933E0,1.724342871E0
2.393767875E0,-5.319112676E-1,-4.375785761E-1,1.409228089E0,1.568543405E0
2.403714875E0,-3.867178863E-1,-5.340811694E-1,1.315408344E0,1.471425340E0
2.413660875E0,-5.107004929E-1,-6.282355209E-1,1.031951702E0,1.311647505E0
2.423607875E0,-8.229698753E-1,-8.092061875E-1,8.915430969E-1,1.458404321E0
2.433553875E0,-1.357839834E0,-7.660426263E-1,1.122782350E0,1.921247127E0
2.443499875E0,-1.958681003E0,-5.850311753E-1,1.405981715E0,2.481023444E0
2.453446875E0,-2.333660020E0,-5.729970208E-1,1.594902329E0,2.884095718E0
2.463392875E0,-2.341657841E0,-6.725739339E-1,1.681933456E0,2.960509634E0
2.473338875E0,-2.185661144E0,-8.757673091E-1,1.690472145E0,2.898582255E0
2.483285875E0,-2.187451562E0,-8.315228900E-1,1.663144013E0,2.870961975E0
2.493231875E0,-2.170378277E0,-6.969100454E-1,1.675988007E0,2.829339371E0
2.503178875E0,-2.134644772E0,-6.161643827E-1,1.733214707E0,2.817871550E0
2.513124875E0,-1.818572361E0,-5.816047069E-1,1.665506873E0,2.533650057E0
2.523070875E0,-1.502480654E0,-6.466277915E-1,1.618727978E0,2.301272666E0
2.533017875E0,-1.279122278E0,-6.508819333E-1,1.683743754E0,2.212418162E0
2.542963875E0,-1.167846841E0,-5.796713251E-1,1.638893271E0,2.094243597E0
2.552910875E0,-1.189548197E0,-5.709510800E-1,1.567155536E0,2.048654808E0
2.562856875E0,-1.244978632E0,-6.035443372E-1,1.361932885E0,1.941416685E0
2.572802875E0,-1.119462885E0,-5.534845698E-1,8.911197585E-1,1.534156688E0
2.582749875E0,-9.786040449E-1,-6.387029140E-1,6.433749855E-1,1.333993501E0
2.592695875E0,-9.793641829E-1,-7.309110197E-1,4.478195357E-1,1.301509684E0
2.602642875E0,-8.373060787E-1,-6.845975634E-1,2.186233002E-1,1.103427134E0
2.612588875E0,-9.741899818E-1,-8.811110795E-1,4.139179641E-1,1.377218551E0
2.622534875E0,-1.388173435E0,-9.586074445E-1,-1.628040254E-2,1.687074026E0
2.632481875E0,-1.093507095E0,-6.945229197E-1,-5.298284894E-1,1.399584967E0
2.642427875E0,-1.139425864E0,-4.952129728E-1,-4.598449194E-1,1.324758294E0
2.652374875E0,-1.155377653E0,-4.052880585E-2,-4.263737029E-1,1.232207223E0
2.662320875E0,-2.289301872E-1,7.979356062E-1,-7.982443392E-1,1.151652850E0
2.672266875E0,2.219608909E-1,1.207324317E0,-5.090287739E-1,1.328912690E0
2.682213875E0,-2.338535428E-2,9.462736201E-1,6.513716376E-1,1.149028132E0
2.692159875E0,-4.364987415E-1,4.372471851E-1,1.688972334E0,1.798428147E0
2.702106875E0,-9.800032836E-1,4.287821710E-2,1.917861591E0,2.154167602E0
2.712052875E0,-1.453943793E0,-3.319160271E-1,2.006772598E0,2.500251400E0
2.721998875E0,-1.202442184E0,-5.805805671E-1,2.218562842E0,2.589394154E0
2.731945875E0,-8.056015983E-1,-9.360053247E-1,1.914808760E0,2.278506636E0
2.741891875E0,-6.098090440E-1,-1.709366838E0,1.901781163E0,2.628796997E0
2.751837875E0,-1.226580368E0,-3.087097145E0,2.624795226E0,4.233700292E0
2.761784875E0,-2.110940745E0,-4.193329536E0,4.284100542E0,6.355596029E0
2.771730875E0,-2.866503626E0,-5.303445647E0,5.497491345E0,8.158786053E0
2.781677875E0,-3.289388587E0,-7.637387502E0,7.862703525E0,1.144429429E1
2.791623875E0,-1.698032741E0,-9.144297422E0,1.008882565E1,1.372173070E1
2.801569875E0,-2.790004796E-1,-9.982806273E0,7.648007215E0,1.257880267E1
2.811516875E0,-2.437421200E0,-1.656643079E1,7.421950350E0,1.831592199E1
2.821462917E0,-3.082119703E0,-2.045092677E1,1.061562703E1,2.324718058E1
2.831409917E0,-5.169532129E0,-1.830013842E1,1.071364274E1,2.182661837E1
2.841355917E0,-5.500184573E0,-1.138420377E1,8.671863447E0,1.533144942E1
2.851301917E0,-3.505351989E0,-1.393977381E0,4.740346500E0,6.058180457E0
2.861248917E0,-2.583730523E0,1.120202558E0,2.293145832E0,3.631671102E0
2.871194917E0,-1.173757791E0,5.137506929E0,-1.584084688E0,5.502818287E0
2.881141917E0,9.665950334E-1,3.881047289E0,-5.063572980E0,6.452643284E0
2.891087917E0,1.003835716E1,-6.236705704E0,-4.325686232E0,1.258477945E1
2.901033917E0,7.349461833E0,-1.151504575E1,-1.184213490E0,1.371179162E1
2.910980917E0,-1.440269203E0,-7.733603436E0,-2.708880526E-1,7.871237375E0
2.920926917E0,1.824003839E-1,-5.071718152E0,2.177620053E-2,5.075043755E0
2.930872917E0,-9.838485588E-1,-1.239060080E0,8.495858163E-2,1.584438648E0
2.940819917E0,-2.117395194E0,3.193611195E0,-7.983870113E-1,3.914069071E0
2.950765917E0,-2.866841595E0,6.152957788E0,-1.249444735E0,6.902085367E0
2.960712917E0,-3.038496843E0,8.055915996E0,-1.010132086E0,8.668945289E0
2.970658917E0,-2.711770220E0,9.408338385E0,-6.572831726E-1,9.813386268E0
2.980604917E0,-2.177758925E0,9.926568922E0,-3.228138126E-1,1.016777327E1
2.990551917E0,-2.048809839E0,1.008433499E1,3.268861791E-1,1.029554702E1
3.000497917E0,-2.053004193E0,1.036994107E1,1.213658460E0,1.064065180E1
3.010444917E0,-1.973922940E0,1.062895401E1,2.677396778E0,1.113730167E1
3.020390917E0,-1.882090957E0,1.059360408E1,3.876043242E0,1.143636415E1
3.030336917E0,-1.939586044E0,1.060434659E1,4.140891706E0,1.154820959E1
3.040283917E0,-2.261350135E0,1.056468141E1,3.483707351E0,1.135175822E1
3.050229917E0,-2.922104507E0,1.037423994E1,2.719161100E0,1.111563701E1
3.060176917E0,-3.476482531E0,1.008518868E1,1.747915630E0,1.080981825E1
3.070122917E0,-4.111294270E0,9.988634777E0,5.042132995E-1,1.081340817E1
3.080068917E0,-5.579693842E0,1.003376125E1,-4.384904493E-1,1.148919588E1
3.090015917E0,-6.400706654E0,1.028263746E1,-1.469996739E0,1.220092493E1
3.099961917E0,-5.454869821E0,1.009335373E1,-2.199694462E0,1.168203964E1
3.109908917E0,-4.179610506E0,9.865733321E0,-3.063445158E0,1.114390121E1
3.119854917E0,-3.091190196E0,1.003039676E1,-4.098703168E0,1.126781628E1
3.129800917E0,-2.207481491E0,1.021681652E1,-4.531899694E0,1.139273581E1
3.139747917E0,-1.032855681E0,1.030101058E1,-4.478485964E0,1.127982475E1
3.149693917E0,-2.170840389E-1,1.032950874E1,-4.592264302E0,1.130640383E1
3.159639917E0,4.346662241E-1,1.049349039E1,-4.737486627E0,1.152154742E1
3.169586917E0,8.673360626E-1,1.048050022E1,-4.749455878E0,1.153908522E1
3.179532917E0,1.171188817E0,1.060186503E1,-4.679669359E0,1.164776934E1
3.189479917E0,1.478506338E0,1.055041888E1,-4.616916456E0,1.161091027E1
3.199425917E0,1.604975473E0,1.127551690E1,-4.683783167E0,1.231466818E1
3.209371917E0,1.702521210E0,1.259170175E1,-4.805116985E0,1.358450149E1
3.219318917E0,1.917839079E0,1.296653049E1,-4.695009529E0,1.392307919E1
3.229264917E0,2.137192258E0,1.279205893E1,-4.463080597E0,1.371581025E1
3.239211917E0,2.523237861E0,1.246134977E1,-4.335264848E0,1.343303721E1
3.249157917E0,2.768828812E0,1.192317438E1,-4.279426278E0,1.296695761E1
3.259103917E0,2.750000485E0,1.137190825E1,-4.154747853E0,1.241550360E1
3.269050917E0,2.594189730E0,1.101779151E1,-3.980853998E0,1.199869779E1
3.278996917E0,2.310143980E0,1.103859123E1,-3.806187142E0,1.190270230E1
3.288943917E0,1.877897919E0,1.131483591E1,-3.637307567E0,1.203253999E1
3.298889917E0,1.658477350E0,1.161114123E1,-3.463343545E0,1.222963189E1
3.308835917E0,1.633389433E0,1.190108243E1,-3.225044657E0,1.243803188E1
3.318782917E0,1.552795213E0,1.200028044E1,-2.859650104E0,1.243364397E1
3.328728917E0,1.433261607E0,1.197720265E1,-2.555847490E0,1.233044925E1
3.338675917E0,1.316421082E0,1.191616006E1,-2.316320394E0,1.221037163E1
3.348621917E0,1.213804201E0,1.193255332E1,-2.128437368E0,1.218151858E1
3.358567917E0,8.790094440E-1,1.210807270E1,-1.468396356E0,1.222842058E1
3.368514917E0,1.631792705E-1,1.212002791E1,-9.788239002E-3,1.212113031E1
3.378460917E0,-1.207565222E0,1.188130130E1,1.577824074E0,1.204628836E1
3.388407917E0,-3.248965616E0,1.125512999E1,4.270373619E0,1.246875373E1
3.398353917E0,-4.564494121E0,9.398553654E0,1.028557627E1,1.466153118E1
3.408299917E0,-4.779711125E0,6.487796254E0,2.007515428E1,2.163212792E1
3.418246917E0,-5.458389260E0,1.965800573E0,2.460436309E1,2.527910339E1
3.428192917E0,-6.675356221E0,-3.924828901E0,2.575766790E1,2.689650755E1
3.438138917E0,-5.251538744E0,-9.047284513E0,2.305154609E1,2.531414217E1
3.448085917E0,-7.959169720E0,-3.474937112E1,3.043158126E1,4.687161523E1
3.458031917E0,-6.579018665E0,-6.686053468E1,3.626316848E1,7.634547774E1
3.467978917E0,6.713130988E0,-5.561770957E1,2.673204090E1,6.207252013E1
3.477924917E0,2.036467975E0,-3.862375960E1,9.119630942E0,3.973801299E1
3.487870917E0,-3.812365310E0,-2.283084177E1,-5.417593821E0,2.377250067E1
3.497817917E0,-2.862362920E0,-1.358936889E1,-6.326699615E0,1.526077312E1
3.507763917E0,-1.320741005E0,-7.415493854E0,-5.713443053E-1,7.553829507E0
3.517710917E0,-3.355285538E0,-2.352260597E0,3.013647931E0,5.086565129E0
3.527656917E0,-9.184468963E0,1.456368049E0,3.002150550E0,9.771815898E0
3.537602917E0,-8.919716393E0,5.176313145E0,-2.229075551E0,1.055103484E1
3.547549917E0,-5.729110082E0,6.719334299E0,4.383540630E-2,8.830293160E0
3.557495917E0,-7.206390406E0,6.123883093E0,2.021577163E0,9.670614306E0
3.567441917E0,-7.092436944E0,5.506376774E0,1.443276426E0,9.094278081E0
3.577388917E0,-3.156246318E0,4.019320491E0,3.025476848E0,5.938883581E0
3.587334917E0,-2.086669537E0,1.778137110E0,3.160927598E0,4.184187451E0
3.597281917E0,-4.583375072E-1,5.686785597E-1,1.326778255E0,1.514532638E0
3.607227917E0,4.947697538E-1,4.160802644E-1,1.797896022E-1,6.710023821E-1
3.617173917E0,7.427408141E-1,4.529338029E-1,5.831971961E-1,1.047345175E0
3.627120917E0,-1.227108371E-1,-6.514850736E-2,1.730882837E0,1.736449733E0
3.637066917E0,-8.890855122E-1,-1.300695580E0,2.026340890E0,2.566776080E0
3.647013917E0,-1.601120258E0,-2.147195090E0,1.204093146E0,2.936643175E0
3.656959917E0,-2.429392973E0,-2.476420667E0,4.779783046E-1,3.501867044E0
3.666905917E0,-2.428421166E0,-2.088364938E0,1.855344915E-1,3.208258175E0
3.676852917E0,-2.743273264E0,-2.357721166E0,6.901907176E-1,3.682493791E0
3.686798917E0,-2.448775908E0,-2.033435317E0,9.036503416E-1,3.308768136E0
3.696745917E0,-2.187605928E0,-4.354746017E-1,7.048783386E-1,2.339254432E0
3.706691917E0,-2.176179299E0,2.155331929E-1,4.762498677E-1,2.238085083E0
3.716637917E0,-1.905038062E0,-6.158170581E-2,1.834289092E-1,1.914839025E0
3.726584917E0,-1.451851952E0,-6.521446395E-1,1.030256009E-1,1.594923508E0
3.736530917E0,-7.033715111E-1,-1.020611904E0,1.276727843E-1,1.246066002E0
3.746477917E0,2.373396528E-1,-1.091766671E0,2.436096221E-1,1.143516604E0
3.756423917E0,9.671844327E-1,-9.339403805E-1,1.687646770E-1,1.355054197E0
3.766369917E0,6.679157495E-1,-1.326136523E0,2.724147606E-1,1.509622247E0
3.776316917E0,2.746402109E-1,-1.756017678E0,5.720214128E-1,1.867145905E0
3.786262917E0,-6.858719641E-1,-1.740812871E0,7.280941236E-1,2.007727784E0
3.796209917E0,-1.369868141E0,-2.029480260E0,7.264399463E-1,2.554025029E0
3.806155917E0,-2.286902175E0,-1.707507716E0,4.958210832E-1,2.896781439E0
3.816102000E0,-2.344158695E0,-1.512201065E0,1.866612500E-1,2.795831624E0
3.826049000E0,-1.991304958E0,-1.297101297E0,3.340894371E-1,2.399871447E0
3.835995000E0,-1.240655200E0,-3.237471744E-1,1.904022986E-1,1.296260234E0
3.845941000E0,-5.486863446E-1,-6.560187122E-1,3.313090861E-2,8.558708505E-1
3.855888000E0,-1.975335628E-1,-6.774812096E-1,3.799169898E-2,7.067132849E-1
3.865834000E0,1.137622583E-1,-5.243657282E-1,6.217987597E-2,5.401551678E-1
3.875781000E0,3.005188179E-1,-2.089756867E-1,8.379937112E-2,3.755059682E-1
3.885727000E0,2.431155324E-1,-8.823623836E-2,8.660311103E-2,2.727469426E-1
3.895673000E0,2.874882978E-1,-1.803290078E-1,2.583592236E-2,3.403462462E-1
3.905620000E0,2.277467108E-1,-3.566792777E-1,-2.914427698E-2,4.241910658E-1
3.915566000E0,-1.781664151E-1,-4.615248245E-1,1.552704728E-1,5.185145657E-1
3.925513000E0,-8.724443364E-1,-5.797566944E-1,4.370472103E-1,1.135027404E0
3.935459000E0,-1.498713877E0,-6.179156238E-1,7.468011206E-1,1.784845909E0
3.945405000E0,-1.803135712E0,-6.393047386E-1,1.024454986E0,2.170142153E0
3.955352000E0,-1.825818231E0,-5.396819614E-1,1.273843997E0,2.290752575E0
3.965298000E0,-1.618798145E0,-3.399618324E-1,1.398583817E0,2.166129769E0
3.975244000E0,-1.361140003E0,-3.213775903E-1,1.335277183E0,1.933636682E0
3.985191000E0,-1.098433374E0,-4.833779159E-1,1.403207211E0,1.846402059E0
3.995137000E0,-1.052815737E0,-4.539509261E-1,1.653530606E0,2.012127204E0
4.005084000E0,-1.243907422E0,-3.154113838E-1,1.834381478E0,2.238692793E0
4.015030000E0,-1.554770549E0,-2.683398360E-1,1.980215129E0,2.531910284E0
4.024976000E0,-1.823526707E0,-2.289810580E-1,2.036827871E0,2.743419354E0
4.034923000E0,-1.972653510E0,-2.019841710E-1,2.052134712E0,2.853667176E0
4.044869000E0,-1.788504224E0,-1.155848354E-1,2.097054192E0,2.758576354E0
4.054816000E0,-1.410656564E0,1.856432498E-2,2.207417464E0,2.619730604E0
4.064762000E0,-1.191269617E0,2.472492215E-1,2.282658266E0,2.586655029E0
4.074708000E0,-1.179038996E0,4.346340644E-1,2.112643454E0,2.458109454E0
4.084655000E0,-1.209545674E0,4.638622490E-1,1.827970006E0,2.240456040E0
4.094601000E0,-1.338800715E0,3.869894895E-1,1.529774287E0,2.069385800E0
4.104548000E0,-1.430540020E0,1.972540659E-1,1.340939042E0,1.970652539E0
4.114494000E0,-1.435295561E0,-4.175785404E-2,1.204738678E0,1.874356516E0
4.124440000E0,-1.284954291E0,-3.655728562E-1,1.007886316E0,1.673495106E0
4.134387000E0,-1.182423949E0,-7.812187091E-1,8.444654095E-1,1.649712367E0
4.144333000E0,-9.085719430E-1,-1.136014306E0,6.527200055E-1,1.594388562E0
4.154279000E0,-8.485502744E-1,-1.296008160E0,5.896840972E-1,1.657528900E0
4.164226000E0,-9.558361566E-1,-1.916745942E0,5.722167099E-1,2.216973101E0
4.174172000E0,-8.273611343E-1,-2.400474253E0,3.830113363E-1,2.567781293E0
4.184119000E0,-8.072858888E-1,-2.630864636E0,3.191287512E-1,2.770379468E0
4.194065000E0,-8.101808453E-1,-2.811361166E0,3.381959367E-1,2.945253996E0
4.204011000E0,-5.545101714E-1,-2.630574029E0,3.172997421E-1,2.707042737E0
4.213958000E0,-2.901663226E-1,-2.474676150E0,2.276093012E-1,2.502004104E0
4.223904000E0,-4.552525163E-2,-2.203506846E0,6.932634294E-2,2.205067145E0
4.233851000E0,1.504587990E-1,-1.698566153E0,-4.075199407E-1,1.753236245E0
4.243797000E0,3.482917392E-1,-1.261286516E0,-6.901187968E-1,1.479329161E0
4.253743000E0,1.988322294E-1,-9.358708388E-1,-9.325390953E-1,1.336045526E0
4.263690000E0,-3.343964159E-2,-5.965653929E-1,-1.357384336E0,1.483071378E0
4.273636000E0,-2.410169667E-1,-3.281252772E-1,-1.370994900E0,1.430168658E0
4.283583000E0,-5.120991468E-3,1.466528463E-1,-1.086080546E0,1.095949011E0
4.293529000E0,1.177585378E-1,6.939662647E-1,-8.532198608E-1,1.106092392E0
4.303475000E0,3.032836738E-1,8.768736023E-1,-7.279707474E-1,1.179334435E0
4.313422000E0,6.274889776E-1,5.990601075E-1,-8.067321575E-1,1.184665439E0
4.323368000E0,6.747075829E-1,4.619569337E-1,-6.680847341E-1,1.055922224E0
4.333315000E0,7.045906556E-1,5.037855756E-1,-3.229206705E-1,9.244055698E-1
4.343261000E0,9.769551301E-1,6.279751736E-1,-3.946566510E-1,1.226600186E0
4.353207000E0,1.261140043E0,6.211894798E-1,-7.972444654E-1,1.616152628E0
4.363154000E0,9.504830307E-1,3.813542354E-1,-7.497773534E-1,1.269257706E0
4.373100000E0,3.518138096E-1,-2.930566013E-2,-1.492513490E-1,3.832854595E-1
4.383047000E0,-3.198888892E-1,-7.532137620E-1,7.541843998E-1,1.112858473E0
4.392993000E0,-1.643746606E0,-1.717341270E0,2.194160657E0,3.235043266E0
4.402939000E0,-2.855557930E0,-2.456417634E0,3.685576624E0,5.269883656E0
4.412886000E0,-3.535259913E0,-2.901447464E0,4.641542589E0,6.516162800E0
4.422832000E0,-3.753310478E0,-4.010164336E0,6.764132742E0,8.713337437E0
4.432778000E0,-3.649065440E0,-6.711397288E0,9.576052902E0,1.224987026E1
4.442725000E0,-3.427778441E0,-8.969310138E0,9.118436356E0,1.324175483E1
4.452671000E0,-2.772235985E0,-1.288684230E1,6.573260912E0,1.472968960E1
4.462618000E0,-3.778583021E0,-1.745163024E1,7.819446409E0,1.949309698E1
4.472564000E0,-4.658453029E0,-1.878366339E1,1.215679053E1,2.285420642E1
4.482510000E0,-8.023311337E0,-1.535238042E1,1.359478926E1,2.202015904E1
4.492457000E0,-8.120560473E0,-6.242893227E0,1.149594874E1,1.539720935E1
4.502403000E0,-5.800275959E0,-1.831657845E-1,6.439858441E0,8.668825044E0
4.512350000E0,-3.982861932E0,1.299119171E0,2.533930956E0,4.896090878E0
4.522296000E0,-2.530193709E0,2.937073379E0,-2.411900443E-1,3.884128329E0
4.532242000E0,-7.160181615E-1,4.697306900E0,-2.422149442E0,5.333308733E0
4.542189000E0,2.875192881E0,4.180252238E0,-3.515392536E0,6.172457173E0
4.552135000E0,9.791828023E0,-3.274381709E0,-2.928156083E0,1.073198815E1
4.562082000E0,6.420498894E0,-5.921907400E0,-2.349691916E-1,8.737677256E0
4.572028000E0,-1.287495199E0,-2.648208647E0,-8.968260562E-1,3.078140656E0
4.581974000E0,-9.756066160E-1,-9.479973793E-2,-8.401557192E-1,1.290990663E0
4.591921000E0,-1.155118183E0,1.997212400E0,-4.566713431E-1,2.351957505E0
4.601867000E0,-1.776809500E0,4.403978403E0,-3.481391269E-1,4.761646630E0
4.611813000E0,-2.326895961E0,6.503805345E0,-4.074345714E-1,6.919532622E0
4.621760000E0,-2.452315667E0,8.022213814E0,-5.505540915E-1,8.406716149E0
4.631706000E0,-2.168921151E0,9.117633533E0,-5.909459263E-1,9.390669694E0
4.641653000E0,-2.086623198E0,9.787582360E0,-4.315386946E-1,1.001683535E1
4.651599000E0,-2.106341325E0,1.018858616E1,3.491194126E-1,1.040989175E1
4.661545000E0,-2.243469934E0,1.044027605E1,1.315740758E0,1.075935384E1
4.671492000E0,-2.569946589E0,1.049236188E1,1.995344654E0,1.098524845E1
4.681438000E0,-2.849006710E0,1.049891076E1,2.380144799E0,1.113593533E1
4.691385000E0,-3.159983566E0,1.043813129E1,2.192148630E0,1.112409981E1
4.701331000E0,-3.370138343E0,1.020289664E1,1.735871097E0,1.088440080E1
4.711277000E0,-3.143735615E0,1.000110338E1,2.567189334E-1,1.048670811E1
4.721224000E0,-2.829444265E0,1.000769553E1,-1.226669830E0,1.047207924E1
4.731170000E0,-2.454395667E0,1.007463562E1,-2.170986095E0,1.059412675E1
4.741117000E0,-2.118313061E0,1.007636406E1,-2.834669630E0,1.067968702E1
4.751063000E0,-1.932283017E0,9.857175336E0,-3.282418999E0,1.056749250E1
4.761009000E0,-1.728834704E0,9.828740326E0,-3.628988148E0,1.061897174E1
4.770956000E0,-1.582781928E0,9.915584342E0,-3.802691676E0,1.073706084E1
4.780902000E0,-1.456079197E0,9.906123548E0,-3.776761321E0,1.070118575E1
4.790849000E0,-1.291945514E0,9.927159491E0,-3.967736939E0,1.076849828E1
4.800795000E0,-1.093531361E0,9.939481913E0,-4.216258807E0,1.085200211E1
4.810741000E0,-8.838274766E-1,9.919853979E0,-4.329013298E0,1.085932825E1
4.820688167E0,-7.296713369E-1,9.859853361E0,-4.300101740E0,1.078146574E1
4.830634167E0,-6.127712435E-1,9.771523567E0,-4.233105220E0,1.066664620E1
4.840581167E0,-5.348384569E-1,9.708522157E0,-4.191371596E0,1.058815614E1
4.850527167E0,-4.862635168E-1,9.678465714E0,-4.199956770E0,1.056166595E1
4.860473167E0,-4.170983012E-1,9.711903017E0,-4.214120188E0,1.059499128E1
4.870420167E0,-3.824491631E-1,9.703522788E0,-4.265029556E0,1.060637068E1
4.880366167E0,-3.437454560E-1,9.681634321E0,-4.298605438E0,1.059859485E1
4.890312167E0,-3.498838630E-1,9.648440262E0,-4.373768179E0,1.059927669E1
4.900259167E0,-3.283013514E-1,9.576871512E0,-4.436444483E0,1.055965385E1
4.910205167E0,-3.394633572E-1,9.566752905E0,-4.464649405E0,1.056272175E1
4.920152167E0,-3.716633891E-1,9.543982093E0,-4.470068020E0,1.054548415E1
4.930098167E0,-4.320034021E-1,9.511849304E0,-4.399661404E0,1.048899064E1
4.940044167E0,-4.950434766E-1,9.528309801E0,-4.258954591E0,1.044856210E1
4.949991167E0,-5.281351358E-1,9.568960229E0,-4.011650113E0,1.038928598E1
4.959937167E0,-5.646080205E-1,9.634048510E0,-3.745914043E0,1.035207926E1
4.969884167E0,-6.185777479E-1,9.631676295E0,-3.400526323E0,1.023305458E1
4.979830167E0,-6.429326436E-1,9.615132768E0,-3.055859565E0,1.010952117E1
4.989776167E0,-7.022719422E-1,9.635091069E0,-2.789857446E0,1.005541995E1
4.999723167E0,-7.062454176E-1,9.617951126E0,-2.626947001E0,9.995229712E0
5.009669167E0,-9.012790033E-1,9.610242156E0,-1.630736990E0,9.789196151E0
5.019616167E0,-1.956826559E0,1.007031453E1,4.107186893E0,1.105031172E1
5.029562167E0,-4.266027383E0,9.717894074E0,1.578874760E1,1.902422155E1
5.039508167E0,-9.606943157E0,5.428836263E0,2.900737962E1,3.103536197E1
5.049455167E0,-1.799271638E1,-4.539943124E0,3.088766876E1,3.603327639E1
5.059401167E0,-2.243416198E1,-7.167683008E0,3.180070915E1,3.957211652E1
5.069348167E0,-1.434259084E1,-9.202521656E0,2.275300364E1,2.842702044E1
5.079294167E0,-6.438784307E-1,-2.429070207E1,1.216041931E1,2.717220242E1
5.089240167E0,8.317686485E0,-5.502345470E1,1.863105340E1,5.868458593E1
5.099187167E0,1.029793962E1,-5.930400013E1,2.611978129E1,6.561444176E1
5.109133167E0,2.153465205E-1,-4.195905819E1,1.080258825E1,4.332787614E1
5.119079167E0,-9.883899450E-2,-2.178865978E1,-1.702697504E-1,2.178954924E1
5.129026167E0,2.108785461E0,-7.945591900E0,5.954161227E-2,8.220885109E0
5.138972167E0,2.021325441E0,1.104188204E-2,2.103288494E0,2.917139172E0
5.148919167E0,4.908801860E-1,5.327277144E0,-8.063643676E-1,5.410274357E0
5.158865167E0,-2.469685552E0,9.215431139E0,-3.096338085E0,1.003049487E1
5.168811167E0,-4.077472805E0,8.875010337E0,-2.998979605E0,1.021692085E1
5.178758167E0,-5.785059165E0,5.582612772E0,1.816044025E0,8.241995560E0
5.188704167E0,-6.577363903E0,2.337131804E0,2.464268106E0,7.402467040E0
5.198651167E0,-4.119427747E0,-7.516244888E-1,-9.134654778E-1,4.285912214E0
5.208597167E0,-3.758375044E0,-4.767512664E0,-1.439478659E0,6.239123238E0
5.218543167E0,-3.186923150E0,-7.613550743E0,-1.900945011E0,8.469724081E0
5.228490167E0,-1.567347910E0,-6.740284873E0,-5.528910774E-1,6.942168838E0
5.238436167E0,6.839733732E-1,-3.595531842E0,9.176895064E-1,3.773303968E0
5.248383167E0,1.767492254E0,-8.114713258E-1,4.612693012E-1,1.998820640E0
5.258329167E0,2.485339133E0,2.433242780E-1,-1.316057385E0,2.822786628E0
5.268275167E0,2.940319753E0,-1.003771046E-1,-2.634061309E0,3.948902986E0
5.278222167E0,2.571924117E0,-8.782459438E-1,-1.700718221E0,3.206018102E0
5.288168167E0,2.966036977E0,-8.158231160E-1,-1.491180325E0,3.418561315E0
5.298115167E0,1.075116432E0,-1.403464635E0,-2.336567840E0,2.930040545E0
5.308061167E0,8.569053608E-1,-1.511102519E0,-1.860881644E0,2.545701890E0
5.318007167E0,2.547023749E-1,-1.761708042E0,-5.347892672E-1,1.858625322E0
5.327954167E0,-3.824307078E-1,-1.897052812E0,7.351704240E-1,2.070154142E0
5.337900167E0,-1.071788197E0,-2.175239359E0,1.672794843E0,2.945952952E0
5.347846167E0,-1.412245252E0,-1.868987054E0,1.973623563E0,3.063125729E0
5.357793167E0,-1.713408433E0,-1.828142499E0,1.834102566E0,3.105125710E0
5.367739167E0,-1.712600933E0,-2.502133213E0,1.863605862E0,3.559030680E0
5.377686167E0,-1.061262624E0,-2.061856293E0,1.995133131E0,3.059098877E0
5.387632167E0,-9.493246973E-1,-1.782285418E0,1.739308090E0,2.665136267E0
5.397578167E0,-8.360454190E-1,-2.197138644E0,1.612075601E0,2.850469770E0
5.407525167E0,4.511653125E-2,-1.137327006E0,1.184927727E0,1.643046542E0
5.417471167E0,-8.588916600E-2,-1.415997118E0,7.765038067E-1,1.617214565E0
5.427418167E0,4.449742806E-1,-1.553975035E0,5.396980047E-1,1.704146255E0
5.437364167E0,-1.455529851E-1,-1.032126533E0,4.014329892E-1,1.116968799E0
5.447310167E0,-2.497889596E-1,-1.056554446E0,4.227174389E-1,1.165071610E0
5.457257167E0,-5.069331318E-1,-1.118590481E0,5.477893817E-1,1.344730111E0
5.467203167E0,-7.484354174E-1,-5.688831757E-1,5.982871056E-1,1.114329889E0
5.477150167E0,-9.546713912E-1,-5.181021908E-1,7.449574935E-1,1.317113895E0
5.487096167E0,-1.199829356E0,-6.532985875E-1,1.046545182E0,1.720943447E0
5.497042167E0,-1.381063221E0,-6.764728573E-1,1.313302177E0,2.022304071E0
5.506989167E0,-1.437935579E0,-5.486468759E-1,1.236592555E0,1.974293107E0
5.516935167E0,-1.345966478E0,-6.690468934E-1,1.206530850E0,1.927424758E0
5.526881167E0,-1.176761506E0,-6.622688010E-1,1.093465580E0,1.737536929E0
5.536828167E0,-1.136439106E0,-7.655084100E-1,1.002423847E0,1.697748668E0
5.546774167E0,-1.153413574E0,-8.815750560E-1,9.915000790E-1,1.758013043E0
5.556721167E0,-1.264982541E0,-8.301370999E-1,9.936740738E-1,1.810164799E0
5.566667167E0,-1.215803949E0,-8.434161267E-1,9.418648195E-1,1.754035160E0
5.576613167E0,-1.028907056E0,-6.701055318E-1,8.571345717E-1,1.497454783E0
5.586560167E0,-8.917956966E-1,-4.546002594E-1,7.391529626E-1,1.244310276E0
5.596506167E0,-1.016802151E0,-2.745229742E-1,6.010107386E-1,1.212626647E0
5.606453167E0,-1.284374832E0,-1.423045644E-1,5.540581816E-1,1.406004896E0
5.616399167E0,-1.470492291E0,-1.570564865E-1,5.325269794E-1,1.571814016E0
5.626345167E0,-1.506789467E0,-2.026542436E-1,5.402950054E-1,1.613506099E0
5.636292167E0,-1.576131597E0,-2.038494328E-1,6.716146982E-1,1.725343938E0
5.646238167E0,-1.529118814E0,-2.102579811E-1,8.025823885E-1,1.739698611E0
5.656185167E0,-1.357177929E0,-9.729591429E-2,6.638326389E-1,1.513959114E0
5.666131167E0,-1.034552543E0,4.944405556E-3,4.641034466E-1,1.133893920E0
5.676077167E0,-6.784828377E-1,-1.758360073E-1,3.621554875E-1,7.889321008E-1
5.686024167E0,-6.345755106E-1,-3.730748704E-1,5.033581442E-1,8.917625014E-1
5.695970167E0,-1.011064278E0,-4.145725599E-1,6.379721582E-1,1.265357600E0
5.705916167E0,-1.405303438E0,-4.865403825E-1,5.870037335E-1,1.598803515E0
5.715863167E0,-1.401519120E0,-6.866341487E-1,5.671758252E-1,1.660545306E0
5.725809167E0,-1.118476460E0,-9.600768498E-1,6.016615337E-1,1.592084718E0
5.735756167E0,-9.943441647E-1,-1.219478340E0,8.375393826E-1,1.782503845E0
5.745702167E0,-1.070235761E0,-1.250598098E0,8.942398328E-1,1.873249868E0
5.755648167E0,-1.050241792E0,-1.300412867E0,8.746428895E-1,1.886552844E0
5.765595167E0,-1.017035455E0,-1.367241280E0,8.909496045E-1,1.922888720E0
5.775541167E0,-1.034269538E0,-1.514508961E0,9.937863404E-1,2.085919979E0
5.785488167E0,-1.095319147E0,-1.552365882E0,1.071698735E0,2.181307416E0
5.795434167E0,-1.304322608E0,-1.600086178E0,1.175671000E0,2.375654761E0
5.805380167E0,-1.502212851E0,-1.686422071E0,1.102741603E0,2.513304974E0
5.815327167E0,-1.443527856E0,-1.685770691E0,9.246512014E-1,2.404282708E0
5.825273375E0,-1.325900588E0,-1.664772755E0,7.278725141E-1,2.249284129E0
5.835220375E0,-1.207801450E0,-1.784548436E0,4.153522861E-1,2.194519306E0
5.845166375E0,-9.053933966E-1,-1.869540932E0,1.376440412E-1,2.081794029E0
5.855112375E0,-2.600321120E-1,-1.767437437E0,-2.277829635E-1,1.800926670E0
5.865059375E0,1.999700975E-1,-1.809606387E0,-5.288052267E-1,1.895863466E0
5.875005375E0,5.013092798E-1,-2.069183439E0,-8.227722394E-1,2.282495401E0
5.884952375E0,9.072937417E-1,-2.215643327E0,-9.293605489E-1,2.568261731E0
5.894898375E0,1.065742176E0,-2.205307789E0,-7.407422358E-1,2.558884110E0
5.904844375E0,1.346952903E0,-2.241230743E0,-6.376493919E-1,2.691466907E0
5.914791375E0,1.243572376E0,-2.303202458E0,-5.749853665E-1,2.679892160E0
5.924737375E0,9.873818851E-1,-2.168141717E0,-7.347084939E-1,2.493102096E0
5.934684375E0,6.978909159E-1,-1.843621833E0,-1.063194544E0,2.239726731E0
5.944630375E0,1.594965479E-1,-1.519688132E0,-1.294614476E0,2.002727592E0
5.954576375E0,-1.841589341E-1,-1.146395745E0,-1.568109802E0,1.951180686E0
5.964523375E0,-3.699892947E-1,-8.694733661E-1,-1.732043509E0,1.973030849E0
5.974469375E0,-4.229159519E-1,-5.365539569E-1,-1.475981657E0,1.626428573E0
5.984415375E0,-6.437609017E-1,-8.308659554E-2,-4.176367933E-1,7.718497082E-1
5.994362375E0,-9.238811231E-1,1.760497230E-1,1.050853411E0,1.410263353E0
6.004308375E0,-5.774289179E-1,6.890382314E-1,1.666324899E0,1.893366448E0
6.014255375E0,-6.411705852E-1,1.051286690E0,1.862618852E0,2.232857454E0
6.024201375E0,-7.402265114E-1,1.251683049E0,1.917518944E0,2.406558673E0
6.034147375E0,-8.247795886E-1,1.520091882E0,1.944345385E0,2.602195165E0
6.044094375E0,-1.129253463E0,1.761571949E0,2.126797224E0,2.983557532E0
6.054040375E0,-1.437257887E0,2.029856236E0,2.511593131E0,3.534703188E0
6.063987375E0,-1.696305912E0,2.190766933E0,2.813173803E0,3.948526352E0
6.073933375E0,-1.661260040E0,2.044525731E0,2.807282149E0,3.849766674E0
6.083879375E0,-1.460253816E0,1.639783217E0,3.075774597E0,3.779103012E0
6.093826375E0,-1.698965226E0,1.101599057E0,3.559990126E0,4.095550393E0
6.103772375E0,-1.842631168E0,6.526960319E-1,3.715917826E0,4.198731597E0
6.113719375E0,-2.226690764E0,-1.510195470E-1,3.970891512E0,4.555100225E0
6.123665375E0,-2.576972018E0,-1.557263802E0,4.025864987E0,5.027270057E0
6.133611375E0,-1.771492627E0,-2.712242090E0,4.484920825E0,5.532536316E0
6.143558375E0,-3.075993868E0,-7.291029437E0,7.074297127E0,1.061444904E1
6.153504375E0,-1.331568587E0,-1.894575405E1,6.173565715E0,1.997066812E1
6.163451375E0,6.400058198E-1,-2.843295851E1,6.117385082E0,2.909063660E1
6.173397375E0,7.888952261E-1,-3.267863817E1,1.191609457E1,3.479237069E1
6.183343375E0,1.412936101E0,-3.013384806E1,1.328162642E1,3.296129226E1
6.193290375E0,-3.098828414E0,-2.058899122E1,1.027247851E1,2.321708663E1
6.203236375E0,-3.693262205E0,-1.158098129E1,6.165795350E0,1.362997966E1
6.213182375E0,-2.791871812E0,-5.016267836E-1,8.482965052E-1,2.960706774E0
6.223129375E0,-2.156884657E0,2.058308787E0,-2.874874792E0,4.141701529E0
6.233075375E0,-1.781121529E0,2.396293640E0,-3.337203901E0,4.477895375E0
6.243022375E0,-1.562866896E0,2.293773823E0,-3.190236182E0,4.228659147E0
6.252968375E0,6.264160135E-1,-4.325682431E-1,-1.644694001E0,1.812327417E0
6.262914375E0,-1.078353451E0,-2.858586788E-2,-9.650387970E-1,1.447398769E0
6.272861375E0,-3.151416517E0,7.930414867E-1,-1.199683760E0,3.464041280E0
6.282807375E0,-4.743307530E0,1.615170532E0,-1.801888500E0,5.324898529E0
6.292754375E0,-5.880971628E0,3.305288921E0,-1.857674154E0,6.997264852E0
6.302700375E0,-6.800988911E0,4.873156648E0,-1.746544604E0,8.547018424E0
6.312646375E0,-7.450173106E0,5.998836293E0,-1.595576805E0,9.697266703E0
6.322593375E0,-8.098473786E0,6.644285286E0,-1.272064396E0,1.055224869E1
6.332539375E0,-8.881407191E0,7.031135319E0,-6.699102348E-1,1.134746832E1
6.342486375E0,-9.836658626E0,7.095020828E0,2.286515674E-1,1.213059994E1
6.352432375E0,-1.053251822E1,6.764519827E0,9.895716673E-1,1.255674801E1
6.362378375E0,-1.110237265E1,6.311948844E0,1.918583430E0,1.291450112E1
6.372325375E0,-1.115862170E1,5.999773602E0,2.015152828E0,1.282859939E1
6.382271375E0,-1.081381724E1,5.864925699E0,1.577876991E0,1.240264861E1
6.392218375E0,-1.023869095E1,5.869742635E0,1.016663425E0,1.184560153E1
6.402164375E0,-9.602144932E0,5.909827638E0,-3.012383178E-2,1.127511230E1
6.412110375E0,-9.172530118E0,5.926395139E0,-7.423695159E-1,1.094571060E1
6.422057375E0,-8.946822331E0,6.015617802E0,-8.583122009E-1,1.081526640E1
6.432003375E0,-8.859371374E0,6.060591661E0,-7.368795651E-1,1.075928547E1
6.441950375E0,-8.880229561E0,6.090165124E0,-5.216143940E-1,1.078056909E1
6.451896375E0,-8.960181465E0,6.133326931E0,-2.614840122E-1,1.086144212E1
6.461842375E0,-8.848349957E0,6.153087012E0,-8.846837282E-3,1.077746979E1
6.471789375E0,-8.811061678E0,6.195945933E0,2.435762930E-1,1.077422310E1
6.481735375E0,-9.012671335E0,6.243195528E0,2.887413561E-1,1.096763906E1
6.491682375E0,-9.073349646E0,6.200114998E0,3.521930015E-1,1.099505069E1
6.501628375E0,-9.007256228E0,6.293945852E0,5.829627228E-1,1.100382955E1
6.511574375E0,-8.961485394E0,6.381990886E0,6.649301612E-1,1.102180386E1
6.521521375E0,-8.910410550E0,6.439156775E0,7.067295671E-1,1.101624359E1
6.531467375E0,-8.930298684E0,6.452500121E0,6.576749361E-1,1.103709784E1
6.541413375E0,-8.997642821E0,6.482782851E0,5.510392642E-1,1.110349918E1
6.551360375E0,-8.994163728E0,6.452084384E0,2.700688577E-1,1.107236701E1
6.561306375E0,-8.935239581E0,6.362055389E0,-7.934898220E-2,1.096907250E1
6.571253375E0,-8.837986937E0,6.235840901E0,-4.573429690E-1,1.082612061E1
6.581199375E0,-8.724526395E0,6.157273033E0,-8.117538194E-1,1.070926311E1
6.591145375E0,-8.574283358E0,6.120884641E0,-1.156757158E0,1.059819093E1
6.601092375E0,-8.521080712E0,6.105404722E0,-1.539702128E0,1.059506800E1
6.611038375E0,-8.460091914E0,6.059292410E0,-1.904555667E0,1.057901281E1
6.620985375E0,-8.370151212E0,6.011130649E0,-2.281249087E0,1.055448816E1
6.630931375E0,-8.388136078E0,5.994281312E0,-2.745182964E0,1.066903298E1
6.640877375E0,-8.322643170E0,5.932450515E0,-3.229785287E0,1.071876259E1
6.650824375E0,-8.128981633E0,5.841083093E0,-3.591883764E0,1.063485886E1
6.660770375E0,-7.954428213E0,5.763361318E0,-3.748778594E0,1.051392423E1
6.670717375E0,-7.850631364E0,5.668244076E0,-3.627568152E0,1.034024441E1
6.680663375E0,-7.818711998E0,5.570445886E0,-3.467530444E0,1.020714907E1
6.690609375E0,-7.825823382E0,5.526169599E0,-3.457918499E0,1.018524729E1
6.700556375E0,-7.783184901E0,5.532517337E0,-3.670390236E0,1.023027271E1
6.710502375E0,-7.734546592E0,5.520320045E0,-4.024894642E0,1.031973455E1
6.720449375E0,-7.851547038E0,5.409387839E0,-4.285578718E0,1.045344214E1
6.730395375E0,-8.095689926E0,4.912428303E0,-3.534252437E0,1.010757575E1
6.740341375E0,-8.353004252E0,3.337279038E0,7.184830552E-1,9.023653878E0
6.750288375E0,-9.695392819E0,-2.561377494E0,1.807076969E1,2.066673689E1
6.760234375E0,-1.356539063E1,-1.787257364E1,4.791941980E1,5.291237573E1
6.770181375E0,6.462721639E0,-4.218563546E1,6.921326247E1,8.131340794E1
6.780127375E0,8.433050880E1,-5.464849849E1,3.861293524E1,1.076524587E2
6.790073375E0,6.197841834E1,-1.975816737E1,1.436105400E1,6.661793595E1
6.800020375E0,1.934820271E1,-7.581289900E0,5.806659365E-1,2.078860451E1
6.809966375E0,1.482644325E1,-7.283129849E0,-4.175054648E0,1.703814782E1
6.819913000E0,8.089643905E0,-7.728998169E0,-7.828660451E0,1.365531675E1
6.829859000E0,-2.718416165E0,-5.857193341E0,-7.834604146E0,1.015271010E1
6.839805000E0,-6.345879067E0,-3.802318039E0,-6.448273169E0,9.813665496E0
6.849752000E0,-7.066433206E0,-7.549556476E-1,-5.800430911E0,9.173300117E0
6.859698000E0,-9.885510943E0,3.548223190E0,-7.692964118E0,1.301902114E1
6.869645000E0,-1.195168190E1,7.070706936E0,-6.521977322E0,1.534189639E1
6.879591000E0,-8.944440760E0,6.806415712E0,2.230525661E-1,1.124188898E1
6.889537000E0,-5.834433639E0,4.296863260E0,4.149686503E0,8.350062744E0
6.899484000E0,-3.286664077E0,1.542968529E0,2.235416272E0,4.263800951E0
6.909430000E0,1.258890912E0,-1.712730741E0,2.343009133E0,3.163533581E0
6.919376000E0,7.440391883E0,-4.453107294E0,7.889213047E0,1.172302343E1
6.929323000E0,8.890915933E0,-3.606235170E0,9.375072990E0,1.341436960E1
6.939269000E0,5.864883015E0,1.022228951E0,3.050043340E0,6.689138149E0
6.949216000E0,1.625889794E0,3.781569779E-2,1.336360672E0,2.104948336E0
6.959162000E0,9.544378681E-1,-4.832458273E0,2.205060452E0,5.396841317E0
6.969108000E0,3.672814199E0,-7.169967515E0,3.732783535E0,8.878720134E0
6.979055000E0,5.537140730E0,-6.355703559E0,6.166231552E0,1.044400817E1
6.989001000E0,2.829512970E0,-5.285927973E0,4.235613091E0,7.340817151E0
6.998948000E0,-7.460778932E-1,-3.297122700E0,1.393444115E-1,3.383351472E0
7.008894000E0,-2.795695598E0,-1.138169882E0,-2.332735575E0,3.814839423E0
7.018840000E0,-3.892433572E0,6.935967207E-1,-3.192479174E0,5.081735806E0
7.028787000E0,-3.578790971E0,2.040702821E0,-2.713375280E0,4.933013099E0
7.038733000E0,-2.191722076E0,1.545762329E0,-1.489140816E0,3.067664780E0
7.048680000E0,-4.475826504E-1,2.600250953E-1,-7.919907421E-1,9.461461910E-1
7.058626000E0,5.601789739E-1,-1.071359012E0,6.181442499E-2,1.210550138E0
7.068572000E0,9.162325995E-1,-1.748458983E0,5.207863551E-1,2.041521349E0
7.078519000E0,6.888616455E-1,-1.745066428E0,1.077673420E0,2.163600519E0
7.088465000E0,2.729008104E-1,-1.530991677E0,1.751575549E0,2.342312377E0
7.098412000E0,3.283444016E-1,-1.566438668E0,2.037428380E0,2.590879108E0
7.108358000E0,6.904944804E-1,-1.925264166E0,1.815957486E0,2.735164772E0
7.118304000E0,1.128435291E0,-2.321049330E0,1.685309638E0,3.082353772E0
7.128251000E0,1.273013692E0,-2.267223371E0,1.477490823E0,2.990626156E0
7.138197000E0,1.235764589E0,-2.006521752E0,1.024728051E0,2.569690885E0
7.148144000E0,1.225348067E0,-1.427325806E0,4.284839630E-1,1.929335468E0
7.158090000E0,1.428876488E0,-1.099960082E0,-1.443782794E-1,1.808990129E0
7.168036000E0,1.587451222E0,-9.626487476E-1,-3.897268635E-1,1.896992626E0
7.177983000E0,1.564675440E0,-6.714041984E-1,-3.494418865E-1,1.738131889E0
7.187929000E0,1.378038748E0,-6.401742196E-1,-3.109151673E-1,1.550961658E0
7.197876000E0,1.357593082E0,-2.878414696E-1,-9.487809062E-2,1.391011696E0
7.207822000E0,1.151952062E0,-2.938044602E-1,-3.140597999E-2,1.189243856E0
7.217768000E0,9.974627772E-1,-2.409128863E-1,2.282565880E-1,1.051224087E0
7.227715000E0,6.533836645E-1,6.788792789E-2,5.630658174E-1,8.651948327E-1
7.237661000E0,5.587029174E-1,-1.421054667E-1,5.236047131E-1,7.787841865E-1
7.247608000E0,3.185940233E-1,-3.222166657E-1,4.956170154E-1,6.715370111E-1
7.257554000E0,1.694794992E-1,-5.001661491E-1,3.999782020E-1,6.624741802E-1
7.267500000E0,2.985980076E-1,-6.697371572E-1,3.726582563E-1,8.225465372E-1
7.277447000E0,4.669048476E-1,-6.642191398E-1,3.404716730E-1,8.804022731E-1
7.287393000E0,4.558059552E-1,-6.492409122E-1,1.787049437E-1,8.131471501E-1
7.297340000E0,5.063028020E-1,-5.524835265E-1,2.192208856E-1,7.807934240E-1
7.307286000E0,4.859577075E-1,-3.012596601E-1,1.527123159E-1,5.918051434E-1
7.317232000E0,4.447649503E-1,-1.059106171E-2,3.378579676E-2,4.461720651E-1
7.327179000E0,3.562337199E-1,2.050905043E-1,5.354003012E-2,4.145251657E-1
7.337125000E0,2.284779051E-1,3.360552710E-1,-1.082325464E-1,4.205348766E-1
7.347071000E0,2.439025676E-1,3.552125037E-1,-1.315144050E-1,4.505112917E-1
7.357018000E0,2.024861544E-2,3.280089176E-1,-2.130298537E-1,3.916395984E-1
7.366964000E0,-1.801933524E-1,2.352633065E-1,-3.063759738E-1,4.262448885E-1
7.376911000E0,-2.600458530E-1,1.489051938E-1,-1.923622853E-1,3.560896673E-1
7.386857000E0,-3.716367477E-1,-5.034218788E-2,-1.427012980E-2,3.753023378E-1
7.396803000E0,-4.139629877E-1,-2.051969236E-1,-3.233042479E-2,4.631591400E-1
7.406750000E0,-2.559598187E-1,-3.689815271E-1,-6.414687932E-2,4.536271798E-1
7.416696000E0,-2.973060653E-1,-4.364975721E-1,1.432082516E-1,5.472016358E-1
7.426643000E0,-5.696173301E-1,-5.345659035E-1,2.679170823E-1,8.258354382E-1
7.436589000E0,-6.598366517E-1,-6.374833310E-1,3.256232536E-1,9.735501566E-1
7.446535000E0,-6.310125098E-1,-6.464073515E-1,3.484057599E-1,9.681972036E-1
7.456482000E0,-5.328912610E-1,-6.386282158E-1,3.715332520E-1,9.109643524E-1
7.466428000E0,-5.637937957E-1,-4.950796562E-1,4.718439907E-1,8.863430835E-1
7.476375000E0,-6.194233283E-1,-3.868231362E-1,4.388370430E-1,8.519949230E-1
7.486321000E0,-6.383808786E-1,-3.332813519E-1,2.840682614E-1,7.741455824E-1
7.496267000E0,-6.599752307E-1,-3.191433692E-1,3.888608909E-1,8.298388926E-1
7.506214000E0,-6.205290368E-1,-5.267347276E-1,6.786377889E-1,1.059742897E0
7.516160000E0,-5.514096853E-1,-7.788222277E-1,9.837425780E-1,1.370534992E0
7.526107000E0,-7.006478781E-1,-9.313994730E-1,1.360865768E0,1.791750001E0
7.536053000E0,-7.124203697E-1,-1.059772754E0,1.546508433E0,2.005579569E0
7.545999000E0,-4.823274636E-1,-1.178513331E0,1.591180576E0,2.037986526E0
7.555946000E0,-1.893898532E-1,-1.050233021E0,1.554049003E0,1.885185990E0
7.565892000E0,1.573456496E-2,-7.144081306E-1,1.337889719E0,1.516764798E0
7.575839000E0,1.574520689E-1,-4.016353029E-1,1.121551511E0,1.201657131E0
7.585785000E0,3.130777600E-1,-3.860103732E-1,1.162476758E0,1.264268130E0
7.595731000E0,2.378226328E-1,-5.076394755E-1,1.112294784E0,1.245575019E0
7.605678000E0,2.927028447E-1,-8.880832994E-1,1.101177472E0,1.444631001E0
7.615624000E0,3.687868148E-1,-1.171375635E0,1.133992631E0,1.671545357E0
7.625571000E0,5.242642790E-1,-1.104353680E0,1.017022591E0,1.590215405E0
7.635517000E0,6.686998612E-1,-9.369718695E-1,7.994722545E-1,1.401510497E0
7.645463000E0,5.972597498E-1,-1.039120973E0,5.557860339E-1,1.321131984E0
7.655410000E0,6.328271931E-1,-1.250375612E0,3.147006547E-1,1.436295906E0
7.665356000E0,8.556566879E-1,-1.391874722E0,2.993879664E-1,1.661052908E0
7.675303000E0,1.115657517E0,-1.421229499E0,2.990546751E-1,1.831398013E0
7.685249000E0,1.455191589E0,-1.421356968E0,4.227478445E-1,2.077631809E0
7.695195000E0,1.487995931E0,-1.381141573E0,5.218242359E-1,2.096183310E0
7.705142000E0,1.549116291E0,-1.477874985E0,7.063255244E-1,2.254500278E0
7.715088000E0,1.268724759E0,-1.572697527E0,7.373198605E-1,2.150972014E0
7.725034000E0,1.535674420E0,-1.833468727E0,5.263827252E-1,2.448873674E0
7.734981000E0,1.576083358E0,-1.997176148E0,5.034435135E-1,2.593493144E0
7.744927000E0,1.263059684E0,-2.156016930E0,4.514851552E-1,2.539206099E0
7.754874000E0,1.096645003E0,-2.356433170E0,2.516571450E-1,2.611271504E0
7.764820000E0,1.087776824E0,-2.357397376E0,2.522354347E-1,2.608486826E0
7.774766000E0,1.099431348E0,-2.007298847E0,4.098664284E-1,2.325078158E0
7.784713000E0,1.002413322E0,-1.604660747E0,4.527440608E-1,1.945442306E0
7.794659000E0,8.190305331E-1,-9.954568899E-1,1.574953383E-1,1.298672482E0
7.804606000E0,3.504865647E-1,-8.412435937E-1,-3.240807581E-1,9.672434821E-1
7.814552000E0,5.224903800E-2,-5.918253475E-1,-6.574866557E-1,8.861579466E-1
7.824497875E0,-2.619722182E-1,-2.333079976E-1,-8.717210358E-1,9.396593155E-1
7.834444875E0,-5.392301544E-1,1.365289772E-1,-7.434676230E-1,9.285221739E-1
7.844390875E0,-9.274201503E-1,5.287075782E-1,-2.238214749E-1,1.090750151E0
7.854337875E0,-1.331037513E0,1.029418688E0,4.677398300E-1,1.746466216E0
7.864283875E0,-1.519272834E0,1.236261603E0,1.010934470E0,2.204205343E0
7.874229875E0,-1.368898527E0,1.229313356E0,1.476119066E0,2.358817925E0
7.884176875E0,-6.387827285E-1,1.017938265E0,1.766958404E0,2.136909845E0
7.894122875E0,4.493004893E-1,6.231868887E-1,2.106667015E0,2.242382380E0
7.904069875E0,1.369196004E0,-1.758199275E-2,2.481318002E0,2.834068780E0
7.914015875E0,2.401360544E0,-9.488879102E-1,2.938545708E0,3.911773461E0
7.923961875E0,2.987690094E0,-2.482248294E0,3.410659840E0,5.169182647E0
7.933908875E0,1.281905845E0,-3.949133438E0,3.623166953E0,5.510560432E0
7.943854875E0,-3.603457743E-1,-4.827395169E0,4.116203007E0,6.354267888E0
7.953801875E0,2.077857783E-1,-5.408145890E0,5.403947589E0,7.648128297E0
7.963747875E0,1.487645975E0,-5.710139376E0,6.676652548E0,8.910469768E0
7.973693875E0,3.252835304E0,-6.920937524E0,7.196892189E0,1.050121759E1
7.983640875E0,5.643996257E0,-8.716760123E0,7.127776930E0,1.259530884E1
7.993586875E0,1.018569764E1,-1.040141663E1,6.855251657E0,1.609137594E1
8.003533875E0,1.482381551E1,-1.320351230E1,1.070207344E1,2.255244154E1
8.013479875E0,1.733112147E1,-1.409820061E1,1.457620464E1,2.667569631E1
8.023425875E0,1.497990811E1,-1.126696125E1,1.263047931E1,2.260245717E1
8.033372875E0,8.095277113E0,-5.720357385E0,1.088963925E1,1.472549637E1
8.043318875E0,4.202497970E0,-1.393767466E0,9.985833961E0,1.092339035E1
8.053265875E0,4.761697608E-1,1.322869684E0,4.367009967E0,4.587755213E0
8.063211875E0,-5.130261059E0,2.344464505E0,-3.428702009E-1,5.650986845E0
8.073157875E0,-6.582636922E0,2.100878856E0,-1.648563104E0,7.103700523E0
8.083104875E0,-9.798179269E-1,2.054180945E0,-2.539791328E0,3.410314138E0
8.093050875E0,1.375643319E1,7.509141983E-1,-2.279940041E0,1.396429207E1
8.102997875E0,1.190011764E1,-2.102321510E0,-6.401613557E-1,1.210133721E1
8.112943875E0,3.610752144E0,-1.848448125E0,-1.307377047E0,4.261868870E0
8.122889875E0,-1.019246287E0,-6.857493187E-1,-1.035840685E0,1.606885511E0
8.132836875E0,-4.239063533E0,-4.171371487E-1,-9.847389436E-1,4.371884471E0
8.142782875E0,-6.015855199E0,-1.741764213E-1,-1.127779380E0,6.123131350E0
8.152728875E0,-7.351898952E0,1.850972660E-1,-1.135682915E0,7.441401406E0
8.162675875E0,-8.435759311E0,7.281229211E-1,-1.124621811E0,8.541485372E0
8.172621875E0,-9.443299472E0,1.131572761E0,-1.113109228E0,9.575770151E0
8.182568875E0,-9.782395295E0,1.450303902E0,-1.230198625E0,9.965542021E0
8.192514875E0,-9.664946952E0,1.619934113E0,-8.430387620E-1,9.835959560E0
8.202460875E0,-9.848648926E0,1.474819961E0,4.369109702E-1,9.968042475E0
8.212407875E0,-1.069465566E1,1.237181516E0,1.872160338E0,1.092754603E1
8.222353875E0,-1.174953780E1,8.896411438E-1,8.214367354E-1,1.181176779E1
8.232300875E0,-1.420692491E1,-1.140683454E0,-5.886462164E-1,1.426479507E1
8.242246875E0,-1.523626758E1,-1.817377775E0,8.099514882E-1,1.536563481E1
8.252192875E0,-1.503263596E1,-1.279062344E0,2.750769979E0,1.533567344E1
8.262139875E0,-1.535668982E1,-9.965459338E-1,3.180440927E0,1.571420473E1
8.272085875E0,-1.539778639E1,-7.685936934E-1,3.286455624E0,1.576335473E1
8.282032875E0,-1.546618244E1,-2.482315537E-1,3.700789325E0,1.590472445E1
8.291978875E0,-1.518732872E1,4.242783532E-1,3.547235595E0,1.560185394E1
8.301924875E0,-1.422771059E1,1.343212732E0,2.625676986E0,1.453018061E1
8.311871875E0,-1.247022351E1,2.751669865E0,1.307937942E0,1.283701145E1
8.321817875E0,-1.082963045E1,4.149075176E0,5.745392239E-1,1.161145192E1
8.331764875E0,-9.970054665E0,5.559572988E0,1.067719120E0,1.146520239E1
8.341710875E0,-9.389482284E0,6.349239462E0,7.497264826E-1,1.135945901E1
8.351656875E0,-8.958170607E0,6.373696611E0,-1.742879570E-1,1.099559937E1
8.361603875E0,-8.593820075E0,6.187890809E0,-7.850155985E-1,1.061885049E1
8.371549875E0,-8.457277064E0,6.027142664E0,-1.163663816E0,1.045017213E1
8.381496875E0,-8.413050479E0,6.070400366E0,-1.494461782E0,1.048153591E1
8.391442875E0,-8.276070682E0,6.243422400E0,-1.822672867E0,1.052595865E1
8.401388875E0,-8.148593194E0,6.427078182E0,-2.149973248E0,1.059855131E1
8.411335875E0,-7.983323398E0,6.627420747E0,-2.437302502E0,1.065817066E1
8.421281875E0,-7.796200803E0,6.707145778E0,-2.749772151E0,1.064555298E1
8.431228875E0,-7.676608286E0,6.671197096E0,-3.041174575E0,1.061526864E1
8.441174875E0,-7.551487811E0,6.601998222E0,-3.312791483E0,1.056342445E1
8.451120875E0,-7.483888736E0,6.637120108E0,-3.604275184E0,1.063253279E1
8.461067875E0,-7.465320902E0,6.731601757E0,-3.852905518E0,1.076523847E1
8.471013875E0,-7.474355435E0,6.763823424E0,-4.004643687E0,1.084677222E1
8.480960875E0,-7.493135523E0,6.645010926E0,-4.001764518E0,1.078505306E1
8.490906875E0,-7.481589611E0,6.508577258E0,-3.992784949E0,1.069009320E1
8.500852875E0,-7.438112054E0,6.441592140E0,-4.018372950E0,1.062859075E1
8.510799875E0,-7.404770645E0,6.465449365E0,-4.022205215E0,1.062124280E1
8.520745875E0,-7.451462417E0,6.544920042E0,-3.867659797E0,1.064514269E1
8.530691875E0,-7.637890947E0,6.657293002E0,-3.667180114E0,1.077520943E1
8.540638875E0,-8.182338645E0,6.654729583E0,-3.076738218E0,1.098646484E1
8.550584875E0,-9.688511231E0,6.430360224E0,-1.150332091E0,1.168503515E1
8.560531875E0,-1.174818944E1,5.815875161E0,1.307023729E0,1.317393904E1
8.570477875E0,-1.420745466E1,4.829817086E0,3.787376941E0,1.547653466E1
8.580423875E0,-1.867342116E1,2.670746740E0,7.902944648E0,2.045204342E1
8.590370875E0,-2.351443975E1,-1.829577405E0,1.174469631E1,2.634794341E1
8.600316875E0,-1.152589584E1,-6.003373148E0,1.717240815E1,2.153551406E1
8.610263875E0,-4.405512128E0,-9.902159135E0,2.374366932E1,2.610025144E1
8.620209875E0,-4.079012377E0,-1.538381739E1,2.670332172E1,3.108645316E1
8.630155875E0,-1.673400030E-1,-1.796415507E1,2.466168451E1,3.051126928E1
8.640102875E0,1.527350148E1,-2.072209724E1,2.013676756E1,3.268294004E1
8.650048875E0,4.291009144E1,-3.270093477E1,2.929717231E1,6.139178600E1
8.659995875E0,4.239497513E1,-3.540920134E1,2.949833758E1,6.262026330E1
8.669941875E0,2.837326780E1,-2.402257449E1,7.280066493E0,3.788305398E1
8.679887875E0,2.917058009E1,-1.467767138E1,-2.854462162E0,3.277963902E1
8.689834875E0,1.842424791E1,-8.627532197E0,5.974948078E-1,2.035299051E1
8.699780875E0,8.993103628E0,-6.313357438E0,3.237420874E0,1.145492422E1
8.709727875E0,5.001628747E0,-4.478605832E0,4.796987894E0,8.251381289E0
8.719673875E0,2.895582853E-1,-1.872000709E0,5.354105338E0,5.679319909E0
8.729619875E0,-3.323293083E0,1.196740272E0,5.376431177E0,6.432921296E0
8.739566875E0,-5.638015140E0,3.413751848E0,3.906991385E0,7.661951324E0
8.749512875E0,-7.231806498E0,3.695916840E0,7.682908076E-1,8.157763007E0
8.759459875E0,-7.629198477E0,2.947581995E0,-9.588544893E-1,8.234823067E0
8.769405875E0,-6.341265614E0,2.669125307E0,2.021552020E-1,6.883076799E0
8.779351875E0,-4.407050238E0,2.840390838E0,2.925278376E0,6.003929171E0
8.789298875E0,-3.239732570E0,1.980177122E-1,2.198986364E0,3.920538123E0
8.799244875E0,-4.005288635E-1,-2.968101044E0,9.358673304E-1,3.137816891E0
8.809190875E0,2.897159993E0,-3.215668647E0,4.086619020E-1,4.347535557E0
8.819137875E0,2.033379914E0,-2.151129243E0,1.622976565E-1,2.964512004E0
8.829084750E0,2.669707835E-1,-1.083709500E0,4.799622649E-1,1.214933519E0
8.839031750E0,3.349986792E-2,-4.271736020E-1,4.505525243E-1,6.217693339E-1
8.848977750E0,-4.484405100E-1,3.561129749E-2,-7.349599242E-2,4.558165381E-1
8.858923750E0,-1.126518867E0,6.680783021E-1,3.482473004E-1,1.355230444E0
8.868870750E0,-1.376737597E0,4.681029421E-1,2.789519477E-1,1.480655586E0
8.878816750E0,-6.847454980E-1,-5.381420606E-1,4.657681489E-1,9.876301145E-1
8.888763750E0,3.924776861E-1,-1.225524945E0,1.337414340E0,1.855970701E0
8.898709750E0,5.390273291E-1,-1.666359397E0,2.294277268E0,2.886349301E0
8.908655750E0,2.910594848E-1,-2.246440027E0,2.629291150E0,3.470501458E0
8.918602750E0,5.777224481E-1,-2.338553554E0,2.925859004E0,3.789887448E0
8.928548750E0,5.311604851E-1,-2.697153935E0,3.049707125E0,4.105786692E0
8.938495750E0,8.660846123E-1,-2.021947292E0,2.191797797E0,3.105213518E0
8.948441750E0,6.107095152E-1,-1.658094943E0,1.338960929E0,2.216993757E0
8.958387750E0,7.654639712E-1,-1.202625495E0,6.941218007E-1,1.585575052E0
8.968334750E0,1.114743890E0,-1.291864530E0,2.831479096E-1,1.729664893E0
8.978280750E0,1.210354344E0,-1.474366071E0,4.498321474E-1,1.959862728E0
8.988227750E0,1.401745407E0,-1.301460396E0,3.809460998E-1,1.950335684E0
8.998173750E0,1.193340701E0,-1.090726744E0,7.957475781E-3,1.616728233E0
9.008119750E0,8.525187796E-1,-1.484640214E0,-1.656317389E-1,1.719993810E0
9.018066750E0,1.085032725E0,-1.697834374E0,-9.634457231E-2,2.017230739E0
9.028012750E0,8.604780096E-1,-9.580762249E-1,1.222237641E-1,1.293549808E0
9.037959750E0,7.759728795E-1,-5.025997603E-1,4.575434554E-1,1.031545657E0
9.047905750E0,8.415508649E-1,-2.916825056E-2,6.342837346E-1,1.054217483E0
9.057851750E0,7.590048444E-1,2.918813109E-2,6.785974431E-1,1.018545429E0
9.067798750E0,6.402715757E-1,-1.465019882E-2,4.946183109E-1,8.092030601E-1
9.077744750E0,5.563707554E-1,-1.832417983E-1,2.445095086E-1,6.347526085E-1
9.087691750E0,4.277021903E-1,-4.174654698E-1,1.304812020E-1,6.117449846E-1
9.097637750E0,3.596476167E-1,-5.428145707E-1,2.059208089E-1,6.829329732E-1
9.107583750E0,3.837305439E-1,-5.574513209E-1,1.633682817E-1,6.961970274E-1
9.117530750E0,3.411742160E-1,-4.984651941E-1,-3.143112302E-2,6.048597448E-1
9.127476750E0,1.470545501E-1,-6.287815046E-1,-2.554818088E-1,6.944509888E-1
9.137423750E0,9.052249968E-2,-8.163022953E-1,-2.347914362E-1,8.542076907E-1
9.147369750E0,1.536276975E-1,-6.128934503E-1,7.948938847E-2,6.368346832E-1
9.157315750E0,-2.749594688E-2,-3.901034242E-1,-1.456237364E-1,4.173044228E-1
9.167262750E0,7.448475659E-2,-3.035646325E-1,-1.593068057E-1,3.508249185E-1
9.177208750E0,9.487809062E-2,-1.744224429E-1,-4.138659239E-2,2.028247783E-1
9.187155750E0,7.950751483E-3,-1.459897721E-1,1.006305814E-2,1.465520151E-1
9.197101750E0,-3.001668155E-2,-2.442937464E-1,3.486460805E-2,2.485879655E-1
9.207047750E0,-2.313325158E-1,-3.807969958E-1,1.138838804E-1,4.598810966E-1
9.216994750E0,-3.194418696E-1,-6.010756427E-1,9.360924482E-2,6.870936814E-1
9.226940750E0,-2.216504037E-1,-6.812187499E-1,2.283460504E-1,7.518841702E-1
9.236887750E0,-9.330460489E-2,-6.283850634E-1,4.356766230E-1,7.703165953E-1
9.246833750E0,1.812022895E-2,-6.828624022E-1,4.650933802E-1,8.264025988E-1
9.256779750E0,-1.408667341E-1,-7.918995255E-1,4.626901746E-1,9.279172878E-1
9.266726750E0,-2.669628167E-1,-9.288863397E-1,6.094026625E-1,1.142571916E0
9.276672750E0,-2.297727710E-1,-1.025382355E0,9.282156640E-1,1.402065911E0
9.286619750E0,-2.538545287E-1,-1.231988457E0,1.341087561E0,1.838682552E0
9.296565750E0,-2.850652117E-1,-1.582231413E0,1.560881474E0,2.240774284E0
9.306511750E0,-2.332235053E-1,-1.970219899E0,1.758868196E0,2.651372660E0
9.316458750E0,-3.879826391E-1,-2.138622048E0,2.152820258E0,3.059227003E0
9.326404750E0,-7.050473231E-1,-2.180859995E0,2.295140902E0,3.243595814E0
9.336351750E0,-1.189484462E0,-2.047814789E0,2.089531165E0,3.158252553E0
9.346297750E0,-1.525269007E0,-1.975081274E0,1.829392049E0,3.094198903E0
9.356243750E0,-1.680794711E0,-2.115971689E0,1.829644064E0,3.263434456E0
9.366190750E0,-1.707533736E0,-1.992053987E0,1.884465219E0,3.230349781E0
9.376136750E0,-1.702859179E0,-1.702461276E0,1.756557961E0,2.980536806E0
9.386083750E0,-1.595188550E0,-1.585957258E0,1.451647884E0,2.677156797E0
9.396029750E0,-1.576052367E0,-1.467977988E0,1.211323228E0,2.471073532E0
9.405975750E0,-1.559580176E0,-1.269907066E0,1.109600971E0,2.296991206E0
9.415922750E0,-1.017025807E0,-1.122605764E0,9.169872558E-1,1.770720424E0
9.425868750E0,-5.942557427E-1,-9.627721238E-1,6.591577899E-1,1.309411716E0
9.435814750E0,-1.701376033E-1,-9.055647200E-1,4.944306153E-1,1.045684417E0
9.445761750E0,1.385436353E-1,-6.924038887E-1,4.423915654E-1,8.332633324E-1
9.455707750E0,3.209793949E-1,-6.122730607E-1,3.662497079E-1,7.823329990E-1
9.465654750E0,5.180741242E-1,-4.975080049E-1,9.593643665E-2,7.246508214E-1
9.475600750E0,3.084420875E-1,-6.921232224E-1,-2.907527983E-1,8.116084438E-1
9.485546750E0,5.101529011E-1,-5.005316001E-1,-6.872577542E-1,9.915195842E-1
9.495493750E0,6.673794137E-1,-5.267446679E-1,-9.092326784E-1,1.244812954E0
9.505439750E0,7.050505391E-1,-3.944321179E-1,-7.045023626E-1,1.071912560E0
9.515386750E0,8.992975281E-1,-2.902633864E-1,-4.315063888E-1,1.038839083E0
9.525332750E0,1.186465837E0,-4.949773300E-1,-1.774524701E-1,1.297764662E0
9.535278750E0,1.413642883E0,-5.075587839E-1,-1.979972470E-1,1.514993409E0
9.545225750E0,1.684078507E0,-3.902437574E-1,-5.297337645E-1,1.808045483E0
9.555171750E0,2.069609993E0,-2.069043106E-1,-6.120748401E-1,2.168116816E0
9.565118750E0,2.500444829E0,1.023040545E-1,-3.287532681E-1,2.524038268E0
9.575064750E0,2.833198763E0,2.575721884E-1,-2.832987678E-1,2.858953804E0
9.585010750E0,2.997666028E0,2.893482971E-1,-1.059555237E0,3.192550917E0
9.594957750E0,3.182376355E0,1.545840096E-1,-1.734274807E0,3.627550770E0
9.604903750E0,3.433989646E0,-4.335418046E-2,-1.953065338E0,3.950775707E0
9.614850750E0,3.494401909E0,-3.008263814E-1,-2.020562671E0,4.047717223E0
9.624796750E0,3.626135584E0,-5.410416949E-1,-1.962180562E0,4.158333554E0
9.634742750E0,3.516445327E0,-7.871007156E-1,-1.719026438E0,3.992488844E0
9.644689750E0,3.094547668E0,-7.822855335E-1,-1.500508388E0,3.526998915E0
9.654635750E0,2.523206871E0,-7.710109323E-1,-1.577896287E0,3.074213308E0
9.664582750E0,1.902265605E0,-6.897878444E-1,-1.495479198E0,2.516123950E0
9.674528750E0,1.471798851E0,-6.732139117E-1,-1.123875194E0,1.970407136E0
9.684474750E0,1.099799868E0,-8.133079362E-1,-2.423197263E-1,1.389153843E0
9.694421750E0,3.578791264E-1,-1.120676183E0,6.949193609E-1,1.366347501E0
9.704367750E0,-5.177680224E-1,-9.703477764E-1,1.654289575E0,1.986537825E0
9.714314750E0,-1.438622042E0,-5.851396412E-1,2.555518000E0,2.990433752E0
9.724260750E0,-2.206799998E0,-3.575133830E-1,2.901046345E0,3.662492586E0
9.734206750E0,-2.764025032E0,-1.873675936E-1,2.903909726E0,4.013431535E0
9.744153750E0,-3.065922916E0,-1.013322473E-1,3.063259217E0,4.335171113E0
9.754099750E0,-3.439510002E0,-1.952578264E-1,3.441242532E0,4.869343368E0
9.764046750E0,-3.728134414E0,-5.973585677E-1,4.021240717E0,5.515994957E0
9.773992750E0,-3.656674422E0,-1.336434347E0,4.577191350E0,6.008993696E0
9.783938750E0,-3.229518946E0,-2.281815097E0,4.757570351E0,6.186351785E0
9.793885750E0,-2.115368257E0,-3.525492139E0,4.997578965E0,6.471450625E0
9.803831750E0,3.164004403E-1,-5.103471456E0,5.563739129E0,7.556502051E0
9.813778750E0,4.801331790E0,-6.518368421E0,6.342490021E0,1.028441022E1
9.823723875E0,1.050520938E1,-8.714052277E0,6.937850010E0,1.531103831E1
9.833669875E0,1.369161798E1,-1.233373429E1,6.999101933E0,1.971214936E1
9.843616875E0,1.447449700E1,-1.610649699E1,6.407312838E0,2.258282459E1
9.853562875E0,1.709648089E1,-1.658964190E1,9.044062697E0,2.548138432E1
9.863508875E0,1.267104028E1,-1.174361808E1,1.012222845E1,2.002316999E1
9.873455875E0,7.875062785E0,-7.829014792E0,5.933671414E0,1.259041472E1
9.883401875E0,8.181628209E0,-5.117082020E0,3.217335396E0,1.017225715E1
9.893348875E0,4.947968264E0,-1.813256657E0,-8.082309450E-1,5.331371954E0
9.903294875E0,6.136386194E0,-5.741872215E-1,-3.244727847E0,6.965140723E0
9.913241875E0,1.365824441E1,3.282200021E-1,-4.186381874E0,1.428919739E1
9.923187875E0,1.747989685E1,-4.719849086E-1,-2.552505514E0,1.767158307E1
9.933133875E0,6.359328248E0,1.287238798E0,-1.209828095E0,6.600130567E0
9.943080875E0,-2.031796342E0,2.543225398E0,-1.862948635E0,3.750569212E0
9.953026875E0,-5.900544598E0,3.367485754E0,-2.189246949E0,7.137870065E0
9.962972875E0,-7.794999200E0,4.348125799E0,-1.876071833E0,9.120737691E0
9.972919875E0,-8.295052498E0,5.293403054E0,-1.712336639E0,9.987998228E0
9.982865875E0,-8.371832287E0,5.860873579E0,-1.589217081E0,1.034229307E1
9.992812875E0,-8.493904608E0,5.740159566E0,-8.375616020E-1,1.028578421E1
1.000275887E1,-8.670865912E0,5.466598751E0,-5.288631141E-2,1.025038607E1
1.001270487E1,-8.914321167E0,5.248049710E0,-2.505885664E-1,1.034746067E1
1.002265187E1,-9.603892665E0,5.246529434E0,4.273981351E-1,1.095187174E1
1.003259787E1,-1.053453317E1,4.863622471E0,4.993761903E-1,1.161381028E1
1.004254487E1,-1.167688264E1,4.500128848E0,5.588692707E-1,1.252649523E1
1.005249087E1,-1.301717206E1,4.231534658E0,7.486272061E-1,1.370813979E1
1.006243687E1,-1.424209708E1,3.792138329E0,7.526696786E-1,1.475751178E1
1.007238387E1,-1.494044525E1,3.271290870E0,7.177413359E-1,1.531121813E1
1.008232987E1,-1.465351770E1,2.848481922E0,7.259876642E-1,1.494545042E1
1.009227687E1,-1.388730090E1,2.591561406E0,7.325353763E-1,1.414602152E1
1.010222287E1,-1.320002619E1,2.444768227E0,3.856642181E-1,1.343005286E1
1.011216887E1,-1.260924340E1,2.428638098E0,-2.915423186E-1,1.284430998E1
1.012211587E1,-1.189601406E1,2.687690509E0,-1.112095540E0,1.224645203E1
1.013206187E1,-1.116417421E1,3.005684608E0,-1.712092810E0,1.168777941E1
1.014200887E1,-1.099340160E1,3.061505929E0,-1.754572247E0,1.154583133E1
1.015195487E1,-1.123288017E1,3.098239599E0,-2.012183611E0,1.182478619E1
1.016190087E1,-1.127323297E1,3.371915604E0,-2.248715179E0,1.197966262E1
1.017184787E1,-1.097273637E1,3.864738528E0,-2.533779806E0,1.190618274E1
1.018179387E1,-1.083713827E1,4.782393243E0,-2.989836607E0,1.221695437E1
1.019174087E1,-1.038857965E1,4.461397769E0,-3.807158364E0,1.192984124E1
1.020168687E1,-9.605197179E0,4.258645858E0,-4.532412495E0,1.144284232E1
1.021163287E1,-8.907695687E0,4.097288434E0,-4.583914770E0,1.082345091E1
1.022157987E1,-8.533429447E0,3.981071807E0,-3.924161149E0,1.020134264E1
1.023152587E1,-8.615701525E0,3.911418605E0,-3.561377378E0,1.011004041E1
1.024147288E1,-8.685152999E0,3.954509076E0,-3.551754323E0,1.018258235E1
1.025141887E1,-8.778729499E0,4.020397256E0,-3.630032169E0,1.031536811E1
1.026136487E1,-8.824667564E0,4.078670315E0,-3.749712102E0,1.041972408E1
1.027131187E1,-8.935081707E0,4.089002345E0,-3.610741912E0,1.046867147E1
1.028125787E1,-8.992582641E0,4.053883090E0,-3.288575824E0,1.039784793E1
1.029120487E1,-9.040516360E0,4.028423729E0,-2.919267730E0,1.031897562E1
1.030115087E1,-9.220127622E0,4.004116853E0,-2.455347886E0,1.034758128E1
1.031109687E1,-1.040607218E1,3.846541408E0,-2.381667414E-1,1.109679875E1
1.032104387E1,-1.183226187E1,3.560705533E0,1.701967479E0,1.247308054E1
1.033098987E1,-1.209428730E1,3.507696430E0,1.693275300E0,1.270601829E1
1.034093687E1,-1.263601546E1,3.407727169E0,2.284185266E0,1.328529237E1
1.035088287E1,-1.366203107E1,2.937514552E0,2.960200579E0,1.428435760E1
1.036082887E1,-1.501400790E1,2.123996116E0,3.602628608E0,1.558559353E1
1.037077587E1,-1.681919774E1,8.300087535E-1,5.545542594E0,1.772928001E1
1.038072188E1,-1.957673762E1,-1.841577938E0,1.034598736E1,2.221890006E1
1.039066887E1,-2.145098775E1,-5.761080903E0,1.547696587E1,2.707159769E1
1.040061487E1,-1.193421159E1,-8.476001603E0,1.752898306E1,2.283710263E1
1.041056087E1,-1.839733434E0,-9.877516630E0,1.981313353E1,2.221508979E1
1.042050787E1,-7.323052883E-2,-1.234846343E1,2.760238258E1,3.023874065E1
1.043045387E1,8.077946550E0,-1.419931534E1,2.873963562E1,3.305813716E1
1.044039987E1,1.832275895E1,-1.757237291E1,2.367401962E1,3.471269206E1
1.045034688E1,5.669391533E1,-3.308484190E1,1.842628391E1,6.817869710E1
1.046029287E1,7.545933307E1,-2.746322587E1,6.896005581E0,8.059711295E1
1.047023987E1,4.812631300E1,-1.465585892E1,-3.473637861E-1,5.030961007E1
1.048018587E1,2.887387834E1,-1.080978851E1,-8.874599862E-1,3.084379942E1
1.049013187E1,1.770923167E1,-5.830094420E0,2.803302534E0,1.885378986E1
1.050007887E1,7.902284498E0,-4.853095436E-1,3.701666408E0,8.739791750E0
1.051002487E1,1.963086880E0,3.770762955E0,1.223736282E0,4.423787275E0
1.051997188E1,-2.648072114E0,3.688844633E0,2.870386469E-1,4.549972729E0
1.052991787E1,-5.872059302E0,9.371010929E-1,1.316608778E0,6.090377458E0
1.053986387E1,-8.218169214E0,-1.939790404E-1,1.212653469E0,8.309420048E0
1.054981087E1,-9.493694869E0,-1.401547771E0,6.678660482E-1,9.619803713E0
1.055975687E1,-8.761732813E0,-1.803640911E0,6.955795115E-1,8.972453024E0
1.056970387E1,-7.069081995E0,-9.679767305E-1,2.002838007E0,7.410820419E0
1.057964987E1,-2.560976375E0,5.025915742E-2,9.802933055E-1,2.742644881E0
1.058959588E1,2.247978722E0,1.574508995E-1,3.629086089E-1,2.282520926E0
1.059954287E1,5.696648680E0,-1.504080452E0,2.321786664E0,6.332831713E0
1.060948887E1,7.798976476E0,-2.822818201E0,3.583190124E0,9.035020096E0
1.061943587E1,7.497999237E0,-1.398190885E0,2.480586516E0,8.020488748E0
1.062938187E1,4.762417985E0,1.107711151E0,8.259893775E-2,4.890242493E0
1.063932787E1,8.587101039E-1,2.505350643E0,-3.049359215E0,4.038905361E0
1.064927487E1,-2.374052293E0,2.521567896E0,-5.544280180E0,6.537084340E0
1.065922088E1,-2.885108004E0,1.713773299E0,-5.034266735E0,6.050182533E0
1.066916787E1,-1.947724637E0,9.079439521E-1,-3.247586843E0,3.894202586E0
1.067911387E1,-1.544857180E0,3.351507068E-2,-2.346675337E0,2.809731678E0
1.068905987E1,-1.171506613E0,-7.937121624E-1,-2.144619538E0,2.569396758E0
1.069900687E1,-2.992748593E-1,-1.115552852E0,-8.917372245E-1,1.459184322E0
1.070895287E1,4.375402037E-1,-1.574669793E0,1.063263541E0,1.949757869E0
1.071889987E1,8.464872305E-1,-1.835956718E0,3.015395663E0,3.630411644E0
1.072884587E1,8.231373981E-1,-1.533217127E0,3.938310826E0,4.305647698E0
1.073879187E1,4.055017012E-1,-8.470001775E-1,3.259048555E0,3.391642436E0
1.074873887E1,4.949681206E-1,-9.135888541E-1,2.725105965E0,2.916477422E0
1.075868487E1,7.837843211E-1,-1.022053535E0,2.228085617E0,2.573572771E0
1.076863187E1,7.288087995E-1,-7.482892370E-1,1.593954495E0,1.905725579E0
1.077857787E1,2.870760691E-1,-9.030357993E-1,1.257025065E0,1.574165919E0
1.078852387E1,3.464656538E-1,-9.098676860E-1,1.127908019E0,1.489991327E0
1.079847087E1,3.832499027E-2,-1.109301594E0,7.643433523E-1,1.347679336E0
1.080841687E1,9.336585447E-2,-9.309550846E-1,2.975051630E-1,9.817860634E-1
1.081836387E1,-4.390820414E-3,-1.237455019E0,2.609431082E-1,1.264676049E0
1.082831037E1,-2.511408359E-2,-1.145994042E0,6.685501724E-1,1.326986207E0
1.083825637E1,-1.221799099E-1,-1.017855234E0,1.022673340E0,1.448039353E0
1.084820338E1,-1.662401417E-1,-9.893494731E-1,1.525974766E0,1.826211146E0
1.085814937E1,-7.181667209E-2,-8.266963059E-1,1.608245675E0,1.809706763E0
1.086809637E1,1.265913418E-1,-7.398669076E-1,1.368517435E0,1.560855015E0
1.087804237E1,2.556426072E-1,-3.953103697E-1,1.270649078E0,1.355054431E0
1.088798837E1,2.163126267E-1,-2.045671785E-1,1.156153579E0,1.193871844E0
1.089793537E1,1.834309557E-1,-3.584892833E-1,9.551473546E-1,1.036565459E0
1.090788137E1,2.245153932E-1,-9.304229879E-1,7.652596110E-1,1.225445376E0
1.091782838E1,2.772042149E-1,-1.083915907E0,8.724519378E-1,1.418762931E0
1.092777437E1,3.441676980E-1,-7.722230601E-1,8.421054733E-1,1.193281814E0
1.093772037E1,4.211866379E-1,-6.536666697E-1,5.535769558E-1,9.545290698E-1
1.094766737E1,4.120857391E-1,-7.067091018E-1,4.224016893E-1,9.206929988E-1
1.095761337E1,3.837118328E-1,-6.008885318E-1,7.503012639E-1,1.035013906E0
1.096756037E1,3.810171434E-1,-5.271422786E-1,9.703068459E-1,1.168138870E0
1.097750637E1,3.330954105E-1,-3.978492308E-1,1.110266969E0,1.225532254E0
1.098745238E1,2.322356182E-1,-4.705763143E-1,1.041306077E0,1.166059088E0
1.099739937E1,1.837414429E-1,-6.419389093E-1,8.855602258E-1,1.109082231E0
1.100734537E1,1.408559167E-1,-6.760603362E-1,7.541504860E-1,1.022565853E0
1.101729237E1,9.398755968E-2,-5.850080788E-1,6.396596646E-1,8.719131839E-1
1.102723837E1,4.386990488E-2,-5.151519781E-1,5.477963984E-1,7.532509696E-1
1.103718437E1,4.634853959E-2,-4.974705827E-1,4.637473512E-1,6.816793774E-1
1.104713137E1,6.348380506E-2,-6.300491810E-1,3.238801986E-1,7.112598309E-1
1.105707738E1,2.534037083E-2,-6.873834693E-1,2.913322574E-1,7.470024448E-1
1.106702437E1,8.870913193E-2,-4.153978944E-1,3.716180366E-1,5.643799127E-1
1.107697037E1,2.533165848E-1,-1.575198966E-1,3.373065752E-1,4.502860598E-1
1.108691637E1,3.752649450E-1,-8.675747752E-2,2.680088836E-1,4.692327787E-1
1.109686337E1,1.208063990E-1,-2.320982087E-1,3.236047947E-1,4.161536107E-1
1.110680937E1,-3.061704442E-2,-4.409894031E-1,3.509726876E-1,5.644385569E-1
1.111675637E1,1.267862003E-1,-5.878773075E-1,3.038529003E-1,6.737960035E-1
1.112670237E1,1.597288285E-1,-8.208660471E-1,3.833838040E-1,9.199551658E-1
1.113664837E1,1.333024836E-1,-8.432784247E-1,4.536340070E-1,9.667842914E-1
1.114659537E1,1.546999307E-1,-7.312551284E-1,4.470342547E-1,8.709223595E-1
1.115654137E1,2.290637961E-1,-4.134612966E-1,3.337538069E-1,5.786294756E-1
1.116648837E1,3.552588429E-1,-1.549746037E-2,2.747565705E-1,4.493775581E-1
1.117643437E1,3.467055358E-1,2.635457039E-2,3.873879772E-1,5.205465751E-1
1.118638037E1,3.918321535E-1,-3.911465675E-1,6.080928862E-1,8.223776699E-1
1.119632737E1,3.264311926E-1,-9.386804259E-1,7.737018210E-1,1.259481152E0
1.120627337E1,3.339404793E-1,-1.261359606E0,8.179699212E-1,1.540006199E0
1.121622037E1,4.568099222E-1,-1.330898788E0,9.184034514E-1,1.680307052E0
1.122616637E1,3.840935098E-1,-1.103766035E0,1.175343556E0,1.657485975E0
1.123611237E1,3.680351552E-1,-8.878154969E-1,1.188058326E0,1.528119373E0
1.124605938E1,4.069697177E-1,-6.391246444E-1,1.061117613E0,1.303869338E0
1.125600537E1,3.480479103E-1,-1.194937575E0,9.120253086E-1,1.542985198E0
1.126595237E1,2.885559994E-1,-1.182095920E0,1.047845603E0,1.605800653E0
1.127589837E1,1.544730587E-1,-1.400285942E0,9.362918383E-1,1.691539255E0
1.128584437E1,1.736257598E-1,-1.453821294E0,6.958660251E-1,1.621102028E0
1.129579137E1,2.206591545E-1,-1.352439346E0,7.034206277E-1,1.540319196E0
1.130573737E1,4.468081136E-1,-1.349242088E0,5.221130884E-1,1.514164383E0
1.131568438E1,7.913675751E-1,-1.420724300E0,3.200795084E-1,1.657459220E0
1.132563037E1,9.915269762E-1,-1.509955734E0,2.858469844E-1,1.828879592E0
1.133557637E1,1.089746604E0,-1.416889111E0,5.657105130E-1,1.874873542E0
1.134552337E1,1.240201749E0,-1.160762939E0,6.647529906E-1,1.824107321E0
1.135546937E1,1.435963898E0,-9.752664542E-1,5.456159717E-1,1.819569664E0
1.136541637E1,1.531673609E0,-8.409945023E-1,5.661888152E-1,1.836808529E0
1.137536237E1,1.550829964E0,-8.133821958E-1,6.711878514E-1,1.875408570E0
1.138530838E1,1.352505712E0,-8.251462090E-1,7.653221762E-1,1.759504476E0
1.139525537E1,1.006344405E0,-7.868908006E-1,8.376311839E-1,1.527596869E0
1.140520137E1,7.243000115E-1,-7.088579535E-1,9.128211147E-1,1.363940062E0
1.141514837E1,6.052606411E-1,-7.359533662E-1,1.319187984E0,1.627336701E0
1.142509437E1,7.708722071E-1,-7.598749101E-1,1.713379197E0,2.026652933E0
1.143504037E1,1.197501726E0,-5.762682456E-1,2.071160383E0,2.460853674E0
1.144498737E1,1.339175960E0,-4.216368735E-1,1.966387049E0,2.416163888E0
1.145493338E1,9.479681432E-1,-3.600984371E-1,1.235433052E0,1.598314522E0
1.146488037E1,6.406168538E-1,-4.587240082E-1,6.519540203E-1,1.022673806E0
1.147482637E1,3.452669746E-1,-6.445941299E-1,5.032031929E-1,8.876510178E-1
1.148477237E1,1.224588221E-1,-7.459088355E-1,5.337408614E-1,9.253407271E-1
1.149471937E1,-2.450913066E-1,-6.846399558E-1,2.849184465E-1,7.810122526E-1
1.150466537E1,-3.771103263E-1,-6.403823805E-1,2.098887295E-1,7.722402930E-1
1.151461237E1,-2.334831217E-1,-5.345577174E-1,6.856164408E-1,9.001867724E-1
1.152455838E1,-3.724728996E-1,-3.550505358E-1,1.211355388E0,1.316122646E0
1.153450437E1,-7.767721939E-1,-2.639889228E-1,1.451325118E0,1.667156199E0
1.154445137E1,-1.889832963E0,-3.877107435E-1,1.675095137E0,2.554942654E0
1.155439737E1,-2.642223437E0,-5.837386483E-1,1.983402154E0,3.354993235E0
1.156434437E1,-3.120374234E0,-6.447011340E-1,2.451265653E0,4.020084354E0
1.157429037E1,-2.712140933E0,-1.031132507E0,3.285788749E0,4.383531726E0
1.158423637E1,-1.620250593E0,-1.815749910E0,4.513255555E0,5.127536974E0
1.159418337E1,2.279180342E-1,-3.059949692E0,6.227221520E0,6.942155761E0
1.160412937E1,2.148784509E0,-5.060916590E0,7.998053119E0,9.705617203E0
1.161407637E1,4.678850749E0,-8.135163310E0,9.156116399E0,1.311133074E1
1.162402237E1,9.707414694E0,-1.152638700E1,8.049224442E0,1.708454013E1
1.163396837E1,1.705425113E1,-1.424483241E1,6.957602490E0,2.328456493E1
1.164391537E1,2.007048353E1,-1.291514165E1,1.005967728E1,2.590023745E1
1.165386137E1,2.010877110E1,-9.265033069E0,8.510376799E0,2.371982348E1
1.166380738E1,1.122029930E1,-5.372918755E0,5.819160712E0,1.373411823E1
1.167375437E1,2.675703424E0,-1.616618011E0,2.851071362E0,4.231010579E0
1.168370037E1,1.737267412E0,1.377100855E0,-2.460976124E-1,2.230486238E0
1.169364737E1,1.574427134E0,4.670288086E-1,-2.027888063E0,2.609457167E0
1.170359337E1,1.539549662E0,1.067357762E0,-2.466085421E0,3.096940919E0
1.171353937E1,5.529302537E-2,3.494023009E0,-2.135328312E0,4.095226624E0
1.172348637E1,7.628601476E0,3.970239547E0,-2.617202032E0,8.989333069E0
1.173343237E1,1.284251105E1,3.148785855E0,-2.045565073E0,1.338018232E1
1.174337937E1,6.533310395E0,1.881339882E0,-7.588674349E-1,6.841013394E0
1.175332537E1,-2.029791332E0,1.887512203E0,-1.236291423E0,3.034991211E0
1.176327137E1,-6.228654673E0,2.281238562E0,-1.780306574E0,6.868018630E0
1.177321837E1,-8.327767085E0,2.987044561E0,-2.064930467E0,9.085046927E0
1.178316437E1,-9.164286128E0,3.555030226E0,-1.921278119E0,1.001567221E1
1.179311137E1,-9.300037426E0,3.744979365E0,-1.657790887E0,1.016188158E1
1.180305737E1,-9.360994649E0,3.646599377E0,-1.709712993E0,1.019063425E1
1.181300337E1,-9.495713328E0,3.500116685E0,-1.777150978E0,1.027509873E1
1.182294962E1,-9.554578418E0,3.340752576E0,-1.733540689E0,1.026916549E1
1.183289562E1,-9.718962361E0,3.096998820E0,-1.627827123E0,1.032954269E1
1.184284262E1,-1.028434251E1,2.789224777E0,-6.509465450E-1,1.067572981E1
1.185278862E1,-1.097362866E1,2.362425105E0,5.500969854E-1,1.123851347E1
1.186273462E1,-1.165106368E1,1.763818156E0,1.450698004E0,1.187277828E1
1.187268162E1,-1.241696473E1,1.096868075E0,1.685110833E0,1.257870149E1
1.188262762E1,-1.296506635E1,5.606960870E-1,1.045896142E0,1.301926358E1
1.189257462E1,-1.268493326E1,3.642303720E-1,4.475458860E-2,1.269024029E1
1.190252062E1,-1.215439200E1,3.080418456E-1,-1.107357979E0,1.220861894E1
1.191246662E1,-1.179021454E1,2.045997767E-1,-1.937721659E0,1.195013746E1
1.192241362E1,-1.168860982E1,2.563302398E-2,-2.404862734E0,1.193346644E1
1.193235963E1,-1.160825738E1,4.419924930E-2,-2.237889352E0,1.182208703E1
1.194230662E1,-1.141706980E1,3.439785406E-2,-1.788899057E0,1.155641925E1
1.195225262E1,-1.090198039E1,1.520350622E-1,-1.588367627E0,1.101813064E1
1.196219862E1,-1.058361470E1,3.081442449E-1,-1.524487965E0,1.069728547E1
1.197214562E1,-1.063327627E1,4.958422063E-1,-1.204163458E0,1.071272297E1
1.198209162E1,-1.057849488E1,6.051521753E-1,-9.796180983E-1,1.064097808E1
1.199203862E1,-1.046039983E1,7.245145313E-1,-8.426429786E-1,1.051926486E1
1.200198463E1,-1.042717361E1,8.215750951E-1,-7.459749822E-1,1.048605807E1
1.201193062E1,-1.054932078E1,9.720391566E-1,-4.716288862E-1,1.060450201E1
1.202187762E1,-1.091557166E1,1.363003510E0,-4.044416741E-2,1.100041449E1
1.203182362E1,-1.088716003E1,1.227326472E0,-7.324451829E-1,1.098057648E1
1.204177062E1,-1.069904224E1,7.558300987E-1,-1.580872520E0,1.084158392E1
1.205171662E1,-1.054220238E1,4.021004489E-1,-2.130845252E0,1.076290933E1
1.206166262E1,-1.038127531E1,1.582920215E-1,-2.565577549E0,1.069477076E1
1.207160962E1,-1.027420577E1,4.056039909E-2,-2.932012614E0,1.068445822E1
1.208155562E1,-1.018245828E1,-3.390743712E-2,-3.265600652E0,1.069335092E1
1.209150262E1,-1.012777863E1,-1.163718524E-1,-3.570224800E0,1.073927127E1
1.210144862E1,-1.019169220E1,-2.214247012E-1,-3.921276425E0,1.092227209E1
1.211139462E1,-1.019540519E1,-5.013557652E-1,-3.905597701E0,1.092937958E1
1.212134162E1,-1.014991736E1,-8.177632222E-1,-3.256266157E0,1.069078240E1
1.213128762E1,-1.021050270E1,-1.110774215E0,-2.282027936E0,1.052120887E1
1.214123462E1,-1.032951576E1,-1.460646749E0,-1.962301599E0,1.061522549E1
1.215118062E1,-1.083009823E1,-2.312687227E0,-1.648918030E0,1.119636014E1
1.216112662E1,-1.189069661E1,-3.884940658E0,-4.785057235E-1,1.251840235E1
1.217107362E1,-1.326891457E1,-6.200136632E0,1.309116740E0,1.470440665E1
1.218101962E1,-1.470558364E1,-9.014348316E0,3.783689395E0,1.765867977E1
1.219096662E1,-1.654140120E1,-1.291374534E1,8.857165804E0,2.277788749E1
1.220091262E1,-1.776789444E1,-1.750855639E1,1.370403863E1,2.846134738E1
1.221085862E1,-7.618407440E0,-1.714075367E1,1.153295694E1,2.201941561E1
1.222080562E1,-1.556532900E0,-1.565541822E1,1.879956431E1,2.451404765E1
1.223075162E1,2.078003379E0,-1.437393776E1,2.802811601E1,3.156744323E1
1.224069862E1,2.235321781E1,8.572467213E0,2.957939402E1,3.805383149E1
1.225064462E1,4.920401098E1,2.026388369E1,2.793259122E1,6.009899609E1
1.226059062E1,5.392086629E1,-6.626157748E0,3.241935158E1,6.326436711E1
1.227053762E1,3.872570464E1,-1.337246876E1,1.862400400E1,4.500396255E1
1.228048362E1,2.620651655E1,-1.042037798E1,4.469179536E0,2.855414773E1
1.229043062E1,1.792417765E1,-6.073196504E0,1.619337258E0,1.899426528E1
1.230037662E1,1.058247215E1,-3.266172218E0,7.578459263E-2,1.107530321E1
1.231032262E1,6.712308285E0,-1.291508435E0,-4.402450526E-1,6.849590663E0
1.232026962E1,1.373858574E0,-1.361126554E-1,-3.141456370E0,3.431437332E0
1.233021562E1,4.694153497E-1,-2.923385632E-1,-3.879310666E0,3.918528276E0
1.234016262E1,-8.868626931E-1,-1.981097474E0,-3.222689399E0,3.885485761E0
1.235010862E1,-1.959592292E0,-3.398823321E0,-2.591097722E0,4.701679416E0
1.236005462E1,-1.596750341E0,-4.687019309E0,-1.377129214E0,5.139479208E0
1.237000162E1,-1.100541880E0,-5.310692686E0,1.267589815E0,5.569688786E0
1.237994762E1,-1.490257634E0,-3.767204340E0,4.033470168E0,5.716780383E0
1.238989462E1,-1.506101249E0,-7.531383330E-1,4.243977533E0,4.565840955E0
1.239984063E1,-1.830442940E0,7.254400724E-1,1.638985072E0,2.561846350E0
1.240978662E1,-1.235181914E0,5.678008926E-1,9.339371645E-1,1.649336485E0
1.241973362E1,-1.697519794E-1,8.628139722E-1,2.562939286E0,2.709598027E0
1.242967962E1,1.658851572E0,1.759059985E0,2.702294222E0,3.626082546E0
1.243962662E1,3.148311938E0,2.241524273E0,1.112517563E0,4.021690497E0
1.244957262E1,2.794772323E0,1.849519919E0,5.545546103E-1,3.396911404E0
1.245951862E1,1.337714449E0,1.167738667E0,1.859227467E-1,1.785402142E0
1.246946563E1,1.524429055E-1,1.159409308E-1,-3.687400371E-1,4.155121584E-1
1.247941162E1,-4.298055068E-1,-8.131693572E-1,-4.096202606E-1,1.006859442E0
1.248935862E1,-3.968190975E-2,-1.577030899E0,3.330924869E-2,1.577881686E0
1.249930462E1,5.537618009E-1,-2.353920622E0,1.087880319E-1,2.420625800E0
1.250925062E1,1.084930765E0,-2.670336850E0,4.152072752E-1,2.912073271E0
1.251919762E1,1.395987946E0,-2.320213763E0,1.554253070E0,3.122159006E0
1.252914362E1,1.251922639E0,-1.953360622E0,2.956030637E0,3.757797911E0
1.253908963E1,1.500318938E0,-1.843117803E0,3.146777337E0,3.943380245E0
1.254903662E1,1.657036304E0,-1.308960035E0,2.571851027E0,3.327696409E0
1.255898262E1,1.214593429E0,-6.985025346E-1,1.886576064E0,2.349960049E0
1.256892962E1,6.402386852E-1,-9.827883124E-2,1.535071864E0,1.666136228E0
1.257887562E1,5.193525448E-1,2.379413313E-1,1.565871488E0,1.666822324E0
1.258882262E1,7.090924269E-1,3.854548877E-1,1.363751369E0,1.584678307E0
1.259876862E1,6.337089533E-1,4.135753173E-1,1.186250367E0,1.407061304E0
1.260871463E1,3.755057772E-1,2.569979918E-1,6.951316148E-1,8.308191852E-1
1.261866162E1,1.432700859E-1,-2.917690444E-1,4.635953236E-1,5.661944161E-1
1.262860762E1,1.652045267E-1,-3.021034133E-1,4.480978632E-1,5.651112306E-1
1.263855362E1,2.725513662E-1,-4.069206011E-1,7.527366292E-1,8.980429031E-1
1.264850062E1,3.725641161E-1,-3.428883272E-1,9.717780054E-1,1.095777768E0
1.265844662E1,2.516037161E-1,-3.387145847E-1,1.063488659E0,1.144132915E0
1.266839362E1,5.298286356E-2,-4.167497706E-1,9.887957418E-1,1.074339134E0
1.267833962E1,-4.786326081E-2,-6.179290724E-1,8.599500060E-1,1.060019454E0
1.268828562E1,-3.020437717E-2,-8.797498477E-1,9.462987632E-1,1.292421544E0
1.269823262E1,1.171866070E-1,-1.049992701E0,1.003666965E0,1.457245604E0
1.270817862E1,2.149712755E-1,-1.123707964E0,7.861943972E-1,1.388176454E0
1.271812562E1,4.304066737E-1,-1.066464892E0,5.160407549E-1,1.260513916E0
1.272807162E1,5.316034117E-1,-1.119702036E0,1.943415678E-1,1.254632808E0
1.273801762E1,5.273633033E-1,-1.104509216E0,1.270149726E-1,1.230522436E0
1.274796462E1,3.797862314E-1,-8.888311583E-1,1.366038215E-1,9.761757084E-1
1.275791062E1,1.456573579E-1,-5.821218932E-1,2.628615797E-1,6.551169166E-1
1.276785762E1,-3.751368910E-2,-4.085455424E-1,2.459754056E-1,4.783520014E-1
1.277780362E1,-1.026936983E-1,-2.989751530E-1,2.012430364E-1,3.747411073E-1
1.278774962E1,-1.889239032E-1,-4.346416658E-1,1.920693398E-1,5.113670405E-1
1.279769662E1,-1.227810037E-1,-6.153931350E-1,2.538095051E-1,6.769070470E-1
1.280764262E1,-1.472120594E-1,-6.831179255E-1,2.106307411E-1,7.298539578E-1
1.281758962E1,-8.498109341E-2,-6.396596646E-1,1.456366003E-1,6.615106138E-1
1.282753575E1,4.964432269E-2,-5.626225984E-1,9.194278836E-2,5.722431505E-1
1.283748175E1,8.815079592E-2,-5.530150384E-1,-1.946596563E-2,5.603348279E-1
1.284742875E1,2.499684691E-2,-4.983084887E-1,-1.285025042E-1,5.152175132E-1
1.285737475E1,4.512537517E-2,-3.085224867E-1,-4.080923831E-1,5.135774698E-1
1.286732175E1,1.087764837E-2,-1.403343451E-1,-3.109245229E-1,3.413006161E-1
1.287726775E1,8.395841539E-2,7.220609665E-2,-3.096743882E-1,3.288783401E-1
1.288721375E1,1.303907163E-2,2.959761161E-1,-2.994476080E-1,4.212371643E-1
1.289716075E1,-8.719543397E-2,2.715914726E-1,-3.854893863E-1,4.795487865E-1
1.290710675E1,-7.112611592E-2,8.120028377E-2,-3.570514530E-1,3.730122659E-1
1.291705375E1,1.037757987E-1,4.976565242E-2,-1.995619619E-1,2.303714678E-1
1.292699975E1,1.584403946E-1,1.017187482E-1,-1.797878480E-1,2.603338869E-1
1.293694575E1,1.559136665E-1,1.403887242E-1,-1.473966122E-1,2.564055900E-1
1.294689275E1,1.169826123E-1,-2.496117890E-2,-1.317728519E-1,1.779665040E-1
1.295683875E1,6.383697689E-2,-2.036953586E-1,-1.068444175E-1,2.387104696E-1
1.296678575E1,5.895908341E-2,-2.781508791E-1,-1.369920766E-1,3.156119677E-1
1.297673175E1,1.126767227E-1,-3.057772189E-1,-5.332075953E-2,3.302103191E-1
1.298667775E1,1.292803301E-1,-2.802348268E-1,-1.771297038E-2,3.091257207E-1
1.299662475E1,-3.034719542E-2,-1.326183593E-1,-5.091170669E-2,1.452603985E-1
1.300657075E1,-2.038071866E-1,2.056699634E-2,-1.301309538E-1,2.426817583E-1
1.301651775E1,-3.424831152E-1,-9.820047855E-2,-3.119583106E-1,4.735567608E-1
1.302646375E1,-3.842981623E-1,-1.978346944E-1,-1.941293138E-1,4.738246874E-1
1.303640975E1,-3.711335948E-1,-1.616263962E-1,2.371642363E-1,4.691589412E-1
1.304635675E1,-2.601339997E-1,-3.138902307E-1,5.446763241E-1,6.803448190E-1
1.305630275E1,-1.199068049E-1,-7.354417348E-1,6.923407388E-1,1.017146934E0
1.306624975E1,6.837295443E-3,-1.212432445E0,8.263343632E-1,1.467265368E0
1.307619575E1,8.336550772E-2,-1.444052936E0,9.757383245E-1,1.744793388E0
1.308614175E1,-3.985052884E-2,-1.428184177E0,1.067350160E0,1.783405303E0
1.309608875E1,-1.458123091E-1,-1.485647104E0,1.159543210E0,1.890224591E0
1.310603475E1,-1.197593088E-1,-1.590088901E0,1.238920916E0,2.019319203E0
1.311598175E1,-1.963904321E-1,-1.619429060E0,1.387248405E0,2.141396231E0
1.312592775E1,-3.723910385E-1,-1.585860779E0,1.635097843E0,2.308067255E0
1.313587375E1,-2.584635964E-1,-1.532589136E0,1.481988502E0,2.147538780E0
1.314582075E1,-1.189835295E-1,-1.370429474E0,1.518112600E0,2.048633664E0
1.315576675E1,-4.083037600E-2,-1.131102353E0,1.478501807E0,1.861995501E0
1.316571375E1,-1.939623758E-2,-1.037188468E0,1.331866502E0,1.688195638E0
1.317565975E1,1.053544007E-1,-1.018060471E0,1.257869988E0,1.621660748E0
1.318560575E1,2.194961433E-1,-1.073942896E0,1.135621666E0,1.578343584E0
1.319555275E1,2.740937886E-1,-9.986412835E-1,1.212207912E0,1.594321122E0
1.320549875E1,4.297829220E-1,-7.779574245E-1,1.242338029E0,1.527525742E0
1.321544575E1,5.416024429E-1,-6.548203254E-1,1.263801988E0,1.522930836E0
1.322539175E1,6.143152007E-1,-5.652678788E-1,1.181642761E0,1.446786285E0
1.323533775E1,8.078558461E-1,-3.818758070E-1,1.039888127E0,1.371068021E0
1.324528475E1,9.144817239E-1,-2.414584315E-1,8.698049033E-1,1.284966757E0
1.325523075E1,1.081030599E0,-2.416999215E-1,7.596702576E-1,1.343184614E0
1.326517775E1,1.405173337E0,-2.857838345E-1,5.103672016E-1,1.522057551E0
1.327512375E1,1.776607479E0,-3.082622856E-1,1.484339082E-1,1.809251888E0
1.328506975E1,1.940163456E0,-2.941968083E-1,5.220978856E-2,1.963036388E0
1.329501675E1,1.989617452E0,-3.450196373E-1,1.347713041E-1,2.023803217E0
1.330496275E1,2.172163432E0,-3.789621395E-1,1.304221451E-2,2.205011650E0
1.331490975E1,2.422187449E0,-3.734780359E-1,-1.159087712E-1,2.453551044E0
1.332485575E1,2.383385911E0,1.439759910E-2,2.579095727E-1,2.397342912E0
1.333480175E1,2.036786941E0,1.887001741E-1,1.099346709E-1,2.048461479E0
1.334474875E1,1.727768610E0,1.292491937E-1,-6.182313734E-1,1.839592280E0
1.335469475E1,1.605161707E0,-1.321593529E-1,-1.469263791E0,2.180079422E0
1.336464175E1,1.556995122E0,-9.646385550E-2,-1.750455222E0,2.344703088E0
1.337458775E1,1.411398283E0,1.419183558E-1,-1.504188040E0,2.067551110E0
1.338453375E1,1.778104074E0,5.306669801E-1,-1.421975604E0,2.337793010E0
1.339448075E1,2.192279900E0,9.232420224E-1,-1.238743161E0,2.681967862E0
1.340442675E1,2.448458989E0,1.118388752E0,4.345814395E-1,2.726647364E0
1.341437375E1,2.562235866E0,6.821981585E-1,1.595461907E0,3.094502489E0
1.342431975E1,1.717981833E0,-4.922004873E-1,1.305139464E0,2.212941915E0
1.343426575E1,7.746970171E-1,-1.343207762E0,9.231853044E-1,1.804614548E0
1.344421275E1,9.056927741E-2,-1.763468785E0,7.275772297E-1,1.909815063E0
1.345415875E1,-8.120601404E-1,-2.020175001E0,7.040971506E-1,2.288296638E0
1.346410575E1,-2.081476040E0,-1.779987754E0,1.523264582E0,3.133884793E0
1.347405175E1,-2.669131154E0,-1.280420360E0,2.203981056E0,3.690700463E0
1.348399775E1,-2.804261477E0,-7.849436778E-1,2.292981525E0,3.706451576E0
1.349394475E1,-2.748437524E0,-5.089837503E-1,2.243492446E0,3.584164008E0
1.350389075E1,-2.468818409E0,-4.775736773E-1,2.211802876E0,3.348912199E0
1.351383675E1,-1.863676613E0,-5.766877833E-1,2.021842627E0,2.809574154E0
1.352378375E1,-1.415951802E0,-1.001767497E0,1.861428066E0,2.544282231E0
1.353372975E1,-8.379644752E-2,-1.637675296E0,2.543079218E0,3.025930291E0
1.354367675E1,1.846015683E0,-2.586086074E0,3.974363004E0,5.088337289E0
1.355362275E1,4.143441676E0,-3.489198179E0,5.749148490E0,7.899070909E0
1.356356975E1,7.897144795E0,-4.931548698E0,9.360518686E0,1.320243836E1
1.357351575E1,1.753788720E1,-7.490453990E0,1.245082712E1,2.277515059E1
1.358346175E1,2.406254371E1,-1.037955974E1,9.898570114E0,2.801290704E1
1.359340875E1,2.873895500E1,-1.163264144E1,9.575220258E0,3.244889404E1
1.360335475E1,2.880655583E1,-1.050859726E1,1.219478223E1,3.299940892E1
1.361330075E1,2.105164865E1,-7.911991460E0,9.547749454E0,2.443217222E1
1.362324775E1,1.096282768E1,-4.215930194E0,6.304624622E0,1.333063951E1
1.363319375E1,-2.211767208E0,7.780802161E-2,4.308633120E0,4.843788562E0
1.364314075E1,-3.585234895E0,1.549509663E0,-4.810334748E-1,3.935261447E0
1.365308675E1,-4.734930809E0,2.861907422E0,-4.452664660E0,7.101852324E0
1.366303275E1,-5.511801821E0,3.188298415E0,-5.817579040E0,8.624930839E0
1.367297975E1,-6.321531261E0,2.715104887E0,-5.032276343E0,8.523928509E0
1.368292575E1,-6.847637998E0,2.691675678E0,-4.839834536E0,8.806773668E0
1.369287275E1,-6.761141306E0,2.652500795E0,-4.682318147E0,8.641348012E0
1.370281875E1,-6.847370780E0,2.621429276E0,-4.134888077E0,8.417581450E0
1.371276475E1,-6.168194463E0,2.510779198E0,-3.421708739E0,7.487237528E0
1.372271175E1,-5.793393787E0,2.236290138E0,-2.665890042E0,6.758059993E0
1.373265775E1,-5.887857894E0,1.878754828E0,-2.286581748E0,6.589768310E0
1.374260475E1,-7.172789966E0,1.853363586E0,-1.485204470E0,7.555772945E0
1.375255075E1,-9.386897230E0,2.027992728E0,-1.033270541E0,9.658894456E0
1.376249675E1,-1.017968670E1,1.719814935E0,-4.257881042E-1,1.033271892E1
1.377244375E1,-1.107006211E1,9.940705150E-1,1.238338534E0,1.118337756E1
1.378238975E1,-1.238030502E1,4.113516212E-3,3.673547440E0,1.291382671E1
1.379233675E1,-1.395948828E1,-8.708129632E-1,6.417394023E0,1.538858585E1
1.380228275E1,-1.512766608E1,-9.006399027E-1,8.171268697E0,1.721705739E1
1.381222875E1,-1.488759343E1,-1.326408711E-1,7.552951369E0,1.669446334E1
1.382217575E1,-1.371060038E1,7.186488238E-1,4.564039500E0,1.446815384E1
1.383212250E1,-1.216654836E1,1.943356913E0,1.296416442E0,1.238879456E1
1.384206950E1,-1.091827424E1,2.868900107E0,-6.451665723E-1,1.130732241E1
1.385201550E1,-1.013855739E1,3.377995832E0,-1.372893052E0,1.077432304E1
1.386196150E1,-9.840936449E0,3.699545038E0,-1.289753247E0,1.059217292E1
1.387190850E1,-9.843464785E0,3.951162714E0,-1.057396591E0,1.065943588E1
1.388185450E1,-9.951794980E0,4.178905624E0,-8.771074909E-1,1.082916401E1
1.389180150E1,-9.817473911E0,4.458463928E0,8.398963952E-1,1.081508763E1
1.390174750E1,-9.580498540E0,4.649760266E0,1.006807213E-1,1.064971171E1
1.391169350E1,-9.250146058E0,4.598844759E0,-2.326654032E0,1.058904595E1
1.392164050E1,-8.902575865E0,4.355554979E0,-3.333377191E0,1.045648697E1
1.393158650E1,-8.633268315E0,4.100840325E0,-4.038076897E0,1.037575434E1
1.394153350E1,-8.394185607E0,3.971414253E0,-5.156868814E0,1.062204214E1
1.395147950E1,-8.171397920E0,3.934825886E0,-6.226154988E0,1.100089108E1
1.396142550E1,-7.854705704E0,3.913894316E0,-6.618010238E0,1.099149807E1
1.397137250E1,-7.748861160E0,3.839166607E0,-6.883334080E0,1.105279773E1
1.398131850E1,-7.506788186E0,3.893817024E0,-7.206611431E0,1.111075732E1
1.399126550E1,-7.153197116E0,3.929869201E0,-7.150697431E0,1.085101722E1
1.400121150E1,-6.989026596E0,3.938121961E0,-6.906384974E0,1.058553025E1
1.401115750E1,-7.057826105E0,4.030602401E0,-6.880589982E0,1.064899918E1
1.402110450E1,-7.230182142E0,4.140112272E0,-7.020063032E0,1.089483127E1
1.403105050E1,-7.474415077E0,4.158365525E0,-7.048196910E0,1.108313874E1
1.404099750E1,-7.673465992E0,4.114243020E0,-7.036462133E0,1.119468067E1
1.405094350E1,-7.741101320E0,4.077473097E0,-7.023510550E0,1.121963177E1
1.406088950E1,-7.819407232E0,4.069164788E0,-6.914200362E0,1.120300844E1
1.407083650E1,-8.073547690E0,4.030036683E0,-6.366881096E0,1.104357473E1
1.408078250E1,-8.461487060E0,3.974120929E0,-5.959983299E0,1.108655949E1
1.409072950E1,-8.595589442E0,3.951520564E0,-5.932655752E0,1.116669499E1
1.410067550E1,-8.669707578E0,3.879486668E0,-5.345669560E0,1.089910223E1
1.411062150E1,-8.680077031E0,3.703605344E0,-4.143400161E0,1.030670630E1
1.412056850E1,-8.833263556E0,3.396250254E0,-3.058443450E0,9.945608939E0
1.413051450E1,-9.166099935E0,2.687192618E0,-1.717980956E0,9.705145581E0
1.414046150E1,-9.441240667E0,8.230511516E-1,3.186383452E0,9.998373769E0
1.415040750E1,-9.822594903E0,-4.378097165E0,1.559835641E1,1.894623520E1
1.416035350E1,-6.663701550E0,-1.609108490E1,3.015626628E1,3.482424914E1
1.417030050E1,-3.861033440E-2,-3.244817134E1,3.863462841E1,5.045314486E1
1.418024650E1,1.977119262E1,-3.504273997E1,5.263690661E1,6.625358571E1
1.419019350E1,4.447704700E1,-1.771261019E1,4.127956963E1,6.321350440E1
1.420013950E1,3.961435278E1,-1.195870674E1,3.380272094E1,5.343155955E1
1.421008550E1,3.048720232E1,-1.364073200E1,1.530945133E1,3.674123535E1
1.422003250E1,2.815328151E1,-1.749713795E1,-1.621883136E0,3.318716019E1
1.422997850E1,1.779918874E1,-9.840377455E0,-9.097907951E0,2.228039671E1
1.423992450E1,6.319129225E0,-2.324555320E0,-4.483335060E0,8.089205453E0
1.424987150E1,-1.875353210E0,8.953011024E-1,-1.669699327E0,2.665784982E0
1.425981750E1,-2.316641406E0,1.307344449E0,-2.636895454E0,3.745556641E0
1.426976450E1,-2.465095487E0,9.522307634E-1,-2.517785332E0,3.650024954E0
1.427971050E1,-1.963328955E0,2.864960253E-1,-1.441737438E0,2.452620517E0
1.428965750E1,-7.207497284E-1,1.234251915E0,1.254756930E0,1.901912962E0
1.429960350E1,-2.396492299E0,4.686430494E0,1.011860669E0,5.360006355E0
1.430954950E1,-5.085000687E0,6.796063802E0,-2.451486093E-1,8.491396412E0
1.431949650E1,-8.130466826E0,4.812690591E0,-1.341520840E0,9.542859095E0
1.432944250E1,-9.371179329E0,-5.297372729E-1,-2.089080929E0,9.615814200E0
1.433938850E1,-4.179759902E0,-3.571685727E0,-1.333586168E-1,5.499556009E0
1.434933550E1,2.690420281E0,-4.833154677E0,3.102378843E0,6.342121089E0
1.435928150E1,5.537113833E0,-5.449833030E0,4.661006216E0,9.060093189E0
1.436922850E1,3.318214484E0,-4.022722986E0,5.495738350E0,7.576013965E0
1.437917450E1,1.980517723E-1,-2.372076226E0,5.473018994E0,5.968241536E0
1.438912050E1,2.361377576E-1,-1.273116603E0,2.784590274E0,3.070916788E0
1.439906750E1,1.434731012E0,4.819579196E-1,5.541850662E-1,1.611787083E0
1.440901350E1,9.386941668E-1,2.397551376E0,6.341410625E-1,2.651704023E0
1.441896050E1,6.766506127E-1,2.945138444E0,6.542490524E-1,3.091882651E0
1.442890650E1,1.482985159E0,1.795929018E0,8.151322675E-1,2.467599367E0
1.443885250E1,1.939370574E0,2.410883027E-1,1.121193076E0,2.253076942E0
1.444879950E1,1.806725317E0,-8.286095148E-1,7.418801039E-1,2.121611696E0
1.445874550E1,1.519056633E0,-1.615209709E0,3.734335971E-1,2.248530211E0
1.446869250E1,1.197798910E0,-1.941280859E0,1.176115973E0,2.566425995E0
1.447863850E1,1.008146225E0,-1.961391773E0,2.199382221E0,3.114594460E0
1.448858450E1,6.164614213E-1,-1.538149254E0,2.782544333E0,3.238592407E0
1.449853150E1,4.842956364E-2,-1.710255615E0,2.321346953E0,2.883742597E0
1.450847750E1,-3.268973619E-2,-8.519235331E-1,1.773532428E0,1.967805783E0
1.451842450E1,-1.770890656E-1,-1.217204357E0,1.070515258E0,1.630628683E0
1.452837050E1,-1.601233694E-1,-7.752180040E-2,8.548407090E-1,8.731562063E-1
1.453831650E1,-4.293990523E-2,-1.529269087E-1,4.997188371E-1,5.243561681E-1
1.454826350E1,3.175812855E-1,-4.479347259E-1,7.073622358E-1,8.954689968E-1
1.455820950E1,3.959974176E-1,-8.173080164E-1,5.743673158E-1,1.074571618E0
1.456815650E1,9.597415119E-2,-1.522423752E0,6.458296466E-1,1.656526803E0
1.457810250E1,2.451953870E-1,-1.562038638E0,9.966742802E-1,1.869076003E0
1.458804850E1,2.699545446E-1,-1.249953443E0,1.150239120E0,1.719973575E0
1.459799550E1,4.749985635E-3,-1.119438912E0,1.393402015E0,1.787382224E0
1.460794150E1,-2.771878427E-1,-9.043069839E-1,1.516996951E0,1.787703547E0
1.461788850E1,-4.583711287E-1,-6.920571488E-1,1.508291032E0,1.721623950E0
1.462783450E1,-5.340127569E-1,-4.762223858E-1,1.518176919E0,1.678338030E0
1.463778050E1,-4.936655071E-1,-4.558524406E-1,1.534052694E0,1.674761102E0
1.464772750E1,-4.679880443E-1,-7.648789573E-1,1.255221784E0,1.542606352E0
1.465767350E1,-4.555744055E-1,-1.123905015E0,9.171082932E-1,1.520459846E0
1.466762050E1,-3.881241417E-1,-1.277658720E0,7.965691119E-1,1.554855139E0
1.467756650E1,-3.758484972E-1,-1.199339944E0,6.720082158E-1,1.425227503E0
1.468751250E1,-4.192646581E-1,-1.069245828E0,5.956611210E-1,1.293785788E0
1.469745950E1,-5.279141110E-1,-8.179342532E-1,4.901662409E-1,1.089941602E0
1.470740550E1,-5.068980485E-1,-4.759364569E-1,3.117630136E-1,7.620087396E-1
1.471735250E1,-5.341530901E-1,-2.159774351E-1,1.627075464E-1,5.986981892E-1
1.472729850E1,-5.796821424E-1,-7.086825371E-2,1.411751747E-1,6.008195450E-1
1.473724450E1,-5.404657441E-1,4.620645225E-2,2.923923576E-1,6.162236182E-1
1.474719150E1,-6.094017854E-1,-2.188729763E-2,3.918803930E-1,7.248584912E-1
1.475713750E1,-7.290127212E-1,-1.627285963E-1,4.430938160E-1,8.684884994E-1
1.476708450E1,-7.631133905E-1,-2.050741321E-1,4.520266074E-1,9.103436166E-1
1.477703050E1,-6.780384493E-1,-3.409856433E-1,3.513989496E-1,8.363543325E-1
1.478697650E1,-6.697549912E-1,-3.447769779E-1,2.130906647E-1,7.828477145E-1
1.479692350E1,-5.860982922E-1,-2.580019587E-1,3.325545430E-2,6.412348587E-1
1.480686950E1,-5.286809734E-1,-1.726951754E-1,-3.311278224E-3,5.561817686E-1
1.481681650E1,-4.338502452E-1,-6.241844237E-2,5.792134881E-2,4.421277868E-1
1.482676200E1,-4.195675439E-1,-1.442975879E-2,-3.766191602E-3,4.198324976E-1
1.483670800E1,-4.137796775E-1,2.931501567E-2,-3.436701000E-2,4.162380124E-1
1.484665500E1,-3.161390698E-1,3.015350640E-2,-8.633121550E-2,3.290991099E-1
1.485660100E1,-2.615839630E-1,8.253344893E-2,1.152486205E-2,2.745373606E-1
1.486654800E1,-1.736204973E-1,3.566860020E-2,9.619956136E-2,2.016697343E-1
1.487649400E1,-1.764447024E-1,-1.292620575E-1,2.254323828E-1,3.141037596E-1
1.488644000E1,-1.287811241E-1,-3.586565137E-1,1.694651735E-1,4.170581707E-1
1.489638700E1,6.483071119E-2,-4.436884779E-1,1.116672009E-1,4.620952827E-1
1.490633300E1,1.058559456E-1,-4.563243109E-1,3.826318520E-1,6.048508015E-1
1.491628000E1,2.916503459E-2,-5.144655150E-1,6.222390550E-1,8.079027212E-1
1.492622600E1,7.424999088E-2,-8.070034683E-1,8.387018090E-1,1.166271145E0
1.493617200E1,1.461134407E-1,-1.245420681E0,1.090887542E0,1.662064211E0
1.494611900E1,2.123892912E-1,-1.503019767E0,1.359865894E0,2.037992365E0
1.495606500E1,3.228756469E-1,-1.272254723E0,1.459089051E0,1.962605825E0
1.496601200E1,3.515571168E-1,-9.949949598E-1,1.509306108E0,1.841633054E0
1.497595800E1,2.877999544E-1,-8.752808207E-1,1.569304973E0,1.819797633E0
1.498590400E1,2.871859968E-1,-9.847716880E-1,1.688790486E0,1.975921147E0
1.499585100E1,2.457298225E-1,-1.309131943E0,1.789920419E0,2.231148740E0
1.500579700E1,1.007674062E-1,-1.329004875E0,1.659892961E0,2.128767876E0
1.501574400E1,3.049995393E-2,-1.155872912E0,1.403060446E0,1.818117447E0
1.502569000E1,-3.143024594E-2,-9.107395059E-1,1.307060859E0,1.593374531E0
1.503563600E1,-4.225227267E-2,-9.554946792E-1,9.768218136E-1,1.367090411E0
1.504558300E1,-3.859513164E-2,-8.897585267E-1,8.435737091E-1,1.226693288E0
1.505552900E1,-1.799867995E-1,-7.588060391E-1,7.090222603E-1,1.053989762E0
1.506547600E1,-1.281442161E-1,-5.866803825E-1,3.925978464E-1,7.174593231E-1
1.507542200E1,5.321229368E-2,-4.959918219E-1,8.958811462E-2,5.068189675E-1
1.508536800E1,3.208848162E-1,-4.544882852E-1,-6.612382293E-2,5.602669244E-1
1.509531500E1,4.892665006E-1,-3.925177395E-1,-2.403375202E-1,6.717246520E-1
1.510526100E1,6.617872828E-1,-3.199432683E-1,-2.413052344E-1,7.736629232E-1
1.511520800E1,8.178566314E-1,-4.279354942E-1,-3.846105498E-1,9.999717655E-1
1.512515400E1,8.421089816E-1,-4.979459614E-1,-4.348463184E-1,1.070602185E0
1.513510000E1,8.505227595E-1,-4.319794285E-1,-3.990765613E-1,1.034048980E0
1.514504700E1,9.752924743E-1,-3.923955327E-1,-5.445728284E-1,1.183946464E0
1.515499300E1,1.306969058E0,-4.912579161E-1,-7.164616728E-1,1.569337372E0
1.516494000E1,1.826478381E0,-5.877632868E-1,-8.984726322E-1,2.118665153E0
1.517488600E1,2.018197180E0,-5.258284092E-1,-6.298152924E-1,2.178596492E0
1.518483200E1,2.059564477E0,-5.113086033E-1,-3.955863583E-1,2.158640982E0
1.519477900E1,2.012073245E0,-6.882319003E-1,-3.520222628E-1,2.155463191E0
1.520472500E1,1.843411041E0,-8.341070670E-1,-1.944058871E-1,2.032656516E0
1.521467200E1,1.645583363E0,-7.746280199E-1,-8.460336328E-2,1.820755586E0
1.522461800E1,1.514001130E0,-8.129483324E-1,6.239212990E-2,1.719586343E0
1.523456400E1,1.090842080E0,-8.358723414E-1,2.829122669E-1,1.403088866E0
1.524451100E1,6.703841516E-1,-9.201237023E-1,3.083324522E-1,1.179453873E0
1.525445700E1,2.092699479E-1,-9.196296126E-1,2.412128484E-1,9.734968791E-1
1.526440400E1,-1.535470060E-1,-6.436386949E-1,4.373904419E-1,7.931947121E-1
1.527435000E1,-4.434165823E-1,-2.885022050E-1,4.744775766E-1,7.106199818E-1
1.528429600E1,-5.127566662E-1,-1.202187538E-2,4.100044227E-1,6.566334981E-1
1.529424300E1,-7.099683398E-1,1.827231503E-1,4.498204529E-1,8.601053616E-1
1.530418900E1,-9.520442373E-1,2.883642107E-1,7.366907001E-1,1.237843017E0
1.531413600E1,-1.446486255E0,4.946463776E-1,1.259374477E0,1.980661909E0
1.532408200E1,-1.965559668E0,7.320661372E-1,1.752569575E0,2.733284792E0
1.533402800E1,-2.622140590E0,7.613267738E-1,2.046868125E0,3.412463751E0
1.534397500E1,-3.208734434E0,5.766050452E-1,2.194203926E0,3.929755834E0
1.535392100E1,-3.758149926E0,2.179619801E-1,2.477599173E0,4.506628003E0
1.536386800E1,-4.129841053E0,-3.461493194E-1,2.790867260E0,4.996433382E0
1.537381400E1,-4.103872399E0,-1.087791442E0,2.897065560E0,5.139849000E0
1.538376000E1,-4.023005991E0,-1.900069683E0,3.304179119E0,5.541880697E0
1.539370700E1,-3.357784638E0,-2.738872649E0,3.687158296E0,5.689576203E0
1.540365300E1,-1.763055387E0,-3.778141556E0,4.127089646E0,5.866479938E0
1.541359900E1,4.366957927E-1,-4.896763027E0,5.000028949E0,7.012081064E0
1.542354600E1,3.101915159E0,-6.670066245E0,5.912233182E0,9.437487089E0
1.543349200E1,7.794365362E0,-8.495961658E0,7.056146200E0,1.351749589E1
1.544343900E1,1.919145055E1,-7.437358932E0,9.962542162E0,2.286653293E1
1.545338500E1,2.570971606E1,-1.097980098E1,1.297671751E1,3.082110846E1
1.546333200E1,1.681206413E1,-1.413158587E1,1.389140447E1,2.598688781E1
1.547327800E1,1.034450100E1,-1.167820996E1,1.239973415E1,1.992843937E1
1.548322400E1,1.272674320E1,-1.099319344E1,5.819602177E0,1.779573162E1
1.549317100E1,1.325974965E1,-8.094138660E0,1.820483816E0,1.564129798E1
1.550311700E1,1.410543946E1,-4.716995060E0,-5.039364338E-1,1.488178137E1
1.551306300E1,1.221343718E1,-2.501839390E0,-1.390543896E0,1.254435572E1
1.552301000E1,1.201662458E1,-3.537954017E0,-2.950796210E0,1.286948263E1
1.553295600E1,1.516170155E0,-2.194662056E0,-3.111696382E0,4.098532402E0
1.554290300E1,-3.209829032E0,-9.104863214E-1,-3.769103515E0,5.033699342E0
1.555284900E1,-5.619791708E0,3.381532520E-2,-3.491829426E0,6.616349073E0
1.556279500E1,-7.090005087E0,9.743534115E-1,-2.957329011E0,7.743599394E0
1.557274200E1,-7.958458698E0,1.969339308E0,-2.088826575E0,8.460411256E0
1.558268800E1,-8.505673299E0,2.705919496E0,-1.080590157E0,8.990892818E0
1.559263500E1,-8.880726575E0,2.958845779E0,-3.009216911E-1,9.365501946E0
1.560258100E1,-9.173704239E0,2.855303284E0,4.925313666E-1,9.620405056E0
1.561252700E1,-9.639441982E0,2.714777150E0,2.436850512E0,1.030665305E1
1.562247400E1,-1.022287190E1,2.646986286E0,5.134083969E0,1.174191060E1
1.563242000E1,-1.057889950E1,2.531439458E0,6.896907222E0,1.287977599E1
1.564236700E1,-1.109971217E1,2.175155452E0,7.940900095E0,1.382001468E1
1.565231300E1,-1.157370735E1,2.014869238E0,7.723780113E0,1.405941603E1
1.566225900E1,-1.217064726E1,1.604406101E0,6.145295597E0,1.372819841E1
1.567220600E1,-1.291675782E1,1.056197620E0,3.515769681E0,1.342828442E1
1.568215200E1,-1.265371381E1,9.932443035E-1,1.312811596E0,1.276034803E1
1.569209900E1,-1.214263442E1,1.017258233E0,-1.335691166E-1,1.218590274E1
1.570204500E1,-1.179748029E1,9.482643047E-1,-8.799404669E-1,1.186819454E1
1.571199100E1,-1.180711534E1,6.865614970E-1,-1.500084172E0,1.192181160E1
1.572193800E1,-1.310289926E1,-3.737345825E-1,-2.821504331E0,1.340845006E1
1.573188400E1,-1.313034024E1,-6.564607617E-1,-2.860307039E0,1.345429790E1
1.574183100E1,-1.292870836E1,-4.449718686E-1,-2.208143688E0,1.312346747E1
1.575177700E1,-1.314572894E1,-5.077132966E-1,-1.910768480E0,1.329356981E1
1.576172300E1,-1.312754410E1,-4.595966320E-1,-1.552604156E0,1.322702623E1
1.577167000E1,-1.278007916E1,-2.762265605E-1,-1.426722373E0,1.286243605E1
1.578161600E1,-1.243770012E1,-1.402430554E-1,-1.528752778E0,1.253208432E1
1.579156300E1,-1.276260300E1,7.983949050E-1,-1.716046697E0,1.290218144E1
1.580150900E1,-1.263126752E1,1.344583904E0,-2.356638408E0,1.291938735E1
1.581145500E1,-1.210916613E1,1.283305961E0,-2.968367677E0,1.253355437E1
1.582140200E1,-1.163102644E1,1.234493989E0,-3.507489147E0,1.221094720E1
1.583134817E1,-1.115569107E1,1.281759372E0,-4.221082175E0,1.199624463E1
1.584129517E1,-1.078989043E1,1.222794588E0,-4.668057958E0,1.181980234E1
1.585124117E1,-1.056570935E1,1.100119492E0,-4.573312307E0,1.156545124E1
1.586118717E1,-1.055241395E1,1.092834958E0,-4.351024849E0,1.146643562E1
1.587113417E1,-1.068594799E1,1.138465751E0,-4.100165264E0,1.150204086E1
1.588108017E1,-1.080160007E1,1.054804959E0,-3.973956622E0,1.155766018E1
1.589102717E1,-1.103778548E1,9.046098697E-1,-3.778369013E0,1.170158535E1
1.590097317E1,-1.116074892E1,7.053725014E-1,-2.706841602E0,1.150594882E1
1.591091917E1,-1.104225509E1,5.669461028E-1,-1.703696354E0,1.118728772E1
1.592086617E1,-1.093087967E1,4.723181999E-1,-1.158388969E0,1.100223067E1
1.593081217E1,-1.105197199E1,3.192237684E-1,-6.339989752E-1,1.107474349E1
1.594075917E1,-1.141150208E1,6.128510579E-2,6.405639365E-2,1.141184643E1
1.595070517E1,-1.171699805E1,-3.526695496E-1,1.400730915E0,1.180569634E1
1.596065117E1,-1.261655359E1,-1.174138006E0,4.793499445E0,1.354745959E1
1.597059817E1,-1.336285477E1,-2.204289350E0,7.211251781E0,1.534362836E1
1.598054417E1,-1.355449258E1,-3.495366114E0,7.852291389E0,1.604993251E1
1.599049117E1,-1.562952558E1,-6.801284196E0,7.215771679E0,1.850964336E1
1.600043717E1,-1.700803123E1,-1.010203568E1,5.648623159E0,2.057258357E1
1.601038317E1,-1.171597596E1,-1.150908743E1,3.269617982E0,1.674555427E1
1.602033017E1,-3.223348380E0,-1.091591664E1,8.600974143E0,1.426618264E1
1.603027617E1,-7.798809246E0,-1.345039694E1,1.868040624E1,2.430415974E1
1.604022317E1,-5.625957012E-1,-1.655905979E1,2.817049805E1,3.268173704E1
1.605016917E1,1.947183740E1,-1.366718948E1,3.136018928E1,3.936249473E1
1.606011517E1,6.117819180E1,-2.325444682E0,4.206175401E1,7.427900103E1
1.607006217E1,6.483932063E1,-1.673118077E1,4.277345371E1,7.945840579E1
1.608000817E1,3.847215066E1,-2.278059314E1,2.376110571E1,5.063251865E1
1.608995517E1,2.804494664E1,-1.463915226E1,8.992966218E0,3.288916618E1
1.609990117E1,1.844657959E1,-4.693439552E0,9.534586787E-1,1.905816772E1
1.610984717E1,9.199470579E0,1.018159289E0,-3.542614540E0,9.910450295E0
1.611979417E1,5.124679892E0,2.762060952E0,-4.567791073E0,7.399732427E0
1.612974017E1,1.597198530E0,3.081306648E0,-2.722237905E0,4.410903877E0
1.613968717E1,-2.943046310E0,2.311009660E0,-2.047786138E0,4.265643597E0
1.614963317E1,-3.888998918E0,7.258634108E-1,-3.950484145E0,5.590842088E0
1.615957917E1,-5.217374632E0,-5.695018476E-1,-4.861845794E0,7.154220778E0
1.616952617E1,-7.655809740E0,-2.808548656E0,-3.744294949E0,8.973244284E0
1.617947217E1,-7.976369305E0,-4.141723180E0,-7.244197333E-1,9.016713488E0
1.618941817E1,-3.016109316E0,-2.799786018E0,2.014501448E0,4.581913709E0
1.619936517E1,3.050872475E0,4.440375566E-1,3.558019615E0,4.707918414E0
1.620931117E1,5.259829511E0,1.876134691E0,4.777046549E0,7.348868049E0
1.621925817E1,4.434397958E0,4.282763869E-1,7.156117215E0,8.429550374E0
1.622920417E1,2.480739128E0,-1.088345758E0,6.376289266E0,6.927887695E0
1.623915017E1,1.139239630E0,-1.088688405E0,2.927189831E0,3.324387114E0
1.624909717E1,5.233621633E-1,1.727401990E-1,4.253849387E-2,5.527717917E-1
1.625904317E1,2.570379356E-1,1.258674565E0,-1.257167153E0,1.797442464E0
1.626899017E1,-8.641541541E-2,8.055486810E-1,-1.888764676E0,2.055190576E0
1.627893617E1,6.010369049E-1,-3.859863997E-1,-2.845688415E0,2.933968885E0
1.628888217E1,1.330938841E0,-1.139826398E0,-2.056585613E0,2.701878384E0
1.629882917E1,1.845573341E0,-1.381075500E0,1.562025189E-1,2.310391681E0
1.630877517E1,2.176558053E0,-1.721033202E0,1.476418444E0,3.143114962E0
1.631872217E1,1.379039207E0,-1.281814921E0,1.420121452E0,2.358292510E0
