"Time (s)","Linear Acceleration x (m/s^2)","Linear Acceleration y (m/s^2)","Linear Acceleration z (m/s^2)","Absolute acceleration (m/s^2)"
9.417833324E-3,-2.736613870E-2,-1.365870985E0,4.491267100E0,4.694446998E0
1.935683333E-2,-8.629683387E-1,-3.588377189E0,2.157718470E0,4.275150781E0
2.929583333E-2,-2.442970793E0,-5.887129331E0,-1.064632959E0,6.462185497E0
3.923483333E-2,-2.884322723E0,-6.640738950E0,-2.109113782E0,7.541027272E0
4.917383334E-2,-3.217661378E0,-6.132217714E0,-4.393295540E0,8.201127029E0
5.911283333E-2,-3.549461045E0,-6.202978379E0,-5.318351369E0,8.908449684E0
6.905183333E-2,-2.638525073E0,-8.419016978E0,-8.880512567E0,1.251819336E1
7.899083332E-2,7.736567974E-2,-1.287914619E1,-1.004995453E1,1.633646162E1
8.892983333E-2,2.348503177E0,-2.085248079E1,-6.307443565E0,2.191176092E1
9.886883333E-2,1.254293831E0,-3.454419466E1,-4.872517840E0,3.490868185E1
1.088078333E-1,-1.695614771E0,-3.973126435E1,-9.885768220E0,4.097776091E1
1.187468333E-1,-3.907967870E0,-3.289304154E1,-5.014215463E0,3.350174251E1
1.286858333E-1,-8.601505655E-1,-1.655730446E1,2.201882490E0,1.672520482E1
1.386248333E-1,2.345978934E0,-7.018710571E0,6.411062658E0,9.791202155E0
1.485638333E-1,-1.671199138E0,-4.761121073E0,6.970423679E0,8.605113985E0
1.585028333E-1,-2.235454863E-1,-5.232890219E0,6.306305112E0,8.197718999E0
1.684418333E-1,2.952643345E0,-3.082161218E0,6.398465416E0,7.691435509E0
1.783808333E-1,4.065238091E0,-1.184590927E0,5.759108638E0,7.148198983E0
1.883198333E-1,4.739285231E0,-5.000345868E-1,6.937026722E0,8.416246125E0
1.982588333E-1,4.776616194E0,6.457331675E-1,1.018756875E1,1.127029683E1
2.081978333E-1,6.593023916E0,2.857521425E0,1.495487968E1,1.659161895E1
2.181368333E-1,5.570064062E0,5.250883856E0,1.330548540E1,1.535035298E1
2.280758333E-1,4.017928854E0,7.047009341E0,1.035038915E1,1.315046191E1
2.380148333E-1,2.650251664E0,7.083948541E0,8.932621783E0,1.170460989E1
2.479538333E-1,-1.141195816E0,7.897653503E0,8.729923375E0,1.182737591E1
2.578928333E-1,-1.887922093E0,9.998897810E0,9.869427592E0,1.417560610E1
2.678318333E-1,-1.980056085E0,8.450351622E0,1.063239451E1,1.372504563E1
2.777708333E-1,-3.363829490E0,5.602369344E-1,8.745499188E0,9.386850926E0
2.877098333E-1,-3.670058114E0,-2.913828358E0,8.447555484E0,9.660275147E0
2.976488333E-1,-3.936602855E0,-4.107819269E0,8.462132592E0,1.019699511E1
3.075878333E-1,-4.600002800E0,-4.360716316E0,8.683938532E0,1.075112371E1
3.175268333E-1,-4.551887231E0,-4.020612141E0,8.264665103E0,1.025620245E1
3.274658333E-1,-4.348141587E0,-3.448268254E0,7.475733039E0,9.310396001E0
3.374048333E-1,-4.406196252E0,-3.168439809E0,6.479616584E0,8.452159919E0
3.473438333E-1,-4.641922658E0,-2.753795621E0,6.067642819E0,8.120783562E0
3.572828333E-1,-4.206040213E0,-2.260034219E0,5.769992645E0,7.489415469E0
3.672218333E-1,-2.723918980E0,-2.587281244E0,4.971782219E0,6.231562989E0
3.771608333E-1,-5.486202711E-1,-4.072040741E0,1.352655108E0,4.325757257E0
3.870998333E-1,2.140375044E0,-5.448926711E0,-3.691254855E0,6.920792587E0
3.970388333E-1,2.303366765E0,-4.006766811E0,-2.426278746E0,5.219818703E0
4.069778333E-1,6.724087501E-1,-3.643690972E-1,-6.261433140E-1,9.884097409E-1
4.169168333E-1,1.561316507E0,-4.073440857E-1,-4.346973313E0,4.636789344E0
4.268558333E-1,3.900492205E0,-1.669015641E0,-2.663107352E0,5.009150968E0
4.367948333E-1,5.222614907E0,8.398823619E-1,3.186829594E0,6.175515502E0
4.467338333E-1,5.716708138E0,4.038909833E0,7.152522347E0,1.000760313E1
4.566728333E-1,4.283166157E0,9.232395666E0,6.745839143E0,1.221020015E1
4.666118333E-1,3.475090894E0,1.300687277E1,5.856912675E0,1.468190799E1
4.765508333E-1,3.243617168E0,1.300111560E1,5.871416109E0,1.462954498E1
4.864898333E-1,3.189844419E0,1.455133877E1,5.897490013E0,1.602176507E1
4.964288333E-1,1.789918081E0,1.596579193E1,1.799335606E0,1.616625892E1
5.063672083E-1,1.679320335E-2,1.533612165E1,9.323806357E-1,1.536444737E1
5.163062083E-1,-1.040968693E0,1.325444622E1,-1.105299175E0,1.334112614E1
5.262452083E-1,-1.837838936E0,1.092257077E1,-3.811841984E0,1.171368190E1
5.361842083E-1,-1.727585008E0,8.708636001E0,-4.984325666E0,1.018176769E1
5.461232083E-1,-1.463218939E0,8.031910252E0,-5.377643305E0,9.776074850E0
5.560622083E-1,-4.414501637E-1,7.136741297E0,-4.570455065E0,8.486283879E0
5.660012083E-1,9.102155954E-1,6.852090653E0,-4.104016825E0,8.038817876E0
5.759402083E-1,1.005072051E-1,6.379384782E0,-3.678855250E0,7.364823681E0
5.858792083E-1,-1.244679839E0,5.864025228E0,-2.570174046E0,6.522408635E0
5.958182083E-1,-1.922683790E0,4.653925238E0,-9.148810887E-1,5.117884375E0
6.057572083E-1,-1.411552357E0,3.218101088E0,7.261622036E-1,3.588309660E0
6.156962083E-1,-7.951868302E-1,1.664731532E0,2.090800595E0,2.788386684E0
6.256352083E-1,-7.986261624E-1,5.182169424E-1,2.434683534E0,2.614199009E0
6.355742083E-1,-5.517725050E-2,-7.772004294E-1,2.891086782E0,2.994239105E0
6.455132083E-1,1.050510764E-2,-1.692668798E0,2.281425673E0,2.840799380E0
6.554522083E-1,-5.030166668E-1,-2.462588786E0,1.947773023E0,3.179809592E0
6.653912083E-1,-1.007667046E0,-3.214301568E0,8.884517471E-1,3.483744243E0
6.753302083E-1,-1.168892908E0,-3.728452795E0,-2.173970660E-1,3.913429743E0
6.852692083E-1,-1.598457436E0,-3.985083874E0,-1.299708570E0,4.486112128E0
6.952072083E-1,-2.193229195E0,-3.263858474E0,-2.660630472E0,4.747839609E0
7.051472083E-1,-3.008991208E0,-2.070499501E0,-2.771304231E0,4.584879869E0
7.150852083E-1,-3.523126355E0,-6.285006921E-1,-2.076647995E0,4.137620008E0
7.250252083E-1,-3.633507169E0,1.975792442E-2,-1.686243439E0,4.005768548E0
7.349632083E-1,-3.350631739E0,5.326859506E-1,-3.300180209E-1,3.408723994E0
7.449022083E-1,-2.546751269E0,8.926699284E-1,5.851133287E-1,2.761369087E0
7.548412083E-1,-2.057773182E0,1.171164843E0,9.591702390E-1,2.554616431E0
7.647802083E-1,-1.362990062E0,1.402462860E0,9.767094740E-1,2.186002145E0
7.747192083E-1,-3.938327783E-1,1.280536866E0,5.662268221E-1,1.454473010E0
7.846582083E-1,-4.180998927E-1,1.201993776E0,4.192383091E-1,1.339909444E0
7.945972083E-1,-3.049732268E-2,1.378997692E0,1.553183834E-1,1.388052060E0
8.045362083E-1,6.842125243E-1,1.109273820E0,7.238502145E-1,1.490836785E0
8.144752083E-1,1.739220967E0,8.739635892E-1,1.021509744E0,2.198222938E0
8.244142083E-1,1.707838960E0,5.183581161E-1,1.031331897E0,2.061323490E0
8.343532083E-1,1.207092183E0,2.057513127E-1,1.771856616E0,2.153806168E0
8.442922083E-1,1.267518479E0,-1.909481362E-3,2.139341841E0,2.486642365E0
8.542312083E-1,9.711599547E-1,-6.493740094E-1,2.013161266E0,2.327585991E0
8.641702083E-1,7.537049282E-1,-9.191853704E-1,2.169226375E0,2.473563407E0
8.741092083E-1,8.045587474E-1,-1.066609318E0,1.847360542E0,2.279848940E0
8.840482083E-1,4.947288233E-1,-9.126353194E-1,1.235785639E0,1.613947329E0
8.939872083E-1,2.705185086E-1,-6.124636799E-2,8.689903861E-1,9.121818197E-1
9.039262083E-1,4.380160940E-1,1.248490177E-1,7.682169134E-1,8.930859991E-1
9.138652083E-1,8.696616465E-1,1.655864230E-1,1.928306472E-1,9.060429909E-1
9.238042083E-1,4.456490493E-1,-3.683611375E-1,-8.669155017E-2,5.846438468E-1
9.337432083E-1,-5.307447481E-1,-4.383929470E-1,-1.083938565E0,1.284056532E0
9.436822083E-1,-1.912313168E0,-4.535474682E-1,-1.756318810E0,2.635773648E0
9.536212083E-1,-3.114628760E0,-4.230460525E-1,-2.009182820E0,3.730508797E0
9.635602083E-1,-4.091547638E0,-1.986299157E-2,-2.090161495E0,4.594554568E0
9.734992083E-1,-4.898217230E0,1.851170003E-1,-1.932786755E0,5.269009867E0
9.834382083E-1,-5.405665501E0,4.186337435E-1,-1.826655113E0,5.721288546E0
9.933772083E-1,-5.403321353E0,6.840283370E-1,-1.657803167E0,5.693161489E0
1.003316208E0,-5.140901238E0,7.636662447E-1,-1.672928305E0,5.459921317E0
1.013255208E0,-4.858521652E0,7.363872296E-1,-1.729072832E0,5.209336969E0
1.023194208E0,-4.418911607E0,8.036679241E-1,-1.273301375E0,4.668399974E0
1.033133208E0,-3.887550563E0,8.940752336E-1,-8.718493822E-1,4.083202327E0
1.043072208E0,-3.063976085E0,9.843439642E-1,-6.006729157E-1,3.273788393E0
1.053011208E0,-2.397248490E0,8.327566525E-1,-3.471418843E-1,2.561404195E0
1.062950208E0,-1.987917082E0,4.126301149E-1,-5.130306083E-1,2.094105618E0
1.072889208E0,-1.241524097E0,-1.474775961E-1,-2.907728250E-1,1.283620100E0
1.082828208E0,-2.892757916E-1,-4.142775679E-1,-3.745638639E-1,6.289709651E-1
1.092767208E0,8.864858401E-1,-1.055087087E0,-1.324556606E0,1.911417303E0
1.102706208E0,1.785140905E0,-1.758151035E0,-1.724903474E0,3.041893343E0
1.112645208E0,2.430976399E0,-2.605818087E0,-1.701320484E0,3.948977785E0
1.122584208E0,2.692638715E0,-3.303662810E0,-1.327436067E0,4.463919547E0
1.132523208E0,1.375252258E0,-4.438626664E0,-3.216880774E-1,4.657918919E0
1.142462208E0,-6.367845887E-1,-4.315348647E0,-3.040084362E-2,4.362184404E0
1.152401208E0,-2.178426384E0,-4.494322563E0,2.109214939E0,5.421555540E0
1.162340208E0,5.692960256E-1,-3.530266390E0,2.775406930E0,4.526561872E0
1.172279208E0,2.313782995E0,-2.550682352E0,3.091615874E0,4.627921879E0
1.182218208E0,2.988242948E0,-2.826772965E0,5.080687780E0,6.537096422E0
1.192157208E0,3.439638056E0,-2.377720544E0,4.156305259E0,5.895722038E0
1.202096208E0,3.400557021E0,-1.301670457E0,3.332842171E0,4.936189924E0
1.212035208E0,2.859295471E0,-5.868173535E-1,2.259491451E0,3.691236488E0
1.221974208E0,2.507038735E0,-4.958152360E-1,1.143900738E0,2.799925868E0
1.231913208E0,1.864001718E0,-7.208802675E-1,-1.980744302E-1,2.008333699E0
1.241852208E0,8.757240397E-1,-1.155119791E0,-1.178596508E0,1.868230193E0
1.251791208E0,1.952794611E-1,-1.409044486E0,-1.577519434E0,2.124172309E0
1.261730208E0,2.368022937E-1,-1.573827063E0,-1.647867578E0,2.290954933E0
1.271669208E0,8.500074005E-1,-1.554561657E0,-1.402930784E0,2.259953387E0
1.281608208E0,1.650598812E0,-1.247581081E0,-8.259791449E-1,2.227818785E0
1.291547208E0,2.362741731E0,-8.345271894E-1,-2.613866195E-1,2.519386251E0
1.301486208E0,3.017802377E0,-2.667241041E-1,2.217003974E-1,3.037667527E0
1.311425208E0,3.430399455E0,3.416035478E-1,6.840002704E-1,3.514568221E0
1.321364208E0,3.421957245E0,1.216710121E0,7.785419999E-1,3.714337432E0
1.331303208E0,3.314581316E0,1.774841474E0,8.343741386E-1,3.851323378E0
1.341242208E0,3.010862902E0,2.283255997E0,7.737328112E-1,3.857099406E0
1.351181208E0,2.501808400E0,2.648381724E0,5.245022607E-1,3.680770796E0
1.361120208E0,1.984222811E0,2.780325023E0,2.082724129E-1,3.422093627E0
1.371059208E0,1.362072049E0,2.788976563E0,-2.029188484E-1,3.110435113E0
1.380998208E0,8.042570311E-1,2.821446444E0,-5.119839567E-1,2.978173430E0
1.390937208E0,1.942889428E-1,2.720089054E0,-7.615849283E-1,2.831367912E0
1.400876208E0,-2.913164699E-1,2.486552137E0,-7.840809211E-1,2.623469022E0
1.410815208E0,-6.986937386E-1,2.220441845E0,-8.033245464E-1,2.462491676E0
1.420754208E0,-1.034192939E0,2.066112628E0,-8.062048848E-1,2.447109058E0
1.430693208E0,-1.256097112E0,1.858787610E0,-8.806365779E-1,2.410060604E0
1.440632208E0,-1.417738127E0,1.669578874E0,-9.619932747E-1,2.392259617E0
1.450571208E0,-1.431866754E0,1.447645904E0,-9.551163644E-1,2.249037201E0
1.460510208E0,-1.179595066E0,1.247954134E0,-8.491135074E-1,1.915679459E0
1.470449208E0,-7.818084008E-1,9.927850047E-1,-7.590353961E-1,1.474103515E0
1.480388208E0,-2.726392937E-1,5.225545532E-1,-6.662010536E-1,8.895050811E-1
1.490327208E0,2.313176054E-1,-6.713159055E-2,-6.533335246E-1,6.963183032E-1
1.500266958E0,7.150717896E-1,-6.484065145E-1,-6.022247668E-1,1.137731665E0
1.510205958E0,1.254152913E0,-1.239279497E0,-4.830351229E-1,1.828123664E0
1.520144958E0,1.660285310E0,-1.863441263E0,-3.766133130E-1,2.524044024E0
1.530083958E0,1.681689042E0,-2.463212099E0,-2.834983040E-1,2.995974494E0
1.540022958E0,1.438338452E0,-2.906421398E0,-1.139502463E-1,3.244855544E0
1.549961958E0,1.020486481E0,-3.031426975E0,2.686313197E-2,3.198697202E0
1.559900958E0,6.887721831E-1,-2.975864977E0,2.505512904E-1,3.064792886E0
1.569839958E0,1.475194037E-1,-2.582100611E0,3.672871502E-1,2.612260590E0
1.579778958E0,-4.870789111E-1,-2.053351518E0,4.318695009E-1,2.154068148E0
1.589717958E0,-1.053512725E0,-1.491881698E0,4.948152159E-1,1.892205634E0
1.599656958E0,-1.401778736E0,-9.788983060E-1,6.006295002E-1,1.812175851E0
1.609595958E0,-1.635673209E0,-5.897611342E-1,6.638753235E-1,1.861175835E0
1.619534958E0,-1.853581395E0,-1.198185119E-1,7.520630300E-1,2.003925963E0
1.629473958E0,-1.947066679E0,3.250107577E-1,8.124074650E-1,2.134644358E0
1.639412958E0,-1.892542562E0,7.014441226E-1,9.118399519E-1,2.214767100E0
1.649351958E0,-1.692689409E0,9.815121576E-1,1.008261561E0,2.201171263E0
1.659289958E0,-1.392226725E0,1.182459617E0,1.030555387E0,2.097272134E0
1.669228958E0,-1.007855911E0,1.211391056E0,9.642384593E-1,1.847430008E0
1.679167958E0,-5.229504097E-1,1.137899887E0,8.825255209E-1,1.532039353E0
1.689106958E0,-1.149071431E-1,9.477373244E-1,6.885504274E-1,1.177077474E0
1.699045958E0,2.056366342E-1,7.278666669E-1,4.596320808E-1,8.850638168E-1
1.708984958E0,4.850329703E-1,4.626545066E-1,1.839352781E-1,6.950815501E-1
1.718923958E0,6.433843410E-1,2.182471780E-1,-1.226092418E-1,6.903682113E-1
1.728862958E0,7.014916313E-1,-4.542482570E-2,-3.841475965E-1,8.010763381E-1
1.738801958E0,6.516195595E-1,-2.834923106E-1,-6.356649931E-1,9.534389986E-1
1.748740958E0,5.031523222E-1,-5.030913649E-1,-7.819079496E-1,1.057186465E0
1.758679958E0,3.776517785E-1,-6.444941425E-1,-8.517248739E-1,1.132885178E0
1.768618958E0,2.885869896E-1,-7.017831150E-1,-8.138290693E-1,1.112699306E0
1.778557958E0,2.187279654E-1,-6.950234413E-1,-7.006316520E-1,1.010833428E0
1.788496958E0,1.598815870E-1,-5.867157581E-1,-5.470426923E-1,8.179567286E-1
1.798435958E0,7.933736086E-2,-4.732712960E-1,-3.977490972E-1,6.232852323E-1
1.808374958E0,-3.177318513E-2,-3.297557732E-1,-2.962737393E-1,4.444395728E-1
1.818313958E0,-2.078117985E-1,-2.110818538E-1,-2.390144415E-1,3.806168623E-1
1.828252958E0,-3.493834144E-1,-1.085567746E-1,-1.994913568E-1,4.167135047E-1
1.838191958E0,-5.402453041E-1,-1.743508145E-2,-2.796493743E-1,6.085825690E-1
1.848130958E0,-6.930909365E-1,1.518097982E-2,-3.514362256E-1,7.772470194E-1
1.858069958E0,-8.867583203E-1,3.398635626E-2,-5.156669717E-1,1.026356574E0
1.868008958E0,-1.079227025E0,1.865013286E-2,-7.088037937E-1,1.291310039E0
1.877947958E0,-1.342135382E0,1.267807916E-2,-9.779035485E-1,1.660657541E0
1.887886958E0,-1.697431501E0,-3.611284241E-2,-1.190739713E0,2.073749962E0
1.897825958E0,-2.107652271E0,-1.367279287E-1,-1.371559156E0,2.518346112E0
1.907764958E0,-2.493937463E0,-3.188330282E-1,-1.554910297E0,2.956201042E0
1.917703958E0,-2.940574692E0,-5.733887842E-1,-1.476268755E0,3.339928690E0
1.927642958E0,-3.307175817E0,-8.158153684E-1,-1.237750304E0,3.624223009E0
1.937581958E0,-3.331647584E0,-8.438241161E-1,-4.027994835E-1,3.460370239E0
1.947520958E0,-2.623285475E0,-8.106974468E-1,8.077372207E-1,2.862044103E0
1.957459958E0,-1.720250845E0,-7.578859797E-1,1.714853280E0,2.544479495E0
1.967398958E0,-7.864341331E-1,-2.880184941E-1,2.882542831E0,3.001747236E0
1.977337958E0,7.980923116E-1,9.173024207E-2,4.377908008E0,4.451004864E0
1.987276958E0,2.922341904E0,3.259129831E-1,6.031763134E0,6.710325475E0
1.997215958E0,5.100912715E0,9.299015625E-1,7.684348245E0,9.270018090E0
2.007154958E0,7.617489427E0,9.038511935E-1,8.789108891E0,1.166582733E1
2.017093958E0,1.058665525E1,2.690866716E-1,8.708009765E0,1.371054744E1
2.027032958E0,1.260625313E1,-6.221710812E-1,8.158310682E0,1.502873075E1
2.036971958E0,1.427987828E1,-2.243350212E0,6.247707825E0,1.574742509E1
2.046910958E0,1.495465515E1,-3.670758610E0,3.887470456E0,1.588170665E1
2.056849958E0,1.381657765E1,-3.979331675E0,1.666544169E-1,1.437917495E1
2.066788958E0,1.252689238E1,-4.265417811E0,-4.300980869E0,1.391457000E1
2.076727958E0,1.035539319E1,-5.106713737E0,-8.354981781E0,1.425196176E1
2.086666958E0,7.771017430E0,-5.169315782E0,-1.125162517E1,1.461881003E1
2.096605958E0,6.358121967E0,-4.637766165E0,-9.787352564E0,1.255893547E1
2.106544958E0,2.375970472E0,-2.433227285E0,-6.371264169E0,7.222107575E0
2.116483958E0,-5.608532310E-1,-1.136698138E0,-4.793412321E0,4.958169086E0
2.126422958E0,-2.616623157E0,-5.195069844E-1,-3.713951992E0,4.572750120E0
2.136361958E0,-4.410231416E0,6.105750293E-2,-2.984256316E0,5.325378383E0
2.146300958E0,-5.433144491E0,5.887633069E-1,-2.391554471E0,5.965336041E0
2.156239958E0,-6.694563739E0,8.696727562E-1,-1.781250753E0,6.981859968E0
2.166178958E0,-7.806007168E0,1.261606067E0,-1.659502367E0,8.079563471E0
2.176117958E0,-8.675659459E0,1.511515771E0,-1.506710529E0,8.934311591E0
2.186056958E0,-9.094201986E0,1.681136481E0,-1.168588852E0,9.321820076E0
2.195995958E0,-9.665176163E0,1.840591221E0,-4.125122935E-1,9.847516067E0
2.205934958E0,-1.010448917E1,1.894073217E0,-4.072117925E-2,1.028055801E1
2.215873958E0,-1.040198615E1,1.866929858E0,1.973634088E-1,1.057003762E1
2.225812958E0,-1.034000098E1,1.918344571E0,4.113831961E-1,1.052449060E1
2.235751958E0,-1.003910560E1,1.934841613E0,7.186672425E-1,1.024908464E1
2.245690958E0,-9.736385309E0,1.779607685E0,7.424350047E-1,9.925493043E0
2.255629958E0,-9.594854624E0,1.549672215E0,8.147381651E-1,9.753282396E0
2.265568958E0,-9.388050300E0,1.578064687E0,9.935401726E-1,9.571462724E0
2.275507958E0,-9.449659488E0,1.708995247E0,8.303993475E-1,9.638791017E0
2.285446958E0,-9.847971818E0,1.814959659E0,6.429095471E-1,1.003443871E1
2.295385958E0,-1.015096050E1,1.838367086E0,5.698778601E-1,1.033181269E1
2.305324958E0,-1.021443437E1,1.860223686E0,5.541945679E-1,1.039722238E1
2.315263958E0,-1.029265959E1,1.758060696E0,4.403445283E-1,1.045100579E1
2.325202958E0,-1.022507513E1,1.601182385E0,6.560996231E-1,1.037045867E1
2.335141958E0,-9.312796050E0,1.302510410E0,1.226252339E0,9.483058496E0
2.345080958E0,-8.158099013E0,1.241268573E0,1.710779525E0,8.427460695E0
2.355019958E0,-7.001911520E0,1.390889466E0,2.982529049E0,7.736718812E0
2.364958958E0,-4.644698916E0,1.845472915E0,5.270137568E0,7.263150025E0
2.374897958E0,2.426723135E-1,3.507172228E0,1.114467843E1,1.168601746E1
2.384836958E0,4.470091116E0,7.762851793E0,1.975720608E1,2.169310432E1
2.394775958E0,7.439052871E0,7.165738224E0,1.624496841E1,1.925061845E1
2.404714958E0,2.578491827E1,5.925224818E-1,2.070370424E1,3.307350091E1
2.414652958E0,4.074019907E1,4.096007309E0,2.652692058E1,4.878748417E1
2.424592958E0,3.318304706E1,2.393905929E0,2.524859060E1,4.176525739E1
2.434530958E0,2.565311969E1,-3.481098908E-1,1.389575831E1,2.917697430E1
2.444469958E0,2.529145069E1,-5.295660079E0,3.660937627E0,2.609796846E1
2.454408958E0,2.290368404E1,-8.435709609E0,-1.453957301E1,2.841019399E1
2.464347958E0,2.427421994E1,-1.195016045E1,-2.880253529E1,3.951746611E1
2.474286958E0,2.505770006E1,-1.911034031E1,-4.243193421E1,5.285416237E1
2.484225958E0,1.882593642E1,-1.911765869E1,-2.691562476E1,3.800462619E1
2.494164958E0,7.166350427E0,-7.650584083E0,-1.257661944E1,1.637251880E1
2.504103625E0,1.462799694E0,-1.548401323E0,-7.992069663E0,8.271064448E0
2.514042625E0,-2.449693336E0,-7.965180950E-1,-6.173640559E0,6.689489986E0
2.523981625E0,-5.770085616E0,1.265691224E-1,-4.211331943E0,7.144594075E0
2.533920625E0,-8.640850400E0,9.197272611E-1,-1.974236351E0,8.911105601E0
2.543859625E0,-8.931728328E0,1.370562352E0,-1.473856194E0,9.155679340E0
2.553798625E0,-8.910907563E0,1.618818318E0,-1.332709671E0,9.154286505E0
2.563737625E0,-9.527405822E0,1.507421405E0,-1.429867591E0,9.751323106E0
2.573676625E0,-1.000047890E1,1.657791911E0,-9.047197974E-1,1.017724767E1
2.583615625E0,-1.045765749E1,1.906773516E0,-6.788672190E-2,1.063028664E1
2.593554625E0,-1.076253248E1,1.946442196E0,2.814568949E-1,1.094074772E1
2.603493625E0,-1.078329126E1,1.864597111E0,2.272169348E-1,1.094567131E1
2.613432625E0,-1.052318138E1,1.934434793E0,5.498768377E-1,1.071362445E1
2.623371625E0,-9.910247004E0,2.011416895E0,1.120776755E0,1.017422892E1
2.633310625E0,-9.280906506E0,2.008677475E0,1.095560052E0,9.558779346E0
2.643249625E0,-8.962336164E0,2.032899127E0,1.031625427E0,9.247724011E0
2.653188625E0,-8.854104202E0,2.118429274E0,9.972414601E-1,9.158460260E0
2.663127625E0,-8.995798025E0,2.208151582E0,9.008477712E-1,9.306548351E0
2.673066625E0,-9.392026992E0,2.268622756E0,8.551131892E-1,9.699898906E0
2.683005625E0,-9.633619325E0,2.415331881E0,1.080312853E0,9.990371627E0
2.692944625E0,-9.463768820E0,2.299112477E0,9.984822392E-1,9.790087090E0
2.702883625E0,-9.649331962E0,2.269063489E0,8.245474541E-1,9.946765049E0
2.712822625E0,-9.608906652E0,2.199351523E0,8.218063525E-1,9.891592382E0
2.722761625E0,-9.385513778E0,2.228265127E0,1.126660296E0,9.711971879E0
2.732700625E0,-8.995045488E0,2.111812711E0,1.920554234E0,9.437114221E0
2.742639625E0,-8.513310932E0,2.044396215E0,2.855077289E0,9.209097960E0
2.752578625E0,-7.605568124E0,1.927355861E0,4.015976468E0,8.814047544E0
2.762517625E0,-6.607847192E0,1.845758259E0,5.433231615E0,8.751598360E0
2.772456625E0,-5.137267778E0,1.915119685E0,6.373012487E0,8.406812225E0
2.782395625E0,-3.468781748E0,3.073707606E0,7.600656463E0,8.902252745E0
2.792334625E0,-5.884702152E-1,4.434182780E0,1.115771304E1,1.202093318E1
2.802273625E0,2.518486998E0,4.896437337E0,1.290880678E1,1.403407168E1
2.812212625E0,4.948606195E0,3.635531767E0,1.104179550E1,1.263435959E1
2.822151625E0,1.094280214E1,4.290027280E0,1.188280871E1,1.671377862E1
2.832090625E0,1.592783532E1,4.486438177E0,1.836517466E1,2.472051184E1
2.842029625E0,1.781890789E1,3.172551571E0,1.828862408E1,2.573037762E1
2.851968625E0,1.940472657E1,1.027047934E0,1.575671772E1,2.501744180E1
2.861907625E0,1.837455008E1,-1.090847050E0,1.282311934E1,2.243315465E1
2.871846625E0,1.710558149E1,-2.546674671E0,9.707715826E0,1.983245362E1
2.881785625E0,1.699291617E1,-5.209193208E0,4.945272698E0,1.844859388E1
2.891724625E0,2.009442437E1,-8.137178260E0,-1.877748084E0,2.176064104E1
2.901663625E0,2.706932000E1,-1.338629743E1,-1.852599180E1,3.542814441E1
2.911602625E0,3.391433026E1,-2.465853403E1,-5.178009773E1,6.662884975E1
2.921541625E0,4.165446971E1,-3.136225919E1,-3.126274192E1,6.079510820E1
2.931480625E0,2.090402517E1,-1.245160831E1,-9.404604353E0,2.608577008E1
2.941419625E0,1.066708019E1,-4.337266350E0,-4.930579814E0,1.252633612E1
2.951358625E0,6.129242066E0,-3.929948431E0,-2.619369594E0,7.737777462E0
2.961297625E0,1.765244000E0,-1.804918381E0,-1.228356167E0,2.807610303E0
2.971236625E0,-6.019351834E-1,-5.570673050E-1,-3.224213183E-1,8.812522078E-1
2.981175625E0,-3.200698605E0,6.160948008E-1,6.769274783E-1,3.329005133E0
2.991114625E0,-4.681603033E0,1.453791035E0,5.968516141E-1,4.938334454E0
3.001053625E0,-6.021272060E0,1.290140479E0,2.352761704E-1,6.162429273E0
3.010992625E0,-7.278056220E0,1.630729681E0,-1.765723910E-1,7.460600475E0
3.020931625E0,-8.461644934E0,1.866634719E0,-4.431546636E-1,8.676413212E0
3.030870625E0,-9.410464432E0,2.096583053E0,-3.977124425E-1,9.649387365E0
3.040809625E0,-9.759588815E0,2.252253914E0,-1.570375379E-1,1.001732910E1
3.050748625E0,-1.003147616E1,2.258920909E0,-7.367376605E-2,1.028293078E1
3.060686625E0,-1.011965451E1,2.180420577E0,2.169726312E-1,1.035416430E1
3.070625625E0,-1.001402923E1,2.090740223E0,7.987337512E-1,1.026108921E1
3.080564625E0,-9.695066544E0,1.990676821E0,1.094877682E0,9.957703884E0
3.090503625E0,-9.146329914E0,1.970808713E0,1.020452567E0,9.411735298E0
3.100442625E0,-8.907634292E0,1.749036395E0,8.688003516E-1,9.119204518E0
3.110381625E0,-8.807136442E0,1.832928591E0,1.189803135E0,9.074189277E0
3.120320625E0,-8.848699620E0,2.182447953E0,1.004163394E0,9.169018931E0
3.130259625E0,-9.021409414E0,2.534702497E0,9.235162568E-1,9.416125893E0
3.140198625E0,-9.187487295E0,2.537166513E0,9.389914978E-1,9.577517515E0
3.150137625E0,-9.300566014E0,2.493895071E0,8.889183549E-1,9.670068079E0
3.160076625E0,-9.406383076E0,2.542515546E0,1.113560194E0,9.807366832E0
3.170015625E0,-9.461000748E0,2.659960966E0,1.322478797E0,9.916394388E0
3.179954625E0,-9.464493290E0,2.692593107E0,1.317902766E0,9.927918139E0
3.189893625E0,-9.404851690E0,2.687034159E0,1.444858682E0,9.887315333E0
3.199832625E0,-9.189948973E0,2.777819783E0,1.578501474E0,9.729496995E0
3.209771625E0,-8.965614113E0,2.878913464E0,1.800404331E0,9.587066022E0
3.219710625E0,-8.812374378E0,3.056512699E0,2.069405779E0,9.554195536E0
3.229649625E0,-8.522570583E0,3.240857867E0,2.372552190E0,9.421590786E0
3.239588625E0,-7.941355593E0,3.437252977E0,2.829969345E0,9.104315634E0
3.249527625E0,-7.048249535E0,3.659150425E0,3.432419668E0,8.651514788E0
3.259466625E0,-5.668178587E0,3.974940709E0,4.575345676E0,8.298324541E0
3.269405625E0,-3.906775038E0,4.396575243E0,6.352448999E0,8.657157348E0
3.279344625E0,-1.705042822E0,5.144432956E0,9.084431874E0,1.057824484E1
3.289283625E0,-3.779347837E-1,5.519807829E0,1.060360750E1,1.196025105E1
3.299222625E0,-4.348281920E-1,3.910800554E0,1.133788213E1,1.200129192E1
3.309161625E0,-9.873889017E-1,1.513345073E0,1.316859155E1,1.329198833E1
3.319100625E0,6.311921947E0,2.535820192E0,4.892505670E0,8.378982900E0
3.329039625E0,2.216858145E1,2.010479587E0,1.584449729E1,2.732281329E1
3.338978625E0,2.193840230E1,-8.260231452E-1,1.937488589E1,2.928074474E1
3.348917625E0,1.938668206E1,-5.643600401E0,1.403649611E1,2.459099205E1
3.358856625E0,2.438426454E1,-1.115316625E1,1.376132614E1,3.013900416E1
3.368795625E0,2.533482533E1,-1.166341533E1,8.503353124E0,2.915811459E1
3.378734625E0,2.452517074E1,-1.055443826E1,2.681771080E0,2.683415851E1
3.388673625E0,2.798161662E1,-9.526805313E0,-8.486309075E0,3.075302147E1
3.398612625E0,3.150383431E1,-1.151151052E1,-2.943245349E1,4.462371308E1
3.408551625E0,3.148274692E1,-1.543483318E1,-5.147968183E1,6.228607444E1
3.418490625E0,3.051888721E1,-1.628305133E1,-2.397919516E1,4.208969040E1
3.428429625E0,1.376205588E1,-4.715040920E0,-6.590602584E0,1.597065544E1
3.438368625E0,6.674967381E0,-1.931562933E0,-3.560909894E0,7.808085820E0
3.448307625E0,1.910729742E0,-1.137973123E0,-1.097626458E0,2.480051374E0
3.458246625E0,-9.216901714E-1,-1.045188336E-1,-1.819192312E-1,9.452679859E-1
3.468185625E0,-2.619450871E0,5.220424832E-1,4.106896432E-1,2.702354011E0
3.478124625E0,-4.704828174E0,1.220181175E0,6.616007566E-1,4.905299767E0
3.488063625E0,-5.651947886E0,1.799932168E0,1.000456259E0,6.015412159E0
3.498002625E0,-5.591214026E0,2.642961355E0,1.660978205E0,6.403574596E0
3.507941250E0,-6.719558247E0,3.166463742E0,1.562994658E0,7.590909561E0
3.517880250E0,-7.199090157E0,3.776998426E0,1.158141632E0,8.211815161E0
3.527819250E0,-8.140316461E0,3.899825330E0,9.919175702E-1,9.080599658E0
3.537758250E0,-8.351933627E0,4.382560929E0,1.199765037E0,9.507947820E0
3.547697250E0,-8.568367730E0,4.740961335E0,1.188629014E0,9.864404638E0
3.557636250E0,-8.939066584E0,5.035978215E0,1.304032001E0,1.034255710E1
3.567575250E0,-9.442441685E0,5.154000170E0,1.175884423E0,1.082155843E1
3.577514250E0,-9.888181951E0,5.248866566E0,1.345734344E0,1.127553739E1
3.587453250E0,-1.046219259E1,5.152000422E0,1.667808337E0,1.178058431E1
3.597392250E0,-1.074670056E1,4.936562685E0,1.272901425E0,1.189459970E1
3.607331250E0,-1.110217502E1,4.391472671E0,1.057388259E0,1.198588304E1
3.617270250E0,-1.147106065E1,3.927039441E0,1.038857263E0,1.216906305E1
3.627208250E0,-1.157951013E1,3.581026362E0,7.183304429E-1,1.214186161E1
3.637147250E0,-1.163256776E1,3.555271423E0,8.391011739E-1,1.219264854E1
3.647087250E0,-1.204927660E1,3.716116632E0,1.231309011E0,1.266928220E1
3.657025250E0,-1.224234348E1,3.962765636E0,1.614340228E0,1.296859976E1
3.666964250E0,-1.228234077E1,4.051773123E0,1.702254285E0,1.304493886E1
3.676903250E0,-1.199515828E1,4.163718943E0,1.875928284E0,1.283508803E1
3.686842250E0,-1.186496418E1,4.344677989E0,2.172055697E0,1.282074209E1
3.696781250E0,-1.225126165E1,4.734447244E0,2.302398466E0,1.333452067E1
3.706720250E0,-1.203652032E1,5.031440191E0,1.943990020E0,1.318985629E1
3.716659250E0,-1.171551753E1,5.004366413E0,1.225837187E0,1.279842612E1
3.726598250E0,-1.135489051E1,5.011978903E0,-1.208622399E-1,1.241241631E1
3.736537250E0,-1.088951763E1,5.005331789E0,-5.809851944E-1,1.199885346E1
3.746476250E0,-9.848405682E0,5.028385606E0,-1.140167291E0,1.111646246E1
3.756415250E0,-8.783767460E0,5.347876300E0,6.102373526E-2,1.028387454E1
3.766354250E0,-5.389507890E0,4.845690815E0,-7.278460555E-1,7.284042466E0
3.776293250E0,-1.052048582E-1,5.517573023E-1,-1.563840165E0,1.661655874E0
3.786232250E0,1.291210461E1,-4.547081697E0,6.248328799E0,1.504792378E1
3.796171250E0,3.131965638E1,-1.080752563E1,6.528946618E0,3.376907801E1
3.806110250E0,4.261091047E1,-1.007332000E1,1.648226012E1,4.678489463E1
3.816049250E0,4.506302221E1,-7.898717696E0,1.953181112E1,4.974492294E1
3.825988250E0,4.287790369E1,-1.274083031E1,9.154429477E0,4.565793426E1
3.835927250E0,4.081574510E1,-1.741495651E1,1.662698455E0,4.440687249E1
3.845866250E0,3.290394776E1,-1.807236247E1,-8.442469575E0,3.847798534E1
3.855805250E0,2.372947462E1,-1.516924212E1,-1.167060273E1,3.048601056E1
3.865744250E0,1.398219887E1,-9.675183672E0,-5.770489658E0,1.795576830E1
3.875683250E0,8.088216600E0,-6.139557139E0,-2.081053141E0,1.036552902E1
3.885622250E0,4.880366265E0,-4.252293151E0,-6.129153773E-2,6.473308936E0
3.895561250E0,1.805365840E0,-3.066613179E0,4.283219220E-1,3.584260297E0
3.905500250E0,-1.114549470E-1,-1.761399748E0,5.681618120E-1,1.854119501E0
3.915439250E0,-1.498457184E0,-5.580933452E-1,-1.664702296E-3,1.599013723E0
3.925378250E0,-2.624136829E0,2.939474246E-1,-5.208179301E-1,2.691421651E0
3.935317250E0,-3.937236693E0,7.702506481E-1,-9.054759154E-1,4.112785610E0
3.945256250E0,-4.987244596E0,9.875299658E-1,-1.257377068E0,5.237253210E0
3.955195250E0,-5.857196265E0,1.289741991E0,-1.338049933E0,6.144962173E0
3.965134250E0,-6.609187374E0,1.599359954E0,-1.842545945E0,7.045160436E0
3.975073250E0,-7.123519573E0,1.886424621E0,-2.174648498E0,7.683243133E0
3.985012250E0,-7.651137815E0,2.150923713E0,-2.080062184E0,8.215414863E0
3.994951250E0,-8.014800714E0,2.280336629E0,-2.245529616E0,8.630143040E0
4.004890250E0,-8.476941251E0,2.350221673E0,-2.241913698E0,9.077899091E0
4.014829250E0,-8.777370021E0,2.657830532E0,-1.993759035E0,9.385167165E0
4.024768250E0,-9.101581172E0,3.312937664E0,-1.188925468E0,9.758477318E0
4.034707250E0,-9.471414639E0,3.866783592E0,-1.017552348E0,1.028081336E1
4.044646250E0,-9.841887206E0,4.016689536E0,-2.418221283E-1,1.063273326E1
4.054585250E0,-1.014473439E1,4.455621597E0,6.830471742E-1,1.110111494E1
4.064524250E0,-1.058080219E1,4.632655114E0,1.003771631E0,1.159406856E1
4.074463250E0,-1.079565228E1,4.642126434E0,1.033428708E0,1.179675467E1
4.084402250E0,-1.095805635E1,4.645419293E0,1.456184739E0,1.199080454E1
4.094341250E0,-1.116942501E1,4.787285024E0,1.217320205E0,1.221294483E1
4.104280250E0,-1.150160884E1,4.941576673E0,1.927140538E0,1.266570395E1
4.114219250E0,-1.167035013E1,5.136310004E0,1.951689488E0,1.289914123E1
4.124158250E0,-1.191882990E1,5.291730750E0,2.288451687E0,1.324001252E1
4.134097250E0,-1.211702478E1,5.295278841E0,2.396607489E0,1.343897299E1
4.144036250E0,-1.218687679E1,5.331105900E0,2.370337411E0,1.351144535E1
4.153974250E0,-1.234730217E1,5.456700000E0,2.415928297E0,1.371379434E1
4.163913250E0,-1.241145899E1,5.657671140E0,2.510817790E0,1.386931011E1
4.173852250E0,-1.274950173E1,5.889865243E0,2.752094958E0,1.431133584E1
4.183791250E0,-1.296071017E1,6.268636179E0,3.098356544E0,1.472669756E1
4.193730250E0,-1.313611846E1,6.694283073E0,3.213195859E0,1.508958785E1
4.203669250E0,-1.085408818E1,6.370544962E0,2.669816447E0,1.286557396E1
4.213608250E0,-7.725176429E0,5.525051027E0,2.221226249E0,9.753890801E0
4.223547250E0,-6.197124732E0,4.489761735E0,9.837823391E-1,7.715577947E0
4.233486250E0,-5.620363566E0,3.489893121E0,8.152648531E-2,6.616229075E0
4.243425250E0,-1.613222240E0,2.964956412E0,1.456039289E-1,3.378557832E0
4.253364250E0,8.476058906E0,-8.964161664E-2,2.721897597E0,8.902827457E0
4.263303250E0,2.995014492E1,-8.057124615E0,-5.075658005E0,3.142754750E1
4.273242250E0,5.264745499E1,-1.607470685E1,8.160492863E0,5.564839945E1
4.283181250E0,5.300248857E1,-1.320345967E1,1.151417685E1,5.582267828E1
4.293120250E0,4.903869382E1,-1.535012807E1,8.984769006E0,5.216460484E1
4.303059250E0,3.898029007E1,-1.885996955E1,3.405021955E0,4.343680053E1
4.312998250E0,2.684951380E1,-1.804096877E1,2.641271510E0,3.245534256E1
4.322937250E0,1.792935127E1,-1.512653288E1,7.714727893E-1,2.347059446E1
4.332876250E0,1.054038974E1,-1.156804842E1,-2.074650586E-2,1.564991982E1
4.342815250E0,4.959995987E0,-8.536020348E0,-5.604671685E-1,9.888342987E0
4.352754250E0,1.463099071E0,-5.708953561E0,-9.000143968E-1,5.961781241E0
4.362693250E0,-1.033427539E0,-3.704258478E0,-5.145158011E-1,3.879978075E0
4.372632250E0,-2.320599094E0,-2.896058085E0,-1.306140507E0,3.934251595E0
4.382571250E0,-3.219400340E0,-1.967411189E0,-1.560455358E0,4.082923739E0
4.392510250E0,-3.804061679E0,-6.859063165E-1,-1.304474636E0,4.079584146E0
4.402449250E0,-4.309596156E0,5.336386813E-1,-1.251231059E0,4.519177850E0
4.412388250E0,-5.046537117E0,1.578039105E0,-1.537290882E0,5.506451448E0
4.422327250E0,-5.664213590E0,2.257298599E0,-1.902286947E0,6.387284884E0
4.432266250E0,-6.224278032E0,2.843049567E0,-1.946205969E0,7.114231197E0
4.442205250E0,-6.341405362E0,3.775586031E0,-1.471117358E0,7.525467303E0
4.452144250E0,-7.100331854E0,4.300951633E0,-1.373971717E0,8.414314926E0
4.462083250E0,-7.846538898E0,4.621061254E0,-1.085576516E0,9.170651894E0
4.472022250E0,-8.534134621E0,5.089672612E0,-4.112037231E-1,9.945114857E0
4.481961250E0,-9.161918591E0,5.461138036E0,-4.000549832E-2,1.066613245E1
4.491900250E0,-9.785803052E0,5.880068234E0,7.167610502E-1,1.143900740E1
4.501839250E0,-1.043735245E1,6.235256764E0,9.938360417E-1,1.219854348E1
4.511778500E0,-1.102328321E1,6.435815676E0,7.388775587E-1,1.278586862E1
4.521717500E0,-1.142132190E1,6.493487933E0,1.251456177E0,1.319765593E1
4.531656500E0,-1.177603739E1,6.588510450E0,1.604802250E0,1.358892625E1
4.541595500E0,-1.219741464E1,6.691098679E0,1.811121254E0,1.402953619E1
4.551534500E0,-1.268456138E1,6.649189931E0,2.072632127E0,1.447085444E1
4.561473500E0,-1.300370475E1,6.494162117E0,2.100930312E0,1.468619716E1
4.571412500E0,-1.365581898E1,6.144951780E0,2.335905350E0,1.515580015E1
4.581351500E0,-1.381494511E1,5.619190614E0,1.829023089E0,1.502575579E1
4.591290500E0,-1.292868965E1,5.407516730E0,1.753645463E0,1.412329727E1
4.601229500E0,-1.189393363E1,4.947195262E0,1.941232473E0,1.302723231E1
4.611168500E0,-1.162828409E1,4.673633278E0,2.162282807E0,1.271751964E1
4.621107500E0,-1.119237300E1,4.223704652E0,2.055019144E0,1.213803930E1
4.631046500E0,-1.085285325E1,3.889553234E0,1.663966717E0,1.164825452E1
4.640985500E0,-1.048655560E1,3.587022389E0,1.176331077E0,1.114532784E1
4.650923500E0,-9.767341638E0,3.317858680E0,7.991588438E-1,1.034639086E1
4.660863500E0,-8.340069042E0,3.359752226E0,1.158683523E-1,8.992113885E0
4.670801500E0,-6.430369579E0,3.050453230E0,-6.928377521E-1,7.150870016E0
4.680740500E0,-4.243729611E0,3.173427191E0,-8.054608997E-1,5.359911232E0
4.690679500E0,4.183489841E-1,1.334643199E0,1.113678235E0,1.787894726E0
4.700618500E0,1.124786073E1,-2.300861379E0,-1.391847825E0,1.156484218E1
4.710557500E0,3.644157872E1,-8.969502511E0,-7.537809420E-1,3.753676625E1
4.720496500E0,4.813867168E1,-1.327955767E1,8.476834831E0,5.065111146E1
4.730435500E0,4.441497296E1,-9.527015812E0,7.933120374E0,4.611277754E1
4.740374500E0,4.261748742E1,-1.370990807E1,3.423827770E0,4.489915823E1
4.750313500E0,3.572015393E1,-1.692192396E1,-8.157263446E-1,3.953411586E1
4.760252500E0,2.740220666E1,-1.496117597E1,5.241689328E-1,3.122486940E1
4.770191500E0,1.884657475E1,-1.102509000E1,1.040476869E0,2.185929051E1
4.780130500E0,1.224805153E1,-7.706581698E0,1.238116339E0,1.452374262E1
4.790069500E0,8.524159856E0,-5.612064028E0,1.285607425E0,1.028636721E1
4.800008500E0,7.629165732E0,-4.342150530E0,1.870833605E0,8.975436445E0
4.809947500E0,6.319298794E0,-2.486795674E0,1.183624967E0,6.893377840E0
4.819886500E0,4.915698650E0,-8.650981870E-1,2.385026640E-1,4.996936223E0
4.829825500E0,3.225111900E0,4.045432694E-1,-6.453283209E-2,3.251025455E0
4.839764500E0,1.481304377E0,1.237404441E0,-7.889127678E-1,2.085141665E0
4.849703500E0,-5.885140693E-1,1.608967514E0,-1.303963004E0,2.153008311E0
4.859642500E0,-2.719793184E0,1.892496369E0,-1.486380930E0,3.631548670E0
4.869581500E0,-4.314590263E0,2.133339966E0,-1.479979398E0,5.035590092E0
4.879520500E0,-5.949807390E0,2.455727663E0,-1.144897104E0,6.537705692E0
4.889459500E0,-7.421429363E0,2.739989467E0,-9.691175222E-1,7.970216110E0
4.899398500E0,-8.414822186E0,2.942903638E0,-6.736109376E-1,8.940003688E0
4.909337500E0,-9.135704353E0,3.288168274E0,9.458691755E-2,9.709896566E0
4.919276500E0,-9.915393723E0,3.591058722E0,5.659228035E-1,1.056082402E1
4.929215500E0,-1.051323527E1,3.982959288E0,5.090866979E-1,1.125394375E1
4.939154500E0,-1.097536411E1,4.257327603E0,3.287819195E-1,1.177673780E1
4.949093500E0,-1.098303566E1,4.351453450E0,7.111465538E-1,1.183503058E1
4.959032500E0,-1.082641214E1,4.517889766E0,9.298955691E-1,1.176805989E1
4.968971500E0,-1.077419767E1,4.758814639E0,1.187831454E0,1.183809934E1
4.978910500E0,-1.100180990E1,5.134827150E0,2.042377464E0,1.231168456E1
4.988849500E0,-1.134997300E1,5.368194205E0,2.378866013E0,1.277882622E1
4.998788500E0,-1.168218490E1,5.508269518E0,2.204975667E0,1.310253390E1
5.008727500E0,-1.180703932E1,5.741062961E0,1.867415907E0,1.326096617E1
5.018666500E0,-1.189804773E1,5.891367978E0,1.604372918E0,1.337332303E1
5.028605500E0,-1.197400423E1,5.816570395E0,1.397898378E0,1.338519287E1
5.038544500E0,-1.194925530E1,5.714799607E0,1.121266605E0,1.329288816E1
5.048483500E0,-1.194359520E1,5.674976560E0,1.108129446E0,1.326961853E1
5.058422500E0,-1.191084260E1,5.357842294E0,1.113997639E0,1.310784636E1
5.068361500E0,-1.184448723E1,5.734892979E0,1.204696067E0,1.321484649E1
5.078300500E0,-1.174381221E1,5.675881709E0,9.648140446E-1,1.307912935E1
5.088239500E0,-1.097895430E1,5.630527196E0,8.539833610E-1,1.236808642E1
5.098178500E0,-9.946739477E0,5.051970935E0,1.055339249E0,1.120597062E1
5.108117500E0,-8.757781264E0,4.435973490E0,1.261230383E0,9.897842975E0
5.118056500E0,-7.775861263E0,3.995819362E0,9.682800548E-1,8.795917065E0
5.127994500E0,-7.933739594E0,3.491455204E0,6.889926231E-1,8.695354750E0
5.137934500E0,-7.910743080E0,2.968438721E0,6.881295010E-1,8.477323087E0
5.147872500E0,-7.031029485E0,3.116487005E0,1.509490296E0,7.837501376E0
5.157811500E0,-3.512118387E0,4.834805638E0,5.004104458E0,7.794317324E0
5.167750500E0,5.706463231E0,5.436176273E0,1.049955629E1,1.312845830E1
5.177689500E0,2.175106920E1,4.234718175E0,4.568733644E0,2.262554257E1
5.187628500E0,4.449413959E1,-1.650389774E-1,1.938634994E0,4.453665907E1
5.197567500E0,4.735841922E1,-8.322450212E-1,1.943388780E1,5.119754387E1
5.207506500E0,4.202812082E1,-2.989111260E-2,1.025023336E1,4.326004065E1
5.217445500E0,4.422950864E1,-9.320390414E0,-1.238996930E0,4.521785295E1
5.227384500E0,4.102617002E1,-1.681420538E1,-1.307252648E1,4.622504816E1
5.237323500E0,3.130619609E1,-1.695896958E1,-1.323353424E1,3.798435192E1
5.247262500E0,1.713105080E1,-1.001535187E1,-7.389939183E0,2.117525385E1
5.257201500E0,9.743332971E0,-5.325546368E0,-3.339676396E0,1.159514640E1
5.267140500E0,4.897563511E0,-3.102123320E0,-1.172669624E0,5.914765548E0
5.277079500E0,2.030007679E0,-2.462484121E0,5.647544932E-1,3.240942279E0
5.287018500E0,1.091207385E-1,-2.022257633E0,1.727635147E0,2.661983560E0
5.296957500E0,-1.791596231E0,-1.365360523E0,1.743953411E0,2.848754098E0
5.306896500E0,-3.464634318E0,-5.380474819E-1,9.779531036E-1,3.639997023E0
5.316835500E0,-4.899539285E0,-4.875732931E-1,9.316836476E-2,4.924621129E0
5.326774500E0,-5.853599643E0,-3.065439351E-1,-5.604708961E-1,5.888355083E0
5.336713500E0,-6.918186994E0,2.574368253E-2,-1.521861396E0,7.083645680E0
5.346652500E0,-7.775643162E0,3.506757952E-1,-2.043226479E0,8.047258822E0
5.356591500E0,-8.424609255E0,6.411279005E-1,-2.573916848E0,8.832334574E0
5.366530500E0,-8.870186384E0,9.340058693E-1,-2.901331689E0,9.379248318E0
5.376469500E0,-9.145075686E0,1.183216832E0,-3.044836394E0,9.710995832E0
5.386408500E0,-9.498848020E0,1.497307914E0,-2.877513056E0,1.003743623E1
5.396347500E0,-9.817896080E0,1.945772398E0,-2.323195843E0,1.027493808E1
5.406286500E0,-9.884865410E0,2.426300235E0,-1.794060248E0,1.033518985E1
5.416225500E0,-9.879928021E0,2.878900015E0,-1.327547749E0,1.037609879E1
5.426164500E0,-9.794372147E0,3.270972489E0,-8.715801179E-1,1.036284897E1
5.436103500E0,-9.770766352E0,3.786419460E0,-8.336199939E-2,1.047911240E1
5.446042500E0,-9.986412835E0,3.999017204E0,5.393541884E-1,1.077086268E1
5.455981500E0,-9.925171437E0,4.257844205E0,9.757517731E-1,1.084390874E1
5.465920500E0,-9.960294492E0,4.484854751E0,1.331737863E0,1.100431344E1
5.475859500E0,-1.005208993E1,4.653446935E0,1.748257838E0,1.121407534E1
5.485798500E0,-9.928842319E0,4.889811273E0,1.618938478E0,1.118539789E1
5.495737500E0,-1.049643622E1,4.976100388E0,1.469735076E0,1.170883724E1
5.505676958E0,-1.054138377E1,4.954911833E0,8.684892797E-1,1.168016253E1
5.515615958E0,-1.093361499E1,4.862660604E0,9.492019057E-1,1.200376563E1
5.525554958E0,-1.100060537E1,4.945996583E0,1.268537064E0,1.212787644E1
5.535493958E0,-1.108218573E1,5.069135436E0,1.344667811E0,1.226046924E1
5.545432958E0,-1.101871537E1,5.213271056E0,1.028246906E0,1.223305257E1
5.555371958E0,-1.074968615E1,5.406497560E0,4.361157489E-1,1.204060485E1
5.565310958E0,-9.826213160E0,5.747170962E0,1.350484622E-1,1.138431716E1
5.575249958E0,-8.011083055E0,5.492884324E0,3.197351074E-1,9.718614122E0
5.585188958E0,-7.403235751E0,3.517774984E0,1.138780697E-1,8.197292763E0
5.595126958E0,-6.534272847E0,3.043259400E0,8.502729372E-1,7.258175631E0
5.605065958E0,-2.327408177E0,4.359416773E0,3.001814336E0,5.782061287E0
5.615004958E0,5.395886618E0,6.136370991E0,7.926515944E0,1.138421259E1
5.624943958E0,1.837726553E1,3.197573561E0,7.353403441E0,2.005045903E1
5.634882958E0,4.044331488E1,-2.006811482E0,3.536489582E0,4.064721109E1
5.644821958E0,4.978870916E1,1.935775121E0,1.835856613E1,5.310084496E1
5.654760958E0,4.675911704E1,3.765196113E0,1.294938763E1,4.866496037E1
5.664699958E0,4.765433043E1,-7.914251994E0,-5.523426086E-3,4.830704529E1
5.674638958E0,4.001786211E1,-1.541095432E1,-8.511629273E0,4.371927074E1
5.684577958E0,2.931184648E1,-1.778391347E1,-9.091022270E0,3.546968577E1
5.694516958E0,1.671809704E1,-1.589534234E1,-6.175410511E0,2.388079504E1
5.704455958E0,6.807719057E0,-1.069329794E1,-3.898361480E0,1.326231057E1
5.714394958E0,2.569513310E0,-5.769524283E0,-1.625356382E0,6.521624987E0
5.724333958E0,-4.540158302E-1,-3.987197058E0,3.313967943E-1,4.026623224E0
5.734272958E0,-2.335996567E0,-3.499505358E0,4.976506770E-1,4.236870769E0
5.744211958E0,-4.031717173E0,-2.756148248E0,2.946074291E-1,4.892636310E0
5.754150958E0,-5.836888300E0,-2.061158136E0,-4.143348706E-1,6.203975441E0
5.764089958E0,-7.481369171E0,-1.312615860E0,-1.533376318E0,7.748876563E0
5.774028958E0,-9.008387080E0,-5.609475173E-1,-1.869225182E0,9.217358769E0
5.783967958E0,-9.848467662E0,9.494650304E-2,-2.134664068E0,1.007760491E1
5.793906958E0,-1.040439754E1,6.015109679E-1,-2.513560134E0,1.072060111E1
5.803845958E0,-1.071528230E1,1.009342419E0,-2.674798275E0,1.109011238E1
5.813784958E0,-1.079029857E1,1.496046377E0,-2.595771986E0,1.119851464E1
5.823723958E0,-1.079181066E1,1.976953552E0,-2.353282106E0,1.122093843E1
5.833662958E0,-1.083516191E1,2.389600186E0,-1.796737103E0,1.124007060E1
5.843601958E0,-1.080624626E1,2.709584531E0,-1.195832784E0,1.120476786E1
5.853540958E0,-1.077438128E1,3.031342190E0,-7.119569778E-1,1.121531141E1
5.863479958E0,-1.053423379E1,3.347779175E0,-2.200728250E-1,1.105559311E1
5.873418958E0,-1.044711963E1,3.612490522E0,-1.399613293E-1,1.105495299E1
5.883357958E0,-1.041434482E1,3.894987344E0,1.368196203E-1,1.111972230E1
5.893296958E0,-1.038004272E1,4.181080496E0,3.560083097E-1,1.119613607E1
5.903235958E0,-1.044423813E1,4.488270402E0,4.559851724E-1,1.137693297E1
5.913174958E0,-1.061849802E1,4.765447428E0,6.307309663E-1,1.165589168E1
5.923113958E0,-1.073056107E1,4.945226505E0,5.210921645E-1,1.182673848E1
5.933052958E0,-1.084116701E1,5.040106934E0,1.187896943E-1,1.195607339E1
5.942991958E0,-1.109143485E1,4.941644500E0,2.090964317E-3,1.214247840E1
5.952930958E0,-1.129342224E1,4.767906767E0,-1.034243902E-1,1.225907898E1
5.962869958E0,-1.091685103E1,4.848511511E0,-3.208507562E-1,1.194942030E1
5.972808958E0,-1.060148613E1,4.981613728E0,-3.760297608E-1,1.171961526E1
5.982747958E0,-1.041919333E1,5.028685568E0,-4.539415705E-1,1.157814023E1
5.992686958E0,-9.693186665E0,4.735088684E0,-2.796816619E-1,1.079153161E1
6.002625958E0,-8.583551195E0,4.391595755E0,-2.111665288E-2,9.641779415E0
6.012564958E0,-7.950530459E0,3.999568012E0,-8.125254326E-3,8.899862071E0
6.022503958E0,-7.748109793E0,3.682873456E0,1.877821612E-1,8.580910465E0
6.032442958E0,-7.372182359E0,3.053982609E0,-1.376668453E-2,7.979728819E0
6.042380958E0,-6.405974411E0,2.597297232E0,4.146471119E-1,6.924911067E0
6.052319958E0,-1.919906362E0,2.687324765E0,3.514561354E0,4.822851474E0
6.062258958E0,7.688044855E0,2.030568134E0,1.408093612E1,1.617102355E1
6.072197958E0,2.010806943E1,-1.658407769E-1,1.040995005E1,2.264352047E1
6.082136958E0,3.979545742E1,-4.173874680E0,-1.535369195E-2,4.001374635E1
6.092075958E0,4.137802739E1,-1.607098013E0,1.793507335E1,4.512638663E1
6.102014958E0,3.803113728E1,1.961558564E0,1.367705256E1,4.046327819E1
6.111953958E0,4.214813843E1,-5.530564367E0,7.630465568E0,4.318884949E1
6.121892958E0,3.853367038E1,-1.335311799E1,-5.459402583E0,4.114552940E1
6.131831958E0,3.092826247E1,-1.496373588E1,-1.100989894E1,3.607892301E1
6.141770958E0,2.203986084E1,-1.460611081E1,-9.095816402E0,2.796118408E1
6.151709958E0,1.241100524E1,-1.075890019E1,-4.482289578E0,1.702580114E1
6.161648958E0,7.994297453E0,-5.645741066E0,3.457995097E-1,9.792995520E0
6.171587958E0,4.504314870E0,-3.710745379E0,1.789691209E0,6.104218077E0
6.181526958E0,1.398022485E0,-2.342653914E0,2.160185995E0,3.479784155E0
6.191465958E0,-9.222766471E-1,-1.323938993E0,2.524841752E0,2.996370228E0
6.201404958E0,-2.871641282E0,-3.209811491E-1,2.099074405E0,3.571479513E0
6.211343958E0,-4.448413149E0,1.460466363E-1,1.413771522E0,4.669952792E0
6.221282958E0,-5.894529567E0,4.877280982E-1,4.585832365E-1,5.932424134E0
6.231221958E0,-7.263957998E0,8.107421780E-1,-4.954380906E-1,7.325834258E0
6.241160958E0,-8.120641750E0,7.906786269E-1,-1.834313942E0,8.362697098E0
6.251099958E0,-9.011698358E0,9.796995208E-1,-2.221063696E0,9.332933215E0
6.261038958E0,-9.806195801E0,1.232006584E0,-2.460021858E0,1.018484285E1
6.270977958E0,-1.019875564E1,1.378109646E0,-2.971676617E0,1.071189361E1
6.280916958E0,-1.051016548E1,1.606801413E0,-3.546438035E0,1.120814936E1
6.290855958E0,-1.058870178E1,1.869296957E0,-3.824684224E0,1.141240929E1
6.300794958E0,-1.050352655E1,2.021408617E0,-4.063490943E0,1.144212050E1
6.310733958E0,-1.060763506E1,2.219824233E0,-4.309238892E0,1.166272185E1
6.320672958E0,-1.060285671E1,2.357915440E0,-4.135796442E0,1.162261365E1
6.330611958E0,-1.059988399E1,2.580073966E0,-3.678728950E0,1.151292183E1
6.340550958E0,-1.053669196E1,2.787241986E0,-3.000815631E0,1.130466673E1
6.350489958E0,-1.048180298E1,2.931115066E0,-2.331098939E0,1.113075251E1
6.360428958E0,-1.047408465E1,3.090490577E0,-1.632905138E0,1.104191834E1
6.370367958E0,-1.050748863E1,3.377922157E0,-5.793970907E-1,1.105230186E1
6.380306958E0,-1.051315809E1,3.847308855E0,5.092176390E-1,1.120658650E1
6.390245958E0,-1.055065160E1,4.472666815E0,1.356142387E0,1.153950258E1
6.400184958E0,-1.055736538E1,4.934482246E0,1.309869862E0,1.172701317E1
6.410123958E0,-1.085120901E1,5.188122767E0,8.545775843E-1,1.205801218E1
6.420062958E0,-1.111556514E1,5.332314520E0,3.264032722E-1,1.233271688E1
6.430001958E0,-1.131853018E1,5.594589039E0,5.323889486E-1,1.263692961E1
6.439940958E0,-1.115818316E1,5.789983690E0,9.291669329E-1,1.260524945E1
6.449879958E0,-1.169158020E1,6.041522137E0,6.899058851E-1,1.317835375E1
6.459817958E0,-9.939829237E0,4.553792839E0,-3.141850034E-1,1.093782184E1
6.469756958E0,-7.914011089E0,4.096788789E0,-9.303177381E-1,8.959952064E0
6.479695958E0,-8.635069842E0,3.364377374E0,-7.907563218E-1,9.301008647E0
6.489634958E0,-8.362705368E0,2.924853868E0,-1.306825801E0,8.955300380E0
6.499573958E0,-5.744246185E0,2.901346307E0,-7.482440673E-2,6.435819553E0
6.509512250E0,-9.102015620E-1,3.695112848E0,5.365861166E0,6.578357842E0
6.519451250E0,8.451202392E0,3.847823118E0,1.256368189E1,1.562288921E1
6.529390250E0,2.206785497E1,8.350288805E-1,1.787607261E0,2.215588039E1
6.539329250E0,3.848804807E1,-1.064749904E0,1.425795005E1,4.105791855E1
6.549268250E0,4.222420837E1,3.644917426E-1,1.807584975E1,4.593204732E1
6.559207250E0,3.404475825E1,1.762965048E0,1.140575544E1,3.594780754E1
6.569146250E0,3.015078861E1,-4.675791778E0,7.598594735E0,3.144315068E1
6.579085250E0,2.586638635E1,-1.022321454E1,1.509922843E0,2.785433405E1
6.589024250E0,2.304753724E1,-1.347905298E1,-3.033707389E0,2.687149461E1
6.598963250E0,2.095582214E1,-1.738871069E1,-5.857679830E0,2.785365603E1
6.608902250E0,1.767656093E1,-1.927072476E1,-4.326835502E0,2.650553045E1
6.618841250E0,1.328574403E1,-1.575855024E1,-2.602824313E0,2.077540841E1
6.628780250E0,8.624347218E0,-8.477474517E0,7.137615748E-1,1.211430537E1
6.638719250E0,5.896319985E0,-5.947235200E0,2.507080835E0,8.741947735E0
6.648658250E0,3.613893853E0,-4.515362891E0,2.619887073E0,6.349215629E0
6.658597250E0,1.462805541E0,-3.114090232E0,2.294982296E0,4.135734731E0
6.668536250E0,-5.303956693E-1,-2.085907645E0,1.548209973E0,2.651279765E0
6.678475250E0,-2.117712405E0,-1.460063489E0,3.344991808E-1,2.593912282E0
6.688414250E0,-3.283023893E0,-8.604899964E-1,-8.480253406E-1,3.498261839E0
6.698353250E0,-4.588620610E0,-5.161559451E-1,-1.808854873E0,4.959214858E0
6.708292250E0,-5.794744493E0,9.906001925E-2,-2.334791894E0,6.248210129E0
6.718231250E0,-6.792568336E0,6.485480171E-1,-2.964619027E0,7.439661626E0
6.728170250E0,-7.559037151E0,1.048100249E0,-3.320212770E0,8.322341595E0
6.738109250E0,-8.264044129E0,1.643528944E0,-3.058275050E0,8.963741352E0
6.748048250E0,-8.873511111E0,2.100664263E0,-3.060940211E0,9.618801628E0
6.757987250E0,-9.149605524E0,2.612070808E0,-2.833460133E0,9.928075920E0
6.767926250E0,-9.335390861E0,3.124087509E0,-2.749410501E0,1.022099327E1
6.777865250E0,-9.584698595E0,3.525381919E0,-2.565021479E0,1.052967711E1
6.787804250E0,-9.921118147E0,3.962917956E0,-1.969588984E0,1.086335974E1
6.797743250E0,-1.008685163E1,4.158450017E0,-1.499379290E0,1.101296602E1
6.807682250E0,-1.007073202E1,4.395430943E0,-1.137426701E0,1.104686364E1
6.817621250E0,-1.016446289E1,4.605707051E0,-8.933376074E-1,1.119494955E1
6.827560250E0,-1.032301365E1,4.862192242E0,-7.945231712E-1,1.143839112E1
6.837499250E0,-1.037875867E1,5.124241351E0,-6.187739950E-1,1.159134859E1
6.847438250E0,-1.047468341E1,5.393005110E0,-4.561997652E-1,1.179031869E1
6.857377250E0,-1.054017339E1,5.621561075E0,-5.042802501E-1,1.195623280E1
6.867316250E0,-1.052179092E1,5.727884506E0,-5.779399280E-1,1.199378004E1
6.877254250E0,-1.049384123E1,5.661898093E0,-7.237157285E-1,1.194577574E1
6.887193250E0,-1.040353098E1,5.722434901E0,-5.784906992E-1,1.188757206E1
6.897132250E0,-1.015768363E1,5.856191128E0,-4.609429535E-1,1.173396692E1
6.907071250E0,-9.996286443E0,5.818547339E0,-5.353967198E-1,1.157876874E1
6.917010250E0,-9.586084385E0,5.586923339E0,-4.027445197E-1,1.110265416E1
6.926949250E0,-9.194655982E0,5.271368991E0,-1.474270177E-1,1.059956435E1
6.936888250E0,-8.972008043E0,5.485830243E0,2.633399550E-1,1.051953467E1
6.946827250E0,-8.248615081E0,5.780467347E0,4.408146445E-1,1.008205193E1
6.956766250E0,-7.500673753E0,5.844096748E0,5.698871791E-1,9.525667690E0
6.966705250E0,-7.182430855E0,5.801027327E0,4.667084543E-1,9.244298124E0
6.976644250E0,-6.878239401E0,5.752196059E0,2.378739421E-1,8.969644406E0
6.986583250E0,-6.532044473E0,5.200705390E0,-9.219538808E-2,8.350056380E0
6.996522250E0,-5.948960128E0,4.620795498E0,1.771652548E0,7.738257582E0
7.006461250E0,-2.862077576E-1,5.501648716E0,7.919346088E0,9.647077067E0
7.016400250E0,4.869301579E0,2.976055596E0,1.604825872E1,1.703272183E1
7.026339250E0,1.322438919E1,-2.379091716E-1,1.148963492E1,1.752006795E1
7.036278250E0,2.969835445E1,-2.229677230E0,8.481257080E0,3.096603687E1
7.046217250E0,4.247492294E1,-1.413827216E0,2.605037484E1,4.984716658E1
7.056156250E0,4.185092680E1,-4.544000799E0,2.004383426E1,4.662513602E1
7.066095250E0,3.308481618E1,-1.265988847E1,1.435819588E1,3.822349574E1
7.076034250E0,2.823805678E1,-1.688905559E1,3.081874997E0,3.304732974E1
7.085973250E0,2.454777140E1,-2.360813554E1,-9.670698858E0,3.540423083E1
7.095912250E0,2.579914571E1,-2.940252510E1,-1.951113537E1,4.371257034E1
7.105851250E0,2.140809960E1,-2.632934784E1,-1.206130666E1,3.601411396E1
7.115790250E0,9.105742636E0,-1.579637471E1,-4.502535270E0,1.878065033E1
7.125729250E0,3.730891961E0,-8.924076662E0,-4.887596932E-1,9.684915339E0
7.135668250E0,5.747953320E-1,-6.523854278E0,5.762162054E-1,6.574426928E0
7.145607250E0,-2.016452664E0,-4.110250834E0,7.090260610E-2,4.578784822E0
7.155546250E0,-3.909364185E0,-2.034493663E0,9.134637237E-2,4.408019618E0
7.165485250E0,-4.994554201E0,-3.307354742E-1,-3.896084574E-1,5.020632666E0
7.175424250E0,-5.842395793E0,1.130115927E0,-9.111406249E-1,6.020043841E0
7.185363250E0,-6.406428739E0,2.116612252E0,-1.117224717E0,6.838901058E0
7.195302250E0,-6.818415368E0,2.949062510E0,-1.287854218E0,7.539650278E0
7.205241250E0,-7.047202299E0,3.617795116E0,-2.035579491E0,8.178941594E0
7.215180250E0,-7.315032842E0,4.043375059E0,-2.531480681E0,8.733096918E0
7.225119250E0,-7.397532377E0,4.234305069E0,-3.148613362E0,9.086616025E0
7.235058250E0,-7.528260332E0,4.390518405E0,-3.575858300E0,9.420091192E0
7.244997250E0,-7.614971032E0,4.584258294E0,-3.939356309E0,9.722228965E0
7.254936250E0,-7.543304048E0,4.537357485E0,-4.078924961E0,9.701890421E0
7.264875250E0,-7.487238021E0,4.770014688E0,-4.196564508E0,9.819517655E0
7.274813250E0,-7.688503861E0,5.034685396E0,-4.340041147E0,1.016351838E1
7.284752250E0,-7.799244863E0,5.278892604E0,-4.235868030E0,1.032654374E1
7.294691250E0,-7.981899016E0,5.590867871E0,-4.027707152E0,1.054471149E1
7.304630250E0,-8.315261060E0,5.818673054E0,-3.465529235E0,1.072429091E1
7.314569250E0,-8.433200569E0,6.120843126E0,-2.763125145E0,1.078046627E1
7.324508250E0,-8.530328668E0,6.332953797E0,-2.428458588E0,1.089817517E1
7.334447250E0,-8.558174279E0,6.332768440E0,-2.337325493E0,1.089997218E1
7.344386250E0,-8.708720786E0,6.308483784E0,-2.284541215E0,1.099353965E1
7.354325250E0,-8.913125412E0,6.283816720E0,-2.180341494E0,1.112133293E1
7.364264250E0,-9.124686445E0,6.174520565E0,-1.932742316E0,1.118570962E1
7.374203250E0,-9.323554342E0,6.031246240E0,-1.416913231E0,1.119429497E1
7.384142250E0,-9.567038834E0,5.909189122E0,-1.063855426E0,1.129506691E1
7.394081250E0,-9.711263916E0,5.924155070E0,-1.014334041E0,1.142073263E1
7.404020250E0,-9.816778092E0,5.975386035E0,-9.849811645E-1,1.153449428E1
7.413959250E0,-9.815748982E0,6.004046162E0,-1.081317405E0,1.155710802E1
7.423898250E0,-9.817658683E0,6.013361362E0,-1.386841439E0,1.159613151E1
7.433837250E0,-9.707169696E0,6.031740330E0,-1.697431501E0,1.155388716E1
7.443776250E0,-9.184350849E0,5.879808033E0,-1.582230828E0,1.101943272E1
7.453715250E0,-7.833059312E0,5.173268500E0,-1.337854636E0,9.482055694E0
7.463654250E0,-6.641027218E0,4.491345453E0,-5.914798502E-1,8.038984693E0
7.473593250E0,-5.034326377E0,4.276764625E0,1.579575022E0,6.791922775E0
7.483532250E0,2.083807325E-1,4.071679091E0,6.881675810E0,7.998715841E0
7.493471250E0,1.096308028E1,5.078739488E-1,1.452542976E1,1.820536116E1
7.503410250E0,2.976266915E1,-3.869677963E0,-1.101931179E-1,3.001338076E1
7.513349125E0,4.695546654E1,-8.757673091E0,1.696440281E1,5.068829884E1
7.523288125E0,4.191013804E1,-7.696522148E0,2.005785354E1,4.709579188E1
7.533227125E0,3.603688123E1,-1.304059717E1,1.166308672E1,4.005922585E1
7.543166125E0,3.134091218E1,-1.820790794E1,5.653455298E0,3.668435967E1
7.553105125E0,2.768198891E1,-2.002369411E1,-2.442423201E0,3.425209872E1
7.563044125E0,2.493521726E1,-2.204736633E1,-9.992522006E0,3.475200596E1
7.572983125E0,1.984381504E1,-2.043217124E1,-1.114114203E1,3.058391183E1
7.582922125E0,1.403080092E1,-1.526422663E1,-6.547818507E0,2.174244504E1
7.592861125E0,9.639716216E0,-1.001235810E1,-2.494395885E0,1.412067471E1
7.602800125E0,5.626065770E0,-6.695584078E0,1.718783194E-1,8.747171220E0
7.612739125E0,2.471636767E0,-4.407118943E0,8.243872404E-1,5.119697257E0
7.622678125E0,1.600540799E-1,-2.455966522E0,8.008100975E-1,2.588181925E0
7.632617125E0,-1.811652181E0,-8.211285871E-1,3.181037343E-1,2.014330104E0
7.642556125E0,-3.309817005E0,4.026907253E-1,-4.065457946E-1,3.358917669E0
7.652495125E0,-4.796102625E0,1.233621585E0,-1.487991253E0,5.170932273E0
7.662434125E0,-5.987644722E0,1.990215330E0,-1.953883509E0,6.605339291E0
7.672372125E0,-6.999646894E0,2.541494038E0,-2.485276567E0,7.850531714E0
7.682311125E0,-7.729746612E0,2.952748887E0,-3.006247694E0,8.803705690E0
7.692250125E0,-8.561118352E0,3.205564658E0,-3.100590180E0,9.653085086E0
7.702189125E0,-9.200855200E0,3.437007394E0,-3.048928860E0,1.028419775E1
7.712128125E0,-9.829140276E0,3.616032473E0,-2.915145443E0,1.087132753E1
7.722067125E0,-1.031729975E1,3.954849676E0,-2.681706176E0,1.137009491E1
7.732006125E0,-1.059679432E1,4.271179657E0,-2.181530817E0,1.163159930E1
7.741945125E0,-1.063291374E1,4.574659505E0,-1.773789267E0,1.171036689E1
7.751884125E0,-1.076177117E1,4.782574215E0,-1.870622667E0,1.192425948E1
7.761823125E0,-1.107442062E1,5.046478060E0,-1.783178580E0,1.229997800E1
7.771762125E0,-1.159957309E1,5.346134999E0,-1.867054403E0,1.290802648E1
7.781701125E0,-1.214605855E1,5.636344006E0,-1.984464739E0,1.353636629E1
7.791640125E0,-1.263368125E1,5.956515900E0,-2.026023971E0,1.411363726E1
7.801579125E0,-1.301814971E1,6.072518227E0,-2.114824466E0,1.451964814E1
7.811518125E0,-1.287552443E1,6.191656415E0,-1.977931792E0,1.442317415E1
7.821457125E0,-1.349984685E1,6.351741486E0,-1.930390274E0,1.504383234E1
7.831396125E0,-1.350070171E1,6.595725914E0,-1.597773896E0,1.511044104E1
7.841335125E0,-1.343684310E1,6.852248527E0,-1.452852995E0,1.515298136E1
7.851274125E0,-1.323255308E1,6.861742651E0,-1.860402757E0,1.502148700E1
7.861213125E0,-1.201007570E1,6.441175818E0,-2.371705513E0,1.383313599E1
7.871152125E0,-9.983498583E0,5.733918833E0,-2.133710534E0,1.170900464E1
7.881091125E0,-9.441626583E0,5.531205806E0,-1.650514758E0,1.106628886E1
7.891030125E0,-8.953937223E0,5.246180940E0,-9.630330558E-1,1.042222812E1
7.900969125E0,-8.041511965E0,5.337616775E0,-6.498256338E-1,9.673589865E0
7.910908125E0,-7.803670621E0,5.294525135E0,-5.923638761E-1,9.448818261E0
7.920847125E0,-7.796528832E0,5.057677817E0,-2.970572662E-1,9.298075594E0
7.930786125E0,-7.458952700E0,4.964058048E0,5.727580158E-1,8.978078827E0
7.940725125E0,-7.814036565E0,6.302492142E0,3.365600027E0,1.058809889E1
7.950664125E0,-2.892069114E0,6.609016635E0,4.213608264E0,8.354499342E0
7.960603125E0,5.008833686E0,8.285732621E0,1.104864025E1,1.469061712E1
7.970542125E0,1.169270053E1,7.003790231E0,1.339503083E1,1.911018509E1
7.980481125E0,1.836759190E1,-1.285175900E0,1.397757255E1,2.311693413E1
7.990420125E0,2.652921503E1,-8.310895529E0,7.873070054E0,2.889386555E1
8.000359125E0,3.595210362E1,-9.198621563E0,1.760921855E1,4.107618497E1
8.010298125E0,4.098390634E1,-6.522038133E0,1.786455827E1,4.518141214E1
8.020237125E0,5.000123440E1,-1.435624993E1,1.477826337E1,5.407977830E1
8.030176125E0,3.859120932E1,-1.984069263E1,1.231440573E1,4.510630898E1
8.040115125E0,1.269870813E1,-7.449106573E0,1.079616449E1,1.825660277E1
8.050054125E0,1.119798866E1,-4.692451372E0,1.020978349E1,1.586359760E1
8.059992125E0,1.186228148E1,-6.939552720E0,1.197939828E0,1.379515037E1
8.069931125E0,1.260245712E1,-8.658635876E0,-1.237085592E1,1.966804456E1
8.079870125E0,1.624594373E1,-1.220399159E1,-2.141456194E1,2.952035842E1
8.089809125E0,1.902310804E1,-1.314234457E1,-1.285213907E1,2.645330488E1
8.099748125E0,1.366637672E1,-9.131440564E0,-8.791837202E0,1.863999626E1
8.109687125E0,6.335717776E0,-6.188918749E0,-6.025504274E0,1.071217703E1
8.119626125E0,2.659470384E0,-3.787845011E0,-3.214751803E0,5.635173618E0
8.129565125E0,-8.315886712E-1,-1.777726928E0,-2.378006765E0,3.083304870E0
8.139504125E0,-3.670906545E0,-1.347903076E-1,-1.387801844E0,3.926794780E0
8.149443125E0,-5.738829909E0,1.157334716E0,-7.956762421E-1,5.908188644E0
8.159382125E0,-7.054465710E0,2.180668207E0,-8.988948011E-1,7.438333963E0
8.169321125E0,-7.950600625E0,2.856558681E0,-1.277877552E0,8.544293349E0
8.179260125E0,-8.666929566E0,3.235474043E0,-1.654795943E0,9.397994999E0
8.189199125E0,-9.150940443E0,3.631427899E0,-2.033631198E0,1.005299137E1
8.199138125E0,-9.173061630E0,3.750667244E0,-2.660968441E0,1.026125321E1
8.209077125E0,-9.447101331E0,4.035067335E0,-2.760640079E0,1.063722829E1
8.219016125E0,-9.823949118E0,4.580622788E0,-2.499136223E0,1.112374772E1
8.228955125E0,-1.013086479E1,5.056072172E0,-2.326217099E0,1.155896073E1
8.238894125E0,-1.025241203E1,5.313624480E0,-2.107491034E0,1.173831658E1
8.248833125E0,-1.036819860E1,5.484733890E0,-1.956505839E0,1.189158371E1
8.258772125E0,-1.047711585E1,5.622084986E0,-2.009569467E0,1.205886253E1
8.268711125E0,-1.057345574E1,5.714073967E0,-1.865055971E0,1.216252611E1
8.278650125E0,-1.062195255E1,5.893697509E0,-1.450939933E0,1.223383722E1
8.288589125E0,-1.071601905E1,5.990095875E0,-9.779235752E-1,1.231546375E1
8.298528125E0,-1.085481324E1,6.222658938E0,-4.959068911E-1,1.252175620E1
8.308467125E0,-1.093935345E1,6.463507504E0,-2.923444104E-1,1.270951803E1
8.318406125E0,-1.066068568E1,6.771771544E0,-2.062757349E-1,1.263129679E1
8.328345125E0,-1.026028823E1,7.072212009E0,-4.139875460E-1,1.246840338E1
8.338284125E0,-1.005455629E1,7.258969154E0,-5.744059074E-1,1.241437382E1
8.348223125E0,-9.398064242E0,7.431431025E0,-4.871520744E-1,1.199112571E1
8.358162125E0,-8.648892660E0,7.579618181E0,-3.301232708E-1,1.150490927E1
8.368101125E0,-8.068835419E0,7.643806576E0,-1.323424438E-1,1.111536767E1
8.378040125E0,-7.153846741E0,7.699665027E0,3.047299826E-1,1.051452448E1
8.387979125E0,-6.304032884E0,7.363388731E0,6.848832730E-1,9.717478546E0
8.397918125E0,-5.902009910E0,6.730814722E0,6.650547069E-1,8.976629967E0
8.407857125E0,-5.745805637E0,5.566644026E0,2.263094652E-1,8.003313321E0
8.417796125E0,-4.880272710E0,5.315432439E0,4.725824575E-1,7.231474118E0
8.427735125E0,-3.259927391E0,4.983468465E0,2.371026067E0,6.409668411E0
8.437673125E0,9.606606942E-1,3.460382223E0,6.695956546E0,7.598220066E0
8.447612125E0,7.117265391E0,-7.122961164E-2,7.844357302E0,1.059218966E1
8.457551125E0,1.725749099E1,-4.941155089E0,1.222868482E0,1.799253779E1
8.467490125E0,2.412624796E1,-1.200739768E1,8.334236444E0,2.820838415E1
8.477429125E0,2.539062414E1,-1.289159725E1,2.030635787E1,3.497463715E1
8.487368125E0,2.652820697E1,-8.590477806E0,1.857586504E1,3.350529564E1
8.497307125E0,2.439050936E1,-1.139011998E1,1.739325632E1,3.204929243E1
8.507246708E0,1.742761339E1,-1.400556551E1,1.631564488E1,2.767811123E1
8.517185708E0,1.652499859E1,-1.324678520E1,1.280190798E1,2.474756037E1
8.527124708E0,1.499611074E1,-1.424401613E1,6.926492379E0,2.181173147E1
8.537063708E0,1.212453261E1,-1.465793585E1,-1.069509537E0,1.905264352E1
8.547002708E0,1.474334379E1,-1.785932268E1,-1.694739911E1,2.869731571E1
8.556941708E0,1.965835773E1,-1.948990413E1,-2.092255149E1,3.469957568E1
8.566880708E0,1.672912372E1,-1.536542439E1,-1.334640889E1,2.634552101E1
8.576819708E0,8.625337737E0,-1.107753602E1,-7.117351930E0,1.574055126E1
8.586758708E0,4.896920902E0,-7.242817390E0,-2.962405272E0,9.231147440E0
8.596697708E0,1.489108071E0,-4.084974198E0,-8.685502370E-1,4.433828657E0
8.606636708E0,-1.211318550E0,-1.554497484E0,-9.649309158E-2,1.973085395E0
8.616575708E0,-3.271851618E0,2.704226142E-1,8.427109525E-2,3.284089375E0
8.626514708E0,-4.675566952E0,1.533068023E0,8.248784065E-2,4.921181579E0
8.636453708E0,-5.753439177E0,2.704820219E0,-2.218552025E-1,6.361394070E0
8.646392708E0,-6.390644181E0,3.667358454E0,-1.126031209E0,7.453710308E0
8.656331708E0,-6.899622669E0,4.316468974E0,-1.371177479E0,8.253291771E0
8.666270708E0,-7.243161206E0,4.965876532E0,-1.541521928E0,8.916255035E0
8.676209708E0,-7.735253520E0,5.650773765E0,-1.958634810E0,9.777609190E0
8.686148708E0,-8.157772738E0,6.097955369E0,-2.067562591E0,1.039274414E1
8.696087708E0,-8.387929087E0,6.231414558E0,-2.027705630E0,1.064422246E1
8.706026708E0,-8.417550496E0,6.420150400E0,-1.722366952E0,1.072567179E1
8.715965708E0,-8.487600725E0,6.585206773E0,-1.553804589E0,1.085442873E1
8.725904708E0,-8.443354259E0,6.745968951E0,-1.341186379E0,1.089022999E1
8.735843708E0,-8.418753269E0,6.966883775E0,-1.127344420E0,1.098561703E1
8.745782708E0,-8.532826014E0,7.226108971E0,-1.031903754E0,1.122900690E1
8.755721708E0,-8.631872585E0,7.404571840E0,-1.128247084E0,1.142846665E1
8.765660708E0,-8.746614836E0,7.604509778E0,-1.151489255E0,1.164722145E1
8.775599708E0,-8.739804584E0,7.787137619E0,-1.098877836E0,1.175717776E1
8.785537708E0,-8.708069406E0,7.875868531E0,-1.000058649E0,1.178388286E1
8.795477708E0,-8.754935424E0,8.022700887E0,-7.375116491E-1,1.189775387E1
8.805415708E0,-8.734550861E0,8.208556391E0,-2.648215663E-1,1.198928302E1
8.815354708E0,-8.825652820E0,8.377611675E0,2.464466912E-1,1.217116515E1
8.825293708E0,-8.866899079E0,8.571594808E0,7.021359944E-1,1.235261639E1
8.835232708E0,-8.890204327E0,8.691328243E0,1.183907973E0,1.248905752E1
8.845171708E0,-8.869403442E0,8.825756316E0,1.453898478E0,1.259659131E1
8.855110708E0,-8.464729341E0,8.973417222E0,1.510215350E0,1.242797690E1
8.865049708E0,-7.530720255E0,8.991817825E0,1.513665208E0,1.182606096E1
8.874988708E0,-6.461049335E0,8.835815281E0,1.723520608E0,1.108094371E1
8.884927708E0,-5.519906062E0,8.607183301E0,1.997758530E0,1.041844549E1
8.894866708E0,-4.799982253E0,8.333349422E0,2.212248434E0,9.868058844E0
8.904805708E0,-4.352201309E0,7.523774933E0,1.975885266E0,8.913639439E0
8.914744708E0,-4.006320376E0,6.501215613E0,1.222603676E0,7.733767979E0
8.924683708E0,-2.858119011E0,7.959076164E0,2.534662735E0,8.828377702E0
8.934622708E0,1.803059113E-1,5.655976617E0,2.590447512E0,6.223584179E0
8.944561708E0,8.979332850E0,1.814079360E0,9.805356141E0,1.341880440E1
8.954500708E0,2.908096566E1,-8.784524674E0,7.089089413E0,3.119496156E1
8.964439708E0,4.197842417E1,-2.072033840E1,1.409964487E1,4.889090411E1
8.974378708E0,3.497038652E1,-1.442004539E1,2.143561893E1,4.347817155E1
8.984317708E0,2.991440206E1,-1.500001551E1,2.169675324E1,3.988259040E1
8.994256708E0,2.811889988E1,-2.134656584E1,1.692480079E1,3.915095510E1
9.004195708E0,1.994094665E1,-2.182482364E1,1.103110445E1,3.155391490E1
9.014134708E0,1.869966931E1,-2.448463550E1,-6.865091937E0,3.156429146E1
9.024073708E0,2.008494720E1,-2.953923067E1,-2.758265875E1,4.513063612E1
9.034012708E0,1.771805511E1,-2.441027529E1,-2.289140723E1,3.786565121E1
9.043951708E0,5.823873568E0,-1.437536565E1,-1.375537719E1,2.073111291E1
9.053890708E0,1.525381858E0,-1.023021834E1,-7.327900225E0,1.267605139E1
9.063829708E0,-1.085710418E0,-6.178463928E0,-3.983968810E0,7.431298076E0
9.073768708E0,-3.176923826E0,-3.061006284E0,-2.762443652E0,5.205160843E0
9.083707708E0,-4.566121109E0,-9.609641647E-1,-1.601341867E0,4.933275776E0
9.093646708E0,-5.810064783E0,8.272862899E-1,-4.270280794E-1,5.884182897E0
9.103585708E0,-7.088888268E0,2.256387895E0,-4.828547363E-1,7.454983026E0
9.113524708E0,-7.682641443E0,3.597049195E0,-8.375493228E-1,8.524273067E0
9.123463708E0,-8.273779743E0,4.810535308E0,-7.871527559E-1,9.602931356E0
9.133402708E0,-8.733296049E0,5.589155806E0,-4.946170684E-1,1.038045127E1
9.143341708E0,-8.772320951E0,6.271774380E0,-3.074747387E-1,1.078810963E1
9.153280708E0,-8.472674537E0,6.693050480E0,-2.403831651E-1,1.080004271E1
9.163218708E0,-7.788487741E0,6.994346977E0,-2.862551200E-1,1.047202812E1
9.173157708E0,-6.876235560E0,7.263121846E0,-8.826370200E-2,1.000216701E1
9.183096708E0,-6.251351810E0,7.553302202E0,2.392774200E-1,9.807600486E0
9.193035708E0,-5.861737213E0,7.857411211E0,5.079663348E-1,9.816155249E0
9.202974708E0,-6.069706886E0,8.301524781E0,1.130823441E0,1.034579224E1
9.212913708E0,-6.255168287E0,8.482228888E0,1.410981084E0,1.063325937E1
9.222852708E0,-6.487764679E0,8.537081618E0,1.297076154E0,1.080070644E1
9.232791708E0,-6.774243162E0,8.482901317E0,1.390146285E0,1.094451881E1
9.242730708E0,-6.860694246E0,8.445555736E0,1.725977608E0,1.101705659E1
9.252669708E0,-6.753274462E0,8.395600634E0,1.936898371E0,1.094734677E1
9.262608708E0,-6.741217504E0,8.680395704E0,1.955446908E0,1.116320096E1
9.272547708E0,-6.659170543E0,8.924104144E0,2.214161935E0,1.135282785E1
9.282486708E0,-6.892209569E0,8.756667370E0,2.726699331E0,1.147243067E1
9.292425708E0,-6.981602971E0,8.889782158E0,2.760500038E0,1.163577962E1
9.302364708E0,-6.966273910E0,9.146813478E0,2.652133298E0,1.179944829E1
9.312303708E0,-7.170375066E0,9.262428135E0,2.543593773E0,1.198652255E1
9.322242708E0,-7.468042197E0,9.393848984E0,2.489370203E0,1.225614201E1
9.332181708E0,-7.618814406E0,9.425977095E0,2.367371557E0,1.234908196E1
9.342120708E0,-7.608419226E0,9.393634976E0,2.161982260E0,1.228017054E1
9.352059708E0,-7.070679454E0,9.286391194E0,1.664866164E0,1.178996814E1
9.361998708E0,-5.976328606E0,8.293068538E0,6.876303680E-1,1.024520985E1
9.371937708E0,-5.358805915E0,7.025631335E0,7.947067738E-2,8.836436617E0
9.381876708E0,-4.437179478E0,6.669165773E0,2.522396739E-1,8.014359531E0
9.391815708E0,-1.674342601E0,6.611347920E0,2.372180307E0,7.220843709E0
9.401754708E0,5.680879909E0,4.721506771E0,6.112572824E0,9.587938739E0
9.411693708E0,1.304169879E1,-1.675091629E0,1.142138855E1,1.741665742E1
9.421632708E0,1.604530939E1,-6.570057222E0,1.000211846E1,2.001649267E1
9.431571708E0,2.559884817E1,-9.394572870E0,1.506731696E1,3.115418218E1
9.441510708E0,2.863378231E1,-9.173993676E0,2.252558203E1,3.756936910E1
9.451449708E0,3.192384683E1,-1.082899544E1,1.827082749E1,3.834347762E1
9.461388708E0,3.180578687E1,-1.913587159E1,1.831624048E1,4.139171808E1
9.471327708E0,2.981262308E1,-2.659817007E1,9.322688954E0,4.102642655E1
9.481266708E0,2.834543973E1,-3.456343434E1,-1.152549589E1,4.616201905E1
9.491205708E0,2.821725941E1,-4.080306833E1,-2.253588482E1,5.448825762E1
9.501144708E0,1.721207332E1,-2.831257838E1,-1.683597691E1,3.716594787E1
9.511082583E0,6.415186114E0,-1.662485032E1,-8.223008369E0,1.962544592E1
9.521021583E0,1.183716184E0,-1.033603774E1,-3.461045297E0,1.096420060E1
9.530960583E0,-2.506205506E0,-5.728359885E0,-1.963505687E0,6.553665203E0
9.540899583E0,-4.927532246E0,-2.940565921E0,-1.535694154E0,5.940190107E0
9.550838583E0,-5.987649985E0,-5.592405689E-1,-1.584073870E0,6.218841724E0
9.560777583E0,-7.074133989E0,1.206315672E0,-1.500765665E0,7.331498263E0
9.570716583E0,-7.691289475E0,2.497700146E0,-1.005837890E0,8.148996851E0
9.580655583E0,-7.800144750E0,3.438589066E0,-1.498357489E0,8.655127269E0
9.590594583E0,-7.921666263E0,4.445885398E0,-1.731907854E0,9.247604997E0
9.600533583E0,-8.252059675E0,5.199182190E0,-1.642016123E0,9.890611775E0
9.610472583E0,-8.084386674E0,5.739969531E0,-1.503961169E0,1.002828287E1
9.620411583E0,-7.600924850E0,6.180942562E0,-1.569918346E0,9.921832147E0
9.630350583E0,-7.264065002E0,6.659452379E0,-1.657226631E0,9.993064918E0
9.640289583E0,-6.778909240E0,6.927690473E0,-1.580570803E0,9.820626754E0
9.650228583E0,-6.453536832E0,7.114823009E0,-1.464365578E0,9.716646059E0
9.660167583E0,-6.580928950E0,7.344869429E0,-1.221720893E0,9.937219668E0
9.670106583E0,-6.434419945E0,7.632306272E0,-1.451031588E0,1.008758404E1
9.680045583E0,-6.317955104E0,7.640250884E0,-1.719999415E0,1.006222581E1
9.689984583E0,-6.350223548E0,7.407015976E0,-1.574100859E0,9.882662511E0
9.699923583E0,-6.316045403E0,6.999517086E0,-1.387470015E0,9.529467037E0
9.709862583E0,-6.553502001E0,6.779852396E0,-1.170536633E0,9.501838927E0
9.719801583E0,-6.516371012E0,6.957334687E0,-6.704598731E-1,9.555998825E0
9.729740583E0,-6.081831672E0,7.087065691E0,-9.232086933E-1,9.384428107E0
9.739679583E0,-5.973779220E0,6.991688249E0,-7.187122661E-1,9.224223005E0
9.749618583E0,-5.752605949E0,7.069691859E0,-2.168744163E-1,9.117019947E0
9.759557583E0,-5.418568552E0,7.143157446E0,-4.993989944E-1,8.979698370E0
9.769496583E0,-5.776594736E0,7.271941202E0,-3.587108928E-1,9.294022223E0
9.779435583E0,-5.937007835E0,7.487919806E0,-1.731652915E-1,9.557561994E0
9.789374583E0,-6.237987413E0,7.756981189E0,-1.061725906E-1,9.954622883E0
9.799313583E0,-6.384884089E0,7.827792724E0,7.320012331E-2,1.010180390E1
9.809252583E0,-6.443294849E0,7.935642278E0,2.343248649E-1,1.022474327E1
9.819191583E0,-6.572722383E0,8.128419716E0,5.513362662E-1,1.046784879E1
9.829130583E0,-6.531079098E0,8.378649555E0,6.495028675E-1,1.064324276E1
9.839069583E0,-6.117971558E0,8.384333634E0,5.573402603E-1,1.039409711E1
9.849008583E0,-5.043945047E0,7.743412140E0,4.685468189E-1,9.253180498E0
9.858946583E0,-3.990765613E0,6.941703326E0,1.310700166E0,8.113654551E0
9.868885583E0,-1.766888822E0,6.659220829E0,3.051402233E0,7.535129312E0
9.878824583E0,8.536771131E-1,5.802459894E0,6.252934066E0,8.573009383E0
9.888763583E0,7.648258646E0,3.385481730E0,7.671352808E0,1.134931719E1
9.898702583E0,1.530350471E1,-1.682470815E0,5.870148432E0,1.647685065E1
9.908641583E0,2.207212812E1,-6.294468593E0,1.560040995E1,2.775197228E1
9.918580583E0,2.766743169E1,-7.955308803E0,1.740935721E1,3.364311865E1
9.928519583E0,3.115802764E1,-9.876238428E0,1.577101884E1,3.629170439E1
9.938458583E0,3.141490050E1,-1.842854210E1,1.255453451E1,3.852432315E1
9.948397583E0,2.882949329E1,-2.825029851E1,3.515129411E0,4.051635700E1
9.958336583E0,2.782964046E1,-3.504293409E1,-7.450202926E0,4.536520299E1
9.968275583E0,2.410870865E1,-3.705935343E1,-1.230665349E1,4.589203885E1
9.978214583E0,1.507549722E1,-2.796439540E1,-7.854053155E0,3.272558903E1
9.988153583E0,6.955526728E0,-1.590353312E1,-1.879407085E0,1.745949280E1
9.998092583E0,2.580360480E0,-1.060489155E1,1.128531332E0,1.097249142E1
1.000803158E1,-5.631576186E-1,-7.253334777E0,1.060823791E0,7.352098952E0
1.001797058E1,-2.725240451E0,-4.622483590E0,-2.288091499E-1,5.370907156E0
1.002790958E1,-3.953779051E0,-2.629571232E0,-3.184639227E-1,4.759036973E0
1.003784858E1,-4.564208484E0,-1.134287916E0,-8.632649387E-1,4.781614217E0
1.004778758E1,-5.257829763E0,3.475959206E-1,-1.594411163E0,5.505246924E0
1.005772658E1,-5.484935035E0,1.349864817E0,-2.036180877E0,6.004388388E0
1.006766558E1,-5.520671462E0,2.336136900E0,-2.266120147E0,6.408638665E0
1.007760458E1,-5.804588866E0,3.132586729E0,-2.792218552E0,7.162599804E0
1.008754358E1,-5.902578260E0,3.859640048E0,-3.245242986E0,7.763301711E0
1.009748258E1,-6.383543322E0,4.323737648E0,-3.526660997E0,8.478305867E0
1.010742158E1,-6.618815399E0,4.585206420E0,-3.528104675E0,8.790924741E0
1.011736058E1,-6.748531786E0,4.793450328E0,-3.514221338E0,8.992752578E0
1.012729958E1,-7.170691400E0,5.067000033E0,-3.484961579E0,9.446600537E0
1.013723858E1,-7.663433340E0,5.305848268E0,-3.162731465E0,9.842921655E0
1.014717758E1,-7.941759050E0,5.466509289E0,-2.849004371E0,1.005341169E1
1.015711658E1,-7.911272838E0,5.671462968E0,-2.481720876E0,1.004552978E1
1.016705558E1,-7.753650030E0,5.911726229E0,-2.057712225E0,9.965027616E0
1.017699458E1,-7.552960725E0,6.384033903E0,-1.838134367E0,1.005891856E1
1.018693358E1,-7.360935239E0,6.889054411E0,-1.324118211E0,1.016836896E1
1.019687258E1,-7.531625404E0,7.148714640E0,-6.829746687E-1,1.040653432E1
1.020681058E1,-7.730754088E0,7.145624387E0,-3.873160565E-1,1.053444447E1
1.021674958E1,-7.925254700E0,7.174923030E0,-3.175541691E-1,1.069532717E1
1.022668858E1,-8.092140082E0,6.944837433E0,-3.506002931E-1,1.066941510E1
1.023662758E1,-8.285309867E0,7.100033062E0,-2.014178681E-1,1.091317544E1
1.024656658E1,-8.553844416E0,7.189111884E0,-2.694280759E-1,1.117694840E1
1.025650558E1,-8.742604231E0,7.228564217E0,-2.841151487E-1,1.134751033E1
1.026644458E1,-8.968054156E0,7.320601730E0,-2.287126708E-1,1.157883908E1
1.027638358E1,-9.051127303E0,7.393725840E0,-1.345169868E-1,1.168795029E1
1.028632258E1,-9.028620785E0,7.452561693E0,6.407378912E-3,1.170712220E1
1.029626158E1,-9.105284214E0,7.483321556E0,1.026104669E-1,1.178629844E1
1.030620058E1,-9.218714350E0,7.574083791E0,-1.712883353E-1,1.193234173E1
1.031613958E1,-9.259051952E0,7.702919002E0,-5.495084631E-1,1.205682229E1
1.032607858E1,-9.081438684E0,7.995023092E0,-8.659410632E-1,1.213024224E1
1.033601758E1,-8.481739476E0,8.173503503E0,-8.746417201E-1,1.181148010E1
1.034595658E1,-7.245957929E0,8.010290172E0,-6.333762467E-1,1.081988080E1
1.035589558E1,-6.422134361E0,7.636356638E0,1.455114607E-1,9.978924092E0
1.036583458E1,-4.782219581E0,7.548413930E0,1.843527108E0,9.123966746E0
1.037577358E1,-2.091591139E0,8.020397669E0,6.305704018E0,1.041457802E1
1.038571258E1,5.998201870E0,5.168118857E0,1.975703768E1,2.128446420E1
1.039565158E1,2.725777342E1,-2.989879876E0,1.006654425E1,2.921063003E1
1.040559058E1,4.752389543E1,-9.348065286E0,1.783547539E1,5.161405955E1
1.041552958E1,4.578766999E1,-8.332638985E0,2.858958905E1,5.461966859E1
1.042546858E1,4.554070699E1,-1.508509133E1,2.105929447E1,5.239284166E1
1.043540758E1,4.043294894E1,-2.582436358E1,7.886357267E0,4.862011667E1
1.044534658E1,3.491591854E1,-3.225543541E1,-1.470098481E0,4.755728830E1
1.045528558E1,2.779901977E1,-3.393832021E1,-8.468396130E0,4.468007175E1
1.046522458E1,1.651672829E1,-2.739549172E1,-8.441571443E0,3.308436803E1
1.047516358E1,6.791732769E0,-1.545280752E1,-6.635622636E0,1.813693419E1
1.048510258E1,1.021535472E0,-8.918703071E0,-2.667275832E0,9.364889724E0
1.049504158E1,-3.516457606E0,-4.457030483E0,-2.096729233E0,6.052013574E0
1.050498058E1,-5.529820016E0,-1.899790479E0,-1.798121139E0,6.117299478E0
1.051491933E1,-6.430311692E0,-1.692043877E-1,-1.904820254E0,6.708642096E0
1.052485833E1,-7.672684219E0,1.329722913E0,-2.510493854E0,8.181737319E0
1.053479733E1,-8.842960578E0,2.487697899E0,-1.639939338E0,9.331451852E0
1.054473633E1,-9.042408519E0,3.127889953E0,-2.087718674E0,9.793233207E0
1.055467433E1,-9.080351102E0,3.870942131E0,-2.153537711E0,1.010320216E1
1.056461333E1,-9.480673120E0,4.313774577E0,-2.194621271E0,1.064463134E1
1.057455233E1,-9.631885625E0,4.611936674E0,-2.230732067E0,1.090959881E1
1.058449133E1,-9.693664382E0,4.950195469E0,-2.024822368E0,1.107120002E1
1.059443033E1,-9.730166211E0,5.171503810E0,-1.845451280E0,1.117256804E1
1.060436933E1,-9.795135793E0,5.224042797E0,-1.770929832E0,1.124150794E1
1.061430833E1,-9.656290734E0,5.425687537E0,-1.555238911E0,1.118484707E1
1.062424733E1,-9.401509421E0,5.616202687E0,-1.659962105E0,1.107635257E1
1.063418633E1,-8.602533596E0,5.853010243E0,-1.995072758E0,1.059441497E1
1.064412533E1,-8.282704933E0,5.939641421E0,-2.020622167E0,1.039064267E1
1.065406433E1,-8.289276618E0,6.030042883E0,-2.022400597E0,1.044813994E1
1.066400333E1,-8.222637656E0,6.106608079E0,-1.833670456E0,1.040503626E1
1.067394233E1,-8.181603650E0,6.220256317E0,-1.847717953E0,1.044242733E1
1.068388133E1,-8.226602653E0,6.132574979E0,-1.999279976E0,1.045383124E1
1.069382033E1,-8.332379953E0,6.162042607E0,-2.051187317E0,1.056440695E1
1.070375933E1,-8.344934510E0,6.270942321E0,-2.128675350E0,1.065335198E1
1.071369833E1,-8.320940461E0,6.355643333E0,-2.091763632E0,1.067744012E1
1.072363733E1,-8.429318018E0,6.432757582E0,-1.891921588E0,1.077093959E1
1.073357633E1,-8.438869445E0,6.561719677E0,-1.482417687E0,1.079204544E1
1.074351533E1,-8.383704473E0,6.732268925E0,-1.152837111E0,1.081383276E1
1.075345433E1,-8.430627210E0,6.924078648E0,-9.382799647E-1,1.094982692E1
1.076339333E1,-8.721726163E0,6.844275849E0,-7.120043403E-1,1.110943605E1
1.077333233E1,-8.825096750E0,6.716936356E0,-8.556874589E-1,1.112347822E1
1.078327133E1,-8.866024920E0,6.504114663E0,-1.303025111E0,1.107283974E1
1.079321033E1,-8.875459403E0,5.829957011E0,-1.974143381E0,1.080089906E1
1.080314933E1,-8.430374610E0,5.006574322E0,-3.007582614E0,1.025585470E1
1.081308833E1,-7.658446834E0,4.791224585E0,-3.536821704E0,9.701378701E0
1.082302733E1,-6.382800726E0,4.700124381E0,-3.473497528E0,8.654276363E0
1.083296633E1,-4.667403654E0,4.885564440E0,-4.541707448E-1,6.771976656E0
1.084290533E1,-1.769675020E0,5.591116378E0,5.673901842E0,8.159993513E0
1.085284433E1,1.801101465E0,4.813399274E0,2.080376413E1,2.142917126E1
1.086278333E1,1.429706208E1,-1.656362120E0,2.024781087E1,2.484196780E1
1.087272233E1,4.539267420E1,-1.068850673E1,1.451042230E1,4.883944515E1
1.088266033E1,4.573236936E1,-1.081570355E1,3.355906981E1,5.774634375E1
1.089260033E1,4.574425558E1,-6.206220660E0,3.110611840E1,5.566547130E1
1.090253833E1,4.782851665E1,-2.190932994E1,2.022957457E1,5.636329861E1
1.091247733E1,3.774205796E1,-2.928896048E1,5.395557420E0,4.807721066E1
1.092241633E1,3.366795432E1,-3.026973735E1,-2.030954343E1,4.962122229E1
1.093235533E1,2.686260221E1,-2.436549497E1,-1.845910901E1,4.069416971E1
1.094229433E1,1.155836309E1,-1.170718291E1,-8.472180448E0,1.850491099E1
1.095223333E1,1.482794248E0,-6.716594878E0,-7.243471109E0,9.988953861E0
1.096217233E1,-2.628025228E0,-4.283640951E0,-4.854572150E0,6.987343355E0
1.097211133E1,-5.998794193E0,-2.284648073E0,-3.204708333E0,7.174629196E0
1.098205033E1,-7.493372335E0,-4.870683861E-1,-2.904988245E0,8.051510496E0
1.099198933E1,-8.656276524E0,1.101275121E0,-2.286491408E0,9.020641502E0
1.100192833E1,-9.137907584E0,2.331253306E0,-3.005420898E0,9.897911485E0
1.101186733E1,-9.460002628E0,3.425241042E0,-3.219848236E0,1.056368064E1
1.102180633E1,-9.794451669E0,4.360814842E0,-2.603858685E0,1.103304444E1
1.103174533E1,-9.850694282E0,4.842894676E0,-2.658072900E0,1.129403197E1
1.104168433E1,-9.413588015E0,5.504071802E0,-2.987421707E0,1.130642004E1
1.105162333E1,-8.882049215E0,6.169229420E0,-3.670216866E0,1.142018746E1
1.106156233E1,-8.797487367E0,6.927846009E0,-3.392425883E0,1.170040118E1
1.107150133E1,-9.121136016E0,7.342518849E0,-2.901784848E0,1.206350117E1
1.108144033E1,-8.802295532E0,7.691600547E0,-2.430054293E0,1.193927508E1
1.109137933E1,-8.052514086E0,8.073600900E0,-2.057325432E0,1.158700145E1
1.110131833E1,-7.382299211E0,8.215936747E0,-1.492007267E0,1.114567378E1
1.111125733E1,-7.001216871E0,8.255615367E0,-7.217510641E-1,1.084864726E1
1.112119633E1,-6.748062254E0,8.110352404E0,-4.754797894E-1,1.056126135E1
1.113113533E1,-6.525630078E0,7.556235750E0,-3.533845179E-1,9.990266625E0
1.114107433E1,-6.719897386E0,7.379090259E0,-4.634602529E-1,9.991135538E0
1.115101333E1,-6.685311690E0,7.510148581E0,-3.727364628E-1,1.006154345E1
1.116095233E1,-6.733602675E0,7.585164850E0,-9.296080323E-1,1.018529832E1
1.117089133E1,-7.145648360E0,7.377806211E0,-1.453172838E0,1.037323606E1
1.118083033E1,-7.355249991E0,7.065576004E0,-1.943661261E0,1.038267238E1
1.119076933E1,-7.600516714E0,6.836156990E0,-2.099907780E0,1.043601981E1
1.120070833E1,-7.712005575E0,6.841116598E0,-1.966171871E0,1.049484341E1
1.121064733E1,-7.774338648E0,6.864141764E0,-1.788598949E0,1.052406147E1
1.122058533E1,-7.821795820E0,6.813445235E0,-1.380899498E0,1.046472213E1
1.123052433E1,-7.538608734E0,6.802603328E0,-1.056233434E0,1.020890115E1
1.124046333E1,-7.530007480E0,6.885351369E0,-4.439217818E-1,1.021303788E1
1.125040233E1,-7.004747420E0,6.707849198E0,1.578726299E-1,9.699827372E0
1.126034133E1,-5.890793197E0,6.203520416E0,8.239931381E-1,8.594421140E0
1.127028033E1,-4.477968485E0,5.401623906E0,1.747003757E0,7.230613024E0
1.128021933E1,-2.703448462E0,4.526240174E0,2.378922147E0,5.784008496E0
1.129015833E1,-1.005065619E0,2.882852733E0,2.409735073E0,3.889449820E0
1.130009733E1,4.327500916E0,-1.427372876E0,9.166517426E0,1.023668400E1
1.131003633E1,1.580562149E1,-7.446798677E0,1.083718973E1,2.056008664E1
1.131997533E1,2.672994292E1,-1.319177810E1,8.726354234E0,3.105901023E1
1.132991433E1,3.265098084E1,-1.720721663E1,2.221895872E1,4.307965855E1
1.133985333E1,3.854152904E1,-1.650618459E1,2.183012122E1,4.727005165E1
1.134979233E1,3.817866253E1,-2.136040035E1,1.835353051E1,4.744184923E1
1.135973133E1,3.710112126E1,-2.285121113E1,1.097111319E1,4.493368862E1
1.136967033E1,3.473177568E1,-2.467857595E1,-7.235538776E0,4.321667935E1
1.137960933E1,3.080875006E1,-2.241051116E1,-1.666377874E1,4.158234737E1
1.138954833E1,1.918830709E1,-1.305269155E1,-9.256779724E0,2.498503265E1
1.139948733E1,9.615024594E0,-7.497949535E0,-4.164672039E0,1.288458142E1
1.140942633E1,3.961193905E0,-4.421325630E0,-2.618771132E0,6.488230862E0
1.141936533E1,-1.022776251E0,-1.829865966E0,-2.131282331E0,2.989455650E0
1.142930433E1,-4.290903777E0,4.586380541E-2,-1.918313581E0,4.700413355E0
1.143924333E1,-6.310355478E0,1.414643488E0,-1.734284163E0,6.695486839E0
1.144918233E1,-7.517885032E0,2.630192206E0,-1.775346234E0,8.160169156E0
1.145912133E1,-8.180999633E0,3.137559201E0,-1.584202509E0,8.904085036E0
1.146906033E1,-8.998521658E0,3.348047563E0,-2.154108692E0,9.839867822E0
1.147899933E1,-9.318996438E0,4.008819184E0,-3.169422141E0,1.062824363E1
1.148893833E1,-9.573041586E0,4.518512786E0,-2.970749833E0,1.099479138E1
1.149887733E1,-9.942294424E0,4.893287735E0,-2.849013727E0,1.144160664E1
1.150881633E1,-9.984120727E0,5.282602662E0,-2.577522826E0,1.158586128E1
1.151875575E1,-9.982824984E0,5.866583385E0,-2.126843125E0,1.177272513E1
1.152869475E1,-1.003456349E1,6.422688092E0,-2.151363278E0,1.210668207E1
1.153863375E1,-1.004123867E1,6.869280882E0,-2.033405642E0,1.233483816E1
1.154857175E1,-1.006260790E1,7.222925747E0,-1.796293300E0,1.251612575E1
1.155851075E1,-9.986513407E0,7.572585735E0,-1.635497939E0,1.263919927E1
1.156844975E1,-9.988466377E0,7.875203118E0,-1.341568787E0,1.279015604E1
1.157838875E1,-9.925887136E0,8.190134153E0,-1.027169118E0,1.290955496E1
1.158832775E1,-9.898428612E0,8.520728125E0,-8.304787235E-1,1.308706964E1
1.159826675E1,-9.475043421E0,8.402697984E0,-1.193146427E0,1.272027435E1
1.160820575E1,-9.310388752E0,8.355145503E0,-1.210046781E0,1.256805507E1
1.161814475E1,-9.320869886E0,8.370973915E0,-1.040837277E0,1.257120368E1
1.162808375E1,-9.238431162E0,8.369633149E0,-1.087021948E0,1.251323244E1
1.163802275E1,-9.211140452E0,8.346890988E0,-1.060780887E0,1.247561436E1
1.164796175E1,-9.130269951E0,8.434546598E0,-8.782295716E-1,1.246092665E1
1.165790075E1,-8.966419859E0,8.607530041E0,-6.821782780E-1,1.244795669E1
1.166783975E1,-8.817880701E0,8.787133117E0,-3.768226433E-1,1.245434558E1
1.167777875E1,-8.567936790E0,9.003559034E0,-1.338239090E-1,1.242946197E1
1.168771775E1,-8.032446442E0,9.193231015E0,1.635337579E-1,1.220911281E1
1.169765675E1,-7.070306402E0,9.022542604E0,4.664697417E-1,1.147227535E1
1.170759575E1,-6.396145241E0,8.382573037E0,3.921410327E-1,1.055139703E1
1.171753475E1,-6.155426483E0,7.896308643E0,3.802906269E-1,1.001926077E1
1.172747375E1,-5.917354174E0,7.585434406E0,6.287974383E-1,9.641020785E0
1.173741275E1,-5.743493063E0,6.879343940E0,8.341304559E-1,9.000492166E0
1.174735175E1,-3.288053668E0,6.020628281E0,1.038292568E0,6.938105886E0
1.175729075E1,6.449092948E-1,4.806852146E0,2.183764892E0,5.318887540E0
1.176722975E1,1.705439380E1,3.513907635E-1,1.364950516E1,2.184684907E1
1.177716875E1,2.748287017E1,-7.861667399E0,1.644664941E1,3.297887572E1
1.178710775E1,2.985780101E1,-1.029365010E1,4.636258460E0,3.192087728E1
1.179704675E1,3.085901273E1,-1.233565101E1,2.531696092E1,4.177793033E1
1.180698575E1,2.867449764E1,-7.871172048E0,2.224257445E1,3.713373510E1
1.181692475E1,3.572178180E1,-1.686042061E1,2.249998292E1,4.545952826E1
1.182686375E1,2.978556918E1,-2.539082763E1,2.519819929E1,4.654915152E1
1.183680275E1,1.856516697E1,-2.181114817E1,2.049955923E1,3.522248625E1
1.184674175E1,1.638238032E1,-1.996206913E1,5.558902313E0,2.641529829E1
1.185668075E1,1.832585330E1,-2.333868648E1,-1.364021277E1,3.265863730E1
1.186661975E1,2.064127469E1,-2.683334041E1,-3.002502202E1,4.525032956E1
1.187655875E1,1.636522693E1,-2.135916542E1,-2.003032017E1,3.354472128E1
1.188649675E1,2.218031330E0,-9.799301934E0,-1.534218755E1,1.833926662E1
1.189643575E1,-2.502420604E0,-5.677726505E0,-1.008187448E1,1.183819581E1
1.190637475E1,-5.417041259E0,-2.360428573E0,-6.812035471E0,9.017748406E0
1.191631375E1,-7.179389718E0,-2.107248813E-1,-5.381082053E0,8.974635689E0
1.192625275E1,-7.920974538E0,9.030165035E-1,-4.904162386E0,9.359919078E0
1.193619175E1,-8.569961096E0,2.378329239E0,-4.414544907E0,9.929193819E0
1.194613075E1,-8.899424216E0,3.929630635E0,-4.163235379E0,1.058178988E1
1.195606975E1,-8.665355496E0,4.931401348E0,-3.981620568E0,1.073593999E1
1.196600875E1,-8.507844370E0,5.804894675E0,-3.476469083E0,1.087042112E1
1.197594775E1,-8.552320631E0,6.966966221E0,-3.557596569E0,1.159039688E1
1.198588675E1,-8.081345537E0,7.958824149E0,-2.601598444E0,1.163698165E1
1.199582575E1,-7.880673773E0,8.592008607E0,-1.526233944E0,1.175827458E1
1.200576475E1,-8.115617822E0,9.133101758E0,-1.213279852E0,1.227798226E1
1.201570375E1,-8.240748237E0,9.620625057E0,-9.570468226E-1,1.270363321E1
1.202564275E1,-8.209559773E0,9.972412262E0,-9.701270440E-1,1.295326308E1
1.203558175E1,-8.138767533E0,1.012140867E1,-8.614137103E-1,1.301631607E1
1.204552075E1,-7.729589322E0,9.742709073E0,-4.698240700E-1,1.244538733E1
1.205545975E1,-7.297125744E0,8.758461880E0,-5.224346852E-1,1.141190767E1
1.206539875E1,-7.150657085E0,7.603513412E0,-1.090009875E0,1.049444779E1
1.207533775E1,-6.961989071E0,7.061732045E0,-1.256674086E0,9.995828182E0
1.208527675E1,-6.842541565E0,6.761638904E0,-1.366190243E0,9.716306475E0
1.209521575E1,-6.821043107E0,6.987864169E0,-1.460135264E0,9.873645209E0
1.210515475E1,-6.887460460E0,7.222041648E0,-1.599162025E0,1.010704291E1
1.211509375E1,-6.872116781E0,7.437557153E0,-1.929648993E0,1.030857850E1
1.212503275E1,-6.825335548E0,7.576406890E0,-2.156062685E0,1.042284764E1
1.213497175E1,-6.764604612E0,7.551963775E0,-2.375275384E0,1.041316309E1
1.214491075E1,-6.763062117E0,7.500306548E0,-2.329589188E0,1.036439064E1
1.215484975E1,-6.345520633E0,7.146027260E0,-2.052073463E0,9.774576369E0
1.216478875E1,-5.683215287E0,6.810174302E0,-1.445619990E0,8.987058873E0
1.217472775E1,-5.300874626E0,6.514715080E0,-8.445694900E-1,8.441213301E0
1.218466675E1,-4.783002523E0,6.237900290E0,-1.906654964E-1,7.862879021E0
1.219460575E1,-3.402524024E0,5.877763846E0,1.166397243E0,6.890991227E0
1.220454375E1,-5.143854082E-2,4.857886645E0,2.823335094E0,5.618979412E0
1.221448275E1,1.148453380E0,2.521900603E0,3.615579021E0,4.555363813E0
1.222442175E1,3.726485499E0,-4.358689964E-2,7.646212705E0,8.506066231E0
1.223436075E1,1.293320487E1,-2.316580887E0,1.087800680E1,1.705770698E1
1.224429975E1,2.217282887E1,-4.300533557E0,1.098785143E1,2.511696255E1
1.225423875E1,2.428756796E1,-7.981765115E0,1.665662175E1,3.051290842E1
1.226417775E1,2.395259969E1,-8.065828781E0,2.030256887E1,3.241880517E1
1.227411675E1,2.880874035E1,-1.192741946E1,2.098545115E1,3.758451830E1
1.228405575E1,3.379132823E1,-2.244115057E1,2.208029083E1,4.618439504E1
1.229399475E1,2.723724034E1,-2.576212348E1,1.682657809E1,4.109364912E1
1.230393375E1,2.607057814E1,-2.584561938E1,6.397447416E-1,3.671621385E1
1.231387275E1,2.588119384E1,-2.614456179E1,-1.733919764E1,4.066967028E1
1.232381175E1,2.449447753E1,-2.307098926E1,-2.448784679E1,4.161615810E1
1.233375075E1,1.484368084E1,-1.526949380E1,-1.594830642E1,2.660527729E1
1.234368975E1,5.165156073E0,-8.683755514E0,-8.606951752E0,1.327275652E1
1.235362875E1,1.062147308E0,-4.671646979E0,-4.878099884E0,6.837272913E0
1.236356775E1,-2.807914817E0,-1.739226814E0,-2.663977710E0,4.243356310E0
1.237350675E1,-5.030057909E0,6.641454649E-1,-2.363969647E0,5.597403350E0
1.238344575E1,-6.167660027E0,2.046665812E0,-1.632820645E0,6.700371215E0
1.239338475E1,-7.606739906E0,3.523435088E0,-1.088725242E0,8.453544196E0
1.240332375E1,-8.586698751E0,4.417644516E0,-1.341650063E0,9.749205270E0
1.241326275E1,-9.146171454E0,5.344446323E0,-1.112686547E0,1.065146141E1
1.242320175E1,-9.046874038E0,6.417330873E0,-9.478886211E-1,1.113223060E1
1.243314075E1,-8.482701927E0,7.151390911E0,-1.439870861E0,1.118802270E1
1.244307975E1,-8.528987902E0,7.684746441E0,-1.722732988E0,1.160890914E1
1.245301875E1,-8.688964798E0,8.513769354E0,-1.323260132E0,1.223655978E1
1.246295775E1,-8.929206424E0,9.044331084E0,-1.331076543E0,1.277898341E1
1.247289675E1,-9.230650856E0,9.227293385E0,-1.039557906E0,1.309307218E1
1.248283575E1,-8.981241381E0,9.570001618E0,-7.314397542E-1,1.314468074E1
1.249277475E1,-8.995178220E0,9.733833584E0,-1.706277754E0,1.336308839E1
1.250271375E1,-8.858349280E0,9.545582476E0,-1.524543806E0,1.311154951E1
1.251265287E1,-8.704717782E0,9.580922463E0,-1.026721952E0,1.298538967E1
1.252259187E1,-8.723732927E0,9.716790120E0,-4.763130176E-1,1.306699661E1
1.253252987E1,-8.673553292E0,9.376300905E0,-3.431158570E-1,1.277745178E1
1.254246887E1,-8.113290630E0,8.479225173E0,-4.538667262E-1,1.174430668E1
1.255240788E1,-7.080700997E0,8.070394287E0,-4.176946076E-1,1.074439665E1
1.256234687E1,-6.660707776E0,7.820985396E0,-3.992232534E-1,1.028067215E1
1.257228587E1,-7.015613886E0,7.650720323E0,-5.346308076E-1,1.039414209E1
1.258222487E1,-7.055555046E0,8.179432579E0,-5.183205843E-1,1.081446395E1
1.259216388E1,-6.866048541E0,8.567067309E0,-3.439373177E-1,1.098433237E1
1.260210287E1,-6.735493079E0,8.655483642E0,-3.973498785E-1,1.097461393E1
1.261204187E1,-6.667917393E0,8.076560175E0,-4.506502459E-1,1.048308315E1
1.262198088E1,-6.338609224E0,8.189956398E0,-3.072654084E-1,1.036087664E1
1.263191987E1,-5.956933976E0,8.510054618E0,-9.352745689E-2,1.038820675E1
1.264185887E1,-5.472636586E0,8.127129820E0,4.743370973E-2,9.798073294E0
1.265179787E1,-4.960777175E0,7.624863936E0,2.906680137E-1,9.101227835E0
1.266173688E1,-4.531321405E0,7.212264519E0,1.087674497E0,8.586772908E0
1.267167587E1,-3.103278145E0,6.526671467E0,2.231598040E0,7.563584170E0
1.268161487E1,-7.816271371E-1,5.508388801E0,2.926785788E0,6.286442811E0
1.269155388E1,1.561588987E0,3.318635191E0,2.140326512E0,4.246515898E0
1.270149287E1,8.091831349E0,-2.705334190E0,3.054491901E0,9.062366602E0
1.271143187E1,1.113274777E1,-7.951982907E0,1.529626937E1,2.052188982E1
1.272137087E1,1.469852372E1,-6.223099818E0,9.334753515E0,1.849084081E1
1.273130988E1,2.371560970E1,-7.382832477E0,7.985539493E0,2.609032770E1
1.274124887E1,2.195188364E1,-1.001382458E1,1.766285974E1,2.990214862E1
1.275118787E1,2.488909442E1,-1.188271867E1,1.834012869E1,3.312138802E1
1.276112687E1,2.994110044E1,-2.076446850E1,2.163402665E1,4.237527295E1
1.277106588E1,2.306852875E1,-2.182718825E1,2.157594509E1,3.839406949E1
1.278100487E1,1.855808015E1,-2.184205655E1,1.530482151E1,3.249177334E1
1.279094387E1,2.113515391E1,-2.330416920E1,-3.551733273E-1,3.146275863E1
1.280088288E1,2.371680253E1,-2.826535626E1,-2.527224843E1,4.472251813E1
1.281082187E1,2.342113690E1,-2.216770904E1,-2.228110760E1,3.919699904E1
1.282076087E1,1.423543476E1,-1.236354456E1,-1.838594864E1,2.633529845E1
1.283069987E1,5.422206105E0,-7.992293027E0,-1.036492298E1,1.416716963E1
1.284063787E1,2.006326455E0,-4.504118988E0,-5.324893818E0,7.257198349E0
1.285057688E1,-9.182426530E-1,-1.507605738E0,-3.717800922E0,4.115590884E0
1.286051587E1,-3.505557811E0,3.511323166E-1,-2.255055023E0,4.183001629E0
1.287045487E1,-5.632577814E0,2.133931412E0,-2.239812501E0,6.426224097E0
1.288039387E1,-7.130981789E0,3.284129602E0,-2.031882296E0,8.109559432E0
1.289033288E1,-7.784820367E0,4.194523537E0,-1.717300340E0,9.008139448E0
1.290027187E1,-8.031406222E0,5.202365415E0,-1.941703174E0,9.764133501E0
1.291021087E1,-8.173752009E0,5.988386734E0,-2.180033784E0,1.036453303E1
1.292014987E1,-7.834012992E0,6.738498548E0,-2.639377012E0,1.066515041E1
1.293008888E1,-7.580588819E0,7.287816392E0,-2.318649340E0,1.076818134E1
1.294002787E1,-7.455418643E0,7.902294438E0,-2.566521875E0,1.116317872E1
1.294996687E1,-7.329812264E0,8.576871920E0,-2.522067833E0,1.156069660E1
1.295990588E1,-7.225340647E0,9.495711574E0,-2.000953157E0,1.209867345E1
1.296984487E1,-7.721858718E0,9.894146111E0,-1.450866112E0,1.263432791E1
1.297978387E1,-7.742016410E0,9.931998646E0,-2.028317980E0,1.275529259E1
1.298972287E1,-7.814266945E0,1.011345412E1,-1.464015915E0,1.286421644E1
1.299966188E1,-7.982363870E0,9.998144689E0,-2.108732982E0,1.296640987E1
1.300960087E1,-7.985763441E0,1.001212889E1,-1.024668995E0,1.284776592E1
1.301953987E1,-8.317512823E0,9.951979752E0,-8.457991594E-1,1.299762658E1
1.302947888E1,-8.408710676E0,9.478150046E0,-6.793271756E-1,1.268870478E1
1.303941787E1,-8.540730280E0,9.105708722E0,-4.571002364E-2,1.248439404E1
1.304935687E1,-8.188476468E0,8.843199145E0,4.302865134E-1,1.205978708E1
1.305929587E1,-7.608558975E0,8.681548190E0,3.501743965E-1,1.154911558E1
1.306923488E1,-7.468478399E0,8.587627289E0,-2.355996676E-1,1.138336590E1
1.307917387E1,-7.305162157E0,8.496969134E0,-7.793356133E-1,1.123259732E1
1.308911287E1,-6.779458294E0,8.294390593E0,-5.126961476E-1,1.072477633E1
1.309905187E1,-5.915552647E0,8.395690096E0,-1.451851952E-1,1.027143875E1
1.310899088E1,-5.206467236E0,8.142248966E0,-3.227429152E-2,9.664603506E0
1.311892987E1,-4.558068908E0,7.762478156E0,4.631990285E-1,9.013690289E0
1.312886887E1,-3.765305164E0,6.947854012E0,1.023185117E0,7.968507146E0
1.313880788E1,-2.752223597E0,6.427964035E0,1.934925520E0,7.255163205E0
1.314874687E1,-1.265166144E0,5.625056541E0,2.205492707E0,6.173014218E0
1.315868488E1,1.022527159E0,4.305285589E0,1.555855792E0,4.690600499E0
1.316862387E1,2.457009957E0,2.188521017E0,1.094697003E0,3.467691408E0
1.317856287E1,4.307078345E0,-7.296266788E-1,4.879943511E0,6.549589883E0
1.318850188E1,9.528182332E0,-3.363107359E0,1.244171833E1,1.602788522E1
1.319844087E1,1.240067321E1,-2.150386646E0,1.012082395E1,1.615029214E1
1.320837987E1,1.296993591E1,-2.984975524E0,8.533480318E0,1.580979452E1
1.321831887E1,1.744646364E1,-4.874892687E0,1.520220755E1,2.364848381E1
1.322825788E1,1.991746423E1,-1.094548835E1,1.464109821E1,2.703462324E1
1.323819687E1,2.511760829E1,-1.772535712E1,1.615187139E1,3.472701370E1
1.324813587E1,2.283873785E1,-1.862045006E1,1.657750425E1,3.381039417E1
1.325807487E1,1.871220808E1,-2.085883087E1,1.496192207E1,3.176628194E1
1.326801388E1,2.010528615E1,-2.236103203E1,7.234175205E0,3.092849132E1
1.327795287E1,2.210221789E1,-2.677374091E1,-2.238217088E0,3.479009706E1
1.328789187E1,2.148064015E1,-2.914773385E1,-2.205538637E1,4.239632482E1
1.329783088E1,2.428213473E1,-2.187213697E1,-2.360028857E1,4.031111588E1
1.330776987E1,1.516031342E1,-1.291440373E1,-1.182369804E1,2.316067275E1
1.331770887E1,8.012984569E0,-8.115421940E0,-4.695655354E0,1.233357913E1
1.332764787E1,4.172409952E0,-4.212551088E0,-2.143243103E0,6.304608035E0
1.333758688E1,6.960554749E-1,-1.332513789E0,-4.111317658E-1,1.558562014E0
1.334752587E1,-2.400130582E0,1.224271302E0,2.240465927E-1,2.703639013E0
1.335746487E1,-4.397656394E0,2.405649769E0,-3.839778811E-2,5.012784352E0
1.336740388E1,-5.766649792E0,3.221052763E0,-3.816702774E-1,6.616275608E0
1.337734287E1,-6.911401300E0,4.063142449E0,-7.760110326E-1,8.054736967E0
1.338728187E1,-7.267634143E0,4.858651460E0,-1.008630813E0,8.800132735E0
1.339722087E1,-7.531913672E0,5.610843714E0,-1.775339803E0,9.558405838E0
1.340715988E1,-7.569111904E0,6.124254391E0,-2.369608701E0,1.002062834E1
1.341709887E1,-7.102080172E0,6.648267825E0,-2.606203419E0,1.007131094E1
1.342703787E1,-6.887937008E0,7.033841996E0,-2.693605260E0,1.020657233E1
1.343697688E1,-6.772534606E0,7.844901093E0,-3.287778264E0,1.087286457E1
1.344691587E1,-6.988475204E0,8.486586818E0,-2.536345564E0,1.128246384E1
1.345685487E1,-7.027755044E0,8.918235878E0,-1.872859665E0,1.150790491E1
1.346679387E1,-7.542201848E0,9.166230912E0,-1.591665310E0,1.197656029E1
1.347673187E1,-8.158309513E0,9.548648756E0,-1.389733472E0,1.263590386E1
1.348667087E1,-8.469711168E0,9.854857500E0,-1.597997845E0,1.309228096E1
1.349660988E1,-8.747839828E0,1.008853563E1,-1.319003212E0,1.341801111E1
1.350654887E1,-8.767790528E0,1.004440786E1,-7.705227629E-1,1.335507339E1
1.351648783E1,-8.537585648E0,9.765373465E0,-6.339095128E-1,1.298671355E1
1.352642683E1,-8.501432898E0,9.482872258E0,-6.641578171E-1,1.275305192E1
1.353636583E1,-8.191291902E0,9.359686627E0,-5.807419503E-1,1.245143598E1
1.354630483E1,-8.069269867E0,9.407332664E0,-4.345071433E-1,1.240160556E1
1.355624383E1,-8.271827942E0,9.261832303E0,-3.129897594E-1,1.242186128E1
1.356618283E1,-8.385010157E0,9.074879862E0,2.175228542E-1,1.235755461E1
1.357612183E1,-7.744288638E0,8.942948551E0,9.270865667E-1,1.186633156E1
1.358606083E1,-6.872850607E0,8.758546665E0,1.066549677E0,1.118417379E1
1.359599983E1,-6.388314650E0,8.396582381E0,1.008750535E0,1.059861960E1
1.360593883E1,-5.799810521E0,8.009987286E0,1.181896530E0,9.959647474E0
1.361587783E1,-5.129808485E0,7.347866712E0,1.133063509E0,9.032713503E0
1.362581683E1,-4.591555327E0,6.991663690E0,1.261860713E0,8.459198185E0
1.363575583E1,-3.557140194E0,7.044076962E0,1.913114237E0,8.119869007E0
1.364569483E1,-6.867543089E-1,6.887334160E0,2.186732354E0,7.258705236E0
1.365563383E1,3.766095707E0,5.356785117E0,2.545079550E0,7.025386366E0
1.366557283E1,7.937544962E0,2.130785610E0,4.228866574E0,9.242736599E0
1.367551183E1,9.298634094E0,-1.983522899E0,7.995642897E0,1.242293300E1
1.368545083E1,9.321501970E0,-4.823679264E0,1.243175233E1,1.626981090E1
1.369538983E1,1.049388566E1,-1.989474195E0,9.054916298E0,1.400254095E1
1.370532883E1,1.284700873E1,4.173283526E0,1.451369791E1,1.982698554E1
1.371526783E1,1.664069861E1,-2.412023234E-1,1.396526182E1,2.172555101E1
1.372520683E1,2.347081952E1,-7.920876889E0,1.353834725E1,2.822953252E1
1.373514583E1,2.117587860E1,-1.029941429E1,1.597922884E1,2.845753895E1
1.374508483E1,2.515877970E1,-1.782646366E1,1.178892816E1,3.301099559E1
1.375502383E1,1.912087816E1,-2.043964164E1,1.987341833E1,3.432695279E1
1.376496283E1,2.328212520E1,-2.175676907E1,7.815122977E0,3.280991468E1
1.377490083E1,1.967871540E1,-2.453974434E1,2.105684683E-1,3.145624312E1
1.378483983E1,1.335509434E1,-2.680613916E1,-8.880684475E0,3.123770475E1
1.379477883E1,1.485051741E1,-2.831030966E1,-1.822234823E1,3.679762866E1
1.380471783E1,1.481557445E1,-2.108426442E1,-1.844416469E1,3.168966178E1
1.381465683E1,6.956745872E0,-1.256640436E1,-1.048868632E1,1.778548207E1
1.382459583E1,3.596118318E0,-7.810865620E0,-6.656750380E0,1.087446616E1
1.383453483E1,1.861344159E-1,-4.346900223E0,-4.043841959E0,5.939936478E0
1.384447383E1,-2.146512866E0,-1.265093638E0,-2.356206006E0,3.429239878E0
1.385441283E1,-3.806161999E0,8.769613105E-1,-2.215054513E0,4.490255760E0
1.386435183E1,-5.282637160E0,2.320961621E0,-1.940227776E0,6.087495547E0
1.387429083E1,-6.354304905E0,3.429011911E0,-1.866023393E0,7.457704527E0
1.388422983E1,-7.081879796E0,4.308765852E0,-2.209563392E0,8.579082410E0
1.389416883E1,-7.166314759E0,4.705448563E0,-2.423829932E0,8.909111345E0
1.390410783E1,-7.198533502E0,5.300186409E0,-2.962580688E0,9.417417103E0
1.391404683E1,-7.328184984E0,6.177892070E0,-3.274108644E0,1.012859482E1
1.392398583E1,-7.172708105E0,6.695770020E0,-3.076608118E0,1.028331635E1
1.393392483E1,-6.656399547E0,7.168040273E0,-2.626004430E0,1.012839353E1
1.394386383E1,-6.163319639E0,7.816483625E0,-2.564116330E0,1.027903778E1
1.395380283E1,-5.918197342E0,8.399542826E0,-1.888725062E0,1.044723226E1
1.396374183E1,-6.129467184E0,8.907029105E0,-1.667626050E0,1.094013309E1
1.397368083E1,-6.375369499E0,9.439179524E0,-1.037394948E0,1.143764113E1
1.398361983E1,-6.756305074E0,9.704064825E0,-7.070839083E-1,1.184552658E1
1.399355883E1,-7.067114992E0,9.932036068E0,-6.228676307E-1,1.220563062E1
1.400349783E1,-7.317785127E0,9.835033100E0,-4.573727898E-1,1.226731613E1
1.401343683E1,-8.004966282E0,8.883126272E0,-3.174289656E-1,1.196203071E1
1.402337583E1,-7.804656461E0,8.294554900E0,-5.083102242E-1,1.140046853E1
1.403331483E1,-7.200433263E0,8.217492691E0,-7.246068442E-1,1.094981645E1
1.404325383E1,-7.306709915E0,8.062080715E0,-2.566377302E-1,1.088352049E1
1.405319283E1,-7.338563207E0,8.244541326E0,2.997545868E-1,1.104159519E1
1.406313183E1,-7.516707403E0,8.647555987E0,4.152575612E-1,1.146531960E1
1.407307083E1,-7.595178207E0,9.208323848E0,4.565850967E-1,1.194522624E1
1.408300983E1,-7.760809945E0,9.566871604E0,5.967013407E-1,1.233333920E1
1.409294783E1,-7.990551726E0,9.730200124E0,6.803633022E-1,1.260906839E1
1.410288683E1,-8.275365508E0,9.892161566E0,8.453471696E-1,1.292482675E1
1.411282583E1,-8.347226034E0,9.532382972E0,1.208528259E0,1.272804180E1
1.412276483E1,-6.351313469E0,8.268403813E0,1.546100882E0,1.054021406E1
1.413270383E1,-4.721657630E0,6.866795231E0,1.131859567E0,8.409996052E0
1.414264283E1,-3.343310441E0,5.879967077E0,1.053209254E0,6.845508547E0
1.415258183E1,3.472070807E-1,4.417581366E0,3.778615766E0,5.823531144E0
1.416252083E1,4.659466644E0,9.631492692E-1,9.807664622E0,1.090085186E1
1.417245983E1,1.101729800E1,-4.157082061E0,1.735154579E1,2.096993867E1
1.418239883E1,1.572482116E1,-7.313112617E0,1.665083652E1,2.404167160E1
1.419233783E1,2.184829670E1,-8.103027597E0,1.093785072E1,2.574186674E1
1.420227683E1,2.550828416E1,-1.110049336E1,1.758321832E1,3.290992373E1
1.421221583E1,3.205287149E1,-1.367295133E1,1.963378773E1,3.999777231E1
1.422215483E1,2.919167451E1,-2.155654637E1,1.182936633E1,3.816768869E1
1.423209383E1,2.703163118E1,-2.928428037E1,1.437048673E1,4.236495073E1
1.424203283E1,2.620333333E1,-3.042014645E1,9.203650753E0,4.119110553E1
1.425197183E1,3.116815268E1,-4.698214388E1,-3.198161732E1,6.481974569E1
1.426191083E1,3.880364568E1,-4.655536263E1,-3.739770841E1,7.121596241E1
1.427184983E1,1.409789188E1,-2.049848100E1,-1.569003374E1,2.941284477E1
1.428178883E1,4.125374365E0,-1.077695405E1,-5.591570706E0,1.282291368E1
1.429172783E1,5.914809465E-2,-5.071723414E0,-1.658380579E0,5.336300500E0
1.430166683E1,-3.514467214E0,-1.005189580E0,-4.321147916E-1,3.680843529E0
1.431160583E1,-5.225899873E0,1.622195377E0,-7.600608516E-1,5.524422125E0
1.432154483E1,-6.851074407E0,3.493955766E0,-3.639821577E-1,7.699183751E0
1.433148383E1,-7.812066053E0,4.729866536E0,-6.828486612E-1,9.157854321E0
1.434142283E1,-8.116633483E0,5.878473113E0,-5.584595270E-1,1.003733343E1
1.435136183E1,-8.019214193E0,6.307830650E0,-4.945482905E-1,1.021474923E1
1.436130083E1,-7.867830949E0,7.175646915E0,-7.967644089E-1,1.067836626E1
1.437123983E1,-7.731090302E0,8.231315508E0,-3.922991998E-1,1.129947835E1
1.438117883E1,-7.797100105E0,9.227828990E0,-3.147480172E-1,1.208497680E1
1.439111783E1,-7.963037653E0,9.846942708E0,1.244357657E-1,1.266442788E1
1.440105583E1,-7.957692713E0,1.007824570E1,-4.682298267E-1,1.284971396E1
1.441099483E1,-8.208807237E0,1.012904397E1,-1.113782169E0,1.308520381E1
1.442093383E1,-8.387264258E0,1.036656488E1,-1.003246551E0,1.337229871E1
1.443087283E1,-8.490814354E0,1.076617179E1,-9.419028264E-1,1.374378275E1
1.444081183E1,-7.706530243E0,1.135079161E1,-8.364208833E-1,1.374520565E1
1.445075083E1,-8.819171766E0,1.143819462E1,-4.747553194E-1,1.445114111E1
1.446068983E1,-8.566019488E0,1.211564367E1,-4.118043418E-1,1.484368870E1
1.447062883E1,-8.883944882E0,1.254729916E1,-8.345087707E-1,1.539660995E1
1.448056783E1,-8.725207011E0,1.315440270E1,-1.539403481E0,1.585992783E1
1.449050683E1,-8.412740577E0,1.284350040E1,-2.338908627E0,1.553062137E1
1.450044583E1,-8.213022494E0,1.206626276E1,-2.247199581E0,1.476815295E1
1.451038483E1,-7.815634609E0,1.029856293E1,-1.504159535E0,1.301564592E1
1.452032296E1,-6.566973401E0,9.418589723E0,-1.081857833E0,1.153279621E1
1.453026196E1,-6.148545479E0,1.019634893E1,-8.359284747E-1,1.193603449E1
1.454020096E1,-5.647252572E0,1.029310397E1,-4.171567369E-1,1.174791346E1
1.455013996E1,-5.351150740E0,1.038406560E1,-2.683230253E-1,1.168484616E1
1.456007896E1,-5.211820362E0,9.762745142E0,-2.889005466E-1,1.107057938E1
1.457001796E1,-4.439211386E0,9.513335667E0,-3.043852893E-1,1.050251416E1
1.457995696E1,-4.356663319E0,9.299975445E0,1.751343414E-2,1.026987660E1
1.458989596E1,-3.875028750E0,9.177640584E0,-4.567947194E-2,9.962279916E0
1.459983496E1,-3.152460830E0,8.820980310E0,1.775119655E-1,9.369056164E0
1.460977396E1,-2.424500023E0,8.471298103E0,6.464072053E-1,8.835096727E0
1.461971296E1,-1.413897091E0,8.113581821E0,1.483192297E0,8.368343584E0
1.462965196E1,-2.265953940E-1,7.219436713E0,2.612107353E0,7.680801830E0
1.463959096E1,8.469124693E-1,5.251416537E0,4.043238527E0,6.681497898E0
1.464952996E1,4.639153417E0,4.698898512E-1,9.087118084E0,1.021363089E1
1.465946896E1,1.478758032E1,-1.285218819E1,1.681691732E1,2.581975951E1
1.466940796E1,2.021329358E1,-2.770628059E1,2.072091376E1,4.006958309E1
1.467934696E1,1.620447878E1,-1.897419374E1,1.595150017E1,2.961512314E1
1.468928596E1,1.086987099E1,-4.538035178E0,1.903108598E1,2.238146761E1
1.469922396E1,2.045581738E1,-3.765005202E0,1.691433661E1,2.680877677E1
1.470916296E1,2.238228081E1,-1.389970167E1,1.902110128E1,3.249569963E1
1.471910196E1,8.470100008E0,-1.891747575E1,3.228946153E1,3.836955576E1
1.472904096E1,1.725386338E1,-2.997776716E1,3.733183602E1,5.089232070E1
1.473897996E1,2.322647608E1,-3.542677807E1,7.907101434E0,4.309348035E1
1.474891896E1,2.420646240E1,-3.303666319E1,-1.975889944E1,4.547293749E1
1.475885796E1,2.266883881E1,-3.592997776E1,-3.907218725E1,5.771893425E1
1.476879696E1,1.807517732E1,-3.352215282E1,-2.847575312E1,4.755328885E1
1.477873596E1,9.006675015E0,-1.601082953E1,-2.025181270E1,2.734232570E1
1.478867496E1,-2.374484110E-1,-5.313453741E0,-1.066251352E1,1.191546755E1
1.479861396E1,-3.187957522E0,-4.744325531E-1,-4.309823613E0,5.381704097E0
1.480855296E1,-4.612725756E0,2.735209368E0,-3.080058267E0,6.184283962E0
1.481849196E1,-4.987493688E0,4.633514362E0,-1.752407315E0,7.029614501E0
1.482843096E1,-5.156595165E0,6.242071694E0,-8.537627748E-1,8.141427614E0
1.483836996E1,-4.791671605E0,7.963817672E0,-1.022154107E0,9.350257092E0
1.484830896E1,-4.831451967E0,9.571019034E0,-1.427001286E0,1.081589877E1
1.485824796E1,-4.385825722E0,1.028748597E1,-1.802536664E0,1.132770821E1
1.486818696E1,-3.831170540E0,1.078191249E1,-2.868356024E0,1.179639652E1
1.487812596E1,-3.601693053E0,1.086931433E1,-3.543735452E0,1.198633588E1
1.488806496E1,-4.048077098E0,1.080840973E1,-3.264623583E0,1.199443272E1
1.489800396E1,-5.036503295E0,1.101204487E1,-2.785707092E0,1.242544412E1
1.490794296E1,-6.124975938E0,1.108210620E1,-2.641133808E0,1.293460459E1
1.491788196E1,-7.208162112E0,1.102727219E1,-1.945326548E0,1.331700523E1
1.492782096E1,-7.613106354E0,1.099071656E1,-1.001229261E0,1.340737480E1
1.493775996E1,-6.952949275E0,1.063015620E1,-4.386744905E-1,1.270968763E1
1.494769896E1,-6.432088661E0,1.015196388E1,-1.975594075E0,1.217937220E1
1.495763796E1,-6.125827292E0,1.008913672E1,-2.765347964E0,1.212285400E1
1.496757696E1,-5.615433778E0,1.000260494E1,-2.418056391E0,1.172314799E1
1.497751596E1,-5.253960661E0,9.764192913E0,-2.402436140E0,1.134527502E1
1.498745496E1,-4.986653443E0,9.508937391E0,-2.511696919E0,1.102702246E1
1.499739296E1,-4.917624723E0,9.557944660E0,-2.213303418E0,1.097433602E1
1.500733196E1,-4.741305444E0,9.592655486E0,-2.075159440E0,1.089978455E1
1.501727096E1,-4.478755521E0,9.593750085E0,-2.238854434E0,1.082181874E1
1.502720996E1,-4.769282032E0,9.755896883E0,-2.070574053E0,1.105490172E1
1.503714896E1,-4.513567504E0,9.896000848E0,-1.964099911E0,1.105263828E1
1.504708796E1,-3.613918996E0,9.531331058E0,-1.685500989E0,1.033187281E1
1.505702696E1,-2.823418710E0,9.079644173E0,-7.398902965E-1,9.537246415E0
1.506696596E1,-2.229796513E0,8.392315668E0,4.073600194E-1,8.693037268E0
1.507690496E1,-1.507990485E0,7.632865850E0,1.911855916E0,8.011858051E0
1.508684396E1,-4.587240082E-1,6.677969926E0,3.224158219E0,7.429731238E0
1.509678296E1,3.784294581E-1,4.712475747E0,4.768976222E0,6.715189553E0
1.510672196E1,2.037049481E0,1.059734162E0,6.645036653E0,7.030584556E0
1.511666096E1,5.460003092E0,-5.090975372E0,1.271067388E1,1.474079016E1
1.512659996E1,9.707704716E0,-9.685784674E0,1.801758458E1,2.264259945E1
1.513653896E1,1.096891113E1,-7.762497452E0,1.732121277E1,2.192254068E1
1.514647796E1,1.459752476E1,-6.283769943E0,1.817162831E1,2.414086927E1
1.515641696E1,1.885383466E1,-9.445841256E0,1.334544878E1,2.495580096E1
1.516635596E1,1.764926847E1,-2.024470716E1,2.440295458E1,3.628841465E1
1.517629496E1,2.157382606E1,-2.899286216E1,2.793992831E1,4.567992580E1
1.518623396E1,3.068363836E1,-3.566801548E1,1.478814048E1,4.931918582E1
1.519617296E1,2.604435689E1,-3.548801713E1,-2.818270236E0,4.410952882E1
1.520611196E1,1.794913708E1,-2.771010700E1,-1.562982028E1,3.652824707E1
1.521605096E1,1.906626985E1,-2.734586523E1,-2.366025060E1,4.087941352E1
1.522598996E1,1.323429321E1,-1.784212368E1,-1.552418565E1,2.710144339E1
1.523592896E1,2.427006724E0,-7.486960863E0,-8.944932511E0,1.191456093E1
1.524586796E1,-6.859134793E-1,-3.883121881E0,-5.117901800E0,6.460807355E0
1.525580696E1,-3.226091893E0,-6.596284908E-1,-3.216397502E0,4.603041553E0
1.526574596E1,-5.106347702E0,1.549783459E0,-2.224147810E0,5.781301679E0
1.527568496E1,-5.641982476E0,3.502695599E0,-1.574588809E0,6.824966860E0
1.528562296E1,-5.702943792E0,5.601829062E0,-1.200965470E0,8.083710460E0
1.529556196E1,-5.965775551E0,7.067217903E0,-1.141651607E0,9.318766828E0
1.530550096E1,-6.611496440E0,8.434591622E0,-1.490494154E0,1.082015683E1
1.531543996E1,-6.234131759E0,9.199398658E0,-1.910431826E0,1.127577422E1
1.532537896E1,-6.051651853E0,9.799072139E0,-2.536718909E0,1.179318650E1
1.533531796E1,-6.396810070E0,1.033616053E1,-2.572972523E0,1.242479703E1
1.534525696E1,-6.639820352E0,1.063699510E1,-2.384586052E0,1.276397782E1
1.535519596E1,-7.040131845E0,1.099954001E1,-1.946484589E0,1.320386834E1
1.536513496E1,-7.357283068E0,1.136533481E1,-2.962069349E0,1.385908742E1
1.537507396E1,-7.222840378E0,1.162298769E1,-2.617311082E0,1.393246508E1
1.538501296E1,-7.291846293E0,1.161173063E1,-2.201367643E0,1.388702020E1
1.539495196E1,-7.327485657E0,1.153007075E1,-2.643563034E0,1.391484830E1
1.540489096E1,-7.063702556E0,1.134302300E1,-1.628491659E0,1.346150250E1
1.541482996E1,-6.728403330E0,9.672660599E0,-1.605693073E0,1.189159471E1
1.542476896E1,-5.529073327E0,8.008999692E0,-2.215350966E0,9.981107545E0
1.543470796E1,-4.944307323E0,7.422870117E0,-2.383947975E0,9.231921989E0
1.544464696E1,-4.902073469E0,7.367161939E0,-1.738055178E0,9.018105961E0
1.545458596E1,-4.819565163E0,8.142129682E0,-1.519800837E0,9.582915981E0
1.546452496E1,-5.382677173E0,8.691708312E0,-1.922542579E0,1.040265240E1
1.547446396E1,-6.023796303E0,8.905901762E0,-2.011370264E0,1.093831881E1
1.548440296E1,-5.951974368E0,9.518326850E0,-1.660506627E0,1.134820810E1
1.549434196E1,-5.424967745E0,9.596426940E0,-1.395458042E0,1.111166001E1
1.550428096E1,-4.856706676E0,9.357269973E0,-9.718266834E-1,1.058728238E1
1.551422087E1,-4.205271304E0,9.087618021E0,-1.644115712E-1,1.001479601E1
1.552415987E1,-3.227106385E0,8.580448662E0,8.933130491E-1,9.210663552E0
1.553409887E1,-2.092575810E0,7.930770963E0,2.712770094E0,8.639162180E0
1.554403787E1,-1.504715459E0,6.937940058E0,5.115630741E0,8.750363349E0
1.555397688E1,-9.865591818E-1,5.233458568E0,6.964381167E0,8.767268254E0
1.556391587E1,-1.264249885E-1,2.359228140E0,8.272676958E0,8.603436798E0
1.557385487E1,8.762596446E-1,-2.678373848E0,1.224947240E1,1.256945073E1
1.558379387E1,5.077244940E0,-9.082225134E0,1.845748699E1,2.118829997E1
1.559373187E1,1.092728129E1,-1.289517341E1,2.055023120E1,2.660832531E1
1.560367088E1,1.151375468E1,-1.219003663E1,2.007113608E1,2.615366214E1
1.561360987E1,2.457642743E1,-1.495782785E1,1.965177143E1,3.484149135E1
1.562354887E1,3.108179632E1,-2.826721334E1,2.490404926E1,4.883978995E1
1.563348787E1,3.056914988E1,-3.067166092E1,8.282352930E0,4.408878631E1
1.564342688E1,1.988510340E1,-2.977346545E1,5.586102975E0,3.623646131E1
1.565336587E1,2.489718229E1,-4.031805817E1,-3.052416725E0,4.748402624E1
1.566330487E1,1.690480448E1,-2.778904208E1,-2.321186038E1,3.995990160E1
1.567324387E1,1.136193523E1,-2.374580472E1,-2.344845977E1,3.525318538E1
1.568318288E1,8.777032052E0,-1.737788984E1,-1.485062149E1,2.448608391E1
1.569312187E1,1.972586852E0,-6.930493628E0,-9.703009987E0,1.208599370E1
1.570306087E1,-3.330716708E0,-9.982430881E-1,-6.943494912E0,7.765454568E0
1.571299988E1,-5.177039954E0,2.385724213E0,-5.183610470E0,7.704754390E0
1.572293887E1,-5.925904557E0,4.354338466E0,-2.801581113E0,7.869273475E0
1.573287787E1,-5.841502338E0,5.925607519E0,-1.754641975E0,8.503807529E0
1.574281687E1,-5.529201381E0,7.329293032E0,-1.490368146E0,9.301172048E0
1.575275588E1,-5.524102609E0,8.937155129E0,-1.299249564E0,1.058661895E1
1.576269487E1,-5.414983624E0,1.023791444E1,-1.000144164E0,1.162485390E1
1.577263387E1,-5.667410848E0,1.094353889E1,-7.443517220E-1,1.234644275E1
1.578257288E1,-6.440744294E0,1.156324785E1,-4.238132071E-1,1.324279070E1
1.579251187E1,-7.047347310E0,1.215191980E1,-7.862791818E-1,1.406955912E1
1.580245087E1,-6.966213099E0,1.264877876E1,-8.164420438E-1,1.446327441E1
1.581238987E1,-7.322795021E0,1.282134764E1,-8.271643755E-1,1.478832252E1
1.582232888E1,-7.393967915E0,1.282098043E1,-6.597413421E-1,1.481497754E1
1.583226787E1,-7.581492798E0,1.299883987E1,-5.188621826E-1,1.505716072E1
1.584220687E1,-7.737225786E0,1.287815684E1,-3.105432844E-1,1.502690999E1
1.585214588E1,-7.274667758E0,1.099873426E1,1.395452634E-2,1.318685486E1
1.586208487E1,-6.086383730E0,8.866350026E0,-6.100438097E-1,1.077164719E1
1.587202288E1,-4.909506449E0,8.985867113E0,-9.256898130E-1,1.028134052E1
1.588196187E1,-4.684432501E0,9.195247720E0,-8.369493985E-1,1.035359709E1
1.589190087E1,-4.716524359E0,9.134091107E0,-2.923292077E-1,1.028409834E1
1.590183987E1,-4.590974699E0,9.096406971E0,-3.815835924E-1,1.019643440E1
1.591177888E1,-4.655357805E0,9.538699134E0,-8.101206189E-1,1.064497219E1
1.592171787E1,-4.555079811E0,9.631107945E0,-1.305282136E0,1.073362724E1
1.593165687E1,-4.611687291E0,9.739808854E0,-1.605383463E0,1.089535645E1
1.594159588E1,-4.666114343E0,9.779111499E0,-1.670624210E0,1.096333116E1
1.595153487E1,-4.224650146E0,9.779250662E0,-1.479131406E0,1.075496360E1
1.596147387E1,-3.228106259E0,9.407004635E0,-1.330447383E0,1.003406680E1
1.597141287E1,-2.643589346E0,8.686221870E0,-5.223235881E-1,9.094604825E0
1.598135188E1,-2.435794505E0,7.424247136E0,8.828896563E-1,7.863334824E0
1.599129087E1,-1.782387452E0,6.416792344E0,1.930275668E0,6.933836829E0
1.600122987E1,-5.419456744E-1,5.144370391E0,3.926238080E0,6.494120209E0
1.601116888E1,3.172792768E-1,2.890984456E0,6.250825560E0,6.894293107E0
1.602110787E1,1.384788482E0,5.132101178E-2,7.456965816E0,7.584629995E0
1.603104687E1,3.379424599E0,-3.311302782E0,9.013789907E0,1.018006116E1
1.604098587E1,2.774469329E0,-7.456058913E0,1.264845950E1,1.494235665E1
1.605092488E1,4.699201398E0,-7.986381492E0,1.399281975E1,1.678284206E1
1.606086387E1,8.497119407E0,-6.752288622E0,1.518397242E1,1.866406865E1
1.607080287E1,1.421296274E1,-8.348181469E0,1.461063422E1,2.202659928E1
1.608074187E1,2.587508701E1,-1.580060107E1,1.909345238E1,3.582930429E1
1.609068088E1,2.239695030E1,-2.761619370E1,1.445476967E1,3.838252081E1
1.610061987E1,2.178147004E1,-2.785939578E1,9.539153463E0,3.662750086E1
1.611055887E1,1.979280627E1,-3.214747710E1,3.186709142E0,3.788628484E1
1.612049788E1,1.658961383E1,-3.459126943E1,-5.482982649E0,3.875350702E1
1.613043687E1,1.724398275E1,-3.543478642E1,-2.031713546E1,4.433694873E1
1.614037587E1,1.669808670E1,-3.016288533E1,-1.961410601E1,3.966533632E1
1.615031487E1,7.338746810E0,-1.613968111E1,-1.018270854E1,2.044588135E1
1.616025287E1,3.622020314E0,-9.115929655E0,-4.225075239E0,1.068037759E1
1.617019187E1,1.271841325E0,-4.844666090E0,-3.006068185E-1,5.017841602E0
1.618013088E1,-1.937077296E-1,-1.354745488E0,1.412259285E0,1.966553917E0
1.619006987E1,-1.416255273E0,1.074425291E0,1.795248110E0,2.526476693E0
1.620000887E1,-2.278878626E0,3.056088191E0,1.754116749E0,4.196413754E0
1.620994788E1,-2.849211947E0,4.806630537E0,1.208080947E0,5.716744302E0
1.621988687E1,-3.088900427E0,6.377459879E0,8.126279050E-1,7.132577687E0
1.622982587E1,-3.676701720E0,7.548000532E0,1.084130792E-1,8.396558876E0
1.623976487E1,-4.555882049E0,8.547815936E0,-6.461722934E-1,9.707664866E0
1.624970388E1,-4.848660323E0,9.388874173E0,-1.196962466E0,1.063452793E1
1.625964287E1,-4.810072208E0,1.021497348E1,-1.888664397E0,1.144768671E1
1.626958187E1,-5.075560357E0,1.037220745E1,-2.177565236E0,1.175099105E1
1.627952088E1,-5.522526784E0,1.025630043E1,-2.431341412E0,1.189963956E1
1.628945987E1,-5.625363520E0,1.044926907E1,-2.378067430E0,1.210318733E1
1.629939887E1,-5.535974795E0,1.071230022E1,-2.285279134E0,1.227285190E1
1.630933787E1,-6.341926934E0,1.089573322E1,-1.993705825E0,1.276369471E1
1.631927688E1,-7.201920794E0,1.101900188E1,-2.612975664E0,1.342064482E1
1.632921587E1,-6.909979257E0,1.109921983E1,-2.448031412E0,1.330162968E1
1.633915487E1,-6.850247025E0,1.129753166E1,-1.588003784E0,1.330721090E1
1.634909388E1,-6.857703395E0,1.157288172E1,-1.404352534E0,1.352523173E1
1.635903287E1,-6.892907726E0,1.149615690E1,-8.452204312E-1,1.343086736E1
1.636897187E1,-6.759555541E0,1.105252982E1,-8.381230809E-1,1.298277539E1
1.637891087E1,-6.567000883E0,1.089034326E1,-1.024110659E0,1.275828670E1
1.638884988E1,-6.564753798E0,1.080703681E1,-1.594695337E0,1.274484563E1
1.639878887E1,-5.942922294E0,9.877518969E0,-1.210980654E0,1.159095253E1
1.640872787E1,-5.564587560E0,8.924419309E0,7.134187818E-2,1.051736585E1
1.641866687E1,-5.778057125E0,8.556765684E0,6.680239230E-1,1.034651821E1
1.642860588E1,-6.297990956E0,9.156447936E0,4.392953917E-1,1.112196967E1
1.643854388E1,-7.295369825E0,9.705186321E0,3.970855844E-1,1.214786975E1
1.644848387E1,-7.590402786E0,9.687076909E0,1.060671982E0,1.235227504E1
1.645842187E1,-7.241161458E0,9.570071785E0,2.046298606E0,1.217407209E1
1.646836087E1,-6.450786887E0,8.776239755E0,3.182781567E0,1.134747259E1
1.647829988E1,-5.150731577E0,7.560155724E0,3.951399819E0,9.964915999E0
1.648823887E1,-3.504183131E0,5.935271212E0,4.247097023E0,8.095960529E0
1.649817787E1,-1.685714266E0,4.176529316E0,4.847974445E0,6.617241565E0
1.650811688E1,9.508332789E-2,1.709066876E0,5.766106585E0,6.014809688E0
1.651805600E1,6.067487867E0,-4.217562152E0,1.074397810E1,1.303975862E1
