"Time (s)","Linear Acceleration x (m/s^2)","Linear Acceleration y (m/s^2)","Linear Acceleration z (m/s^2)","Absolute acceleration (m/s^2)"
1.481900000E-2,2.670030163E0,1.130644516E0,4.149950797E0,5.062559601E0
2.475800000E-2,1.743246775E0,1.003971167E0,1.930748270E0,2.788307067E0
3.469600000E-2,9.090152351E-1,7.481779937E-1,-2.520220113E-1,1.203990906E0
4.463500000E-2,3.764113647E-1,4.748403963E-1,-2.264637147E0,2.344299538E0
5.457399999E-2,1.825316539E-1,2.507704148E-1,-3.903578365E0,3.915881467E0
6.451200000E-2,2.134618168E-1,8.369967610E-2,-5.147392232E0,5.152496324E0
7.445099999E-2,2.920144082E-1,-6.996924430E-2,-6.115197054E0,6.122565077E0
8.439000000E-2,3.381853386E-1,-2.469910669E-1,-6.945285330E0,6.957899268E0
9.432799999E-2,3.673698152E-1,-5.608687261E-1,-7.734152489E0,7.763159733E0
1.042670000E-1,4.100395060E-1,-8.943292952E-1,-8.393359981E0,8.450825347E0
1.142060000E-1,4.075563397E-1,-1.208529136E0,-8.881179734E0,8.972290583E0
1.241440000E-1,4.120269015E-1,-1.531464132E0,-9.277427412E0,9.412003397E0
1.340830000E-1,5.238187212E-1,-1.904850951E0,-9.490154380E0,9.693599608E0
1.440220000E-1,6.973423009E-1,-2.266450076E0,-9.598982173E0,9.887544740E0
1.539610000E-1,8.970466425E-1,-2.557273918E0,-9.687133042E0,1.005906999E1
1.638990000E-1,1.096061890E0,-2.784206697E0,-9.724100894E0,1.017405017E1
1.738380000E-1,1.326409003E0,-2.947908854E0,-9.755604522E0,1.027722468E1
1.837770000E-1,1.423377035E0,-3.091940394E0,-9.807822497E0,1.038168964E1
1.937150000E-1,1.328513563E0,-3.245569553E0,-9.837242178E0,1.044365854E1
2.036540000E-1,1.235978451E0,-3.344057715E0,-9.784834753E0,1.041409410E1
2.135930000E-1,1.193826604E0,-3.428953439E0,-9.548610749E0,1.021562093E1
2.235310000E-1,1.264302949E0,-3.467484251E0,-8.969244064E0,9.698930253E0
2.334700000E-1,1.156228131E0,-3.356449134E0,-8.249079350E0,8.980530296E0
2.434090000E-1,9.731136556E-1,-3.135134361E0,-7.406471601E0,8.101347988E0
2.533480000E-1,9.196522705E-1,-2.917190507E0,-6.389546074E0,7.083929685E0
2.632860000E-1,1.071325829E0,-2.646472608E0,-5.128247863E0,5.869453334E0
2.732250000E-1,1.155585814E0,-2.136570845E0,-3.999197883E0,4.679091499E0
2.831643333E-1,6.568352759E-1,-1.405670643E0,-3.047898581E0,3.420091855E0
2.931023333E-1,-3.998339585E-1,-1.965097153E-1,-1.628355419E0,1.688201597E0
3.030413333E-1,-2.182909152E0,2.166909124E0,-9.053419411E-2,3.077138924E0
3.129803333E-1,-3.422301354E0,4.414086485E0,4.394685423E-1,5.602627835E0
3.229183333E-1,-2.598242727E0,4.562807491E0,-3.354038912E-1,5.261423120E0
3.328573333E-1,-1.151216336E0,4.712825995E0,-1.021896245E0,4.957852342E0
3.427963333E-1,-7.013633580E-1,5.586278976E0,-3.728120381E-1,5.642465080E0
3.527343333E-1,-5.846313719E-1,5.354202402E0,2.294022329E0,5.854213496E0
3.626733333E-1,1.894997808E-1,4.092362739E0,6.050496444E0,7.306972709E0
3.726123333E-1,1.025532555E0,3.040817018E0,9.870180713E0,1.037876450E1
3.825513333E-1,1.291761035E0,2.340848587E0,1.328973651E1,1.355600661E1
3.924893333E-1,9.273696450E-1,1.711691106E0,1.508652740E1,1.521161431E1
4.024283333E-1,-3.699216132E-1,1.160382577E0,1.395992098E1,1.401294842E1
4.123673333E-1,-1.467561228E0,1.115604015E0,1.100244842E1,1.115581370E1
4.223053333E-1,-9.515516093E-1,1.225431097E0,9.105385956E0,9.236621960E0
4.322443333E-1,1.036372781E0,1.573486317E0,8.998788291E0,9.193917469E0
4.421833333E-1,3.502889142E0,2.074248590E0,8.389135952E0,9.324716702E0
4.521213333E-1,5.299786459E0,2.420393231E0,7.371266685E0,9.395829524E0
4.620603333E-1,5.720325226E0,2.268001635E0,6.703582485E0,9.099668688E0
4.719993333E-1,4.790424394E0,1.572071291E0,6.012272025E0,7.846463466E0
4.819373333E-1,3.106916575E0,8.386319348E-1,5.172641094E0,6.091998852E0
4.918763333E-1,1.596171759E0,4.087465404E-1,4.131998091E0,4.448398166E0
5.018153333E-1,5.698724149E-1,2.198339662E-1,2.633138618E0,2.703053925E0
5.117543333E-1,-2.320126200E-1,1.422463846E-1,8.840241623E-1,9.249662747E-1
5.216923333E-1,-8.392917931E-1,1.882851680E-1,-7.264428699E-1,1.125869114E0
5.316313333E-1,-1.257050208E0,1.189075157E-1,-2.053198321E0,2.410381208E0
5.415703333E-1,-1.589826799E0,-1.233475989E-1,-3.147944441E0,3.528784222E0
5.515083333E-1,-1.905100189E0,-3.484586772E-1,-4.060673169E0,4.498877279E0
5.614473333E-1,-2.208524196E0,-4.460038291E-1,-5.006670216E0,5.490286440E0
5.713863333E-1,-2.413700362E0,-6.019920476E-1,-6.013989353E0,6.508180375E0
5.813243333E-1,-2.661292377E0,-8.824091613E-1,-6.980874993E0,7.522881011E0
5.912633333E-1,-3.035974939E0,-1.224968144E0,-7.780258954E0,8.440978627E0
6.012023333E-1,-3.370112908E0,-1.615921315E0,-8.366672704E0,9.163518693E0
6.111403333E-1,-3.717149250E0,-2.060897496E0,-8.769664561E0,9.745332911E0
6.210793333E-1,-4.052305219E0,-2.594048227E0,-9.081347467E0,1.027721439E1
6.310183333E-1,-4.254862710E0,-3.091064189E0,-9.291599894E0,1.067672061E1
6.409573333E-1,-4.400699577E0,-3.514540304E0,-9.407782899E0,1.096469468E1
6.508953333E-1,-4.413549418E0,-3.854296862E0,-9.482521425E0,1.114689353E1
6.608343333E-1,-4.392504997E0,-4.224417135E0,-9.462443256E0,1.125511584E1
6.707733333E-1,-4.584569366E0,-4.611988130E0,-9.429614648E0,1.145453374E1
6.807113333E-1,-4.836379708E0,-5.013106247E0,-9.458662446E0,1.174683354E1
6.906503333E-1,-5.054591657E0,-5.281929063E0,-9.438552117E0,1.193875779E1
7.005893333E-1,-5.168500096E0,-5.548628755E0,-9.445876924E0,1.211302048E1
7.105273333E-1,-5.003036172E0,-5.743194855E0,-9.425183628E0,1.211811638E1
7.204663333E-1,-4.591302143E0,-5.668018373E0,-9.266882544E0,1.179328621E1
7.304053333E-1,-4.349572985E0,-5.220423371E0,-8.887968351E0,1.118783208E1
7.403443333E-1,-4.345077061E0,-4.637043741E0,-8.559833134E0,1.066079793E1
7.502823333E-1,-4.532930558E0,-3.830518868E0,-8.214533415E0,1.013404625E1
7.602213333E-1,-4.780954244E0,-2.849689665E0,-7.763673912E0,9.552637713E0
7.701603333E-1,-4.929567661E0,-2.157157137E0,-7.420860429E0,9.166413352E0
7.800983333E-1,-4.920074122E0,-1.942993509E0,-7.085252470E0,8.842123936E0
7.900373333E-1,-4.761860161E0,-2.027088164E0,-6.697789648E0,8.464324237E0
7.999763333E-1,-4.071329135E0,-2.379880505E0,-6.547270623E0,8.068847796E0
8.099143333E-1,-2.825474591E0,-2.737808456E0,-6.444052649E0,7.550146776E0
8.198533333E-1,-8.233891207E-1,-2.693604090E0,-6.053797781E0,6.676970886E0
8.297923333E-1,2.644259437E0,-2.792897998E0,-5.795268404E0,6.955395249E0
8.397303333E-1,7.403797669E0,-4.263273345E0,-5.657812643E0,1.024707585E1
8.496693333E-1,1.225116225E1,-7.205900409E0,-4.491770838E0,1.490610554E1
8.596083333E-1,1.764633551E1,-1.109362522E1,-1.805982867E0,2.092183671E1
8.695473333E-1,2.351333346E1,-1.474045995E1,2.208893301E0,2.783949029E1
8.794853333E-1,2.748004246E1,-1.670067818E1,7.855018530E0,3.310236701E1
8.894243333E-1,2.963835267E1,-1.694001408E1,1.381128008E1,3.682590777E1
8.993633333E-1,2.685135685E1,-1.362140344E1,1.771312942E1,3.493269171E1
9.093013333E-1,1.984475060E1,-9.037246013E0,1.664921216E1,2.743505435E1
9.192403333E-1,1.420877497E1,-7.568958122E0,1.032327093E1,1.912454799E1
9.291793333E-1,1.125144859E1,-7.958566872E0,2.773346078E0,1.405792767E1
9.391173333E-1,8.625986193E0,-6.953237543E0,-2.882544000E0,1.144832783E1
9.490563333E-1,6.294272127E0,-5.282996764E0,-6.164515979E0,1.027273935E1
9.589953333E-1,4.881389528E0,-3.779493725E0,-6.890484055E0,9.251557007E0
9.689333333E-1,4.570842150E0,-2.256131203E0,-4.663085486E0,6.908479733E0
9.788723333E-1,4.824173938E0,-5.753350300E-1,-1.201096448E0,5.004627584E0
9.888113333E-1,4.858392429E0,1.136274215E0,1.610702090E0,5.243038938E0
9.987503333E-1,4.729559557E0,2.918585068E0,3.604290386E0,6.624030615E0
1.008688333E0,4.237415203E0,4.499256443E0,4.868902799E0,7.867986439E0
1.018627333E0,3.449303504E0,5.812033541E0,4.947916224E0,8.376115060E0
1.028566333E0,2.584179881E0,6.956189218E0,4.146490999E0,8.500584786E0
1.038504333E0,1.584148715E0,7.531048869E0,2.892478420E0,8.221475270E0
1.048443333E0,5.249255991E-1,7.767739481E0,1.729256727E0,7.975189800E0
1.058382333E0,-4.971010387E-1,7.869290999E0,8.640863264E-1,7.932181002E0
1.068320333E0,-1.505707147E0,7.988580045E0,2.422828889E-1,8.132851047E0
1.078259333E0,-2.337118648E0,8.057140403E0,-1.901514530E-1,8.391411837E0
1.088198333E0,-3.049449263E0,8.031404468E0,-4.285961930E-1,8.601528540E0
1.098136333E0,-3.643531051E0,8.025641452E0,-5.664981329E-1,8.832166176E0
1.108075333E0,-4.141151322E0,8.052438657E0,-7.459959590E-1,9.085560663E0
1.118014333E0,-4.611329441E0,8.063781670E0,-1.076921468E0,9.351400638E0
1.127953333E0,-5.109209914E0,7.984288189E0,-1.513135450E0,9.599086556E0
1.137891333E0,-5.523461169E0,7.779602312E0,-1.931165761E0,9.734486972E0
1.147830333E0,-5.897764247E0,7.477015918E0,-2.178771955E0,9.769157455E0
1.157769333E0,-6.172365282E0,7.146785644E0,-2.193299947E0,9.694596581E0
1.167707333E0,-6.199730251E0,6.856015304E0,-2.241422532E0,9.511339338E0
1.177646333E0,-5.905323527E0,6.669078065E0,-2.544442788E0,9.264104776E0
1.187585333E0,-5.414287806E0,6.280499010E0,-2.841065022E0,8.765319773E0
1.197523333E0,-4.183312671E0,5.768945408E0,-2.475399451E0,7.543768187E0
1.207462333E0,-2.706268575E0,5.345556709E0,-1.889607845E0,6.282474348E0
1.217401333E0,-1.142508516E0,4.910111051E0,-1.809817325E0,5.356300495E0
1.227339333E0,7.807389450E-1,3.764592973E0,-2.102766337E0,4.382161547E0
1.237278333E0,2.768768878E0,1.351266979E0,-2.321109556E0,3.857402380E0
1.247217333E0,4.444787291E0,-1.740576351E0,-2.279978487E0,5.289994517E0
1.257156333E0,5.587898070E0,-4.260419903E0,-2.078585762E0,7.327776018E0
1.267094333E0,7.276392687E0,-6.235022290E0,-2.277658896E0,9.849320969E0
1.277032958E0,9.595789009E0,-8.324667476E0,-2.458972283E0,1.293931219E1
1.286971958E0,1.175690296E1,-1.027598099E1,-1.816635178E0,1.572007366E1
1.296909958E0,1.383051157E1,-1.164365642E1,-3.491138577E-1,1.808257906E1
1.306848958E0,1.606416081E1,-1.256155468E1,1.421911869E0,2.044191165E1
1.316787958E0,1.812848405E1,-1.312661322E1,2.990726845E0,2.258084045E1
1.326725958E0,1.959579370E1,-1.332552381E1,4.781069434E0,2.417484933E1
1.336664958E0,1.952142647E1,-1.303474411E1,6.543636578E0,2.436821342E1
1.346603958E0,1.785341114E1,-1.202487149E1,7.556480749E0,2.281320287E1
1.356542958E0,1.547048248E1,-1.043609179E1,7.727466198E0,2.019805866E1
1.366480958E0,1.286233077E1,-8.613932742E0,7.310827525E0,1.711980109E1
1.376419958E0,1.038806977E1,-6.716318890E0,6.396249322E0,1.392598070E1
1.386358958E0,7.801965573E0,-4.802291903E0,4.890079075E0,1.038487110E1
1.396296958E0,4.981948189E0,-2.939894076E0,3.119757353E0,6.572341354E0
1.406235958E0,2.342665316E0,-1.253037264E0,1.361605441E0,2.985322855E0
1.416174958E0,-1.729758418E-1,2.516957366E-1,-2.820036095E-1,4.156890923E-1
1.426112958E0,-2.440947656E0,1.881053368E0,-1.609125681E0,3.476474175E0
1.436051958E0,-4.324778452E0,3.460190434E0,-2.439044387E0,6.051905818E0
1.445990958E0,-5.712813892E0,4.765771363E0,-3.850804905E0,8.377202258E0
1.455928958E0,-6.753351645E0,5.907253109E0,-4.539210468E0,1.005523890E1
1.465867958E0,-7.640407589E0,6.594283991E0,-4.427505260E0,1.102103499E1
1.475806958E0,-8.576545061E0,6.727773585E0,-4.380162694E0,1.174759072E1
1.485745958E0,-9.606740844E0,6.557337189E0,-4.535990406E0,1.248452440E1
1.495683958E0,-1.037755414E1,6.541114089E0,-4.988831531E0,1.324266754E1
1.505622958E0,-1.088044977E1,6.427700910E0,-5.252929797E0,1.368549589E1
1.515561958E0,-1.134979875E1,6.251274626E0,-5.478205474E0,1.406794588E1
1.525499958E0,-1.160258792E1,5.992155265E0,-5.484764881E0,1.416363714E1
1.535438958E0,-1.160223358E1,5.749305196E0,-5.222024338E0,1.396194372E1
1.545377958E0,-1.150873894E1,5.720327564E0,-4.668011180E0,1.367346144E1
1.555315958E0,-1.134559227E1,5.721361352E0,-4.006963570E0,1.332337032E1
1.565254958E0,-1.101964742E1,5.708474674E0,-3.425049253E0,1.287440386E1
1.575193958E0,-1.070904683E1,5.571358636E0,-3.013975375E0,1.244217700E1
1.585131958E0,-1.037094679E1,5.451826930E0,-2.693178413E0,1.202215306E1
1.595070958E0,-1.003795370E1,5.548990113E0,-2.219681999E0,1.168241388E1
1.605009958E0,-9.535734596E0,5.696913559E0,-1.499874550E0,1.120868779E1
1.614948958E0,-8.953622643E0,5.775597786E0,-5.801303315E-1,1.067058759E1
1.624886958E0,-8.106927690E0,5.810248970E0,5.601954557E-1,9.989749177E0
1.634825958E0,-7.234123750E0,5.707537365E0,1.457954691E0,9.329210099E0
1.644764958E0,-6.526090254E0,5.407081112E0,2.099405943E0,8.731201834E0
1.654702958E0,-6.119821032E0,4.932183121E0,2.404227726E0,8.219425209E0
1.664641958E0,-5.532329641E0,4.223775403E0,2.507533994E0,7.398288764E0
1.674580958E0,-4.597014872E0,2.890031360E0,2.830167566E0,6.123289594E0
1.684518958E0,-3.471509475E0,7.832006228E-1,2.854935787E0,4.562394064E0
1.694457958E0,-2.116221950E0,-1.562601725E0,2.992685663E0,3.984505862E0
1.704396958E0,-8.356466389E-1,-4.426473811E0,2.622808342E0,5.212590460E0
1.714334958E0,3.727553201E-1,-7.504884333E0,1.772425550E0,7.720345051E0
1.724273958E0,1.540025625E0,-9.940166037E0,9.800336891E-1,1.010638639E1
1.734212958E0,2.875298131E0,-1.171886916E1,4.699173331E-1,1.207559754E1
1.744151958E0,4.576209310E0,-1.269805909E1,5.152963678E-1,1.350732863E1
1.754089958E0,7.276792637E0,-1.343441066E1,9.523956549E-1,1.530823825E1
1.764028958E0,1.079162121E1,-1.454524247E1,1.721124419E0,1.819300514E1
1.773967958E0,1.414823523E1,-1.550976408E1,2.375071170E0,2.112738282E1
1.783905958E0,1.676331005E1,-1.602100836E1,2.852427331E0,2.336273987E1
1.793844958E0,1.825191058E1,-1.659395129E1,3.109534081E0,2.486283696E1
1.803783958E0,1.851457219E1,-1.697369053E1,3.112306246E0,2.530972152E1
1.813721958E0,1.770208403E1,-1.650449708E1,3.007059288E0,2.438861637E1
1.823660958E0,1.630497254E1,-1.477792072E1,2.827711151E0,2.218637016E1
1.833599958E0,1.448027405E1,-1.237032383E1,2.443325719E0,1.920086167E1
1.843537958E0,1.238791342E1,-9.660820572E0,2.239378345E0,1.586841732E1
1.853476958E0,1.025626184E1,-6.919556996E0,2.518361868E0,1.262589887E1
1.863415958E0,8.024593631E0,-4.116870174E0,3.166469589E0,9.558726518E0
1.873354958E0,5.854723477E0,-1.442542600E0,3.774109901E0,7.113551975E0
1.883292958E0,3.596150478E0,1.012724302E0,4.098748484E0,5.545957798E0
1.893231958E0,1.495603158E0,2.999857857E0,3.934500196E0,5.168778169E0
1.903170958E0,-3.538916177E-1,4.358912158E0,3.250988753E0,5.449246035E0
1.913108958E0,-1.957008700E0,5.388546608E0,2.018880427E0,6.078009195E0
1.923047958E0,-3.165550992E0,6.158504457E0,4.386498956E-1,6.938321408E0
1.932986958E0,-4.031414287E0,6.946419105E0,-1.228060883E0,8.124849110E0
1.942924958E0,-4.694677992E0,7.851593231E0,-2.686877453E0,9.534507232E0
1.952863958E0,-5.282110326E0,8.771114085E0,-3.556663061E0,1.083895677E1
1.962802958E0,-5.849071559E0,9.447739263E0,-3.688498478E0,1.170796465E1
1.972740958E0,-6.146932817E0,9.619263241E0,-3.790689681E0,1.202848023E1
1.982679958E0,-6.559591876E0,9.558781396E0,-4.224356031E0,1.233870865E1
1.992618958E0,-7.197280444E0,9.465006090E0,-4.528159230E0,1.272365561E1
2.002557958E0,-7.707531286E0,9.415109460E0,-4.776443117E0,1.307152376E1
2.012495958E0,-8.104221014E0,9.247820621E0,-4.846673439E0,1.321706578E1
2.022434958E0,-8.313036779E0,8.809358384E0,-4.616022416E0,1.296221581E1
2.032373958E0,-8.251471446E0,8.486188037E0,-4.112705787E0,1.253062318E1
2.042311958E0,-8.201730351E0,8.316463248E0,-3.682678744E0,1.224720639E1
2.052250958E0,-8.304781680E0,8.146872359E0,-3.267626420E0,1.208380364E1
2.062189958E0,-8.385237029E0,8.094232800E0,-2.896353954E0,1.200906619E1
2.072127958E0,-8.318015683E0,8.064420771E0,-2.505112077E0,1.185326342E1
2.082066958E0,-8.035437877E0,7.993716239E0,-1.915463648E0,1.149507556E1
2.092005958E0,-7.568131911E0,7.783012408E0,-1.230072910E0,1.092542824E1
2.101944958E0,-7.135038003E0,7.493007469E0,-4.584639533E-1,1.035683916E1
2.111882958E0,-6.839272386E0,7.356149878E0,3.805600373E-1,1.005153788E1
2.121821958E0,-6.549608340E0,7.121413990E0,1.035350250E0,9.730563024E0
2.131760958E0,-6.128138697E0,6.740943854E0,1.514184733E0,9.235104944E0
2.141698958E0,-5.637032808E0,6.275545249E0,1.957479401E0,8.659695875E0
2.151637958E0,-5.093943418E0,5.672066401E0,2.323400641E0,7.969867461E0
2.161576958E0,-4.062614445E0,4.630589585E0,2.422452474E0,6.619325647E0
2.171514958E0,-2.205282646E0,2.914111948E0,2.042283031E0,4.186435234E0
2.181453958E0,5.670454323E-1,3.115747333E-2,1.160316942E0,1.291838503E0
2.191392958E0,4.929677004E0,-5.048549144E0,-2.381361897E-1,7.060189280E0
2.201330958E0,1.151021595E1,-1.339399002E1,-1.806588639E0,1.775240272E1
2.211269958E0,1.739392758E1,-2.198394509E1,-4.226741695E0,2.834974257E1
2.221208958E0,1.684595109E1,-2.394621687E1,-6.457066212E0,2.998167898E1
2.231147958E0,1.599988705E1,-2.373692631E1,-8.302601838E0,2.980555742E1
2.241085958E0,1.874187919E1,-2.600725747E1,-9.204724302E0,3.335209778E1
2.251024958E0,1.977870747E1,-2.402875616E1,-6.864223040E0,3.186998509E1
2.260963958E0,1.883103753E1,-1.906541381E1,-3.100498379E0,2.697612034E1
2.270901958E0,1.825581418E1,-1.551499733E1,4.866257519E-2,2.395813561E1
2.280841208E0,1.794115446E1,-1.399045748E1,3.189417864E0,2.297368734E1
2.290780208E0,1.645269894E1,-1.059284745E1,7.052655412E0,2.079999201E1
2.300718208E0,1.415267561E1,-6.031100644E0,1.022041256E1,1.846968421E1
2.310657208E0,1.140852000E1,-2.183473701E0,1.181004245E1,1.656499287E1
2.320596208E0,9.052691433E0,2.889348990E-1,1.177063573E1,1.485202245E1
2.330534208E0,7.250086648E0,1.354908040E0,1.003625801E1,1.245495913E1
2.340473208E0,4.958268719E0,2.064561800E0,7.173251896E0,8.961159907E0
2.350412208E0,2.774771045E0,2.721813397E0,4.289344325E0,5.788445151E0
2.360351208E0,4.626328719E-1,3.100718819E0,1.351093755E0,3.413786857E0
2.370289208E0,-2.140312479E0,3.355745130E0,-1.694816626E0,4.326010434E0
2.380228208E0,-5.079802512E0,4.059058169E0,-4.621681352E0,7.977486151E0
2.390167208E0,-8.023383257E0,5.070744005E0,-6.802081171E0,1.167713286E1
2.400105208E0,-9.973234380E0,5.895648724E0,-7.817489930E0,1.397630948E1
2.410044208E0,-1.090418245E1,6.317643448E0,-8.135327616E0,1.499991230E1
2.419983208E0,-1.163488326E1,6.671646162E0,-8.035537280E0,1.563493621E1
2.429921208E0,-1.197520525E1,6.895724915E0,-7.203393708E0,1.558349908E1
2.439860208E0,-1.180140962E1,6.909247186E0,-6.329289347E0,1.506887087E1
2.449799208E0,-1.161103247E1,7.002279310E0,-5.731001072E0,1.472047431E1
2.459737208E0,-1.193872096E1,7.160873925E0,-5.246653980E0,1.487745111E1
2.469676208E0,-1.255862756E1,6.942362307E0,-4.976012095E0,1.518802874E1
2.479615208E0,-1.296714913E1,6.177037207E0,-4.790946550E0,1.514119923E1
2.489554208E0,-1.317100178E1,5.476873478E0,-4.619893273E0,1.499382689E1
2.499492208E0,-1.280093735E1,5.243989989E0,-4.272158189E0,1.447807872E1
2.509431208E0,-1.309551305E1,4.665415016E0,-2.747220719E0,1.417059565E1
2.519370208E0,-1.314443320E1,4.476241803E0,-1.269421309E0,1.394361127E1
2.529308208E0,-1.247283370E1,4.709242237E0,1.957201950E-1,1.333367352E1
2.539247208E0,-1.157416343E1,5.166095721E0,1.625577553E0,1.277858782E1
2.549186208E0,-1.053144350E1,5.461062022E0,2.719070176E0,1.217077825E1
2.559124208E0,-9.002670842E0,5.253684087E0,3.225633179E0,1.091118638E1
2.569063208E0,-7.370914682E0,4.756353253E0,3.325488712E0,9.381479345E0
2.579002208E0,-6.128974848E0,4.300242366E0,3.350118062E0,8.202420870E0
2.588941208E0,-5.078641840E0,3.835564722E0,2.721482445E0,6.921750239E0
2.598879208E0,-3.508467970E0,2.698848458E0,1.785797109E0,4.773070481E0
2.608818208E0,-1.115797266E0,4.800546509E-1,1.597159939E0,2.006583135E0
2.618757208E0,1.938812165E0,-1.908694326E0,1.852973869E-1,2.726984005E0
2.628695208E0,5.426389788E0,-5.000836449E0,-1.752354398E0,7.584511669E0
2.638634208E0,8.663520055E0,-9.119549666E0,-3.712857978E0,1.311518510E1
2.648573208E0,1.094097547E1,-1.236212954E1,-5.064654715E0,1.726782900E1
2.658511208E0,1.186098340E1,-1.351451985E1,-4.924903922E0,1.864349357E1
2.668450208E0,1.317069772E1,-1.480349644E1,-3.511928937E0,2.012323111E1
2.678389208E0,1.656994730E1,-1.783470941E1,-1.672784610E0,2.440160285E1
2.688327208E0,1.880329600E1,-2.012829612E1,3.814597777E-1,2.754737295E1
2.698266208E0,1.935584619E1,-2.032723243E1,2.168108095E0,2.815219090E1
2.708205208E0,1.921177547E1,-1.921018035E1,3.563500795E0,2.740112924E1
2.718143208E0,1.826294311E1,-1.729463484E1,4.623529949E0,2.557374659E1
2.728082208E0,1.662677289E1,-1.453000579E1,5.596943128E0,2.277929800E1
2.738021208E0,1.480379582E1,-1.127484680E1,6.365968931E0,1.966723421E1
2.747960208E0,1.306872462E1,-7.921734676E0,6.838643811E0,1.674253543E1
2.757898208E0,1.131812672E1,-4.800841209E0,6.746243770E0,1.402354712E1
2.767837208E0,9.552903775E0,-2.034576108E0,6.072967293E0,1.150123481E1
2.777776208E0,7.732476677E0,1.591992170E-1,4.950900643E0,9.183025489E0
2.787714208E0,5.674065564E0,1.627523945E0,3.306071571E0,6.765645826E0
2.797653208E0,3.416123478E0,2.443695263E0,1.297439851E0,4.396009136E0
2.807592208E0,1.119365821E0,2.939433315E0,-9.813415651E-1,3.294886846E0
2.817530208E0,-1.402581559E0,3.196624850E0,-3.333772463E0,4.826974652E0
2.827469208E0,-3.804687331E0,3.444148598E0,-5.168115349E0,7.283352354E0
2.837408208E0,-6.104986061E0,3.893014201E0,-6.287321541E0,9.589412211E0
2.847347208E0,-8.585732206E0,4.251589438E0,-6.606070808E0,1.163748176E1
2.857285208E0,-1.048375127E1,4.582596808E0,-6.047165869E0,1.294130787E1
2.867224208E0,-1.159456437E1,4.930420770E0,-5.341119257E0,1.368468220E1
2.877163208E0,-1.263939515E1,5.286028545E0,-4.895145103E0,1.454850003E1
2.887101208E0,-1.344313353E1,5.379909101E0,-4.507316830E0,1.516499806E1
2.897040208E0,-1.368517552E1,4.959265670E0,-3.645655344E0,1.500563720E1
2.906979208E0,-1.357993733E1,4.243829598E0,-2.335024760E0,1.441794466E1
2.916917208E0,-1.353336659E1,3.187904605E0,-1.005115028E0,1.394005034E1
2.926856208E0,-1.428133540E1,1.870579251E0,3.780412030E-1,1.440827966E1
2.936795208E0,-1.544074822E1,1.560181562E0,1.526782851E0,1.559429184E1
2.946733208E0,-1.610029894E1,2.034366778E0,2.420202904E0,1.640779255E1
2.956672208E0,-1.623541640E1,2.473532727E0,3.316353900E0,1.675426254E1
2.966611208E0,-1.594365905E1,2.586613492E0,4.292597716E0,1.671278638E1
2.976550208E0,-1.545478388E1,2.543062845E0,5.138769343E0,1.648406696E1
2.986488208E0,-1.442619316E1,2.313419883E0,5.633274218E0,1.565888690E1
2.996427208E0,-1.321949040E1,2.000019649E0,5.910776056E0,1.461821735E1
3.006366208E0,-1.219746727E1,1.827205775E0,6.033401524E0,1.373021568E1
3.016304208E0,-1.115332061E1,1.807080536E0,5.935113922E0,1.276274571E1
3.026243208E0,-9.739931061E0,1.581920341E0,5.749268358E0,1.142028089E1
3.036182208E0,-8.596770580E0,1.153592206E0,5.518860580E0,1.028071308E1
3.046120208E0,-6.781679066E0,7.713585493E-1,5.096363581E0,8.518162168E0
3.056059208E0,-3.719912644E0,-3.292844877E-1,4.377195232E0,5.753782795E0
3.065998208E0,7.065775394E-3,-3.352604005E0,2.371514894E0,4.106590609E0
3.075936208E0,4.116433387E0,-8.200141663E0,1.391187090E-1,9.176420933E0
3.085875208E0,8.089756756E0,-1.300962681E1,-2.236288676E0,1.548210390E1
3.095814208E0,1.067151940E1,-1.619572083E1,-4.684618442E0,1.995315387E1
3.105753208E0,1.222690917E1,-1.698458740E1,-6.412641406E0,2.188824997E1
3.115691208E0,1.588161308E1,-1.853859606E1,-7.202258763E0,2.545147754E1
3.125630208E0,2.128418306E1,-2.101254481E1,-7.656442993E0,3.087336405E1
3.135569208E0,2.462643048E1,-2.080462718E1,-8.706711098E0,3.339311918E1
3.145507208E0,2.561210732E1,-1.767217786E1,-1.001375675E1,3.268885492E1
3.155446208E0,2.570284441E1,-1.435660076E1,-1.028703223E1,3.118607427E1
3.165385208E0,2.469798871E1,-1.152741611E1,-8.912866965E0,2.867596844E1
3.175323208E0,2.224616230E1,-8.892431531E0,-6.204829023E0,2.474807021E1
3.185262208E0,1.905540806E1,-6.680117608E0,-3.012338739E0,2.041584513E1
3.195201208E0,1.545939616E1,-4.398938103E0,7.894033492E-2,1.607326406E1
3.205139208E0,1.158098597E1,-2.257892969E0,2.125416404E0,1.198894122E1
3.215078208E0,7.217510056E0,-8.025753719E-1,2.682054085E0,7.741446425E0
3.225017208E0,2.663626585E0,3.983860052E-1,1.823743054E0,3.252638424E0
3.234956208E0,-1.605133202E0,1.394710622E0,-3.712502468E-1,2.158586820E0
3.244894208E0,-5.398233690E0,2.575943493E0,-3.020254115E0,6.700622865E0
3.254833208E0,-8.533630591E0,4.059183299E0,-4.992448618E0,1.068757986E1
3.264772208E0,-1.073722339E1,5.567259153E0,-5.819586389E0,1.342199413E1
3.274710208E0,-1.183671745E1,6.845779168E0,-5.240284023E0,1.464353608E1
3.284648875E0,-1.200669601E1,7.729147273E0,-3.410837595E0,1.468108578E1
3.294587875E0,-1.197034621E1,7.898363355E0,-1.419973225E0,1.441144184E1
3.304525875E0,-1.180836781E1,7.476401961E0,3.930188459E-1,1.398172380E1
3.314464875E0,-1.161388942E1,6.970520158E0,1.776260447E0,1.366110098E1
3.324403875E0,-1.156997683E1,6.562003852E0,2.803633486E0,1.359355064E1
3.334341875E0,-1.160429063E1,5.982583373E0,3.627110900E0,1.355015861E1
3.344280875E0,-1.146606011E1,5.220889978E0,4.219094122E0,1.328642096E1
3.354219875E0,-1.143079438E1,4.110631195E0,5.175845953E0,1.320415580E1
3.364158875E0,-1.162751109E1,3.279209754E0,6.346618740E0,1.364667726E1
3.374096875E0,-1.169466519E1,3.015308540E0,7.220900272E0,1.407120039E1
3.384035875E0,-1.147247451E1,2.870739056E0,7.663744996E0,1.409226034E1
3.393974875E0,-1.077888363E1,2.758298854E0,7.907094417E0,1.364971381E1
3.403912875E0,-9.806451325E0,2.746703240E0,7.958883791E0,1.292496412E1
3.413851875E0,-8.792782112E0,2.802165543E0,7.743355422E0,1.204677144E1
3.423790875E0,-7.844295906E0,2.809761953E0,7.249993093E0,1.104491468E1
3.433728875E0,-6.990349821E0,2.980800612E0,6.491707456E0,9.994619983E0
3.443667875E0,-6.149475771E0,3.540617716E0,5.500947050E0,8.978443324E0
3.453606875E0,-5.162159375E0,4.207345604E0,4.357905267E0,7.958704968E0
3.463545875E0,-3.916964396E0,4.540249811E0,3.299076839E0,6.844003683E0
3.473483875E0,-2.916394701E0,4.401090756E0,2.485374216E0,5.835412829E0
3.483422875E0,-2.022299294E0,3.638498352E0,2.032954676E0,4.632630938E0
3.493361875E0,-1.382910941E0,2.253335064E0,1.786910858E0,3.191083201E0
3.503299875E0,-1.057646706E0,5.313411641E-1,1.756140762E0,2.117774862E0
3.513238875E0,-7.998581707E-1,-1.223910529E0,1.361261332E0,1.997689288E0
3.523177875E0,2.469799572E-1,-3.223761778E0,5.635724786E-1,3.281958720E0
3.533115875E0,2.101067721E0,-5.815248924E0,-4.609965286E-1,6.200332525E0
3.543054875E0,4.215488729E0,-8.624498661E0,-1.480588386E0,9.713107862E0
3.552993875E0,6.120217474E0,-1.062307873E1,-2.080300750E0,1.243521269E1
3.562931875E0,7.660015057E0,-1.110432445E1,-2.486332867E0,1.371727755E1
3.572870875E0,9.874948533E0,-1.051344343E1,-3.097991678E0,1.475278461E1
3.582809875E0,1.344189977E1,-1.080858983E1,-3.997684916E0,1.770569875E1
3.592748875E0,1.655838619E1,-1.179821354E1,-5.013526661E0,2.094071263E1
3.602686875E0,1.841045666E1,-1.197129930E1,-5.949565315E0,2.275201637E1
3.612625875E0,1.925306851E1,-1.148347546E1,-6.666907579E0,2.338799932E1
3.622564875E0,1.927053999E1,-1.120504976E1,-6.677680489E0,2.327011535E1
3.632502875E0,1.815732368E1,-1.095990291E1,-6.014848309E0,2.204509640E1
3.642441875E0,1.600733991E1,-1.051606065E1,-5.218328898E0,1.985077880E1
3.652380875E0,1.325978824E1,-9.864280872E0,-4.733208804E0,1.719096527E1
3.662318875E0,1.055224555E1,-8.674263729E0,-4.405086158E0,1.435261375E1
3.672257875E0,7.961318572E0,-6.954052060E0,-4.185075606E0,1.136909369E1
3.682196875E0,5.750426107E0,-5.034173765E0,-4.153433399E0,8.698351275E0
3.692134875E0,3.789685714E0,-3.015226679E0,-3.911118058E0,6.224962185E0
3.702073875E0,2.031848967E0,-8.232435250E-1,-3.340430979E0,3.995574959E0
3.712012875E0,5.193327373E-1,1.407418376E0,-2.678297249E0,3.069822329E0
3.721951875E0,-8.269325334E-1,3.321094530E0,-2.219055762E0,4.078933043E0
3.731889875E0,-2.045188805E0,4.855250135E0,-2.025962867E0,5.644535115E0
3.741828875E0,-3.264957751E0,6.177247707E0,-2.056876950E0,7.283480015E0
3.751767875E0,-4.497184190E0,7.406832374E0,-2.244938170E0,8.951289228E0
3.761705875E0,-5.787333732E0,8.523794405E0,-2.247073135E0,1.054502918E1
3.771644875E0,-6.925670260E0,9.304829219E0,-2.005054686E0,1.177136354E1
3.781583875E0,-7.561638578E0,9.560958315E0,-1.409880930E0,1.227102547E1
3.791521875E0,-7.788126383E0,9.219223643E0,-4.815237638E-1,1.207811501E1
3.801460875E0,-7.929269983E0,8.151553055E0,2.867125185E-1,1.137555905E1
3.811399875E0,-8.223078536E0,7.017737594E0,7.323826177E-1,1.083531476E1
3.821337875E0,-8.596184689E0,6.544314855E0,9.026079293E-1,1.084145512E1
3.831276875E0,-8.971501089E0,6.643445041E0,9.887185585E-1,1.120717441E1
3.841215875E0,-9.103841121E0,6.844739533E0,1.043147658E0,1.143759326E1
3.851154875E0,-9.057925276E0,6.878086204E0,9.867913163E-1,1.141612181E1
3.861092875E0,-8.877876642E0,6.864524172E0,9.245409814E-1,1.126024697E1
3.871031875E0,-8.630607832E0,6.971759768E0,8.630592629E-1,1.112823872E1
3.880970875E0,-8.192671260E0,7.114224839E0,8.758611569E-1,1.088573333E1
3.890908875E0,-7.569170961E0,6.994047015E0,9.330146201E-1,1.034792535E1
3.900847875E0,-7.061690530E0,6.722275448E0,1.014100298E0,9.802288496E0
3.910786875E0,-6.881543663E0,6.433507195E0,1.168975646E0,9.492742600E0
3.920724875E0,-7.071087590E0,6.246638954E0,1.400525093E0,9.538461535E0
3.930663875E0,-7.390733235E0,6.178824701E0,1.617816690E0,9.768221091E0
3.940602875E0,-7.624151745E0,5.963241368E0,1.777481345E0,9.841106512E0
3.950540875E0,-7.584622228E0,5.545921494E0,1.810736507E0,9.568829931E0
3.960479875E0,-7.468649722E0,4.961644902E0,1.646231381E0,9.116398772E0
3.970418875E0,-7.187379354E0,4.178024449E0,1.550140139E0,8.456786903E0
3.980357875E0,-6.496993339E0,2.923623614E0,1.484480292E0,7.277511884E0
3.990295875E0,-5.354118787E0,1.248891004E0,1.497865739E0,5.698238192E0
4.000234875E0,-3.683559920E0,-5.466082442E-1,1.435326259E0,3.990934192E0
4.010173875E0,-2.014375733E0,-2.419243961E0,1.259512471E0,3.390696477E0
4.020111875E0,7.335975230E-2,-4.819185678E0,1.157095711E0,4.956692722E0
4.030050875E0,2.846321669E0,-8.199868598E0,1.251578969E0,8.769597595E0
4.039989875E0,5.888742578E0,-1.206996990E1,1.565912418E0,1.352085590E1
4.049927875E0,8.585604152E0,-1.465591506E1,1.662575079E0,1.706671031E1
4.059866875E0,1.173167807E1,-1.534230333E1,1.095779908E0,1.934474800E1
4.069805875E0,1.661676245E1,-1.578256124E1,3.409365267E-2,2.291739942E1
4.079743875E0,2.166459824E1,-1.601185279E1,-1.201016779E0,2.696621382E1
4.089682875E0,2.456237306E1,-1.477412938E1,-2.859888671E0,2.880562502E1
4.099621875E0,2.523562147E1,-1.232410977E1,-4.298234432E0,2.841117900E1
4.109560875E0,2.428738085E1,-1.012299444E1,-4.465869427E0,2.668887174E1
4.119498875E0,2.207353379E1,-8.789629294E0,-3.334108093E0,2.399197269E1
4.129437875E0,1.897674313E1,-8.005186138E0,-2.053056672E0,2.069818414E1
4.139376875E0,1.551465352E1,-7.288078347E0,-1.648549655E0,1.722028675E1
4.149314875E0,1.186217155E1,-6.384178330E0,-2.025168816E0,1.362241372E1
4.159253875E0,7.984500443E0,-5.286899781E0,-2.972124513E0,1.002681808E1
4.169192875E0,3.991848518E0,-3.690063778E0,-4.034648967E0,6.769772341E0
4.179130875E0,4.341768122E-1,-1.747166163E0,-4.778220670E0,5.106122979E0
4.189069875E0,-2.136060383E0,2.113376695E-1,-5.176358753E0,5.603758338E0
4.199008875E0,-3.953280283E0,2.031349030E0,-5.218200259E0,6.854518059E0
4.208947875E0,-5.360073591E0,3.673888040E0,-4.926786726E0,8.154818801E0
4.218885875E0,-6.661153919E0,4.703086873E0,-4.251397065E0,9.195889009E0
4.228824875E0,-8.040909702E0,5.223307217E0,-3.359803097E0,1.016009075E1
4.238763875E0,-9.409319547E0,5.290838465E0,-2.495996268E0,1.107963282E1
4.248701875E0,-1.067776656E1,5.115954677E0,-1.553251881E0,1.194153602E1
4.258640875E0,-1.165689569E1,4.991965638E0,-4.773280942E-1,1.268979039E1
4.268579875E0,-1.242051983E1,4.973180873E0,3.725493519E-1,1.338434287E1
4.278518208E0,-1.296999672E1,5.023673919E0,8.960146089E-1,1.393775293E1
4.288457208E0,-1.321059561E1,4.974912819E0,1.251207086E0,1.417163058E1
4.298396208E0,-1.320820293E1,4.823064429E0,1.476524863E0,1.413855370E1
4.308335208E0,-1.297856172E1,4.550653177E0,1.694626007E0,1.385724598E1
4.318273208E0,-1.264978214E1,4.265049144E0,1.885210300E0,1.348190084E1
4.328212208E0,-1.232758419E1,4.204481930E0,2.200453577E0,1.320942831E1
4.338151208E0,-1.205598804E1,4.206476123E0,2.468763738E0,1.300523292E1
4.348089208E0,-1.161630549E1,4.050595786E0,2.501670406E0,1.255405250E1
4.358028208E0,-1.108629983E1,3.885398203E0,2.399850501E0,1.199006445E1
4.367967208E0,-1.055614331E1,3.905229327E0,2.204056485E0,1.146912563E1
4.377905208E0,-1.000523970E1,3.907641303E0,1.906034428E0,1.090905355E1
4.387844208E0,-9.459484565E0,3.945518397E0,1.640249240E0,1.037975824E1
4.397783208E0,-9.023368231E0,4.009101020E0,1.499162943E0,9.987069377E0
4.407721208E0,-8.634123763E0,4.027580560E0,1.454803480E0,9.637735807E0
4.417660208E0,-8.159972461E0,3.944839827E0,1.432396804E0,9.175983458E0
4.427599208E0,-7.352077292E0,3.620701182E0,1.391045587E0,8.312492128E0
4.437538208E0,-6.328465474E0,3.021611254E0,1.405700025E0,7.152314478E0
4.447476208E0,-5.017202806E0,2.064698040E0,1.292759885E0,5.577322845E0
4.457415208E0,-3.496350785E0,7.080206323E-1,9.896948974E-1,3.702061321E0
4.467354208E0,-1.773820111E0,-1.175127209E0,5.748352392E-1,2.204041128E0
4.477292208E0,4.614032024E-1,-3.762727711E0,3.656497836E-2,3.791088200E0
4.487231208E0,3.590617842E0,-7.395157238E0,-7.757081468E-1,8.257276197E0
4.497170208E0,6.952480913E0,-1.166486077E1,-1.752155592E0,1.369218817E1
4.507108208E0,9.467991679E0,-1.534106957E1,-2.595338123E0,1.821337590E1
4.517047208E0,1.081990419E1,-1.765150445E1,-3.450264201E0,2.098928915E1
4.526986208E0,1.238187325E1,-1.943232075E1,-4.005253844E0,2.338734558E1
4.536924208E0,1.550378004E1,-2.144882428E1,-3.590099194E0,2.670782789E1
4.546863208E0,1.821305817E1,-2.197768389E1,-2.412714229E0,2.864533587E1
4.556802208E0,1.914864659E1,-2.023002598E1,-1.364639415E0,2.788883034E1
4.566741208E0,1.908259527E1,-1.762030370E1,-5.852358279E-1,2.598005092E1
4.576679208E0,1.824169433E1,-1.454619556E1,4.605804992E-1,2.333588121E1
4.586618208E0,1.675129987E1,-1.090155705E1,1.575516762E0,2.004824796E1
4.596557208E0,1.486217910E1,-7.155047759E0,2.074877604E0,1.662480655E1
4.606495208E0,1.292832829E1,-3.839551939E0,1.879285609E0,1.361673771E1
4.616434208E0,1.090843220E1,-1.040863443E0,1.326399940E0,1.103796298E1
4.626373208E0,8.914320583E0,1.497588873E0,8.538944833E-1,9.079483447E0
4.636311208E0,7.062070014E0,3.484792010E0,1.608053009E-1,7.876704043E0
4.646250208E0,5.264609610E0,4.932452677E0,-9.595070386E-1,7.277764596E0
4.656189208E0,3.357451347E0,6.101621574E0,-2.460902449E0,7.386359471E0
4.666127208E0,1.310852194E0,6.979431900E0,-3.980796111E0,8.141101940E0
4.676066208E0,-6.724274611E-1,7.461865783E0,-5.319733651E0,9.188643304E0
4.686005208E0,-2.380613746E0,7.719245598E0,-6.145153509E0,1.014972837E1
4.695944208E0,-3.983817367E0,7.948145964E0,-6.428120155E0,1.097107806E1
4.705882208E0,-5.497016551E0,8.321069684E0,-6.414157004E0,1.185743656E1
4.715821208E0,-6.713613383E0,8.589222994E0,-6.139302785E0,1.251153048E1
4.725760208E0,-7.742386538E0,8.752514092E0,-5.693631517E0,1.299878810E1
4.735698208E0,-8.501458626E0,8.934054936E0,-5.161435490E0,1.336908945E1
4.745637208E0,-9.025502465E0,9.034691949E0,-4.552766068E0,1.355776649E1
4.755576208E0,-9.438774312E0,8.979939791E0,-3.982089515E0,1.362302522E1
4.765514208E0,-9.854644661E0,8.726248400E0,-3.533662453E0,1.362894724E1
4.775453208E0,-1.030982350E1,8.350764184E0,-3.163659418E0,1.363951847E1
4.785392208E0,-1.082253895E1,7.962219043E0,-2.888383614E0,1.374289057E1
4.795331208E0,-1.134734292E1,7.687995154E0,-2.726380073E0,1.397499943E1
4.805269208E0,-1.165022402E1,7.589346194E0,-2.721984136E0,1.416810125E1
4.815208208E0,-1.163049551E1,7.500073829E0,-2.660913477E0,1.409255100E1
4.825147208E0,-1.126698347E1,7.344037955E0,-2.319921986E0,1.364777813E1
4.835085208E0,-1.071347902E1,7.308621370E0,-1.747312344E0,1.308616366E1
4.845024208E0,-1.020614769E1,7.397576231E0,-1.302029915E0,1.267220844E1
4.854963208E0,-9.704554821E0,7.384422920E0,-8.651066655E-1,1.222524011E1
4.864901208E0,-9.158381025E0,7.184227120E0,-2.766727030E-1,1.164326458E1
4.874840208E0,-8.400753200E0,6.782265542E0,2.952656976E-1,1.080087784E1
4.884779208E0,-7.346992553E0,6.136667445E0,7.544662356E-1,9.602406272E0
4.894717208E0,-6.053534072E0,5.162412559E0,1.145016972E0,8.037838146E0
4.904656208E0,-4.192429649E0,3.608838935E0,1.301688437E0,5.682831831E0
4.914595208E0,-1.566231676E0,1.287439358E0,1.251912260E0,2.382827327E0
4.924534208E0,1.852902533E0,-2.553303659E0,9.387762471E-1,3.291490273E0
4.934472208E0,6.699380091E0,-9.055891614E0,2.700195949E-1,1.126782042E1
4.944411208E0,1.278166609E1,-1.835700610E1,5.742550492E-2,2.236859313E1
4.954350208E0,1.517102201E1,-2.458923985E1,1.652760820E-1,2.889321618E1
4.964288208E0,1.359662411E1,-2.311715887E1,-6.834295821E-1,2.682793875E1
4.974227208E0,1.736340277E1,-2.298939253E1,-2.006229246E0,2.887948893E1
4.984166208E0,2.188117910E1,-2.263616925E1,-1.764768914E0,3.153246845E1
4.994104208E0,2.281131207E1,-1.846906798E1,-1.446573963E0,2.938630645E1
5.004043208E0,2.309028975E1,-1.458838322E1,-1.085210481E0,2.733422923E1
5.013982208E0,2.328103060E1,-1.260179755E1,3.899439414E-1,2.647571989E1
5.023921208E0,2.166693946E1,-1.067344898E1,3.107334943E0,2.435229577E1
5.033859208E0,1.825226843E1,-7.948787988E0,5.033809483E0,2.053455067E1
5.043798208E0,1.460557755E1,-5.506962665E0,5.070758039E0,1.641225519E1
5.053737208E0,1.099482599E1,-3.582835783E0,3.854339547E0,1.218929219E1
5.063675208E0,7.886031577E0,-1.841020991E0,2.019675210E0,8.346133253E0
5.073614208E0,5.435372865E0,-3.262682015E-1,9.871152520E-2,5.446051146E0
5.083553208E0,3.255181206E0,9.702091974E-1,-1.681657029E0,3.790182177E0
5.093491208E0,9.493574417E-1,2.217938944E0,-3.281361530E0,4.072820423E0
5.103430208E0,-1.475125040E0,3.440501105E0,-4.947468327E0,6.204070002E0
5.113369208E0,-3.830553659E0,4.655161339E0,-6.251411451E0,8.684688455E0
5.123307208E0,-5.997564524E0,5.650276752E0,-7.276051794E0,1.099260375E1
5.133246208E0,-7.611616484E0,6.351293589E0,-7.927795315E0,1.269352490E1
5.143185208E0,-8.792133071E0,6.709044954E0,-7.755947986E0,1.350805750E1
5.153124208E0,-9.433617067E0,6.894297025E0,-7.045532334E0,1.364419248E1
5.163062208E0,-9.755128559E0,7.037063811E0,-6.004184157E0,1.344369844E1
5.173001208E0,-9.921439744E0,7.232080733E0,-4.680064631E0,1.313929082E1
5.182940208E0,-9.995311128E0,7.547076087E0,-3.457365060E0,1.299299716E1
5.192878208E0,-9.930228109E0,7.725769336E0,-2.461180776E0,1.282007617E1
5.202817208E0,-9.989675581E0,7.946208782E0,-1.631088992E0,1.286842273E1
5.212756208E0,-1.011941594E1,8.185715997E0,-1.205759017E0,1.307143375E1
5.222694208E0,-1.032567413E1,8.248985209E0,-1.038684186E0,1.325685363E1
5.232633208E0,-1.052300714E1,8.260970247E0,-1.222773246E0,1.343400473E1
5.242572208E0,-1.056283252E1,8.099733860E0,-1.545836588E0,1.340032575E1
5.252511208E0,-1.056033576E1,7.838679655E0,-1.660563637E0,1.325605755E1
5.262449208E0,-1.053678084E1,7.588608860E0,-1.701181905E0,1.309598239E1
5.272388208E0,-1.041510964E1,7.405985112E0,-1.677203643E0,1.288938076E1
5.282327250E0,-1.016209711E1,7.303489269E0,-1.460184234E0,1.259925836E1
5.292265250E0,-9.997209134E0,7.110856258E0,-1.087458150E0,1.231629134E1
5.302204250E0,-9.786990037E0,6.840325470E0,-6.014703298E-1,1.195562600E1
5.312143250E0,-9.418714854E0,6.632209616E0,-1.144335917E-1,1.152004726E1
5.322081250E0,-8.945186280E0,6.347698136E0,2.364567232E-1,1.097112305E1
5.332020250E0,-8.319747044E0,5.917020882E0,4.937646174E-1,1.022120984E1
5.341959250E0,-7.237111092E0,5.147898601E0,6.673251077E-1,8.906287653E0
5.351898250E0,-5.289271996E0,3.501152519E0,6.941136146E-1,6.380929471E0
5.361836250E0,-2.730470785E0,7.293284708E-1,5.669262222E-1,2.882498234E0
5.371775250E0,2.678644574E-1,-3.353707960E0,2.686456454E-1,3.375096877E0
5.381714250E0,4.441662539E0,-9.802681040E0,-2.036960895E-1,1.076394044E1
5.391652250E0,1.030866108E1,-1.974828089E1,-5.218990803E-2,2.227702438E1
5.401591250E0,1.338524025E1,-2.795376984E1,1.247000891E0,3.101826745E1
5.411530250E0,1.072652065E1,-2.731621751E1,2.286289094E0,2.943571134E1
5.421468250E0,1.277013772E1,-2.679929792E1,9.556753582E-1,2.970171883E1
5.431407250E0,1.746917891E1,-2.702774162E1,2.060886240E-1,3.218250303E1
5.441346250E0,1.820907154E1,-2.335194797E1,1.209709396E0,2.963692219E1
5.451284250E0,1.878958077E1,-1.937028881E1,2.225927410E0,2.707787264E1
5.461223250E0,1.876115161E1,-1.579443343E1,3.981717632E0,2.484550286E1
5.471162250E0,1.753225048E1,-1.238566575E1,6.980520651E0,2.257237674E1
5.481101250E0,1.514979896E1,-9.245298716E0,9.739359788E0,2.024468043E1
5.491039250E0,1.204911873E1,-6.018033872E0,1.095448838E1,1.736084127E1
5.500978250E0,8.871234205E0,-3.456228361E0,9.824639089E0,1.368092994E1
5.510917250E0,6.346459696E0,-1.803169625E0,6.815368384E0,9.485684877E0
5.520855250E0,4.404036875E0,-7.888291526E-1,2.886340013E0,5.324354505E0
5.530794250E0,2.886821823E0,-6.397029340E-2,-1.220478944E0,3.134868624E0
5.540733250E0,1.309527215E0,9.601116407E-1,-4.991272159E0,5.248759249E0
5.550671250E0,-5.675447845E-1,2.417962251E0,-7.912017188E0,8.292687412E0
5.560610250E0,-2.591484808E0,4.092337012E0,-9.746436088E0,1.088375083E1
5.570549250E0,-4.558929618E0,5.825479798E0,-1.054093353E1,1.287755155E1
5.580488250E0,-6.070415568E0,7.118524881E0,-1.015971144E1,1.381097673E1
5.590426250E0,-7.000788270E0,7.526975698E0,-8.487459222E0,1.333054251E1
5.600365250E0,-7.728292994E0,7.586302133E0,-6.444611642E0,1.260204396E1
5.610304250E0,-8.436660367E0,7.707993216E0,-4.526320281E0,1.229137799E1
5.620242250E0,-9.065800890E0,7.656678051E0,-3.089395101E0,1.226204822E1
5.630181250E0,-9.637243429E0,7.297113465E0,-2.142801054E0,1.227664132E1
5.640120250E0,-1.039039112E1,6.986685956E0,-1.721703147E0,1.263876062E1
5.650058250E0,-1.105167262E1,6.941623219E0,-1.779078220E0,1.317158760E1
5.659997250E0,-1.157177309E1,6.962720557E0,-1.875300001E0,1.363459424E1
5.669936250E0,-1.211468707E1,6.968709860E0,-1.808188437E0,1.409248400E1
5.679874250E0,-1.248393873E1,6.853034978E0,-1.682523294E0,1.434028240E1
5.689813250E0,-1.263814735E1,6.569614003E0,-1.440924822E0,1.431638436E1
5.699752250E0,-1.264456643E1,6.290363263E0,-9.673177493E-1,1.415589749E1
5.709691250E0,-1.228972931E1,5.966722215E0,-2.853257051E-1,1.366457578E1
5.719629250E0,-1.182464529E1,5.783529534E0,2.842986417E-1,1.316633114E1
5.729568250E0,-1.140821010E1,5.667065277E0,7.661416635E-1,1.276126403E1
5.739507250E0,-1.093108666E1,5.518487527E0,1.129683233E0,1.229709495E1
5.749445250E0,-1.035098907E1,5.464097312E0,1.432018343E0,1.179194686E1
5.759384250E0,-9.688957958E0,5.413245247E0,1.746191725E0,1.123513756E1
5.769323250E0,-9.005302089E0,5.193288197E0,1.894758365E0,1.056673163E1
5.779261250E0,-8.031209756E0,4.961744304E0,1.834665799E0,9.616924419E0
5.789200250E0,-6.755746665E0,4.707106249E0,1.953251279E0,8.462396398E0
5.799139250E0,-4.646582304E0,3.968073739E0,1.969393395E0,6.419879021E0
5.809078250E0,-2.122353925E0,2.257739772E0,1.670032326E0,3.520054407E0
5.819016250E0,8.102223605E-1,-7.168078279E-1,8.185745233E-1,1.356590574E0
5.828955250E0,4.611366863E0,-6.335147088E0,-9.321068399E-1,7.890983217E0
5.838894250E0,9.588398713E0,-1.598808620E1,-3.056601577E0,1.889177343E1
5.848832250E0,1.433500700E1,-2.821927787E1,-4.578115210E0,3.198091943E1
5.858771250E0,1.255421993E1,-3.111438169E1,-4.904208287E0,3.390817666E1
5.868710250E0,9.309066696E0,-2.497328965E1,-4.729536460E0,2.706829204E1
5.878648250E0,1.555034960E1,-2.554965672E1,-4.330647887E0,3.022172798E1
5.888587250E0,2.096045782E1,-2.515529944E1,-3.264306371E0,3.290570738E1
5.898526250E0,2.221440023E1,-1.909442536E1,-1.622859621E0,2.933786514E1
5.908464250E0,2.243322877E1,-1.390488815E1,4.442819703E-1,2.639683795E1
5.918403250E0,2.194127445E1,-1.206263281E1,3.055013181E0,2.522418959E1
5.928342250E0,1.876272802E1,-1.055541241E1,5.118439744E0,2.212815219E1
5.938281250E0,1.367187544E1,-7.948462883E0,4.576938457E0,1.646349312E1
5.948219250E0,9.079669316E0,-6.106436756E0,1.734313399E0,1.107866453E1
5.958158250E0,5.572987086E0,-4.717152935E0,-1.351944233E0,7.425460933E0
5.968097250E0,3.131550602E0,-2.750905634E0,-3.548001580E0,5.473792670E0
5.978035250E0,1.452201031E0,-1.370984960E-1,-4.892440181E0,5.105257560E0
5.987974250E0,1.954139471E-2,2.688382527E0,-5.675798678E0,6.280324284E0
5.997913250E0,-1.603463822E0,5.114765353E0,-5.992196195E0,8.039797018E0
6.007851250E0,-3.540525330E0,6.821435455E0,-6.125287009E0,9.827840161E0
6.017790250E0,-5.613867309E0,7.764697174E0,-6.146165078E0,1.138338146E1
6.027729250E0,-7.426581929E0,8.111398471E0,-5.831683109E0,1.244818992E1
6.037668250E0,-8.674858975E0,8.170530778E0,-5.016829169E0,1.292978447E1
6.047606250E0,-9.535166831E0,8.243015202E0,-3.912138104E0,1.319740621E1
6.057545250E0,-1.029676199E1,8.232520035E0,-2.827553276E0,1.348305422E1
6.067484250E0,-1.115564313E1,8.190774423E0,-1.798570644E0,1.395607451E1
6.077422250E0,-1.180332283E1,8.040217976E0,-8.938042152E-1,1.430952204E1
6.087361250E0,-1.223082914E1,7.815956206E0,-3.772769719E-3,1.451490155E1
6.097300250E0,-1.238423903E1,7.618154256E0,6.852984984E-1,1.455593641E1
6.107238250E0,-1.236670674E1,7.559388569E0,1.081367544E0,1.453441250E1
6.117177250E0,-1.223190971E1,7.548851302E0,1.207561276E0,1.442438821E1
6.127116250E0,-1.197293653E1,7.526464067E0,1.172778675E0,1.419064059E1
6.137055250E0,-1.156210648E1,7.431987095E0,1.183835321E0,1.379558641E1
6.146993250E0,-1.093027506E1,7.376616887E0,1.205235107E0,1.324152489E1
6.156932250E0,-1.016575863E1,7.396850007E0,1.143198342E0,1.262390356E1
6.166871250E0,-9.381171636E0,7.444704205E0,1.115921519E0,1.202810387E1
6.176809250E0,-8.699911956E0,7.505890054E0,1.112628148E0,1.154403720E1
6.186748250E0,-8.091340182E0,7.420077487E0,1.084783780E0,1.103195775E1
6.196687250E0,-7.412488970E0,7.202765132E0,1.028782584E0,1.038668435E1
6.206625250E0,-6.814438677E0,6.973896341E0,1.007972343E0,9.802439130E0
6.216564250E0,-6.216524624E0,6.736806364E0,1.097652186E0,9.232257509E0
6.226503250E0,-5.441745746E0,6.543025544E0,1.259310157E0,8.602885685E0
6.236442250E0,-4.435705395E0,6.269050747E0,1.331013393E0,7.794105226E0
6.246380250E0,-3.178092685E0,5.768764729E0,1.151640698E0,6.686194427E0
6.256319250E0,-1.664345031E0,4.560004921E0,7.092883086E-1,4.905790371E0
6.266258250E0,-3.013818669E-1,3.078830937E0,6.245118678E-2,3.094176969E0
6.276196250E0,1.527142455E0,1.249853455E0,-8.766180789E-1,2.159341797E0
6.286135333E0,3.886651261E0,-1.900395373E0,-2.050543685E0,4.787722841E0
6.296074333E0,7.880784286E0,-7.479957653E0,-3.639640313E0,1.145877433E1
6.306012333E0,1.393824301E1,-1.640625567E1,-5.461245625E0,2.220957107E1
6.315951333E0,1.491898012E1,-2.234563748E1,-5.440102093E0,2.741346736E1
6.325890333E0,1.091267027E1,-2.203613500E1,-2.678982543E0,2.473569416E1
6.335828333E0,1.285740040E1,-2.427095017E1,2.868433499E-1,2.746769096E1
6.345767333E0,1.543071440E1,-2.712434697E1,2.913642709E0,3.134208767E1
6.355706333E0,1.615310515E1,-2.782420022E1,5.886144075E0,3.270711873E1
6.365645333E0,1.680133215E1,-2.570034882E1,9.528030889E0,3.214927782E1
6.375583333E0,1.836912036E1,-2.301526295E1,1.196475276E1,3.178493700E1
6.385522333E0,1.880768843E1,-1.930635184E1,1.363636413E1,3.020620453E1
6.395461333E0,1.682327441E1,-1.429337365E1,1.546095035E1,2.695114243E1
6.405399333E0,1.434982735E1,-8.951415904E0,1.722536872E1,2.414039601E1
6.415338333E0,1.152409840E1,-4.929714426E0,1.650268094E1,2.072306460E1
6.425277333E0,9.566012063E0,-3.196150641E0,1.368213029E1,1.699778382E1
6.435215333E0,8.287773299E0,-2.472794516E0,1.041448282E1,1.353747950E1
6.445154333E0,6.862664757E0,-1.928109421E0,7.074386004E0,1.004294334E1
6.455093333E0,4.936359787E0,-1.704667431E0,2.673626493E0,5.867010961E0
6.465032333E0,2.293430591E0,-1.721338427E0,-2.957306499E0,4.119282897E0
6.474970333E0,-9.071545780E-1,-1.189033057E0,-8.954196839E0,9.078236066E0
6.484909333E0,-4.436525760E0,7.967281562E-1,-1.390113775E1,1.461366372E1
6.494848333E0,-7.721724232E0,3.168471091E0,-1.673089425E1,1.869724730E1
6.504786333E0,-1.006226993E1,5.391098918E0,-1.715823216E1,2.060869124E1
6.514725333E0,-1.093575040E1,7.222952644E0,-1.621562007E1,2.084965266E1
6.524664333E0,-1.123156805E1,8.354378933E0,-1.490761079E1,2.044946522E1
6.534602333E0,-1.179373574E1,8.732832364E0,-1.332949874E1,1.982498677E1
6.544541333E0,-1.249261016E1,8.658913618E0,-1.142568275E1,1.901547580E1
6.554480333E0,-1.291552289E1,8.536730200E0,-9.543206753E0,1.818678886E1
6.564419333E0,-1.290065576E1,8.546974522E0,-7.760115881E0,1.731176164E1
6.574357333E0,-1.238786430E1,8.649745769E0,-5.650845101E0,1.613100537E1
6.584296333E0,-1.144217541E1,8.799454370E0,-3.424812441E0,1.483519853E1
6.594235333E0,-9.939876015E0,8.804200555E0,-3.174054598E0,1.365246151E1
6.604173333E0,-9.365842575E0,8.850615753E0,-2.365247848E0,1.310140465E1
6.614112333E0,-8.659166218E0,8.497567888E0,-1.673259112E0,1.224702477E1
6.624051333E0,-8.171964515E0,8.105860573E0,-1.280525025E0,1.158126608E1
6.633989333E0,-7.798057879E0,7.891299334E0,-9.822889602E-1,1.113764802E1
6.643928333E0,-7.407859145E0,7.614688611E0,-7.819351391E-1,1.065229000E1
6.653867333E0,-7.258942841E0,7.271024943E0,-5.181732345E-1,1.028730083E1
6.663806333E0,-7.291332908E0,7.076481646E0,-3.372650599E-1,1.016631082E1
6.673744333E0,-6.999870257E0,6.865182568E0,-2.298728315E-1,9.807229825E0
6.683683333E0,-6.470303138E0,6.563591956E0,-5.957377195E-2,9.216784206E0
6.693622333E0,-5.868931042E0,6.345698973E0,-1.543547988E-2,8.643638429E0
6.703560333E0,-5.247711741E0,6.151424648E0,-2.075105938E-1,8.088359807E0
6.713499333E0,-4.177490013E0,5.685737191E0,-5.626353892E-1,7.077823733E0
6.723438333E0,-2.798881454E0,4.794580010E0,-1.205309878E0,5.681065637E0
6.733376333E0,-1.172073208E0,3.546798808E0,-2.116780944E0,4.293518249E0
6.743315333E0,8.302098978E-1,1.320021797E0,-3.198201259E0,3.558117103E0
6.753254333E0,3.708410586E0,-2.971367884E0,-4.632627339E0,6.636457808E0
6.763192333E0,8.826008915E0,-1.091404553E1,-6.237452978E0,1.535970842E1
6.773131333E0,1.628444648E1,-2.346039979E1,-7.378781526E0,2.949610096E1
6.783070333E0,1.532209535E1,-2.972069550E1,-6.102787508E0,3.399015096E1
6.793009333E0,9.885410371E0,-2.884257234E1,-2.235716819E0,3.057145314E1
6.802947333E0,1.154010691E1,-3.050058542E1,2.556763164E0,3.271080581E1
6.812886333E0,1.139855518E1,-2.944675578E1,7.306483043E0,3.241023265E1
6.822825333E0,1.043928320E1,-2.475485405E1,1.094406631E1,2.900955049E1
6.832763333E0,1.162382851E1,-2.084608862E1,1.309212050E1,2.722271880E1
6.842702333E0,1.295453902E1,-1.811558860E1,1.405225553E1,2.633363850E1
6.852641333E0,1.290369982E1,-1.493299356E1,1.406139823E1,2.423267806E1
6.862579333E0,1.189739985E1,-1.184283598E1,1.233836178E1,2.083353207E1
6.872518333E0,9.825298655E0,-9.686530194E0,8.135313583E0,1.601713732E1
6.882457333E0,7.011676371E0,-8.590286602E0,2.393235107E0,1.134390602E1
6.892396333E0,3.712903002E0,-7.135782938E0,-3.487482898E0,8.767416028E0
6.902334333E0,1.048142057E0,-4.867102441E0,-8.687828100E0,1.001327344E1
6.912273333E0,-2.116738844E-1,-1.673943821E0,-1.192541153E1,1.204418257E1
6.922212333E0,-7.747478878E-1,1.982251130E0,-1.243315567E1,1.261399674E1
6.932150333E0,-7.784561920E-1,5.343199112E0,-1.152183787E1,1.272432783E1
6.942089333E0,-7.629218942E-1,7.828163438E0,-1.027359298E1,1.293865934E1
6.952028333E0,-1.052252065E0,9.287274708E0,-8.998657898E0,1.297445759E1
6.961966333E0,-1.465812764E0,9.862987468E0,-7.756549079E0,1.263294037E1
6.971905333E0,-2.094519424E0,9.796633265E0,-6.669621856E0,1.203515229E1
6.981844333E0,-3.260665895E0,9.778599867E0,-5.728273931E0,1.179262819E1
6.991783333E0,-4.836409822E0,1.011441072E1,-4.891888204E0,1.223203722E1
7.001721333E0,-6.309890624E0,1.065865552E1,-4.130330465E0,1.305684828E1
7.011660333E0,-7.137696732E0,1.118484178E1,-3.265866408E0,1.366430693E1
7.021599333E0,-7.614637740E0,1.148774626E1,-2.396104774E0,1.398900784E1
7.031537333E0,-7.781001551E0,1.147024087E1,-1.632245572E0,1.395616840E1
7.041476333E0,-7.668311087E0,1.104006706E1,-1.069942231E0,1.348446707E1
7.051415333E0,-7.339191783E0,1.068753726E1,-6.332769171E-1,1.298030155E1
7.061353333E0,-7.103743120E0,1.054953011E1,-3.659421444E-1,1.272358697E1
7.071292333E0,-7.068084460E0,1.028489214E1,-3.243029523E-1,1.248366920E1
7.081231333E0,-7.223673021E0,9.930535673E0,-2.986922208E-1,1.228357471E1
7.091170333E0,-7.269570156E0,9.388316934E0,-2.883319779E-1,1.187730106E1
7.101108333E0,-7.188307891E0,8.873160862E0,-3.907716879E-1,1.142617419E1
7.111047333E0,-7.104474607E0,8.554493456E0,-5.160775924E-1,1.113190252E1
7.120986333E0,-6.895186386E0,8.418147497E0,-8.230213308E-1,1.091266084E1
7.130924333E0,-6.515871660E0,8.320024202E0,-1.115259322E0,1.062653234E1
7.140863333E0,-5.940221465E0,8.132911547E0,-1.208207831E0,1.014348300E1
7.150802333E0,-5.119063057E0,7.906638919E0,-1.144929264E0,9.488446058E0
7.160740333E0,-4.229733716E0,7.678991611E0,-9.890074110E-1,8.822454031E0
7.170679333E0,-3.282830643E0,7.541931707E0,-8.608820522E-1,8.270358445E0
7.180618333E0,-2.040899287E0,7.418412784E0,-1.087147079E0,7.770457317E0
7.190557333E0,-7.532000211E-1,6.979959319E0,-1.804112781E0,7.248583675E0
7.200495333E0,4.122231486E-1,5.848349428E0,-2.530732237E0,6.385743857E0
7.210434333E0,1.857912428E0,3.713416972E0,-3.424615974E0,5.382313515E0
7.220373333E0,3.909038495E0,5.100836116E-1,-4.431570829E0,5.931238257E0
7.230311333E0,7.315921619E0,-4.488467161E0,-5.421951166E0,1.015217223E1
7.240250333E0,1.392143811E1,-1.392852143E1,-6.414802537E0,2.071134568E1
7.250189333E0,2.030325650E1,-2.518079330E1,-6.747068228E0,3.304266190E1
7.260127333E0,1.612104019E1,-2.597229112E1,-4.920291638E0,3.096218844E1
7.270066333E0,1.464095320E1,-2.513260991E1,-2.576699831E0,2.920008516E1
7.280005333E0,1.887316555E1,-2.711712215E1,-6.428665701E-1,3.304463601E1
7.289943958E0,1.945419869E1,-2.481488156E1,2.609035226E0,3.163939409E1
7.299881958E0,1.896372723E1,-1.990308008E1,5.805915014E0,2.809740551E1
7.309820958E0,1.964959393E1,-1.714028238E1,7.243022627E0,2.706209893E1
7.319759958E0,1.904448663E1,-1.481736136E1,9.652423970E0,2.598876598E1
7.329697958E0,1.633781869E1,-1.058926895E1,1.299140221E1,2.340584260E1
7.339636958E0,1.292156540E1,-6.475773209E0,1.486493898E1,2.073328006E1
7.349575958E0,9.939767257E0,-4.928271334E0,1.324784705E1,1.727982300E1
7.359513958E0,7.792778428E0,-5.295789887E0,9.008473034E0,1.303554266E1
7.369452958E0,5.848983266E0,-5.641317648E0,3.388569059E0,8.804400622E0
7.379391958E0,4.621184338E0,-5.246922952E0,-2.759126819E0,7.516536833E0
7.389329958E0,4.366629898E0,-3.381826050E0,-8.146213378E0,9.842001651E0
7.399268958E0,3.831275790E0,1.226190358E-1,-1.152010242E1,1.214110659E1
7.409207958E0,2.364299430E0,3.853071871E0,-1.299441352E1,1.375830140E1
7.419146958E0,5.144128901E-1,7.052830828E0,-1.371656688E1,1.543214989E1
7.429084958E0,-2.290218131E0,9.549422927E0,-1.457226245E1,1.757234789E1
7.439023958E0,-5.115593904E0,1.045662019E1,-1.466981856E1,1.872735388E1
7.448962958E0,-6.709753051E0,9.752707227E0,-1.367526682E1,1.808726090E1
7.458900958E0,-7.731080947E0,8.609016988E0,-1.166617756E1,1.643120461E1
7.468839958E0,-8.834845812E0,7.731947504E0,-8.764665191E0,1.465117294E1
7.478778958E0,-1.053832918E1,7.356555675E0,-3.619008998E0,1.335187326E1
7.488717958E0,-1.040394262E1,6.900467591E0,-2.049975336E0,1.265151667E1
7.498655958E0,-9.840599649E0,6.645615528E0,-1.102593230E0,1.192549031E1
7.508594958E0,-9.892023572E0,6.690069569E0,1.935535093E-1,1.194347622E1
7.518533958E0,-9.444758352E0,6.515538368E0,8.288007188E-1,1.150402587E1
7.528471958E0,-9.240004063E0,6.513380161E0,1.249177079E0,1.137375222E1
7.538410958E0,-8.922710168E0,6.361412196E0,1.480051758E0,1.105770659E1
7.548349958E0,-8.820269288E0,6.154876260E0,1.612303204E0,1.087562291E1
7.558287958E0,-8.740123842E0,6.181735445E0,1.745116860E0,1.084661471E1
7.568226958E0,-8.504588640E0,6.178741670E0,1.909872686E0,1.068421688E1
7.578165958E0,-8.194861627E0,6.090212486E0,2.086272658E0,1.042108338E1
7.588104958E0,-7.910212737E0,5.987820724E0,2.051187902E0,1.013078646E1
7.598042958E0,-7.635083699E0,5.934284202E0,1.817479516E0,9.839383308E0
7.607981958E0,-7.377737798E0,5.850388936E0,1.570248860E0,9.545875927E0
7.617920958E0,-7.076258867E0,5.683160908E0,1.445338154E0,9.190253524E0
7.627858958E0,-6.663126184E0,5.392084758E0,1.360413194E0,8.678856644E0
7.637797958E0,-6.287610394E0,5.003902729E0,1.105606738E0,8.111439653E0
7.647736958E0,-5.953506339E0,4.907094473E0,6.425585680E-1,7.741879320E0
7.657674958E0,-5.312284298E0,4.589301810E0,2.529856324E-2,7.020163501E0
7.667613958E0,-4.158978898E0,3.440079521E0,-5.973386872E-1,5.430291529E0
7.677552958E0,-3.106323375E0,1.341751805E0,-1.327669809E0,3.634865876E0
7.687491958E0,-2.313950225E0,-1.154453793E0,-2.276841602E0,3.445451623E0
7.697429958E0,-5.211354339E-1,-4.860137823E0,-3.072711825E0,5.773567334E0
7.707368958E0,2.854852172E0,-1.161918700E1,-3.617337863E0,1.249963282E1
7.717307958E0,8.749671761E0,-2.262494260E1,-3.325733418E0,2.448479704E1
7.727245958E0,1.020493966E1,-2.968232139E1,-1.345332932E0,3.141641159E1
7.737184958E0,4.708252888E0,-2.518337777E1,1.157364829E0,2.564585063E1
7.747123958E0,6.327018873E0,-2.166369776E1,2.499063132E0,2.270665729E1
7.757061958E0,1.168076870E1,-2.155148268E1,2.921404595E0,2.468686630E1
7.767000958E0,1.399566384E1,-1.986373534E1,2.641117144E0,2.444221937E1
7.776939958E0,1.528402296E1,-1.690201302E1,1.406790385E0,2.283108541E1
7.786878958E0,1.623758338E1,-1.431933178E1,3.275984430E-1,2.165201370E1
7.796816958E0,1.633896124E1,-1.297368515E1,6.002371520E-1,2.087195355E1
7.806755958E0,1.461706615E1,-1.210673953E1,1.968389136E0,1.908157019E1
7.816694958E0,1.086600481E1,-1.095975789E1,2.326001629E0,1.560758268E1
7.826632958E0,6.953348640E0,-1.039417193E1,5.957166696E-1,1.251969431E1
7.836571958E0,3.838905821E0,-9.732792780E0,-2.115891875E0,1.067433612E1
7.846510958E0,1.371576698E0,-7.884937563E0,-5.562457420E0,9.746506839E0
7.856448958E0,1.497256751E0,-5.054129727E0,-1.003942954E1,1.133914241E1
7.866387958E0,4.243242538E0,-1.933926816E0,-1.395845917E1,1.471678506E1
7.876326958E0,7.010535579E0,1.350340780E0,-1.590358691E1,1.743258747E1
7.886265958E0,8.551252930E0,4.608293567E0,-1.575718784E1,1.851078780E1
7.896203958E0,7.647063475E0,8.234107554E0,-1.397691298E1,1.793410727E1
7.906142958E0,5.694990994E0,1.131551419E1,-1.127614021E1,1.695951420E1
7.916081958E0,3.372896183E0,1.230795158E1,-8.643115611E0,1.541316152E1
7.926019958E0,4.155218554E-1,1.128216050E1,-6.266756884E0,1.291247636E1
7.935958958E0,-2.492918878E0,9.652833275E0,-3.908473070E0,1.070831436E1
7.945897958E0,-4.196851314E0,8.752804114E0,-3.263717557E0,1.024094688E1
7.955835958E0,-5.902021020E0,8.749797476E0,-2.406375993E0,1.082513064E1
7.965774958E0,-7.497284707E0,9.070873350E0,-1.568585765E0,1.187225685E1
7.975713958E0,-8.491048243E0,9.162935421E0,-1.006825047E0,1.253279628E1
7.985652958E0,-9.090994788E0,8.878723319E0,-5.588803438E-1,1.271968008E1
7.995590958E0,-9.421126245E0,8.454688502E0,-1.575403619E-1,1.265954961E1
8.005529958E0,-9.536426906E0,8.191284301E0,6.843654290E-3,1.257142090E1
8.015468958E0,-9.597456635E0,7.997388291E0,1.562903003E-1,1.249375124E1
8.025406958E0,-9.719097431E0,7.780518571E0,3.658860111E-1,1.245516747E1
8.035345958E0,-9.772392463E0,7.447685115E0,7.042281282E-1,1.230705510E1
8.045284958E0,-9.824302289E0,7.033245580E0,1.130981388E0,1.213517935E1
8.055222958E0,-9.952120085E0,6.745050353E0,1.465149982E0,1.211144347E1
8.065161958E0,-1.022316309E1,6.516398494E0,1.572064859E0,1.222488858E1
8.075100958E0,-1.031616656E1,6.408418547E0,1.602241169E0,1.224982847E1
8.085039958E0,-1.013429360E1,6.274288098E0,1.528728805E0,1.201697173E1
8.094977958E0,-9.688575550E0,6.080153521E0,1.400842012E0,1.152385011E1
8.104916958E0,-8.996168738E0,5.983021914E0,1.224535523E0,1.087322815E1
8.114855958E0,-8.101760505E0,5.887721069E0,9.874368489E-1,1.006373759E1
8.124793958E0,-7.242951291E0,5.743705902E0,8.064106337E-1,9.279051622E0
8.134732958E0,-6.070371714E0,5.596574169E0,6.117473960E-1,8.279208299E0
8.144671958E0,-4.580793527E0,5.315191534E0,3.418329779E-1,7.025082217E0
8.154609958E0,-3.067864484E0,4.833294425E0,9.490381837E-2,5.725516066E0
8.164548958E0,-1.614851274E0,3.976389649E0,-2.397883205E-1,4.298478535E0
8.174487958E0,2.171381074E-1,2.477205656E0,-7.436209662E-1,2.595509383E0
8.184426958E0,3.044461588E0,-5.615145510E-1,-1.532738825E0,3.454465698E0
8.194364958E0,7.260474227E0,-6.419047031E0,-2.296562798E0,9.959560807E0
8.204303958E0,1.276183234E1,-1.478762242E1,-2.367325948E0,1.967593387E1
8.214242958E0,1.318003339E1,-1.793288065E1,-1.589525814E0,2.231206133E1
8.224180958E0,9.972285962E0,-1.523901694E1,-1.368342018E-1,1.821243664E1
8.234119958E0,1.243953147E1,-1.467675102E1,7.598360261E-1,1.925425445E1
8.244058958E0,1.720680732E1,-1.554148288E1,3.147716984E-1,2.318859611E1
8.253996958E0,2.032370071E1,-1.525199659E1,-5.524671543E-1,2.541616475E1
8.263935958E0,2.173939114E1,-1.416165226E1,-8.611124325E-1,2.595948837E1
8.273874958E0,2.221793896E1,-1.326974605E1,-1.110970974E-1,2.587924486E1
8.283813958E0,2.167037996E1,-1.336483347E1,2.133261029E0,2.554946074E1
8.293751958E0,1.942615545E1,-1.336683088E1,5.427781425E0,2.419728279E1
8.303690958E0,1.607448115E1,-1.267734124E1,7.956497542E0,2.196382886E1
8.313629958E0,1.235795346E1,-1.182779694E1,8.626232945E0,1.915796672E1
8.323567958E0,8.651744347E0,-1.087900434E1,7.266637777E0,1.568468808E1
8.333506958E0,5.673473241E0,-9.554260329E0,4.791209383E0,1.210073867E1
8.343445958E0,3.666459153E0,-7.748630780E0,2.200980849E0,8.850340015E0
8.353383958E0,2.458379375E0,-5.554099994E0,5.174493492E-3,6.073852375E0
8.363322958E0,1.496138179E0,-3.228867567E0,-1.879609691E0,4.024543179E0
8.373261958E0,7.377221489E-1,-9.922771740E-1,-3.496953049E0,3.709114259E0
8.383200958E0,1.518252933E-1,1.380709464E0,-4.607901803E0,4.812709068E0
8.393138958E0,-5.021647274E-1,3.792768951E0,-5.535440944E0,6.728920581E0
8.403077958E0,-1.332389243E0,6.079933666E0,-6.320743057E0,8.870887626E0
8.413016958E0,-2.333871104E0,7.873886910E0,-6.518725101E0,1.048517174E1
8.422954958E0,-3.411646850E0,9.050391723E0,-6.281889478E0,1.153304210E1
8.432893958E0,-4.503863465E0,9.548438256E0,-5.725951416E0,1.201016148E1
8.442832958E0,-5.513779934E0,9.573602334E0,-4.991148198E0,1.212300256E1
8.452770958E0,-6.286440366E0,9.321611313E0,-4.252130306E0,1.202049841E1
8.462709958E0,-6.908441439E0,9.007127005E0,-3.474001558E0,1.187112408E1
8.472648958E0,-7.465225593E0,8.766635703E0,-2.754684105E0,1.183941634E1
8.482587958E0,-7.964885373E0,8.646202356E0,-2.236997359E0,1.196663576E1
8.492525958E0,-8.360294561E0,8.595747902E0,-1.864968263E0,1.213505310E1
8.502464958E0,-8.607980277E0,8.412335365E0,-1.552008909E0,1.213562699E1
8.512403958E0,-8.694506205E0,8.146949542E0,-1.522179338E0,1.201183812E1
8.522341958E0,-8.796930127E0,7.946002960E0,-1.692980601E0,1.197460338E1
8.532280958E0,-8.941021893E0,7.797550925E0,-1.953679295E0,1.202333297E1
8.542219958E0,-8.979204211E0,7.618953570E0,-2.253128657E0,1.198962679E1
8.552158958E0,-8.995429065E0,7.400533168E0,-2.516143434E0,1.191707233E1
8.562096958E0,-8.956718159E0,7.165973282E0,-2.740384739E0,1.179337449E1
8.572035958E0,-8.823368897E0,7.024968261E0,-2.914578556E0,1.164889634E1
8.581974958E0,-8.548508247E0,6.892765639E0,-3.020516070E0,1.138906180E1
8.591912958E0,-8.286697412E0,6.806439686E0,-3.097394677E0,1.116202620E1
8.601851958E0,-7.969809313E0,6.829538527E0,-3.124280759E0,1.095087153E1
8.611790958E0,-7.602305962E0,6.767336431E0,-3.088810380E0,1.063638321E1
8.621728958E0,-7.176167318E0,6.656203081E0,-2.915960253E0,1.021299373E1
8.631667958E0,-6.496609762E0,6.464802078E0,-2.791685870E0,9.580872314E0
8.641606958E0,-5.284980140E0,6.044386688E0,-2.876903776E0,8.528903848E0
8.651545958E0,-3.874672655E0,5.179380594E0,-3.069021063E0,7.159466587E0
8.661483958E0,-2.062614677E0,3.515722026E0,-3.608596276E0,5.443955157E0
8.671422958E0,7.958803099E-1,1.914793557E-1,-4.633202705E0,4.704960905E0
8.681361958E0,5.220138026E0,-6.361698709E0,-5.717519732E0,1.002053309E1
8.691299958E0,1.176927917E1,-1.684963483E1,-6.029302626E0,2.141911801E1
8.701238958E0,1.222787279E1,-2.232472549E1,-4.151554103E0,2.579049520E1
8.711177958E0,7.549597991E0,-2.030231393E1,-5.055666375E-1,2.166647130E1
8.721115958E0,1.042444413E1,-2.054692869E1,1.095263014E0,2.306609883E1
8.731054958E0,1.668796984E1,-2.231478055E1,1.526105744E-1,2.786505084E1
8.740993958E0,2.013560280E1,-2.137374837E1,-1.932867301E0,2.942814292E1
8.750932958E0,2.080511835E1,-1.848923503E1,-4.620552839E0,2.821443372E1
8.760870958E0,2.062006333E1,-1.561980984E1,-6.453319316E0,2.666103526E1
8.770809958E0,2.037330615E1,-1.308458344E1,-6.448463788E0,2.505714693E1
8.780748958E0,2.018391249E1,-1.096437836E1,-5.841286576E0,2.370081318E1
8.790686958E0,1.952390335E1,-9.758805873E0,-4.313985661E0,2.224921496E1
8.800625958E0,1.737131523E1,-8.688047955E0,-1.365959862E0,1.947076312E1
8.810564958E0,1.413351311E1,-7.451837223E0,1.619509020E0,1.605954173E1
8.820502958E0,1.040638091E1,-6.166753124E0,3.429892502E0,1.257321639E1
8.830441958E0,6.522477844E0,-4.671503722E0,4.094882305E0,9.007426122E0
8.840380958E0,3.081924698E0,-3.685200064E0,3.686734373E0,6.055656008E0
8.850319958E0,-2.483622390E-1,-3.154583369E0,2.723413196E0,4.174932271E0
8.860257958E0,-3.592683663E0,-2.722579967E0,1.203761462E0,4.665711011E0
8.870196958E0,-7.002404441E0,-1.950328256E0,-7.573990528E-1,7.308289922E0
8.880135958E0,-9.855032916E0,-7.239379227E-1,-2.975402462E0,1.031982460E1
8.890073958E0,-1.130111484E1,9.109055668E-1,-5.017191696E0,1.239827238E1
8.900012958E0,-1.147643541E1,2.842051447E0,-6.263294163E0,1.337963676E1
8.909951958E0,-1.102225410E1,4.749375771E0,-6.291510487E0,1.355100587E1
8.919890958E0,-1.046905371E1,6.331603675E0,-5.520624100E0,1.342265179E1
8.929828958E0,-1.010547501E1,7.456060667E0,-4.838386765E0,1.345821133E1
8.939767958E0,-1.002102835E1,8.070245183E0,-4.586761487E0,1.365973087E1
8.949706958E0,-1.016830334E1,8.026374108E0,-4.609827291E0,1.375018479E1
8.959644958E0,-1.061589718E1,7.730890328E0,-4.560752195E0,1.390195665E1
8.969583958E0,-1.117921442E1,7.459576598E0,-4.486594590E0,1.416861493E1
8.979522958E0,-1.176401668E1,7.114401425E0,-4.509246996E0,1.446859027E1
8.989460958E0,-1.223523209E1,6.737044346E0,-4.520234499E0,1.468064000E1
8.999399958E0,-1.267354990E1,6.436668785E0,-4.420081343E0,1.488578823E1
9.009338958E0,-1.293643838E1,6.211853283E0,-4.215961476E0,1.495703481E1
9.019277958E0,-1.292472290E1,6.011077439E0,-4.052808372E0,1.481913526E1
9.029215958E0,-1.274734294E1,5.933952080E0,-3.934266015E0,1.460085574E1
9.039154958E0,-1.233887633E1,5.893095830E0,-3.855009930E0,1.420695425E1
9.049093958E0,-1.172747977E1,5.875670543E0,-3.730171876E0,1.363713563E1
9.059031958E0,-1.106261159E1,5.911782947E0,-3.455461791E0,1.301041002E1
9.068970958E0,-1.046658151E1,5.973588601E0,-3.079328827E0,1.243846274E1
9.078909958E0,-9.957824628E0,6.056239579E0,-2.534439372E0,1.192726675E1
9.088847958E0,-9.472716229E0,6.075176371E0,-2.079891445E0,1.144404077E1
9.098786958E0,-8.953199304E0,5.951397248E0,-1.679722770E0,1.088119366E1
9.108725958E0,-8.337764654E0,5.652543717E0,-1.387533749E0,1.016832434E1
9.118664958E0,-7.532436998E0,5.157976277E0,-1.252681169E0,9.214745602E0
9.128602958E0,-6.331697815E0,4.334221120E0,-1.136591134E0,7.756784730E0
9.138541958E0,-4.880930521E0,3.006445330E0,-1.154223413E0,5.847600189E0
9.148480958E0,-3.058450466E0,1.007995074E0,-1.443481663E0,3.528995981E0
9.158418958E0,-5.308733869E-1,-2.399596147E0,-2.070313121E0,3.213422574E0
9.168357958E0,3.029264674E0,-8.216595143E0,-2.602398051E0,9.135718682E0
9.178296958E0,7.355114336E0,-1.612776215E1,-2.538219012E0,1.790656233E1
9.188235958E0,7.957200962E0,-2.016609018E1,-1.970545589E0,2.176858494E1
9.198173958E0,7.218732124E0,-2.053413966E1,-1.180649831E0,2.179804852E1
9.208112958E0,1.130552598E1,-2.317161282E1,-7.975065668E-1,2.579485559E1
9.218051958E0,1.553948781E1,-2.481936755E1,-1.014116232E-1,2.928287847E1
9.227989958E0,1.862793800E1,-2.406155437E1,1.127419192E0,3.045044411E1
9.237928958E0,2.102381824E1,-2.215154734E1,2.465841300E0,3.063939223E1
9.247867958E0,2.199034194E1,-2.015030036E1,2.780940150E0,2.995569013E1
9.257805958E0,2.214453536E1,-1.857007396E1,1.968581217E0,2.896728163E1
9.267744958E0,2.174470743E1,-1.612601266E1,1.883907687E0,2.713723814E1
9.277683958E0,2.031062867E1,-1.237556176E1,1.915275660E0,2.386093977E1
9.287622333E0,1.856237785E1,-9.381636490E0,1.192981974E0,2.083267099E1
9.297561333E0,1.632412451E1,-7.106349224E0,1.107272025E0,1.783825361E1
9.307500333E0,1.363511750E1,-4.938027413E0,1.670044605E0,1.459758860E1
9.317439333E0,1.064474851E1,-2.898698103E0,2.071152927E0,1.122509670E1
9.327377333E0,7.300832879E0,-1.368102867E0,1.274646527E0,7.536483925E0
9.337316333E0,4.042202400E0,-4.726707870E-1,-8.036155915E-1,4.148326884E0
9.347255333E0,1.038464915E0,1.237691832E-1,-3.599075840E0,3.747942781E0
9.357193333E0,-1.393078664E0,6.565879387E-1,-6.455541258E0,6.636700145E0
9.367132333E0,-3.108630102E0,1.944558223E0,-8.119684560E0,8.909217988E0
9.377071333E0,-3.844666498E0,4.033743818E0,-8.844888990E0,1.045392801E1
9.387010333E0,-4.217645767E0,5.482699644E0,-9.873025968E0,1.205508909E1
9.396948333E0,-4.876441614E0,6.579454283E0,-1.059188032E1,1.338868292E1
9.406887333E0,-5.515321845E0,7.563782752E0,-1.036397574E1,1.396572868E1
9.416826333E0,-6.269606817E0,8.122583025E0,-9.355464352E0,1.388556941E1
9.426764333E0,-7.555065722E0,8.201931496E0,-6.805767256E0,1.306404096E1
9.436703333E0,-8.417711880E0,7.860810782E0,-5.134651734E0,1.261010975E1
9.446642333E0,-8.909821735E0,7.311774774E0,-3.952324848E0,1.218473822E1
9.456580333E0,-9.678706620E0,6.940624514E0,-2.581192539E0,1.218655757E1
9.466519333E0,-1.040114181E1,6.515367045E0,-1.288485425E0,1.234074363E1
9.476458333E0,-1.106869035E1,6.308321232E0,-2.015394902E-1,1.274172049E1
9.486397333E0,-1.172804578E1,6.428691428E0,3.836136726E-1,1.337992118E1
9.496335333E0,-1.225012261E1,6.463216898E0,7.034213586E-1,1.386843460E1
9.506274333E0,-1.258123056E1,6.420313538E0,8.832323031E-1,1.415231032E1
9.516213333E0,-1.276805260E1,6.335372790E0,1.016973547E0,1.428965888E1
9.526151333E0,-1.294646402E1,6.182481549E0,1.133012492E0,1.439158525E1
9.536090333E0,-1.324313888E1,6.151492476E0,1.266011066E0,1.465688818E1
9.546029333E0,-1.324982107E1,6.109338144E0,1.206049039E0,1.464022969E1
9.555968333E0,-1.299563442E1,5.979960896E0,8.570522721E-1,1.433111946E1
9.565906333E0,-1.254636361E1,5.979169183E0,6.577369896E-1,1.391381766E1
9.575845333E0,-1.190898553E1,6.009185280E0,5.488278472E-1,1.335048524E1
9.585784333E0,-1.117793037E1,6.022844376E0,5.413352982E-1,1.270880898E1
9.595722333E0,-1.046965480E1,5.949669396E0,6.372096813E-1,1.205894995E1
9.605661333E0,-9.596167908E0,5.724989550E0,8.396834104E-1,1.120566875E1
9.615600333E0,-8.655862541E0,5.236386854E0,1.220535955E0,1.018986809E1
9.625538333E0,-7.627623821E0,4.437383546E0,1.510910000E0,8.952869201E0
9.635477333E0,-6.461056352E0,3.455778126E0,1.568841873E0,7.493258067E0
9.645416333E0,-5.160765399E0,2.268324401E0,1.451253197E0,5.821076441E0
9.655355333E0,-3.584656021E0,4.896698123E-1,1.046722938E0,3.766319719E0
9.665293333E0,-9.833163160E-1,-2.504161320E0,2.613741211E-1,2.702970833E0
9.675232333E0,3.615405359E0,-7.980648882E0,-1.208233559E0,8.844305559E0
9.685171333E0,1.020917538E1,-1.671442499E1,-3.069881188E0,1.982481866E1
9.695109333E0,1.279196772E1,-2.219901036E1,-5.511592491E0,2.620702484E1
9.705048333E0,1.084346145E1,-2.108780082E1,-7.222265596E0,2.478784218E1
9.714987333E0,1.319440584E1,-2.139692440E1,-8.158865583E0,2.642891989E1
9.724926333E0,1.706183614E1,-2.287949528E1,-8.313719734E0,2.972701621E1
9.734864333E0,1.842473206E1,-2.182193511E1,-6.076207820E0,2.919910795E1
9.744803333E0,1.888954828E1,-1.909586261E1,-2.375550788E0,2.696498182E1
9.754742333E0,1.956385270E1,-1.697271755E1,9.714612325E-1,2.591835663E1
9.764680333E0,2.051920353E1,-1.616315885E1,3.568669149E0,2.636324747E1
9.774619333E0,2.015314445E1,-1.471767569E1,6.258652643E0,2.572799917E1
9.784558333E0,1.819531304E1,-1.151556849E1,8.814667071E0,2.326748998E1
9.794496333E0,1.575182711E1,-8.209346935E0,1.041093356E1,2.058885553E1
9.804435333E0,1.329343429E1,-5.160694063E0,1.080798172E1,1.789303292E1
9.814374333E0,1.079563474E1,-2.724950429E0,9.821163504E0,1.484676183E1
9.824313333E0,8.315707203E0,-1.302715793E0,7.673125684E0,1.138968448E1
9.834251333E0,5.795166662E0,-6.258847940E-1,4.954977322E0,7.650326050E0
9.844190333E0,3.334228545E0,-3.505721533E-1,1.568760012E0,3.701484676E0
9.854129333E0,1.010373722E0,5.656830311E-2,-2.202002943E0,2.423400914E0
9.864067333E0,-7.106840390E-1,1.202872832E0,-5.987890306E0,6.148723865E0
9.874006333E0,-1.791222594E0,3.016837587E0,-8.989180731E0,9.649619558E0
9.883945333E0,-2.218724225E0,5.067426880E0,-1.026869770E1,1.166394893E1
9.893883333E0,-2.013702133E0,7.185979530E0,-1.034871801E1,1.275888955E1
9.903822333E0,-1.737490191E0,8.986861140E0,-1.008467412E1,1.361922162E1
9.913761333E0,-1.817657272E0,1.029530253E1,-9.495600477E0,1.412315689E1
9.923700333E0,-2.179263121E0,1.100183329E1,-8.711405243E0,1.420134165E1
9.933638333E0,-2.697301285E0,1.109037417E1,-7.772684471E0,1.380892672E1
9.943577333E0,-3.254418145E0,1.052650377E1,-6.302398002E0,1.269325568E1
9.953516333E0,-3.885429193E0,9.483393245E0,-4.587334807E0,1.122831012E1
9.963454333E0,-4.587377492E0,8.236359317E0,-2.957936829E0,9.880841934E0
9.973393333E0,-5.273542986E0,7.222198938E0,-1.459911754E0,9.061001901E0
9.983332333E0,-5.803031752E0,6.672122710E0,-2.174696445E-2,8.842673346E0
9.993271333E0,-6.199506887E0,6.311792139E0,1.088633441E0,8.913906462E0
1.000320933E1,-6.345767970E0,6.105068507E0,1.917538240E0,9.012079977E0
1.001314833E1,-6.246524348E0,6.141869713E0,2.347883956E0,9.069409522E0
1.002308733E1,-6.032015149E0,6.165511760E0,2.279864612E0,8.921688443E0
1.003302533E1,-5.900972614E0,5.949524969E0,1.747429873E0,8.559896981E0
1.004296433E1,-5.720961403E0,5.515496092E0,1.063588720E0,8.017563063E0
1.005290333E1,-5.029813496E0,4.909219936E0,5.418322019E-1,7.049329494E0
1.006284133E1,-4.210320375E0,4.272895230E0,3.799052954E-2,5.998822767E0
1.007278033E1,-3.208128077E0,3.711871261E0,-4.117445175E-1,4.923373596E0
1.008271933E1,-1.656500992E0,3.050500007E0,-5.036686313E-1,3.507595746E0
1.009265833E1,6.291902250E-1,2.283588558E0,-2.597583161E-1,2.382883007E0
1.010259633E1,3.267861478E0,1.477284417E0,-2.335670292E-2,3.586339837E0
1.011253533E1,5.988628224E0,2.032892695E-1,4.780829698E-1,6.011119518E0
1.012247433E1,8.426240044E0,-1.910365168E0,1.400004691E0,8.752772674E0
1.013241233E1,1.011495101E1,-4.938350764E0,2.404226411E0,1.150998900E1
1.014235133E1,1.029948212E1,-7.496128128E0,3.631668220E0,1.324614219E1
1.015229033E1,1.054186090E1,-8.914593063E0,5.197626246E0,1.475181749E1
1.016222933E1,1.258316481E1,-1.021134587E1,6.562530102E0,1.748354719E1
1.017216733E1,1.437093697E1,-9.511623602E0,6.287114550E0,1.834455293E1
1.018210633E1,1.616384414E1,-8.221376411E0,6.474319006E0,1.925558865E1
1.019204533E1,1.761050377E1,-7.721807848E0,7.640876536E0,2.069152372E1
1.020198333E1,1.747746324E1,-8.269108987E0,8.439995618E0,2.109676304E1
1.021192233E1,1.564059319E1,-9.087927339E0,8.164433886E0,1.984632357E1
1.022186133E1,1.339124651E1,-9.487057695E0,7.427588235E0,1.801385061E1
1.023179933E1,1.134741309E1,-8.730801626E0,7.011847109E0,1.594229220E1
1.024173833E1,1.005102691E1,-6.842088405E0,6.959456642E0,1.400968780E1
1.025167733E1,9.683607171E0,-5.097240663E0,6.564152704E0,1.276096434E1
1.026161633E1,9.460851644E0,-4.029031547E0,5.622279698E0,1.171967739E1
1.027155433E1,8.917760500E0,-3.405841150E0,4.912692597E0,1.073595617E1
1.028149333E1,7.581561211E0,-2.868668557E0,4.240510719E0,9.148292783E0
1.029143221E1,5.471841365E0,-2.386993205E0,2.506357534E0,6.474612928E0
1.030137021E1,3.253651575E0,-1.846037025E0,7.203477323E-2,3.741562545E0
1.031130921E1,1.379287421E0,-1.395169921E0,-2.149780875E0,2.910410745E0
1.032124821E1,-2.568681836E-2,-1.180511910E0,-3.796416444E0,3.975807591E0
1.033118721E1,-8.215642047E-1,-1.096867490E0,-5.097026070E0,5.278045168E0
1.034112521E1,-1.273234132E0,-1.084938585E0,-6.330380437E0,6.547666254E0
1.035106421E1,-1.406123802E0,-1.020038000E0,-7.360715969E0,7.562922797E0
1.036100321E1,-1.232949155E0,-8.748722465E-1,-8.046261658E0,8.187056354E0
1.037094121E1,-8.468057576E-1,-7.204164371E-1,-8.493304099E0,8.565762917E0
1.038088021E1,-6.233304378E-1,-7.566390610E-1,-8.849735162E0,8.903867471E0
1.039081921E1,-6.569218147E-1,-1.033542729E0,-9.279261099E0,9.359724536E0
1.040075821E1,-8.345691432E-1,-1.504871580E0,-9.827499547E0,9.977018165E0
1.041069621E1,-1.010274904E0,-1.971668839E0,-1.039263060E1,1.062614249E1
1.042063521E1,-1.162679802E0,-2.359671358E0,-1.088840432E1,1.120166157E1
1.043057421E1,-1.312201439E0,-2.769992115E0,-1.120528950E1,1.161693770E1
1.044051221E1,-1.471880858E0,-3.167277382E0,-1.122341002E1,1.175427632E1
1.045045121E1,-1.598386100E0,-3.593132145E0,-1.093788112E1,1.162336785E1
1.046039021E1,-1.618891554E0,-3.910875398E0,-1.054009270E1,1.135822655E1
1.047032821E1,-1.649251321E0,-4.141307150E0,-1.014741475E1,1.108334250E1
1.048026721E1,-1.590569688E0,-4.328123644E0,-9.780880866E0,1.081333421E1
1.049020621E1,-1.326757644E0,-4.374430668E0,-9.484719393E0,1.052880959E1
1.050014521E1,-8.538409813E-1,-4.313418189E0,-9.173885502E0,1.017323921E1
1.051008321E1,-2.248134550E-1,-4.292858502E0,-8.700053458E0,9.704128265E0
1.052002221E1,1.843271511E-1,-4.432338276E0,-8.041693228E0,9.184140084E0
1.052996121E1,3.170139594E-1,-4.581472973E0,-7.214179482E0,8.551887397E0
1.053989921E1,2.668428026E-1,-4.537640491E0,-6.426808625E0,7.871801281E0
1.054983821E1,1.248035191E-1,-4.504803697E0,-5.551538914E0,7.150413735E0
1.055977721E1,1.150386689E-1,-4.523181496E0,-4.859160753E0,6.639566850E0
1.056971621E1,2.841426672E-1,-4.518313104E0,-4.446891119E0,6.345922390E0
1.057965421E1,4.187192591E-1,-4.363066020E0,-4.154997529E0,6.039509531E0
1.058959321E1,3.890902479E-1,-4.007308556E0,-3.677073019E0,5.452593793E0
1.059953221E1,6.453045666E-1,-3.268256750E0,-2.486180547E0,4.156803325E0
1.060947021E1,1.068552202E0,-2.191597238E0,-6.702546358E-1,2.528664378E0
1.061940921E1,1.501318227E0,-1.287458069E0,7.656607300E-1,2.120787837E0
1.062934821E1,1.671467525E0,-8.401028019E-1,2.469272153E0,3.097883370E0
1.063928621E1,1.608352240E0,-1.613316965E-1,4.147148811E0,4.451030005E0
1.064922521E1,1.771720376E0,6.532626271E-1,5.012517432E0,5.356405152E0
1.065916421E1,1.919819239E0,1.534234543E0,5.256545715E0,5.802659252E0
1.066910321E1,1.775664908E0,2.509302776E0,5.234254375E0,6.070173403E0
1.067904121E1,1.577401612E0,3.454533253E0,5.680615615E0,6.833109805E0
1.068898021E1,1.678679481E0,4.085747784E0,6.982411056E0,8.262285635E0
1.069891921E1,2.011189731E0,4.127705650E0,8.299672383E0,9.485114640E0
1.070885721E1,2.324490416E0,3.894115232E0,9.041785206E0,1.011539761E1
1.071879621E1,2.241845870E0,3.725226009E0,9.261856862E0,1.023157731E1
1.072873521E1,1.818800402E0,3.597374884E0,9.148982795E0,9.997651082E0
1.073867421E1,1.364530657E0,3.289845840E0,8.637423931E0,9.342918266E0
1.074861221E1,7.601156692E-1,2.711500956E0,7.510193605E0,8.020786822E0
1.075855121E1,2.792197502E-1,2.269165231E0,6.077621677E0,6.493424348E0
1.076849021E1,1.030220926E-1,2.116061152E0,4.656131977E0,5.115456317E0
1.077842821E1,3.658040039E-1,2.003320402E0,3.350071576E0,3.920469968E0
1.078836721E1,8.957951921E-1,1.834283245E0,2.481940146E0,3.213576036E0
1.079830621E1,1.433622673E0,1.686185259E0,2.165430948E0,3.096382709E0
1.080824521E1,1.689393919E0,1.518832100E0,2.142946649E0,3.122999055E0
1.081818321E1,1.491878482E0,1.237688031E0,2.081115267E0,2.844048843E0
1.082812221E1,1.057267953E0,9.126667482E-1,1.706550819E0,2.205241895E0
1.083806121E1,5.498982532E-1,6.448078457E-1,8.793189079E-1,1.221215373E0
1.084799921E1,-2.770301141E-2,3.604814297E-1,-2.980062693E-1,4.685318074E-1
1.085793821E1,-5.652530415E-1,1.104813856E-1,-1.575556231E0,1.677526326E0
1.086787721E1,-9.282555713E-1,-1.181207728E-1,-2.819348463E0,2.970578509E0
1.087781621E1,-1.074512488E0,-3.690704048E-1,-3.953987796E0,4.113977339E0
1.088775421E1,-1.255807383E0,-3.557983947E-1,-4.867905264E0,5.039855785E0
1.089769321E1,-1.107049466E0,-3.373670939E-1,-5.618429891E0,5.736386451E0
1.090763221E1,-7.400436397E-1,-5.104066703E-1,-6.271811217E0,6.335913154E0
1.091757021E1,-4.784730887E-1,-8.474495360E-1,-6.910209637E0,6.978402714E0
1.092750921E1,-5.170766623E-1,-1.202619355E0,-7.463395999E0,7.577330759E0
1.093744821E1,-7.964564800E-1,-1.444467503E0,-7.869673991E0,8.040683927E0
1.094738721E1,-1.033736930E0,-1.560486495E0,-8.010611184E0,8.226397856E0
1.095732521E1,-1.266258404E0,-1.669882345E0,-7.946389461E0,8.218091193E0
1.096726421E1,-1.525022108E0,-1.875072836E0,-7.808801553E0,8.174287263E0
1.097720321E1,-1.541476612E0,-2.082623557E0,-7.657390242E0,8.083878793E0
1.098714121E1,-1.153818493E0,-2.192873977E0,-7.642899672E0,8.034544716E0
1.099708021E1,-6.330762845E-1,-2.196937500E0,-7.514159771E0,7.854292904E0
1.100701921E1,-2.604839556E-1,-2.182289640E0,-7.146847039E0,7.477142674E0
1.101695721E1,-3.108131334E-2,-2.228386164E0,-6.818816487E0,7.173766739E0
1.102689621E1,-1.184625426E-1,-2.294466133E0,-6.546936162E0,6.938370221E0
1.103683521E1,-3.761142531E-1,-2.275701249E0,-6.181130843E0,6.597473501E0
1.104677421E1,-5.934295312E-1,-2.124185858E0,-5.383971162E0,5.818201581E0
1.105671221E1,-7.627608034E-1,-1.859099413E0,-4.046672596E0,4.518142735E0
1.106665121E1,-1.008442825E0,-1.515764943E0,-2.719115492E0,3.272321707E0
1.107659021E1,-1.226499384E0,-8.728349304E-1,-1.521805701E0,2.140568650E0
1.108652821E1,-1.010525896E0,6.018948376E-2,-1.297076154E-1,1.020592683E0
1.109646721E1,-6.249923627E-1,1.107455628E0,1.078451099E0,1.667372242E0
1.110640621E1,-2.680436745E-1,2.355172511E0,2.107938200E0,3.172079510E0
1.111634521E1,1.612125595E-1,3.785794977E0,3.523584777E0,5.174348537E0
1.112628321E1,1.044318855E0,5.116510162E0,5.234126905E0,7.393602814E0
1.113622221E1,2.598192149E0,5.146146190E0,6.731388919E0,8.862562825E0
1.114616121E1,3.683606113E0,3.548051282E0,7.739311488E0,9.276559933E0
1.115609921E1,3.517223591E0,2.404180949E0,8.555049527E0,9.557186837E0
1.116603821E1,2.675890243E0,2.293744002E0,9.077037485E0,9.737261403E0
1.117597721E1,1.790332794E0,2.533934172E0,8.927760408E0,9.451508864E0
1.118591621E1,1.374215108E0,2.428632250E0,8.140805288E0,8.605779018E0
1.119585421E1,1.082235417E0,1.692725662E0,7.216683844E0,7.491133384E0
1.120579321E1,1.169359077E0,1.239959967E0,6.756376410E0,6.968035847E0
1.121573221E1,2.195000756E0,1.298066672E0,6.514763027E0,6.996080525E0
1.122567021E1,3.730085630E0,1.510672603E0,5.915933300E0,7.154993874E0
1.123560921E1,5.064376972E0,1.563843381E0,4.993917439E0,7.282357560E0
1.124554821E1,5.411232051E0,1.265198888E0,4.119154682E0,6.917340228E0
1.125548721E1,4.530591964E0,8.746613082E-1,3.757818974E0,5.950840226E0
1.126542521E1,3.026105424E0,5.486913148E-1,3.888153995E0,4.957430553E0
1.127536421E1,1.445591484E0,2.128558990E-1,3.882000386E0,4.147887338E0
1.128530271E1,-1.562595293E-2,-6.400333017E-2,3.467407653E0,3.468033510E0
1.129524071E1,-1.073682256E0,-1.507251397E-1,2.754773567E0,2.960454199E0
1.130517971E1,-1.684348648E0,-2.698465173E-1,1.706090058E0,2.412590060E0
1.131511871E1,-2.110008553E0,-8.261180162E-2,6.084688622E-1,2.197542982E0
1.132505671E1,-2.036244027E0,2.954074743E-1,-5.220481843E-1,2.122755195E0
1.133499571E1,-1.778724902E0,4.071425030E-1,-1.841908014E0,2.592730689E0
1.134493471E1,-1.607266997E0,3.630889955E-1,-3.143097684E0,3.548831338E0
1.135487371E1,-1.513345657E0,2.972626497E-1,-4.315250414E0,4.582572018E0
1.136481171E1,-1.611102332E0,1.511502323E-1,-5.370113845E0,5.608620136E0
1.137475071E1,-1.819073906E0,1.167513549E-2,-6.264951264E0,6.523709108E0
1.138468971E1,-1.872614959E0,-2.061555746E-1,-6.908420974E0,7.160689021E0
1.139462771E1,-1.907833616E0,-6.205717215E-1,-7.289047816E0,7.560102938E0
1.140456671E1,-1.952124521E0,-1.205175465E0,-7.683013326E0,8.018224979E0
1.141450571E1,-1.903633123E0,-1.678802272E0,-8.039350834E0,8.430501644E0
1.142444471E1,-1.828904976E0,-1.954187126E0,-8.366408994E0,8.784107251E0
1.143438271E1,-1.771219123E0,-2.115987184E0,-8.766148045E0,9.190210580E0
1.144432171E1,-1.688739323E0,-2.284893949E0,-9.178086727E0,9.607801872E0
1.145426071E1,-1.679162168E0,-2.452757570E0,-9.529981520E0,9.982792849E0
1.146419871E1,-1.705467330E0,-2.787923479E0,-9.613546418E0,1.015388649E1
1.147413771E1,-1.729038625E0,-3.172661206E0,-9.672865836E0,1.032568095E1
1.148407671E1,-2.027444990E0,-3.460841814E0,-9.799194345E0,1.058830341E1
1.149401471E1,-2.666127439E0,-3.829598224E0,-9.675019366E0,1.074151096E1
1.150395371E1,-3.362788686E0,-4.300563378E0,-9.448108222E0,1.091191743E1
1.151389271E1,-4.196041767E0,-4.467026591E0,-8.977315561E0,1.086983384E1
1.152383171E1,-5.183298229E0,-4.694510177E0,-8.438939027E0,1.095995886E1
1.153376971E1,-6.208779987E0,-5.116011980E0,-7.930061111E0,1.129638866E1
1.154370871E1,-7.019870659E0,-5.361950548E0,-8.045092215E0,1.194791222E1
1.155364771E1,-8.336852489E0,-5.380417224E0,-8.455128213E0,1.303614943E1
1.156358571E1,-9.499079570E0,-5.376876735E0,-8.632942041E0,1.391657301E1
1.157352471E1,-9.667453068E0,-4.877664267E0,-9.295422803E0,1.427081436E1
1.158346371E1,-7.332744643E0,-4.172005910E0,-1.074177954E1,1.365871901E1
1.159340271E1,-1.992856809E0,-2.531857241E0,-1.194064118E1,1.236772781E1
1.160334071E1,5.125243564E0,-1.475519727E0,-1.017050657E1,1.148409700E1
1.161327971E1,9.363994271E0,-2.485558403E0,-1.451943753E0,9.796454968E0
1.162321871E1,1.084943731E1,-6.508007154E0,4.148573778E0,1.331447000E1
1.163315671E1,1.127367268E1,-1.157562056E1,5.823705168E0,1.717574537E1
1.164309571E1,1.242117940E1,-1.348671751E1,9.467117520E0,2.063500814E1
1.165303471E1,1.524675749E1,-1.304903587E1,1.264592766E1,2.372046453E1
1.166297371E1,1.372968101E1,-1.325598638E1,1.228689809E1,2.269786731E1
1.167291171E1,1.096693711E1,-1.200599200E1,9.303869691E0,1.873444808E1
1.168285071E1,1.043404058E1,-1.067317650E1,5.439243722E0,1.588619752E1
1.169278971E1,1.073956228E1,-9.708820950E0,1.515724597E0,1.455667624E1
1.170272771E1,1.025813061E1,-9.152424467E0,-2.252504175E0,1.393089704E1
1.171266671E1,9.564364318E0,-8.280373063E0,-5.076522224E0,1.363131398E1
1.172260571E1,8.105971670E0,-6.806258422E0,-6.298318985E0,1.231668594E1
1.173254471E1,6.011170410E0,-5.352882101E0,-6.114218230E0,1.010797611E1
1.174248271E1,4.156379811E0,-4.617617537E0,-5.005801905E0,7.978467118E0
1.175242171E1,3.020492681E0,-4.136318014E0,-3.563546988E0,6.239500772E0
1.176236071E1,2.549100680E0,-3.514459320E0,-2.069323772E0,4.809515512E0
1.177229871E1,2.431506157E0,-2.837052078E0,-5.485857725E-1,3.776510695E0
1.178223771E1,2.551626678E0,-2.118110601E0,8.828523072E-1,3.431707944E0
1.179217671E1,2.732482812E0,-1.241637533E0,2.092512660E0,3.658788777E0
1.180211471E1,2.933017166E0,-2.491264701E-1,3.070714417E0,4.253697300E0
1.181205371E1,4.017437103E0,2.744733313E0,4.356104325E0,6.530620700E0
1.182199271E1,7.959891851E0,6.256290953E0,5.383325629E0,1.146652736E1
1.183193171E1,1.157866111E1,5.688040994E0,4.121859604E0,1.354285532E1
1.184186971E1,1.091948110E1,4.894978457E0,1.857532359E0,1.210976086E1
1.185180871E1,7.411639370E0,5.375932410E0,6.534824824E-1,9.179329321E0
1.186174771E1,3.728098161E0,6.756709117E0,4.635368514E-1,7.730892600E0
1.187168571E1,1.449590249E0,8.492346325E0,7.477688348E-1,8.647567070E0
1.188162471E1,9.637351602E-1,9.591373776E0,8.535192382E-1,9.677382470E0
1.189156371E1,1.410682291E0,9.439454343E0,4.382581322E-1,9.554338962E0
1.190150271E1,1.867657982E0,8.987855752E0,-4.046846624E-1,9.188768526E0
1.191144071E1,1.943821474E0,8.858028268E0,-1.067184684E0,9.131373931E0
1.192137971E1,1.779897707E0,8.906085949E0,-1.199910632E0,9.161123747E0
1.193131871E1,1.449045873E0,8.846212800E0,-9.794472134E-1,9.017457052E0
1.194125671E1,8.804105830E-1,8.602648201E0,-6.849475193E-1,8.674666101E0
1.195119571E1,2.714792061E-1,8.328966933E0,-3.810373163E-1,8.342096893E0
1.196113471E1,-6.049061537E-2,7.865728875E0,-1.874406838E-1,7.868194447E0
1.197107371E1,-1.715578920E-1,7.238164176E0,-1.439642966E-1,7.241628164E0
1.198101171E1,-1.507651931E-1,6.501694500E0,-2.775158898E-1,6.509360690E0
1.199095071E1,1.512534356E-1,5.555037303E0,-5.585084975E-1,5.585091654E0
1.200088971E1,8.603160417E-1,3.841659860E0,-9.744431663E-1,4.055617543E0
1.201082771E1,2.223837031E0,1.004923532E0,-1.640657376E0,2.940591619E0
1.202076671E1,4.296769120E0,-3.213358997E0,-2.348347056E0,5.856845124E0
1.203070571E1,6.338664773E0,-8.681226009E0,-2.773458930E0,1.110110042E1
1.204064471E1,6.813762154E0,-1.375424634E1,-3.052590972E0,1.565007855E1
1.205058271E1,4.456986921E0,-1.526814894E1,-3.249674883E0,1.623396105E1
1.206052171E1,3.117313217E0,-1.533783839E1,-3.295923436E0,1.599468786E1
1.207046071E1,6.379326310E0,-1.818195917E1,-3.257973837E0,1.954210421E1
1.208039871E1,1.014851403E1,-2.129776731E1,-2.741174698E0,2.375081616E1
1.209033771E1,1.233394830E1,-2.203322074E1,-1.661673585E0,2.530514288E1
1.210027671E1,1.395045200E1,-2.169005935E1,2.540075795E-1,2.579027540E1
1.211021471E1,1.500611883E1,-2.082118649E1,2.730949087E0,2.581014321E1
1.212015371E1,1.524467354E1,-1.888857413E1,5.160505782E0,2.481550169E1
1.213009271E1,1.478897313E1,-1.589361858E1,6.883162172E0,2.277495904E1
1.214003171E1,1.391270354E1,-1.249284521E1,7.888224868E0,2.029429952E1
1.214996971E1,1.250067113E1,-8.740648922E0,8.498367788E0,1.746104170E1
1.215990871E1,1.070946900E1,-4.879096835E0,8.381911132E0,1.444834753E1
1.216984771E1,8.752637469E0,-1.580574896E0,7.419031420E0,1.158226691E1
1.217978571E1,7.104190432E0,1.101722433E0,6.355370852E0,9.595522533E0
1.218972471E1,5.509414988E0,3.079205158E0,5.132689408E0,8.135088105E0
1.219966371E1,3.835902399E0,4.564094464E0,3.809625889E0,7.075192923E0
1.220960171E1,2.150293676E0,5.662585725E0,2.527902185E0,6.563454079E0
1.221954071E1,6.083700442E-1,6.578866637E0,1.509770962E0,6.777241969E0
1.222947971E1,-1.190551579E0,6.974469368E0,3.850463136E-1,7.085823642E0
1.223941871E1,-3.125074226E0,6.951989747E0,-1.142653454E0,7.707263281E0
1.224935671E1,-4.623501005E0,6.768242165E0,-2.610892886E0,8.602477853E0
1.225929571E1,-5.763171283E0,6.521156373E0,-3.845383952E0,9.514546832E0
1.226923471E1,-6.685256726E0,6.301760071E0,-4.701675940E0,1.032039699E1
1.227917271E1,-7.622223918E0,6.259740225E0,-5.204291487E0,1.115200856E1
1.228911221E1,-8.535512225E0,6.215468616E0,-5.234797581E0,1.178516545E1
1.229905121E1,-9.191542339E0,6.088752437E0,-4.864165969E0,1.205062104E1
1.230899021E1,-9.638507597E0,6.093667021E0,-4.372565407E0,1.221281846E1
1.231892821E1,-1.011688059E1,6.164593747E0,-3.996515765E0,1.250302472E1
1.232886721E1,-1.089690150E1,5.968431941E0,-3.898172615E0,1.302153569E1
1.233880621E1,-1.173014493E1,5.355163684E0,-3.969749551E0,1.349196018E1
1.234874421E1,-1.239186029E1,4.609095805E0,-4.336440724E0,1.391426188E1
1.235868321E1,-1.289427411E1,4.089356686E0,-4.772219088E0,1.434430960E1
1.236862221E1,-1.329875993E1,4.071700433E0,-5.322463716E0,1.489175544E1
1.237856121E1,-1.319140739E1,4.488978792E0,-5.837111664E0,1.510748265E1
1.238849921E1,-1.254572509E1,4.963605473E0,-6.220984880E0,1.485709427E1
1.239843821E1,-1.156506751E1,5.242874925E0,-6.365905781E0,1.420434019E1
1.240837721E1,-1.034484715E1,5.311627656E0,-6.177247707E0,1.316767406E1
1.241831521E1,-9.162798597E0,5.259354132E0,-5.760445311E0,1.203330438E1
1.242825421E1,-8.021346672E0,5.059603305E0,-5.157616088E0,1.079548942E1
1.243819321E1,-6.837538102E0,4.736037102E0,-4.474887587E0,9.444924227E0
1.244813221E1,-5.611001004E0,4.199874324E0,-3.797770075E0,7.971532735E0
1.245807021E1,-4.531776318E0,3.395851182E0,-3.240285132E0,6.524434809E0
1.246800921E1,-3.535980874E0,2.221185318E0,-2.875337307E0,5.069949663E0
1.247794821E1,-2.098563359E0,3.651860994E-1,-2.700572802E0,3.439538125E0
1.248788621E1,1.553768921E-1,-2.408618401E0,-2.455130370E0,3.442854878E0
1.249782521E1,2.707545022E0,-5.776602922E0,-2.915362083E0,7.014219660E0
1.250776421E1,5.418376179E0,-9.077686526E0,-3.033584597E0,1.099844664E1
1.251770321E1,7.161078578E0,-1.069918141E1,-2.843961732E0,1.318490226E1
1.252764121E1,7.600724875E0,-1.098604581E1,-2.590042300E0,1.360781173E1
1.253758021E1,9.006227118E0,-1.291558604E1,-2.574271774E0,1.595466593E1
1.254751921E1,1.150268473E1,-1.634066862E1,-2.357085135E0,2.012175582E1
1.255745721E1,1.308461150E1,-1.883383718E1,-1.175569843E0,2.296306699E1
1.256739621E1,1.413304300E1,-2.060134522E1,5.241105703E-1,2.498865785E1
1.257733521E1,1.470276529E1,-2.206137158E1,2.371410813E0,2.661764475E1
1.258727321E1,1.432418497E1,-2.245583176E1,4.272841144E0,2.697598611E1
1.259721221E1,1.366628199E1,-2.105237605E1,5.997216030E0,2.580574356E1
1.260715121E1,1.324084677E1,-1.848841642E1,7.150206850E0,2.383835193E1
1.261709021E1,1.286462639E1,-1.518364498E1,7.876123470E0,2.140268693E1
1.262702821E1,1.243288903E1,-1.109647983E1,8.122360246E0,1.853864424E1
1.263696721E1,1.213777889E1,-6.902557386E0,8.209688412E0,1.619783809E1
1.264690621E1,1.155454252E1,-2.943611151E0,8.365566995E0,1.456554189E1
1.265684421E1,1.065416720E1,1.203251731E0,8.582533779E0,1.373386251E1
1.266678321E1,9.602333797E0,4.669076543E0,8.327466538E0,1.354074551E1
1.267672221E1,8.037385585E0,7.164224380E0,7.352711130E0,1.303794612E1
1.268666121E1,6.099138261E0,8.427339320E0,5.648689817E0,1.183753489E1
1.269659921E1,4.110588511E0,8.478574378E0,3.527581934E0,1.006116274E1
1.270653821E1,2.121784406E0,7.942778805E0,1.249185119E0,8.315657982E0
1.271647721E1,2.286483514E-1,7.355158190E0,-7.725130820E-1,7.399149176E0
1.272641521E1,-1.120478547E0,6.717783033E0,-2.444874646E0,7.236124175E0
1.273635421E1,-2.341159658E0,5.967851897E0,-3.993568184E0,7.552805549E0
1.274629321E1,-3.780971024E0,5.656686469E0,-5.273436567E0,8.608308598E0
1.275623221E1,-5.232583825E0,5.501120712E0,-5.901016468E0,9.615833710E0
1.276617021E1,-6.300240964E0,5.325680854E0,-5.913854030E0,1.015034887E1
1.277610921E1,-7.035506113E0,5.068330860E0,-5.379498627E0,1.020418196E1
1.278604821E1,-7.887386377E0,4.686310042E0,-4.721406492E0,1.031814154E1
1.279598621E1,-9.099975527E0,4.373641879E0,-4.448552605E0,1.103303758E1
1.280592521E1,-1.065401751E1,4.246312326E0,-4.853172327E0,1.245361551E1
1.281586421E1,-1.164393007E1,4.029267190E0,-6.091752058E0,1.374501891E1
1.282580321E1,-1.158249689E1,3.574133956E0,-8.087719002E0,1.457188616E1
1.283574121E1,-1.084856373E1,3.394987548E0,-1.004540422E1,1.516995127E1
1.284568021E1,-9.765812007E0,3.589006934E0,-1.090804395E1,1.507439809E1
1.285561921E1,-8.732643499E0,4.005652040E0,-1.091235686E1,1.453904546E1
1.286555721E1,-8.063713843E0,4.620987287E0,-1.057662611E1,1.407984461E1
1.287549621E1,-7.587453450E0,5.064666994E0,-9.971300122E0,1.351470043E1
1.288543521E1,-6.947424826E0,5.253409853E0,-9.306486320E0,1.274659619E1
1.289537421E1,-6.166223951E0,5.277959973E0,-8.847492170E0,1.200655225E1
1.290531221E1,-5.264498513E0,4.982048761E0,-8.414333943E0,1.110570890E1
1.291525121E1,-4.313443040E0,4.435508929E0,-7.675936441E0,9.858982227E0
1.292519021E1,-3.450772909E0,3.880813401E0,-6.688876737E0,8.468153183E0
1.293512821E1,-2.409299601E0,3.029312037E0,-6.013133905E0,7.151170208E0
1.294506721E1,-1.077085190E0,1.321393554E0,-5.699204498E0,5.948707872E0
1.295500621E1,6.378207153E-1,-1.600509809E0,-5.761356307E0,6.013457692E0
1.296494421E1,3.037572983E0,-5.415837902E0,-5.645704229E0,8.392385004E0
1.297488321E1,5.318091753E0,-8.571984817E0,-4.909668417E0,1.121899584E1
1.298482221E1,5.974296114E0,-9.843308079E0,-3.688915677E0,1.209094814E1
1.299476121E1,6.413637187E0,-1.160174358E1,-2.233165094E0,1.344329656E1
1.300469921E1,8.253419153E0,-1.514017210E1,9.995714293E-1,1.727260496E1
1.301463821E1,1.074748409E1,-1.905840768E1,3.162965353E0,2.210736681E1
1.302457721E1,1.184121864E1,-2.184272080E1,3.347180128E0,2.507035152E1
1.303451521E1,1.175449273E1,-2.314649084E1,4.885727577E0,2.641587537E1
1.304445421E1,1.193214869E1,-2.399751332E1,6.766047120E0,2.764120496E1
1.305439321E1,1.160454089E1,-2.290933479E1,8.162081552E0,2.694666148E1
1.306433221E1,1.112963939E1,-2.074467685E1,8.960470902E0,2.518929394E1
1.307427021E1,1.099263913E1,-1.800687015E1,9.281828027E0,2.304859690E1
1.308420921E1,1.100262149E1,-1.459015727E1,9.277560729E0,2.049398697E1
1.309414821E1,1.101869666E1,-1.074227539E1,9.151792967E0,1.790428639E1
1.310408621E1,1.092263509E1,-6.739055788E0,8.995106299E0,1.567261202E1
1.311402521E1,1.060058332E1,-2.813514696E0,8.799474251E0,1.406125808E1
1.312396421E1,9.920870225E0,8.887200612E-1,8.383702719E0,1.301921506E1
1.313390321E1,8.970298317E0,4.026647052E0,7.729650718E0,1.250710353E1
1.314384121E1,7.567367679E0,6.384452564E0,6.601885371E0,1.190004952E1
1.315378021E1,5.635346471E0,7.889953889E0,4.922891310E0,1.087397632E1
1.316371921E1,3.451836517E0,8.363329850E0,2.911417551E0,9.504568043E0
1.317365721E1,1.259032707E0,8.126628129E0,1.002865385E0,8.284502827E0
1.318359621E1,-7.121861887E-1,7.548568296E0,-6.607166576E-1,7.610823805E0
1.319353521E1,-2.239216962E0,7.003298480E0,-2.049260806E0,7.632807613E0
1.320347421E1,-3.641595622E0,6.356996378E0,-3.328599431E0,8.046874909E0
1.321341221E1,-5.050775764E0,5.686789690E0,-4.766005837E0,8.975785449E0
1.322335121E1,-6.246275257E0,5.291248355E0,-5.654687306E0,9.949309135E0
1.323329021E1,-7.140778799E0,5.290207551E0,-5.913551145E0,1.067460093E1
1.324322821E1,-7.712040659E0,5.632183712E0,-5.732021996E0,1.113791456E1
1.325316721E1,-8.011181288E0,5.965153407E0,-5.341215152E0,1.132654670E1
1.326310621E1,-8.219431627E0,6.113745775E0,-4.925430171E0,1.136647729E1
1.327304421E1,-8.614683525E0,5.973107375E0,-4.711533176E0,1.149301217E1
1.328298321E1,-9.367006171E0,5.605188872E0,-4.916240103E0,1.197198244E1
1.329292233E1,-1.021791346E1,5.077354867E0,-5.504008067E0,1.266804613E1
1.330286133E1,-1.065445839E1,4.520194153E0,-6.567717751E0,1.330731210E1
1.331279933E1,-1.061121589E1,4.101024805E0,-7.830697036E0,1.381072494E1
1.332273833E1,-1.027174293E1,3.971483250E0,-8.639907244E0,1.399747760E1
1.333267733E1,-9.739659165E0,4.184671564E0,-8.940699711E0,1.386753576E1
1.334261533E1,-9.059504024E0,4.597118953E0,-8.736275205E0,1.339890370E1
1.335255433E1,-8.299026266E0,4.810683827E0,-8.259334781E0,1.265832243E1
1.336249333E1,-7.450475407E0,4.658624645E0,-7.648788988E0,1.164973563E1
1.337243233E1,-6.554496027E0,4.270091198E0,-6.933761637E0,1.045333188E1
1.338237033E1,-5.651185409E0,3.764179575E0,-6.187861573E0,9.186652015E0
1.339230933E1,-4.505788368E0,3.004000610E0,-5.601053721E0,7.790888990E0
1.340224833E1,-3.146588472E0,1.717592701E0,-5.108422294E0,6.240762936E0
1.341218633E1,-1.453816032E0,-3.235662031E-1,-4.756174328E0,4.983921186E0
1.342212533E1,6.885967666E-1,-3.522061577E0,-4.405601298E0,5.682288805E0
1.343206433E1,3.143601714E0,-7.155034311E0,-3.804200550E0,8.691874916E0
1.344200333E1,4.625327091E0,-9.288510810E0,-2.925028407E0,1.078081050E1
1.345194133E1,5.335728124E0,-9.980246361E0,-1.636909457E0,1.143480584E1
1.346188033E1,6.826081653E0,-1.100736475E1,1.211990980E0,1.300870446E1
1.347181933E1,9.847098244E0,-1.361501244E1,9.186116123E-1,1.682788622E1
1.348175733E1,1.208615733E1,-1.634485991E1,5.533208843E-1,2.033557986E1
1.349169633E1,1.334401855E1,-1.881058865E1,6.679040551E-1,2.307264987E1
1.350163533E1,1.348540422E1,-2.072613182E1,1.494542474E0,2.477220871E1
1.351157433E1,1.248347797E1,-2.131313380E1,2.910809441E0,2.487086058E1
1.352151233E1,1.142195807E1,-2.052723059E1,4.417164167E0,2.390271242E1
1.353145133E1,1.093489670E1,-1.876109314E1,5.398462901E0,2.237619233E1
1.354139033E1,1.092553180E1,-1.616889614E1,5.945950567E0,2.039987195E1
1.355132833E1,1.099875882E1,-1.323502177E1,6.107479899E0,1.826033427E1
1.356126733E1,1.094831372E1,-1.028340461E1,6.137876065E0,1.622613652E1
1.357120633E1,1.056029249E1,-6.849191603E0,6.376318502E0,1.410987742E1
1.358114533E1,1.000329375E1,-2.614259713E0,6.677564714E0,1.230813187E1
1.359108333E1,9.261360433E0,1.664503491E0,6.708630971E0,1.155634451E1
1.360102233E1,7.963511277E0,5.080751515E0,6.318224076E0,1.136448430E1
1.361096133E1,6.350759153E0,7.494149430E0,5.389275756E0,1.120440586E1
1.362089933E1,4.510271721E0,8.830217156E0,4.033370765E0,1.070436200E1
1.363083833E1,2.514851784E0,9.282818545E0,2.621216730E0,9.968248431E0
1.364077733E1,5.319668162E-1,9.018525567E0,1.237207536E0,9.118523706E0
1.365071633E1,-1.373961777E0,8.330500658E0,1.656004563E-3,8.443045358E0
1.366065433E1,-3.211508937E0,7.399798758E0,-1.093702904E0,8.140454370E0
1.367059333E1,-4.702316210E0,6.542094668E0,-1.919501735E0,8.282225986E0
1.368053233E1,-6.098766963E0,5.998949729E0,-2.547792073E0,8.926006989E0
1.369047033E1,-7.239897875E0,5.663618343E0,-3.229490295E0,9.742807683E0
1.370040933E1,-7.728268436E0,5.598414288E0,-3.583488332E0,1.019361389E1
1.371034833E1,-7.743060138E0,5.793201413E0,-3.651699611E0,1.033687927E1
1.372028733E1,-7.475643577E0,6.127320086E0,-3.512385605E0,1.028426716E1
1.373022533E1,-7.133332955E0,6.423102075E0,-3.304229406E0,1.015177872E1
1.374016433E1,-7.030203273E0,6.550263813E0,-3.135741302E0,1.010755102E1
1.375010333E1,-7.098981147E0,6.545369108E0,-3.152077253E0,1.015741016E1
1.376004133E1,-7.277935767E0,6.376077597E0,-3.334194339E0,1.023423502E1
1.376998033E1,-7.583522367E0,6.008684759E0,-3.701638633E0,1.035935483E1
1.377991933E1,-7.848701198E0,5.599298971E0,-4.243234937E0,1.053372214E1
1.378985833E1,-7.835196469E0,5.198467661E0,-4.795160054E0,1.055499548E1
1.379979633E1,-7.559209059E0,4.885541636E0,-5.273998484E0,1.043193264E1
1.380973533E1,-7.085805032E0,4.784868954E0,-5.608812976E0,1.022557514E1
1.381967433E1,-6.480410051E0,4.822950701E0,-5.698564228E0,9.885858695E0
1.382961233E1,-5.855849651E0,4.776661803E0,-5.554999881E0,9.378992312E0
1.383955133E1,-5.151998084E0,4.726889718E0,-5.226068273E0,8.729167214E0
1.384949033E1,-4.332744699E0,4.455819817E0,-4.942863060E0,7.940963550E0
1.385942933E1,-3.426335641E0,3.563877355E0,-4.739534322E0,6.848662885E0
1.386936733E1,-2.368756177E0,2.014618392E0,-4.611325933E0,5.561836023E0
1.387930633E1,-1.075301204E0,-6.594431341E-2,-4.416434727E0,4.545934120E0
1.388924533E1,6.407799911E-1,-2.606733761E0,-4.056821024E0,4.864509916E0
1.389918333E1,2.849144120E0,-5.660546216E0,-3.477147360E0,7.228413342E0
1.390912233E1,4.476617194E0,-7.720239040E0,-2.574600388E0,9.288205396E0
1.391906133E1,5.011805826E0,-8.055433016E0,-1.523144860E0,9.608754809E0
1.392899933E1,5.657544841E0,-8.564207436E0,1.853263307E-1,1.026585644E1
1.393893833E1,7.124213637E0,-1.063791428E1,1.545141939E0,1.289601116E1
1.394887733E1,8.652592778E0,-1.399377635E1,9.802599764E-1,1.648193096E1
1.395881633E1,8.560562282E0,-1.648226012E1,1.450324659E0,1.862932009E1
1.396875433E1,8.343748695E0,-1.845500426E1,2.714331300E0,2.043460102E1
1.397869333E1,7.782448152E0,-1.944440811E1,4.411602588E0,2.140359184E1
1.398863233E1,7.154457191E0,-1.923837562E1,5.836522264E0,2.133931457E1
1.399857033E1,7.049554633E0,-1.780455415E1,6.677983375E0,2.028038044E1
1.400850933E1,7.465233779E0,-1.560895040E1,6.934031194E0,1.864000634E1
1.401844833E1,8.092806664E0,-1.315933424E1,6.610699464E0,1.680365867E1
1.402838733E1,8.498674766E0,-1.031523452E1,6.291760747E0,1.477219649E1
1.403832533E1,8.610699232E0,-7.383004385E0,6.102873462E0,1.288013818E1
1.404826433E1,8.199941688E0,-4.430917110E0,6.120677065E0,1.115054967E1
1.405820333E1,7.381310447E0,-6.471698284E-1,6.168834733E0,9.641425966E0
1.406814133E1,6.493639376E0,2.916191803E0,5.550791055E0,9.026782833E0
1.407808033E1,5.416658267E0,5.419239228E0,4.530880817E0,8.901529170E0
1.408801933E1,4.166732306E0,7.094139068E0,3.506796252E0,8.943494126E0
1.409795833E1,2.631800775E0,8.070700096E0,2.512823385E0,8.853070469E0
1.410789633E1,1.067564753E0,8.347514302E0,1.744475859E0,8.594410133E0
1.411783533E1,-3.000159574E-1,8.278714793E0,1.166734700E0,8.365906888E0
1.412777433E1,-1.310989019E0,7.929936565E0,6.445303953E-1,8.063374329E0
1.413771233E1,-2.044603499E0,7.387467565E0,-2.004309038E-2,7.665212470E0
1.414765133E1,-2.645222474E0,6.773387130E0,-7.562204003E-1,7.310803269E0
1.415759033E1,-3.079606862E0,6.362076439E0,-1.431622925E0,7.211763948E0
1.416752933E1,-3.400501472E0,6.145200872E0,-1.952221000E0,7.289586466E0
1.417746733E1,-3.696912621E0,6.119512299E0,-2.265683214E0,7.499927609E0
1.418740633E1,-4.036903068E0,6.329995106E0,-2.484595951E0,7.908137674E0
1.419734533E1,-4.375461532E0,6.575505658E0,-2.679714614E0,8.340432165E0
1.420728333E1,-4.774228191E0,6.618639398E0,-2.935392305E0,8.672725655E0
1.421722233E1,-5.455422968E0,6.440139692E0,-3.288058931E0,9.058055561E0
1.422716133E1,-6.331142330E0,6.128447430E0,-3.958476704E0,9.659749940E0
1.423710033E1,-7.020925496E0,5.651441517E0,-4.752964499E0,1.018935020E1
1.424703833E1,-7.342042301E0,5.073126161E0,-5.641128198E0,1.055767595E1
1.425697733E1,-7.227706431E0,4.618382937E0,-6.552420266E0,1.079367465E1
1.426691633E1,-6.935241567E0,4.472879654E0,-7.448575646E0,1.111690187E1
1.427685433E1,-6.647495992E0,4.556817604E0,-7.959076164E0,1.132698914E1
1.428679333E1,-6.261152328E0,4.642469957E0,-8.227967978E0,1.133375546E1
1.429673188E1,-5.767209370E0,4.588342867E0,-8.350899839E0,1.113782395E1
1.430667087E1,-4.789931474E0,4.471073449E0,-8.333634766E0,1.060110417E1
1.431660888E1,-3.990511259E0,3.845745894E0,-8.116977299E0,9.828492360E0
1.432654787E1,-3.355988958E0,2.875925537E0,-7.635015872E0,8.821965594E0
1.433648687E1,-2.339277440E0,1.620851102E0,-7.064670271E0,7.616360238E0
1.434642487E1,-1.028990087E0,-1.684220302E-1,-6.489001365E0,6.572238986E0
1.435636387E1,4.788185495E-1,-2.792954716E0,-5.929664901E0,6.571969955E0
1.436630288E1,2.002746790E0,-6.278198715E0,-4.805093596E0,8.155715682E0
1.437624187E1,3.856676679E0,-8.863585462E0,-4.297059726E0,1.057836587E1
1.438617988E1,5.430099261E0,-1.044609988E1,-3.429800701E0,1.226256554E1
1.439611887E1,6.731315244E0,-1.204902985E1,-2.175640186E0,1.397222729E1
1.440605787E1,8.765964442E0,-1.560702315E1,-1.409926393E0,1.795575665E1
1.441599587E1,9.873856273E0,-2.055115272E1,1.257280004E-1,2.280041060E1
1.442593487E1,7.967652276E0,-2.447730075E1,3.629823423E0,2.599610265E1
1.443587388E1,8.034728025E0,-2.621874425E1,3.867436141E0,2.769361780E1
1.444581287E1,6.904993921E0,-2.518613298E1,7.033734992E0,2.704613953E1
1.445575088E1,6.748903084E0,-2.381371194E1,1.018176597E1,2.676394828E1
1.446568987E1,6.834854815E0,-2.086780284E1,1.167452855E1,2.486915866E1
1.447562887E1,7.347119438E0,-1.635046505E1,1.255905441E1,2.188715877E1
1.448556687E1,8.240917221E0,-1.173195873E1,1.304327871E1,1.938243256E1
1.449550587E1,8.772892224E0,-7.404928520E0,1.320619968E1,1.749858035E1
1.450544488E1,9.038391482E0,-2.460067466E0,1.310980248E1,1.611246020E1
1.451538387E1,8.922959259E0,2.595876651E0,1.245386767E1,1.553887375E1
1.452532188E1,8.057919252E0,6.124751405E0,1.104605227E1,1.498191954E1
1.453526087E1,6.684386076E0,8.181339941E0,8.930964682E0,1.383392463E1
1.454519987E1,4.876880740E0,8.812251586E0,6.344954038E0,1.190370470E1
1.455513787E1,2.726572739E0,8.285691106E0,3.613173476E0,9.441498746E0
1.456507687E1,7.806225854E-1,7.105065760E0,1.149822798E0,7.239711565E0
1.457501588E1,-1.053907412E0,5.619962447E0,-1.015390633E0,5.807384684E0
1.458495387E1,-2.892478420E0,4.222880779E0,-2.809210560E0,5.838734234E0
1.459489288E1,-4.242122211E0,3.513300694E0,-4.111172647E0,6.873181444E0
1.460483187E1,-5.226398640E0,3.358738319E0,-4.885627882E0,7.903526153E0
1.461477087E1,-5.999644963E0,3.413612684E0,-5.221109834E0,8.654968465E0
1.462470887E1,-6.420153324E0,3.597346818E0,-5.229107655E0,9.027892318E0
1.463464787E1,-6.962534616E0,3.766072319E0,-5.135782000E0,9.435912555E0
1.464458688E1,-8.063800381E0,3.980520122E0,-5.371551091E0,1.047487366E1
1.465452587E1,-8.872634613E0,4.204773706E0,-6.133515211E0,1.157686381E1
1.466446388E1,-8.924683603E0,4.226478571E0,-7.134096016E0,1.218229964E1
1.467440287E1,-8.398258193E0,4.175834082E0,-8.147737162E0,1.242392659E1
1.468434187E1,-8.219006535E0,4.148755041E0,-9.885481707E0,1.350877439E1
1.469427987E1,-7.269813985E0,4.392727776E0,-1.411299874E1,1.647188472E1
1.470421887E1,-5.895346423E0,5.126570882E0,-1.840774940E1,1.999705170E1
1.471415788E1,-6.591936918E0,5.322927400E0,-1.523341648E1,1.743112636E1
1.472409687E1,-7.867193602E0,5.101544799E0,-1.047220185E1,1.405651116E1
1.473403488E1,-8.478504211E0,4.894721180E0,-6.530042387E0,1.176795576E1
1.474397387E1,-7.419879266E0,4.408163255E0,-5.743068556E0,1.036674240E1
1.475391287E1,-5.840480245E0,3.923361835E0,-6.361367172E0,9.485302835E0
1.476385087E1,-4.234039021E0,3.321757604E0,-6.594553548E0,8.511715250E0
1.477378987E1,-2.671660075E0,2.439101690E0,-6.487558857E0,7.428014844E0
1.478372888E1,-1.386927393E0,1.361945749E0,-6.160317094E0,6.459719074E0
1.479366787E1,-1.043242675E-1,-6.881471157E-2,-5.679415181E0,5.680790070E0
1.480360588E1,1.261139166E0,-1.889752856E0,-4.882232989E0,5.384963956E0
1.481354487E1,2.564628546E0,-4.029172465E0,-4.037657944E0,6.254137191E0
1.482348387E1,3.703870223E0,-5.906561968E0,-3.220647843E0,7.679759204E0
1.483342187E1,4.713500764E0,-7.359007997E0,-2.557446411E0,9.105636732E0
1.484336087E1,5.844950441E0,-8.977224344E0,-2.280701787E0,1.095242454E1
1.485329988E1,7.487191828E0,-1.185916608E1,-2.204872756E0,1.419715906E1
1.486323887E1,9.506824792E0,-1.582907000E1,-1.709417124E0,1.854349701E1
1.487317688E1,1.041091718E1,-1.936286752E1,-5.375509071E-1,2.199083437E1
1.488311587E1,1.004362199E1,-2.142063369E1,1.434021453E0,2.370177858E1
1.489305487E1,9.835797915E0,-2.246362259E1,3.910455276E0,2.483241674E1
1.490299287E1,1.022450210E1,-2.263608037E1,6.113335301E0,2.557939496E1
1.491293187E1,1.057615131E1,-2.204395623E1,7.788676021E0,2.566036744E1
1.492287088E1,1.049090125E1,-1.989119386E1,9.221154394E0,2.430531404E1
1.493280987E1,1.044231322E1,-1.607294567E1,1.042938503E1,2.182094315E1
1.494274788E1,1.075567019E1,-1.160362872E1,1.119874646E1,1.938402856E1
1.495268687E1,1.121142439E1,-6.946827241E0,1.187967461E1,1.775052434E1
1.496262587E1,1.151132692E1,-2.290644978E0,1.234072873E1,1.703089215E1
1.497256387E1,1.130534120E1,2.015159844E0,1.235856508E1,1.687026199E1
1.498250287E1,1.048419683E1,5.781370742E0,1.166758440E1,1.671751048E1
1.499244188E1,8.929537961E0,8.629712623E0,1.027275216E1,1.611638995E1
1.500238087E1,6.908189424E0,1.014257559E1,8.125755140E0,1.471811188E1
1.501231888E1,5.141743237E0,1.022403666E1,5.743014761E0,1.280432223E1
1.502225787E1,3.604124910E0,9.200578626E0,3.386134279E0,1.044539462E1
1.503219687E1,2.063001178E0,7.496529831E0,1.210314072E0,7.868849568E0
1.504213487E1,3.021917063E-1,5.689543144E0,-7.599135017E-1,5.748016139E0
1.505207387E1,-1.454099037E0,4.313324926E0,-2.543818890E0,5.214421394E0
1.506201288E1,-2.819320981E0,3.633424723E0,-4.027852163E0,6.113422860E0
1.507195187E1,-3.825802796E0,3.473598100E0,-5.071521685E0,7.240371744E0
1.508188988E1,-4.674523224E0,3.750126377E0,-5.558478974E0,8.173818185E0
1.509182887E1,-5.190777403E0,4.422403564E0,-5.727748851E0,8.905556143E0
1.510176787E1,-5.425378804E0,5.140156887E0,-5.841346217E0,9.485635120E0
1.511170587E1,-5.684071319E0,5.724370329E0,-5.926215044E0,1.000985051E1
1.512164487E1,-6.145068725E0,5.968243661E0,-6.111032667E0,1.052266707E1
1.513158388E1,-6.934694853E0,5.851209301E0,-6.536721076E0,1.118281563E1
1.514152287E1,-7.893942860E0,5.480306963E0,-7.069418210E0,1.192999464E1
1.515146088E1,-8.762498213E0,4.896557790E0,-7.601192068E0,1.259109900E1
1.516139987E1,-9.368654501E0,4.260564330E0,-8.064319614E0,1.307506583E1
1.517133887E1,-9.592016970E0,3.856168556E0,-8.386491841E0,1.331202730E1
1.518127687E1,-9.536545604E0,3.733741894E0,-8.619020405E0,1.338559088E1
1.519121587E1,-9.156258486E0,3.856277899E0,-8.639097404E0,1.316593911E1
1.520115488E1,-8.501337004E0,3.987617472E0,-8.245527166E0,1.249650120E1
1.521109387E1,-7.732477847E0,3.866726289E0,-7.602828119E0,1.151285287E1
1.522103188E1,-6.919749370E0,3.490867267E0,-6.944457364E0,1.040646788E1
1.523097087E1,-5.663405505E0,2.828827969E0,-6.324579999E0,8.948560876E0
1.524090987E1,-4.068601994E0,1.734513958E0,-5.771721082E0,7.271507760E0
1.525084787E1,-2.228116023E0,-6.470645785E-2,-4.878960302E0,5.364041533E0
1.526078687E1,-2.762674910E-1,-2.655209518E0,-3.593123666E0,4.476270657E0
1.527072588E1,2.305760030E0,-6.506985061E0,-3.954726884E0,7.955956802E0
1.528066487E1,5.124098679E0,-9.998282683E0,-3.336414527E0,1.171979973E1
1.529060325E1,6.965036055E0,-1.165819026E1,-1.960857337E0,1.372115480E1
1.530054225E1,7.643548713E0,-1.243408771E1,-1.103200097E0,1.463719320E1
1.531048125E1,9.023378756E0,-1.496941937E1,-1.074814131E0,1.751171339E1
1.532041925E1,1.073418401E1,-1.842263758E1,-6.480539274E-1,2.133157884E1
1.533035825E1,1.134933331E1,-2.084610967E1,6.463944876E-1,2.374416730E1
1.534029725E1,1.178851651E1,-2.168166041E1,2.560341368E0,2.481166797E1
1.535023625E1,1.289700359E1,-2.129924081E1,4.555398484E0,2.531288242E1
1.536017425E1,1.374560415E1,-1.968995141E1,5.797472219E0,2.470316790E1
1.537011325E1,1.393779745E1,-1.684436649E1,6.395527191E0,2.277932502E1
1.538005225E1,1.420300844E1,-1.359703459E1,6.766300889E0,2.079393243E1
1.538999025E1,1.398690120E1,-9.893612845E0,6.991109959E0,1.850385362E1
1.539992925E1,1.307122372E1,-5.517085950E0,7.109382759E0,1.586941871E1
1.540986825E1,1.131582175E1,-1.379144749E0,7.127108594E0,1.344416376E1
1.541980725E1,9.250029114E0,2.095980059E0,7.007132499E0,1.179220407E1
1.542974525E1,7.308514366E0,4.765036368E0,6.524686922E0,1.089456255E1
1.543968425E1,5.116514255E0,6.911475559E0,5.759681665E0,1.034993456E1
1.544962325E1,2.476293490E0,8.170460612E0,4.418462541E0,9.613077930E0
1.545956125E1,1.692108196E-1,8.267021531E0,2.715637568E0,8.703273217E0
1.546950025E1,-1.526039085E0,7.943647116E0,1.045717217E0,8.156215378E0
1.547943925E1,-3.434428772E0,6.932783398E0,-5.814903939E-1,7.758667264E0
1.548937825E1,-5.789133505E0,5.726164840E0,-1.919052669E0,8.365751231E0
1.549931625E1,-7.744828336E0,5.088087432E0,-2.902167256E0,9.710487858E0
1.550925525E1,-8.925439063E0,5.168218845E0,-3.531869697E0,1.090174537E1
1.551919425E1,-9.252605982E0,5.886987244E0,-3.637914215E0,1.155429600E1
1.552913225E1,-8.815657589E0,6.748793156E0,-3.919607338E0,1.177392668E1
1.553907125E1,-8.366899576E0,7.139647363E0,-4.597875583E0,1.192141069E1
1.554901025E1,-7.980627247E0,7.159920829E0,-5.161284631E0,1.189931664E1
1.555894925E1,-7.657810072E0,7.289195166E0,-5.349631634E0,1.184875436E1
1.556888725E1,-7.213618149E0,7.675334178E0,-5.009774503E0,1.166382794E1
1.557882625E1,-6.699857224E0,8.054468810E0,-4.489860553E0,1.139830700E1
1.558876525E1,-6.134334406E0,8.076063162E0,-4.095699745E0,1.093744080E1
1.559870325E1,-5.807944583E0,7.918247981E0,-3.577066335E0,1.045113749E1
1.560864225E1,-5.658380408E0,8.014466254E0,-2.975428190E0,1.025193207E1
1.561858125E1,-5.476913824E0,8.081229177E0,-2.550891683E0,1.009008912E1
1.562852025E1,-5.269527703E0,7.874599686E0,-2.096724848E0,9.704303041E0
1.563845825E1,-5.205708852E0,7.567503335E0,-1.703350638E0,9.341729753E0
1.564839725E1,-5.264718953E0,7.138039963E0,-1.528221851E0,9.000241230E0
1.565833625E1,-5.092471674E0,6.472502276E0,-1.705889499E0,8.410506076E0
1.566827525E1,-4.649456795E0,5.626739954E0,-1.954443965E0,7.556288918E0
1.567821325E1,-4.173717390E0,4.702600384E0,-1.996819468E0,6.597094452E0
1.568815225E1,-3.608286958E0,3.988499817E0,-1.935787400E0,5.716217143E0
1.569809125E1,-2.762017098E0,3.232006937E0,-2.099512362E0,4.741577738E0
1.570802925E1,-1.532202051E0,1.762263674E0,-2.643896910E0,3.527521403E0
1.571796825E1,2.952516460E-1,-7.746818143E-1,-3.496875281E0,3.593806085E0
1.572790725E1,2.822038182E0,-4.264671999E0,-4.464012351E0,6.788131777E0
1.573784625E1,5.848640619E0,-8.320917072E0,-5.280094206E0,1.145965326E1
1.574778425E1,8.767546114E0,-1.285146898E1,-5.704763446E0,1.657028804E1
1.575772325E1,9.523912110E0,-1.662471467E1,-5.405459679E0,1.990741153E1
1.576766225E1,9.053092552E0,-1.924196581E1,-4.245863260E0,2.168499684E1
1.577760025E1,1.099422957E1,-2.439046258E1,-2.792826954E0,2.689921247E1
1.578753925E1,1.264693572E1,-2.903710921E1,-3.168574002E-1,3.167331831E1
1.579747825E1,1.223527536E1,-2.988536712E1,3.178855454E0,3.244907169E1
1.580741725E1,1.145506501E1,-2.762157782E1,6.622756423E0,3.062729140E1
1.581735525E1,1.109873569E1,-2.358880698E1,9.305377103E0,2.768038641E1
1.582729425E1,1.101980763E1,-1.874190725E1,1.096615709E1,2.435060264E1
1.583723325E1,1.118921901E1,-1.403129794E1,1.136977986E1,2.124494853E1
1.584717125E1,1.146572097E1,-9.579254837E0,1.097836490E1,1.854047941E1
1.585711025E1,1.139654140E1,-5.121953335E0,9.963207575E0,1.598064664E1
1.586704925E1,1.058965838E1,-1.194441732E0,8.458821899E0,1.360585255E1
1.587698825E1,9.259346067E0,2.115338436E0,6.691834259E0,1.161855378E1
1.588692625E1,7.648907102E0,4.691907581E0,4.668178118E0,1.011492281E1
1.589686525E1,5.849284982E0,6.260826053E0,2.334026202E0,8.880301570E0
1.590680425E1,3.758613610E0,6.903454349E0,-6.525609612E-2,7.860605357E0
1.591674225E1,1.268423043E0,6.972433952E0,-2.378542078E0,7.475372542E0
1.592668125E1,-1.945349352E0,6.831803738E0,-4.443458219E0,8.378678139E0
1.593662025E1,-5.374124451E0,6.562389768E0,-6.065694526E0,1.042779091E1
1.594655925E1,-8.233299469E0,6.435253758E0,-7.206483377E0,1.269382187E1
1.595649725E1,-1.016472485E1,6.131272219E0,-8.182502952E0,1.441761023E1
1.596643625E1,-1.161029455E1,5.616516098E0,-9.375609180E0,1.594510082E1
1.597637525E1,-1.184527310E1,5.826555101E0,-9.898828561E0,1.649988018E1
1.598631325E1,-1.147189329E1,6.609670939E0,-9.371987999E0,1.622116656E1
1.599625225E1,-1.068613510E1,7.167839128E0,-8.106198542E0,1.520795371E1
1.600619125E1,-9.680343840E0,7.278734497E0,-6.640661182E0,1.381258172E1
1.601613025E1,-8.765618872E0,7.157409450E0,-5.340329298E0,1.251334093E1
1.602606825E1,-8.156033776E0,6.993131926E0,-4.400288225E0,1.160979404E1
1.603600725E1,-7.783225831E0,6.986214670E0,-3.692657018E0,1.109150646E1
1.604594625E1,-7.484202731E0,7.196394006E0,-2.738724130E0,1.073787628E1
1.605588425E1,-7.122660032E0,7.115854458E0,-2.800702277E0,1.045043558E1
1.606582325E1,-6.775700873E0,6.780008517E0,-3.120197064E0,1.008039025E1
1.607576225E1,-6.526543413E0,6.654064170E0,-3.215911306E0,9.859737543E0
1.608570125E1,-6.287791073E0,6.708397082E0,-3.322270989E0,9.776317942E0
1.609563925E1,-6.021649790E0,6.873380949E0,-3.492567052E0,9.782722345E0
1.610557825E1,-5.756151701E0,7.005581818E0,-3.598247874E0,9.754939608E0
1.611551725E1,-5.488062125E0,6.974118535E0,-3.655409085E0,9.597873244E0
1.612545625E1,-5.107874410E0,6.852551998E0,-3.722833328E0,9.322410518E0
1.613539425E1,-4.543254987E0,6.469138958E0,-3.889567267E0,8.810201942E0
1.614533325E1,-3.761410918E0,5.870134399E0,-4.165658757E0,8.121539438E0
1.615527225E1,-2.960010837E0,4.999549477E0,-4.381610757E0,7.277064790E0
1.616521025E1,-2.024893119E0,3.895998035E0,-4.449218895E0,6.250963255E0
1.617514925E1,-8.633770591E-1,2.283853437E0,-4.466562029E0,5.090342113E0
1.618508825E1,5.863710648E-1,2.775322437E-2,-4.505480804E0,4.543562319E0
1.619502725E1,2.929704718E0,-3.223445444E0,-4.603053292E0,6.337339337E0
1.620496525E1,6.297062418E0,-7.859426161E0,-4.523413045E0,1.104014675E1
1.621490425E1,9.942872128E0,-1.350586363E1,-4.138871493E0,1.727423850E1
1.622484325E1,1.144328638E1,-1.802952460E1,-3.025554031E0,2.156771980E1
1.623478125E1,1.233914179E1,-2.179874272E1,-1.438731970E0,2.509002898E1
1.624472025E1,1.488290046E1,-2.596838518E1,8.264407825E-1,2.994229048E1
1.625465925E1,1.663068350E1,-2.758131155E1,3.513593055E0,3.239835979E1
1.626459825E1,1.763304128E1,-2.688988298E1,5.576014774E0,3.263559241E1
1.627453625E1,1.876457340E1,-2.514372195E1,7.022710651E0,3.215018559E1
1.628447525E1,1.902612988E1,-2.199128217E1,8.143120785E0,3.019802189E1
1.629441425E1,1.808863995E1,-1.794782028E1,8.706293607E0,2.692810236E1
1.630435225E1,1.681566836E1,-1.382406443E1,9.461774919E0,2.373597784E1
1.631429125E1,1.497512274E1,-9.558993650E0,1.034456415E1,2.055817765E1
1.632423025E1,1.216724067E1,-5.722208029E0,1.072991905E1,1.720222582E1
1.633416925E1,8.521693500E0,-2.930887025E0,1.006990289E1,1.351341197E1
1.634410725E1,4.972794372E0,-1.056409435E0,8.262617408E0,9.701315952E0
1.635404625E1,1.627756664E0,2.996961147E-1,5.420929073E0,5.667969789E0
1.636398525E1,-1.494012131E0,1.349380667E0,1.954188734E0,2.805664634E0
1.637392325E1,-4.255386620E0,2.199224346E0,-1.756554891E0,5.101998441E0
1.638386225E1,-7.143096635E0,3.905572266E0,-4.914279531E0,9.509335812E0
1.639380125E1,-8.763783431E0,6.388625722E0,-6.238548746E0,1.251151186E1
1.640374025E1,-9.840900196E0,8.041107337E0,-7.390265458E0,1.470097777E1
1.641367825E1,-1.018033457E1,8.625647054E0,-8.511562614E0,1.582680313E1
1.642361725E1,-9.877233624E0,9.078258383E0,-9.094741684E0,1.620767860E1
1.643355625E1,-1.007138925E1,9.567001997E0,-8.916890434E0,1.650670602E1
1.644349525E1,-1.049787113E1,9.573971878E0,-8.093463891E0,1.635146457E1
1.645343325E1,-1.066896300E1,9.007215883E0,-6.964479400E0,1.560322668E1
1.646337225E1,-1.048881145E1,8.327145526E0,-5.731575269E0,1.456734270E1
1.647331125E1,-1.006571043E1,7.818792690E0,-4.643664544E0,1.356523741E1
1.648324925E1,-9.505694525E0,7.453154601E0,-3.701636002E0,1.263367923E1
1.649318825E1,-8.973303786E0,7.210123268E0,-2.951243522E0,1.188342950E1
1.650312725E1,-8.555552972E0,6.976575535E0,-2.472973441E0,1.131307608E1
1.651306625E1,-8.167235872E0,6.712683091E0,-2.139344180E0,1.078613228E1
1.652300425E1,-7.748944191E0,6.601605290E0,-1.982129508E0,1.037092888E1
1.653294325E1,-7.266702096E0,6.682533093E0,-1.873769492E0,1.004849342E1
1.654288225E1,-6.899710377E0,6.648809277E0,-1.999171218E0,9.788225255E0
1.655282025E1,-6.509882357E0,6.599524850E0,-2.127013571E0,9.510861332E0
1.656275925E1,-6.102731375E0,6.586308389E0,-2.177227705E0,9.239215817E0
1.657269825E1,-5.758086544E0,6.551507515E0,-2.209321318E0,8.997717047E0
