"Time (s)","Linear Acceleration x (m/s^2)","Linear Acceleration y (m/s^2)","Linear Acceleration z (m/s^2)","Absolute acceleration (m/s^2)"
2.295704166E-2,1.156831505E1,9.873736989E-1,-2.181500266E0,1.181354152E1
3.289604167E-2,1.227506216E1,9.982363638E-1,-1.511259480E-1,1.231651192E1
4.283504166E-2,1.158930889E1,6.646907178E-1,2.231950042E0,1.182097692E1
5.277304167E-2,9.878869675E0,-8.699253559E-2,4.109507360E0,1.069989180E1
6.271204167E-2,7.562245519E0,-1.095839549E0,4.780421562E0,9.013370730E0
7.265104166E-2,5.401298801E0,-2.076189865E0,4.038724476E0,7.056620188E0
8.259004167E-2,3.968157354E0,-2.828813351E0,2.844521896E0,5.642673354E0
9.252804166E-2,3.372691530E0,-3.192723003E0,1.192917362E0,4.794953614E0
1.024670417E-1,3.473212768E0,-3.168636568E0,-7.000707579E-1,4.753268738E0
1.124060417E-1,3.828496023E0,-2.801998020E0,-2.213560695E0,5.235305689E0
1.223450417E-1,4.197435451E0,-2.171955855E0,-2.899609684E0,5.544690516E0
1.322840417E-1,4.427683600E0,-1.774625857E0,-2.799263277E0,5.530782394E0
1.422220417E-1,4.036730576E0,-1.582513833E0,-2.088124909E0,4.812463964E0
1.521610417E-1,3.766669904E0,-1.431619416E0,-1.291499079E0,4.231466199E0
1.621000417E-1,3.486968343E0,-1.352362747E0,-5.352634033E-1,3.778139772E0
1.720390417E-1,3.259626260E0,-1.382789319E0,1.452120193E-1,3.543777107E0
1.819770417E-1,3.598975267E0,-1.323861079E0,3.401722956E-1,3.849798478E0
1.919160417E-1,4.192149568E0,-1.073341218E0,1.474422204E-1,4.329886670E0
2.018550417E-1,4.501125798E0,-1.053709776E0,-1.313952680E-1,4.624684039E0
2.117940417E-1,4.935765125E0,-1.102448950E0,-7.673779842E-1,5.115275166E0
2.217320417E-1,5.211508706E0,-9.103974438E-1,-1.406505479E0,5.474203518E0
2.316710417E-1,5.130615985E0,-8.001274350E-1,-1.668632795E0,5.454150686E0
2.416100417E-1,4.828799670E0,-6.333198211E-1,-1.313843629E0,5.044262616E0
2.515490417E-1,4.501774839E0,-4.957778138E-1,-5.703105175E-1,4.564759186E0
2.614880417E-1,4.149909866E0,-4.195587730E-1,2.549771941E-1,4.178850899E0
2.714260417E-1,3.754850927E0,-4.132747704E-1,9.322531664E-1,3.890860764E0
2.813650417E-1,3.096167346E0,-4.076678753E-1,1.518375725E0,3.472450169E0
2.913040417E-1,2.034271469E0,-5.260780853E-1,1.758795691E0,2.740142485E0
3.012430417E-1,9.155611199E-1,-8.260420024E-1,1.645715218E0,2.056447454E0
3.111810417E-1,-6.786336958E-2,-1.086810864E0,1.388081049E0,1.764237027E0
3.211200417E-1,-9.255744767E-1,-1.310189704E0,9.496205664E-1,1.864152460E0
3.310590417E-1,-1.577118022E0,-1.492529570E0,4.515968370E-1,2.217856054E0
3.409980417E-1,-1.940878571E0,-1.699124270E0,4.660231789E-2,2.579962148E0
3.509360417E-1,-2.260019601E0,-1.884666071E0,-1.597862774E-1,2.947064039E0
3.608750417E-1,-2.807320740E0,-1.883641638E0,-8.603476167E-2,3.381797975E0
3.708140417E-1,-3.679030666E0,-1.741375958E0,2.417825500E-2,4.070410478E0
3.807530417E-1,-4.766491156E0,-1.566835109E0,8.215221047E-2,5.018083218E0
3.906920417E-1,-5.913506121E0,-1.416536231E0,-3.771457750E-2,6.080917030E0
4.006300417E-1,-7.191768858E0,-1.246386934E0,-2.650501925E-1,7.303784725E0
4.105690417E-1,-8.327290537E0,-1.035035085E0,-5.960786122E-1,8.412513003E0
4.205080417E-1,-8.938799951E0,-9.904664375E-1,-1.078301995E0,9.057919382E0
4.304470417E-1,-8.916599243E0,-1.039179591E0,-1.984373084E0,9.193659381E0
4.403850417E-1,-8.832157847E0,-1.046259985E0,-2.852440195E0,9.340133150E0
4.503240417E-1,-9.062826412E0,-1.025750291E0,-3.207453893E0,9.668233898E0
4.602630417E-1,-9.592756643E0,-1.104058980E0,-3.022680125E0,1.011812835E1
4.702020417E-1,-1.011632510E1,-1.395404979E0,-2.560512106E0,1.052821974E1
4.801400417E-1,-1.037967434E1,-1.902709993E0,-1.931741127E0,1.072798064E1
4.900790417E-1,-1.063211150E1,-2.603950779E0,-1.036549952E0,1.099530766E1
5.000180417E-1,-1.076760085E1,-3.547624142E0,-4.435520550E-2,1.133705572E1
5.099570417E-1,-1.030572928E1,-4.599021344E0,8.628952485E-1,1.131828793E1
5.198960417E-1,-8.523278096E0,-5.365727849E0,1.861131320E0,1.024212452E1
5.298340417E-1,-4.877851378E0,-5.137695209E0,2.589052366E0,7.542714252E0
5.397730417E-1,1.749785131E-1,-4.011280569E0,2.492210780E0,4.725685544E0
5.497120417E-1,5.341526808E0,-2.367286480E0,1.703714919E0,6.085934476E0
5.596510417E-1,9.181378709E0,-5.169963361E-1,4.935317521E-1,9.209157062E0
5.695890417E-1,1.075511938E1,1.255749642E0,-7.565105684E-1,1.085457545E1
5.795280417E-1,9.988676877E0,2.666856002E0,-1.656597909E0,1.047043950E1
5.894670417E-1,7.542555020E0,3.297979317E0,-2.179191639E0,8.515613894E0
5.994060417E-1,4.514255136E0,3.275177222E0,-2.207841680E0,5.998320611E0
6.093440417E-1,1.073925939E0,3.062901367E0,-2.136144291E0,3.885588004E0
6.192826667E-1,-2.551163578E0,2.753788896E0,-2.109019496E0,4.305781244E0
6.292216667E-1,-6.230163254E0,2.432578536E0,-2.048194274E0,6.994817531E0
6.391606667E-1,-9.309393556E0,1.877734196E0,-1.633208023E0,9.636288836E0
6.490996667E-1,-1.208303024E1,1.319014030E0,-1.116766734E0,1.220600613E1
6.590376667E-1,-1.488265838E1,9.057655719E-1,-5.850631157E-1,1.492166984E1
6.689766667E-1,-1.817183881E1,6.026114139E-1,-1.939228340E-1,1.818286205E1
6.789156667E-1,-2.181195275E1,2.991476641E-1,-1.318370251E-1,2.181440242E1
6.888546667E-1,-2.524141490E1,-1.819516101E-1,3.651944317E-2,2.524209710E1
6.987926667E-1,-2.847566892E1,-6.492052442E-1,4.443674127E-1,2.848653454E1
7.087316667E-1,-3.091690016E1,-8.522389904E-1,9.894143041E-1,3.094446586E1
7.186706667E-1,-3.170343487E1,-7.107892889E-1,2.362882065E0,3.179931156E1
7.286096667E-1,-3.032247222E1,5.298922241E-2,4.244477470E0,3.061814361E1
7.385486667E-1,-2.721416255E1,1.356262548E0,5.732948195E0,2.784451088E1
7.484866667E-1,-2.371058109E1,2.602243392E0,6.516345284E0,2.472703141E1
7.584256667E-1,-1.972958852E1,3.141287386E0,6.654022654E0,2.105707404E1
7.683646667E-1,-1.395455674E1,2.791159329E0,5.964987931E0,1.543053159E1
7.783036667E-1,-4.589486582E0,1.660360300E0,6.733233715E0,8.316045916E0
7.882416667E-1,1.165180510E1,1.630771196E0,1.001003676E1,1.544748564E1
7.981806667E-1,3.253485280E1,5.413018960E0,1.238818824E1,3.523186951E1
8.081196667E-1,4.980468843E1,1.171200687E1,1.317297463E1,5.283185928E1
8.180586667E-1,5.936040939E1,1.218744280E1,1.396923676E1,6.218787294E1
8.279966667E-1,6.021103426E1,6.062457508E0,1.355121113E1,6.201417064E1
8.379356667E-1,5.389581682E1,1.055337641E-1,1.169761453E1,5.515074246E1
8.478746667E-1,4.558340569E1,-2.365536993E0,9.018731389E0,4.652719802E1
8.578136667E-1,3.790106012E1,-2.592265996E0,6.354989614E0,3.851747778E1
8.677526667E-1,3.150149309E1,-2.304510480E0,2.846574268E0,3.171368507E1
8.776906667E-1,2.566041701E1,-2.207940790E0,-1.333782050E0,2.578974561E1
8.876296667E-1,1.976923030E1,-3.220162232E0,-4.284828520E0,2.048296040E1
8.975686667E-1,1.393377223E1,-4.565967911E0,-5.353788419E0,1.560964836E1
9.075076667E-1,8.424108149E0,-5.591200578E0,-5.197812772E0,1.136856981E1
9.174456667E-1,4.149215217E0,-6.858146029E0,-4.854132732E0,9.370846197E0
9.273846667E-1,8.302648616E-1,-8.058908016E0,-4.881220543E0,9.458417000E0
9.373236667E-1,-2.185767564E0,-9.076864407E0,-5.525293102E0,1.084877464E1
9.472626667E-1,-5.199082788E0,-9.890778115E0,-6.602281812E0,1.297875490E1
9.572006667E-1,-7.497368907E0,-1.043865053E1,-7.490569764E0,1.487563783E1
9.671396667E-1,-8.574749966E0,-1.086190006E1,-7.457638246E0,1.572016470E1
9.770786667E-1,-9.086275501E0,-1.116952208E1,-6.984175746E0,1.600304149E1
9.870176667E-1,-9.418785605E0,-1.145092752E1,-6.709006362E0,1.627415219E1
9.969566667E-1,-9.529724827E0,-1.212923611E1,-6.475392555E0,1.672915816E1
1.006894667E0,-9.920149848E0,-1.322742624E1,-6.042262394E0,1.760349717E1
1.016833667E0,-1.075589706E1,-1.449464300E1,-5.545182990E0,1.888208282E1
1.026772667E0,-1.226619076E1,-1.520202395E1,-5.057084910E0,2.017758845E1
1.036711667E0,-1.400327691E1,-1.570840803E1,-4.857680823E0,2.159728941E1
1.046649667E0,-1.568184529E1,-1.606184531E1,-5.410171950E0,2.309054151E1
1.056588667E0,-1.681941525E1,-1.595345197E1,-6.263988227E0,2.401339017E1
1.066527667E0,-1.669906786E1,-1.538627439E1,-6.068915173E0,2.350378775E1
1.076466667E0,-1.536559630E1,-1.459246458E1,-4.437381792E0,2.165021776E1
1.086404667E0,-1.372212875E1,-1.387871368E1,-2.728832980E0,1.970690336E1
1.096343667E0,-1.216016437E1,-1.260869259E1,-1.572960067E0,1.758757885E1
1.106282667E0,-1.072355962E1,-1.062161575E1,-6.127753365E-1,1.510592419E1
1.116221667E0,-9.231692830E0,-7.921742277E0,-5.709549538E-1,1.217801884E1
1.126160667E0,-7.695943274E0,-4.265458449E0,-1.620680948E0,8.946970738E0
1.136098667E0,-6.245070146E0,5.731978726E-1,-3.137237604E0,7.012254752E0
1.146037667E0,-3.805606513E0,5.823344979E0,-3.802587596E0,7.928030027E0
1.155976667E0,9.742244804E-1,1.063023338E1,-9.668540651E-1,1.071847852E1
1.165915667E0,9.547496270E0,1.618247805E1,5.735068395E0,1.964480314E1
1.175853667E0,2.414229740E1,2.271856587E1,1.453067120E1,3.619563737E1
1.185792667E0,4.149974771E1,2.981653370E1,2.222668640E1,5.572504221E1
1.195731667E0,5.575089510E1,3.568884560E1,2.480379992E1,7.069005938E1
1.205670667E0,6.175679016E1,3.561395914E1,2.301392745E1,7.491258955E1
1.215608667E0,5.915264613E1,2.847901586E1,2.023011251E1,6.869750607E1
1.225547667E0,5.305120757E1,2.034139906E1,2.006432992E1,6.025595801E1
1.235486667E0,4.907466122E1,1.294785799E1,2.103791471E1,5.494145298E1
1.245425667E0,4.856001268E1,5.619228621E0,2.077352233E1,5.311487355E1
1.255364667E0,4.966313436E1,-6.863450038E-1,1.850707489E1,5.300386594E1
1.265302667E0,5.069862011E1,-7.229014453E0,1.435854321E1,5.318624347E1
1.275241667E0,4.964010100E1,-1.342643388E1,8.897781149E0,5.218792259E1
1.285180667E0,4.596487804E1,-1.878779035E1,3.787726897E0,4.980058187E1
1.295119667E0,4.130276670E1,-2.353884603E1,3.014284985E-1,4.754036884E1
1.305057667E0,3.631757097E1,-2.736270053E1,-1.750679755E0,4.550547463E1
1.314996667E0,3.090461165E1,-2.947447158E1,-3.244098979E0,4.282947204E1
1.324935667E0,2.397577337E1,-3.023409974E1,-3.611785932E0,3.875543179E1
1.334874667E0,1.532402727E1,-3.033763756E1,-2.524032497E0,3.408179579E1
1.344812667E0,6.005192801E0,-2.980570466E1,-1.088212953E0,3.042411179E1
1.354751667E0,-2.533151815E0,-2.794566560E1,3.245215651E-1,2.806211678E1
1.364690667E0,-8.824614354E0,-2.536372227E1,9.210954364E-1,2.687081396E1
1.374629667E0,-1.296793616E1,-2.277900737E1,-6.132232332E-1,2.621882125E1
1.384568667E0,-1.570636969E1,-2.053843386E1,-4.367031602E0,2.622190457E1
1.394506667E0,-1.780338353E1,-1.874994484E1,-8.266261978E0,2.714501766E1
1.404445667E0,-1.850781514E1,-1.645100091E1,-1.077451693E1,2.700490450E1
1.414384667E0,-1.820029487E1,-1.373229355E1,-1.304035627E1,2.626551943E1
1.424323667E0,-1.879502102E1,-1.201436639E1,-1.499114645E1,2.687624019E1
1.434261667E0,-2.086282335E1,-1.136087806E1,-1.681786925E1,2.910614496E1
1.444200667E0,-2.415568986E1,-1.138311151E1,-1.803935961E1,3.222562762E1
1.454139667E0,-2.710734795E1,-1.209158823E1,-1.768900147E1,3.455308368E1
1.464078667E0,-2.838584633E1,-1.222308275E1,-1.570093061E1,3.466524550E1
1.474016667E0,-2.713139872E1,-1.202659642E1,-1.215309041E1,3.206944690E1
1.483955667E0,-2.418843894E1,-1.171107131E1,-7.547679520E0,2.791410461E1
1.493894667E0,-2.050190513E1,-1.072976702E1,-3.695585596E0,2.343316810E1
1.503833667E0,-1.660453475E1,-9.351913338E0,-1.884843826E0,1.914997373E1
1.513771667E0,-1.331129402E1,-7.822067716E0,-1.236434680E0,1.548883671E1
1.523710667E0,-1.096563318E1,-6.523729733E0,-1.796483334E0,1.288532161E1
1.533649667E0,-8.869325674E0,-5.979545744E0,-2.802941760E0,1.105786542E1
1.543588667E0,-6.721961453E0,-5.420865923E0,-2.868682006E0,9.099444466E0
1.553527667E0,-5.054360107E0,-4.871987498E0,-2.560332012E0,7.472490768E0
1.563465667E0,-4.310635791E0,-5.025533919E0,-1.184534209E0,6.726120233E0
1.573404667E0,-4.781582235E0,-5.152035506E0,1.412665082E0,7.169562131E0
1.583343667E0,-5.194024946E0,-5.182504177E0,3.559326468E0,8.155062819E0
1.593282667E0,-4.729189428E0,-4.992545682E0,4.778176816E0,8.373871191E0
1.603220667E0,-3.733663541E0,-4.298813306E0,4.989911512E0,7.570948169E0
1.613159667E0,-2.276407008E0,-3.656522979E0,3.895395772E0,5.807434664E0
1.623099042E0,-4.242131567E-1,-3.139323891E0,2.501555800E0,4.036470329E0
1.633038042E0,1.200425480E0,-2.267442349E0,1.816849186E0,3.143764798E0
1.642976042E0,2.440266748E0,-1.495880901E0,6.244417012E-1,2.929588522E0
1.652915042E0,2.108731667E0,-1.400367803E0,-3.926820463E-1,2.561635887E0
1.662854042E0,7.858254379E-1,-1.152910421E0,-3.516503799E-1,1.438882221E0
1.672793042E0,-5.361124921E-1,-1.314332164E0,6.752165830E-1,1.571878836E0
1.682732042E0,-1.083726165E0,-1.140634484E0,2.317592456E0,2.801204066E0
1.692670042E0,-1.201381499E0,-8.813440910E-1,3.533587609E0,3.834882828E0
1.702609042E0,-5.425520307E-1,-5.983195576E-1,4.308320294E0,4.383374585E0
1.712548042E0,7.224234939E-1,-4.430385599E-1,4.701145597E0,4.776918337E0
1.722487042E0,2.607830114E0,-2.332068408E-1,4.780090610E0,5.450177022E0
1.732425042E0,4.168313685E0,4.242631504E-1,4.304785652E0,6.007163866E0
1.742364042E0,5.013464681E0,1.003773969E0,3.799776254E0,6.370297471E0
1.752303042E0,4.857274149E0,1.204897430E0,3.288998578E0,5.988522491E0
1.762242042E0,3.342768112E0,9.613103199E-1,2.955204425E0,4.564148264E0
1.772180042E0,1.481626851E0,1.381150344E-1,3.159038363E0,3.491964672E0
1.782119042E0,7.146733019E-1,-7.853526905E-1,4.385327539E0,4.512054344E0
1.792058042E0,7.890215260E-1,-1.179567000E0,5.694743657E0,5.868904378E0
1.801997042E0,1.589758387E0,-1.375518891E0,6.091706450E0,6.444243278E0
1.811936042E0,3.457683148E0,-1.506526927E0,5.920491790E0,7.019787687E0
1.821874042E0,5.171324301E0,-1.681279737E0,5.031755941E0,7.408634451E0
1.831813042E0,5.606129689E0,-2.041603292E0,3.947264083E0,7.153861043E0
1.841752042E0,4.893986769E0,-2.547806692E0,2.630493922E0,6.112440078E0
1.851691042E0,3.420305992E0,-2.777394106E0,5.548072100E-1,4.440745673E0
1.861629042E0,1.601086344E0,-2.878835696E0,-2.324490416E0,4.031678080E0
1.871568042E0,-6.472473040E-2,-2.581128219E0,-5.306547595E0,5.901343877E0
1.881507042E0,-1.603162398E0,-1.644327089E0,-7.233508623E0,7.589307494E0
1.891446042E0,-2.289847564E0,-5.107858622E-1,-7.680779105E0,8.031106507E0
1.901385042E0,-1.601234571E0,3.666192520E-1,-5.849010748E0,6.075301520E0
1.911323042E0,-2.349231447E-1,8.851953596E-1,-2.002635108E0,2.202114231E0
1.921262042E0,1.351265517E0,8.915354955E-1,2.320973316E0,2.829782884E0
1.931201042E0,2.719553449E0,6.460863394E-1,5.517063730E0,6.184770871E0
1.941140042E0,3.642229168E0,5.326883626E-1,6.671685923E0,7.619775801E0
1.951078042E0,3.546468733E0,3.314681304E-1,5.819489910E0,6.823032640E0
1.961017042E0,2.856508395E0,-6.387966156E-2,4.320623420E0,5.179913857E0
1.970956042E0,2.219960034E0,-5.110817313E-1,3.423620194E0,4.112250274E0
1.980895042E0,1.645922063E0,-8.324476272E-1,3.035825835E0,3.552220008E0
1.990833042E0,9.046254379E-1,-1.066575989E0,2.698958970E0,3.039787994E0
2.000772042E0,2.471777393E-1,-1.108414571E0,2.525743393E0,2.769306661E0
2.010711042E0,5.069349591E-2,-1.137039031E0,2.745169516E0,2.971764334E0
2.020650042E0,2.559443966E-1,-1.222147593E0,3.114459191E0,3.355444580E0
2.030589042E0,8.043230315E-1,-1.143390276E0,3.336353424E0,3.617392850E0
2.040527042E0,1.413632504E0,-7.684749949E-1,3.354127205E0,3.720091394E0
2.050466042E0,2.044736523E0,-3.474585110E-1,2.865396456E0,3.537254827E0
2.060405042E0,2.523466779E0,4.978904128E-3,2.691523066E0,3.689472292E0
2.070344042E0,2.603994049E0,1.599184245E-1,2.808289039E0,3.833124866E0
2.080282042E0,2.344008714E0,8.639027238E-2,2.883111765E0,3.716742334E0
2.090221042E0,1.920178843E0,-1.590512824E-1,3.043022003E0,3.601717231E0
2.100160042E0,1.475881670E0,-4.348702919E-1,3.237041389E0,3.584100421E0
2.110099042E0,1.162651736E0,-6.158597428E-1,3.200029099E0,3.459946317E0
2.120037042E0,9.492210554E-1,-6.878296119E-1,3.327227674E0,3.527686803E0
2.129976042E0,1.050156861E0,-7.382881594E-1,3.706504979E0,3.922509145E0
2.139915042E0,1.592773358E0,-7.675470418E-1,4.020203421E0,4.391820918E0
2.149854042E0,2.172383141E0,-8.223582566E-1,3.974828442E0,4.603779182E0
2.159793042E0,2.624306399E0,-1.027093835E0,3.454115177E0,4.457893839E0
2.169731042E0,2.855421983E0,-1.449501956E0,2.776105964E0,4.238072079E0
2.179670042E0,2.492787316E0,-1.840096546E0,2.235789909E0,3.820824573E0
2.189609042E0,1.719643904E0,-2.288309015E0,1.984858988E0,3.483274107E0
2.199548042E0,9.142478353E-1,-2.718205081E0,2.012273074E0,3.503388487E0
2.209486042E0,5.582468346E-2,-3.008953201E0,2.006041111E0,3.616782645E0
2.219425042E0,-7.152898908E-1,-3.214270577E0,1.771530926E0,3.739183975E0
2.229364042E0,-1.322168310E0,-3.515846572E0,1.240124858E0,3.955656181E0
2.239303042E0,-1.755331946E0,-3.843512843E0,6.661569071E-1,4.277563119E0
2.249241042E0,-1.967852507E0,-3.964872388E0,4.036350507E-1,4.444724716E0
2.259180042E0,-1.898949503E0,-4.047088918E0,5.133972287E-1,4.499834957E0
2.269119042E0,-1.498109567E0,-4.181823677E0,6.803878605E-1,4.493874629E0
2.279058042E0,-1.054867232E0,-4.261837853E0,4.143342859E-1,4.409952343E0
2.288997042E0,-7.182424423E-1,-4.206431684E0,-2.052197278E-1,4.272242369E0
2.298935042E0,-3.889053297E-1,-4.147877959E0,-8.205462044E-1,4.246108217E0
2.308874042E0,2.971537453E-1,-4.256302002E0,-1.104201068E0,4.407228957E0
2.318813042E0,9.685591131E-1,-4.189424765E0,-8.947309989E-1,4.392030303E0
2.328752042E0,8.321324623E-1,-4.071518877E0,-1.028697141E0,4.281112964E0
2.338690042E0,-9.727164835E-2,-4.126063459E0,-1.612664416E0,4.431088801E0
2.348629042E0,-1.136637912E0,-4.378557341E0,-2.519276957E0,5.177882435E0
2.358568042E0,-2.323038552E0,-4.745447904E0,-3.504106532E0,6.339916917E0
2.368507042E0,-3.743859331E0,-5.026501633E0,-4.629460487E0,7.791925677E0
2.378445042E0,-4.460311648E0,-5.063901009E0,-5.899312005E0,8.963222387E0
2.388384042E0,-5.135801881E0,-5.369118065E0,-6.712223500E0,1.001288340E1
2.398323042E0,-5.494940205E0,-5.353153996E0,-6.779429058E0,1.023773822E1
2.408262042E0,-5.354761981E0,-5.295818539E0,-6.345429416E0,9.848027434E0
2.418201042E0,-4.881649144E0,-5.295341991E0,-5.823273643E0,9.261838969E0
2.428139042E0,-4.274212900E0,-5.139985564E0,-4.765573143E0,8.209691522E0
2.438078042E0,-3.683439467E0,-4.768645855E0,-3.083749030E0,6.768841679E0
2.448017042E0,-2.995640261E0,-4.133627417E0,-1.262481979E0,5.258763823E0
2.457956042E0,-2.069605608E0,-3.554976431E0,-1.379027805E-1,4.115840373E0
2.467894042E0,-9.915474415E-1,-3.041851098E0,1.815206704E-1,3.204524019E0
2.477833042E0,-2.421969348E-1,-2.548763881E0,5.025506437E-2,2.560738613E0
2.487772042E0,-5.709443557E-1,-2.007851117E0,-1.329759166E-1,2.091680224E0
2.497711042E0,-1.467109677E0,-1.596900030E0,-5.628132176E-1,2.240370333E0
2.507649042E0,-2.603462244E0,-1.273097746E0,-1.029419857E0,3.075467244E0
2.517588042E0,-3.722859056E0,-9.121178408E-1,-1.328524526E0,4.056675477E0
2.527527042E0,-4.324432881E0,-7.047533543E-1,-1.292314912E0,4.568093133E0
2.537466042E0,-4.392845305E0,-5.682432345E-1,-6.680198300E-1,4.479535772E0
2.547405042E0,-4.314991382E0,-1.115591736E-1,-1.254860719E-1,4.318256921E0
2.557343042E0,-5.142312756E0,3.273711325E-1,-8.735482907E-1,5.226245206E0
2.567282042E0,-6.858868160E0,4.887272412E-1,-2.535846212E0,7.328945543E0
2.577221042E0,-8.951695985E0,6.025716528E-1,-4.266614444E0,9.934784971E0
2.587160042E0,-1.162101834E1,6.451275422E-1,-5.019961522E0,1.267534104E1
2.597098042E0,-1.430213278E1,3.451118772E-1,-4.810936427E0,1.509354874E1
2.607037042E0,-1.657148395E1,8.838475764E-2,-3.951966999E0,1.703642966E1
2.616976042E0,-1.855744865E1,4.622655205E-1,-2.684394726E0,1.875629401E1
2.626915458E0,-2.057698104E1,9.450685090E-1,-1.378524944E0,2.064474835E1
2.636853458E0,-2.270765497E1,1.215171281E0,-6.480434024E-1,2.274937792E1
2.646792458E0,-2.457195548E1,1.569200892E0,-5.868651545E-1,2.462900319E1
2.656731458E0,-2.576597095E1,1.882267250E0,-1.066616262E0,2.585664053E1
2.666670458E0,-2.568235577E1,2.364450873E0,-1.735430217E0,2.584928904E1
2.676608458E0,-2.290216143E1,2.846730097E0,-1.897034394E0,2.315624343E1
2.686547458E0,-1.718461480E1,2.971625161E0,-1.367940314E0,1.749322162E1
2.696486458E0,-8.428949643E0,1.881022963E0,2.810505865E-1,8.640858112E0
2.706425458E0,5.958596925E0,1.080974027E0,5.027971623E0,7.871078757E0
2.716364458E0,2.565544922E1,2.836538692E0,1.249960459E1,2.867905405E1
2.726302458E0,4.456308527E1,6.008278377E0,2.016496050E1,4.928076308E1
2.736241458E0,5.579356575E1,6.096045084E0,2.414580573E1,6.109912993E1
2.746180458E0,5.650825922E1,3.097715981E0,2.309515697E1,6.112418081E1
2.756119458E0,5.165568302E1,-2.782774714E-1,1.892662898E1,5.501458271E1
2.766057458E0,4.623409321E1,-1.900027876E0,1.663964378E1,4.917396898E1
2.775996458E0,4.001599568E1,-1.152283599E0,1.613884379E1,4.316329398E1
2.785935458E0,3.323273670E1,-3.907812627E-1,1.413431769E1,3.611573667E1
2.795874458E0,2.887023903E1,-1.004621816E0,1.084616170E1,3.085675275E1
2.805812458E0,2.502206946E1,-1.427267188E0,6.480870227E0,2.588711515E1
2.815751458E0,2.068512413E1,-1.815964064E0,1.668769912E0,2.083163168E1
2.825690458E0,1.572535676E1,-1.903265187E0,-2.577714907E0,1.604848522E1
2.835629458E0,1.114363762E1,-1.821673870E0,-5.432449257E0,1.253038946E1
2.845568458E0,7.546133516E0,-2.197201209E0,-7.414078828E0,1.080464664E1
2.855506458E0,4.311481299E0,-2.952022663E0,-9.057442880E0,1.045660463E1
2.865445458E0,9.337962466E-1,-3.477241208E0,-1.029885880E1,1.091007216E1
2.875384458E0,-1.569324269E0,-3.523501747E0,-1.075020421E1,1.142124047E1
2.885323458E0,-3.337895919E0,-3.587691603E0,-1.057877437E1,1.165862545E1
2.895261458E0,-4.547529886E0,-3.916925512E0,-1.001037589E1,1.167175904E1
2.905200458E0,-5.472022043E0,-4.097373803E0,-9.167595652E0,1.143574691E1
2.915139458E0,-6.173336504E0,-4.035408520E0,-8.352723001E0,1.114282671E1
2.925078458E0,-6.729966291E0,-3.873729499E0,-7.501421612E0,1.079673806E1
2.935016458E0,-7.173042566E0,-3.702844329E0,-6.563593710E0,1.040405489E1
2.944955458E0,-7.716185750E0,-3.746004967E0,-5.909273322E0,1.041592948E1
2.954894458E0,-8.334415954E0,-4.383683887E0,-5.533846993E0,1.092257462E1
2.964833458E0,-9.168075124E0,-5.299371307E0,-5.293398961E0,1.183879260E1
2.974772458E0,-1.034046174E1,-6.186609684E0,-5.242356277E0,1.314083665E1
2.984710458E0,-1.145328511E1,-7.600477538E0,-5.710070379E0,1.488455248E1
2.994649458E0,-1.252965227E1,-9.459831305E0,-6.281000701E0,1.690951105E1
3.004588458E0,-1.354488912E1,-1.093858513E1,-6.657164363E0,1.863959504E1
3.014527458E0,-1.421725460E1,-1.215515097E1,-6.731231044E0,1.987932330E1
3.024465458E0,-1.529260200E1,-1.349604966E1,-7.048864077E0,2.157993320E1
3.034404458E0,-1.724088490E1,-1.449844018E1,-7.981866857E0,2.389901835E1
3.044343458E0,-1.898504384E1,-1.565012532E1,-8.848025436E0,2.614662246E1
3.054282458E0,-2.169956459E1,-1.645975185E1,-1.011005806E1,2.905181247E1
3.064220458E0,-2.510504847E1,-1.653542184E1,-1.218891747E1,3.243845470E1
3.074159458E0,-2.597943642E1,-1.602539026E1,-1.288537114E1,3.313271856E1
3.084098458E0,-2.501861025E1,-1.468363554E1,-1.101940768E1,3.103171534E1
3.094037458E0,-2.323796702E1,-1.332916428E1,-8.203730099E0,2.801733248E1
3.103975458E0,-2.128911110E1,-1.144472128E1,-5.677856314E0,2.482832956E1
3.113914458E0,-1.838806417E1,-7.334778305E0,-3.039084488E0,2.002887693E1
3.123853458E0,-1.175919974E1,-1.534488020E0,-5.984837182E-1,1.187398900E1
3.133792458E0,8.965535760E-3,4.943812648E0,3.728388768E0,6.192111650E0
3.143731458E0,1.513347587E1,1.307607691E1,1.220787765E1,2.343156324E1
3.153669458E0,2.863251463E1,2.068768287E1,2.267741785E1,4.197697460E1
3.163608458E0,4.265926460E1,2.459977419E1,3.492669846E1,6.037247728E1
3.173547458E0,5.623973637E1,2.697271464E1,4.496533629E1,7.689159089E1
3.183486458E0,6.390796208E1,2.756770625E1,4.563212002E1,8.322557553E1
3.193424458E0,6.663570690E1,2.396578633E1,3.858703207E1,8.064512008E1
3.203363458E0,6.597254844E1,1.794168071E1,2.996994125E1,7.464903504E1
3.213302458E0,6.141684239E1,1.162739882E1,2.300725461E1,6.660749731E1
3.223241458E0,5.472402580E1,4.291416871E0,1.728727086E1,5.754984789E1
3.233179458E0,5.010277481E1,-2.877381493E0,1.352518868E1,5.197593767E1
3.243118458E0,4.924263067E1,-8.323318523E0,1.237689376E1,5.145193685E1
3.253057458E0,5.023384599E1,-1.324759679E1,1.284233095E1,5.351507795E1
3.262996458E0,5.071032390E1,-1.849957291E1,1.333589911E1,5.560231428E1
3.272934458E0,4.910422006E1,-2.355626138E1,1.285040713E1,5.595761647E1
3.282873458E0,4.467023433E1,-2.740319601E1,1.111085579E1,5.357066458E1
3.292812458E0,3.727036307E1,-2.927296718E1,9.137417003E0,4.826467611E1
3.302751458E0,2.903097197E1,-2.979553752E1,7.453636411E0,4.226260859E1
3.312690458E0,2.092302394E1,-2.939617503E1,6.733434860E0,3.670486592E1
3.322628458E0,1.244349822E1,-2.852142455E1,6.846562110E0,3.186201059E1
3.332567458E0,3.843568976E0,-2.760506061E1,7.617358450E0,2.889353809E1
3.342506458E0,-3.395100984E0,-2.681163788E1,8.034600556E0,2.819477687E1
3.352445458E0,-8.101643561E0,-2.663634537E1,7.049335363E0,2.871976066E1
3.362383458E0,-1.170413768E1,-2.679680233E1,4.446868315E0,2.957752680E1
3.372322458E0,-1.554800370E1,-2.624831712E1,8.101187186E-1,3.051836927E1
3.382261458E0,-1.971322801E1,-2.406767523E1,-2.149733220E0,3.118470302E1
3.392200458E0,-2.330958840E1,-2.143028159E1,-3.068115914E0,3.181206085E1
3.402138458E0,-2.559670341E1,-2.027300301E1,-3.180706975E0,3.280705372E1
3.412077458E0,-2.653243099E1,-1.929939015E1,-2.047753101E0,3.287293183E1
3.422016458E0,-2.713339612E1,-1.877621638E1,1.401637526E-1,3.299677458E1
3.431955458E0,-2.838834192E1,-1.901779058E1,1.611321895E0,3.420775751E1
3.441893458E0,-3.045121154E1,-1.906412743E1,2.028337422E0,3.598376566E1
3.451832458E0,-3.210308504E1,-1.886341941E1,2.330938725E0,3.730777314E1
3.461771458E0,-3.143560900E1,-1.849923494E1,2.881264629E0,3.658853499E1
3.471710458E0,-2.837379639E1,-1.736663044E1,3.409491566E0,3.344094507E1
3.481648458E0,-2.505585468E1,-1.589047278E1,4.408378433E0,2.999561266E1
3.491587458E0,-2.306704122E1,-1.449492718E1,6.384392338E0,2.798127534E1
3.501526458E0,-2.196512875E1,-1.320388769E1,8.288635179E0,2.693531147E1
3.511465458E0,-2.168415366E1,-1.199983840E1,9.548746405E0,2.655893822E1
3.521404458E0,-2.148042965E1,-1.103619387E1,1.022109902E1,2.622360193E1
3.531342458E0,-2.056208467E1,-1.004784719E1,9.953660241E0,2.495664063E1
3.541281458E0,-1.857210996E1,-8.948922651E0,8.659069154E0,2.236036591E1
3.551220458E0,-1.617420073E1,-7.907830582E0,6.735548043E0,1.922254305E1
3.561159458E0,-1.357108581E1,-6.878172158E0,4.795191629E0,1.595235046E1
3.571097458E0,-1.095622501E1,-5.948996966E0,2.839342432E0,1.278637152E1
3.581036458E0,-8.215977092E0,-5.053791758E0,9.430950737E-1,9.691879025E0
3.590975458E0,-4.710843789E0,-4.211530749E0,-1.496887207E-4,6.318942987E0
3.600914458E0,-9.090069759E-1,-2.508239753E0,4.095062399E-1,2.699121283E0
3.610852458E0,1.975488825E0,-2.394215539E-2,1.634849921E0,2.564344671E0
3.620791458E0,4.936235826E0,2.570333090E0,2.718275832E0,6.193711312E0
3.630729667E0,9.249889365E0,4.672412964E0,3.328346246E0,1.088438262E1
3.640668667E0,1.633975178E1,6.703564358E0,2.263602190E0,1.780587426E1
3.650607667E0,2.286365167E1,9.519008635E0,-9.684170258E-1,2.478499394E1
3.660545667E0,2.622970661E1,1.121444039E1,-3.069626834E0,2.869117967E1
3.670484667E0,2.748219657E1,1.027266562E1,-9.957176757E-1,2.935626408E1
3.680423667E0,2.807509021E1,9.112558150E0,3.635305188E0,2.973995376E1
3.690362667E0,2.741920803E1,8.653551137E0,7.600729553E0,2.974000682E1
3.700300667E0,2.439128353E1,7.537510042E0,8.955144088E0,2.705445205E1
3.710239667E0,1.909263611E1,5.314696274E0,7.696636169E0,2.126059638E1
3.720178667E0,1.296464886E1,2.827034628E0,5.879468309E0,1.451352447E1
3.730117667E0,7.607846199E0,4.260537140E-1,4.057848380E0,8.632900963E0
3.740055667E0,3.489017208E0,-1.858850321E0,2.198620328E0,4.523549153E0
3.749994667E0,6.472891116E-1,-3.750413475E0,6.469803786E-1,3.860462153E0
3.759933667E0,-1.330509948E0,-5.400793601E0,-6.223747835E-1,5.596979419E0
3.769872667E0,-3.001700900E0,-7.018777814E0,-1.881809413E0,7.862229770E0
3.779810667E0,-4.517679266E0,-8.426164030E0,-3.339118572E0,1.012716046E1
3.789749667E0,-6.020387376E0,-9.199352465E0,-4.595869403E0,1.191617244E1
3.799688667E0,-6.975690851E0,-9.487968691E0,-5.379908516E0,1.294701620E1
3.809627667E0,-7.229488662E0,-9.710230129E0,-5.626078634E0,1.334941333E1
3.819566667E0,-6.838637964E0,-1.005550003E1,-5.366753451E0,1.329218163E1
3.829504667E0,-6.126552932E0,-1.086477221E1,-4.986629469E0,1.343295945E1
3.839443667E0,-5.869052664E0,-1.181036756E1,-4.942078364E0,1.408384534E1
3.849382667E0,-6.323546212E0,-1.267950822E1,-5.314623184E0,1.513282475E1
3.859321667E0,-7.068073350E0,-1.298637477E1,-5.641506513E0,1.582498614E1
3.869259667E0,-6.540246947E0,-1.247269805E1,-5.292589706E0,1.504508333E1
3.879198667E0,-2.860808145E0,-1.179252887E1,-4.229282895E0,1.285047837E1
3.889137667E0,4.647368755E0,-1.058766799E1,-3.303760459E0,1.202545562E1
3.899076667E0,1.493018455E1,-8.119612055E0,-2.301869878E0,1.715042611E1
3.909014667E0,2.474272926E1,-4.280384637E0,-1.355682796E-1,2.511060976E1
3.918953667E0,3.096479120E1,-8.719347516E-1,2.874081325E0,3.111010941E1
3.928892667E0,3.240657424E1,1.704722687E0,5.497168579E0,3.291369010E1
3.938831667E0,2.923990702E1,2.793613697E0,7.683142549E0,3.036127664E1
3.948769667E0,2.346236211E1,2.537963781E0,9.124903377E0,2.530192794E1
3.958708667E0,1.714497419E1,1.452118293E0,9.086872501E0,1.945841821E1
3.968647667E0,1.102694123E1,4.306407085E-1,7.690496593E0,1.345074802E1
3.978586667E0,6.121545376E0,-9.549380243E-2,5.677203764E0,8.349435876E0
3.988525667E0,2.668685011E0,-1.991488561E-1,3.872341078E0,4.707076096E0
3.998463667E0,4.607804739E-1,-1.556473258E-1,2.360825891E0,2.410403208E0
4.008402667E0,-1.029232746E0,3.321481615E-2,1.165369668E0,1.555155855E0
4.018341667E0,-2.136795378E0,1.793966693E-1,3.095858029E-1,2.166545874E0
4.028280667E0,-3.104551084E0,1.875383323E-1,-2.220105922E-1,3.118123917E0
4.038218667E0,-3.791734579E0,1.220483476E-1,-6.661025280E-1,3.851732012E0
4.048157667E0,-4.317089948E0,9.994382590E-2,-1.095428198E0,4.455021585E0
4.058096667E0,-4.866508364E0,-3.505318075E-2,-1.531680187E0,5.101977712E0
4.068035667E0,-5.487532368E0,-2.610539129E-1,-1.905526890E0,5.814825308E0
4.077973667E0,-5.992702564E0,-6.184351489E-1,-2.227852021E0,6.423260129E0
4.087912667E0,-6.343867625E0,-1.107330498E0,-2.599557474E0,6.944676834E0
4.097851667E0,-6.870302390E0,-1.552452420E0,-2.925543547E0,7.626923921E0
4.107790667E0,-7.537490162E0,-1.888710882E0,-3.237006891E0,8.417790704E0
4.117728667E0,-8.182903486E0,-2.176933005E0,-3.406780797E0,9.127162877E0
4.127667667E0,-8.791320308E0,-2.436217259E0,-3.428113486E0,9.745482511E0
4.137606667E0,-9.355975984E0,-2.717237366E0,-3.306492863E0,1.028837016E1
4.147545667E0,-9.851742103E0,-3.058673538E0,-3.021445485E0,1.074902038E1
4.157484667E0,-1.017154270E1,-3.458415512E0,-2.719950767E0,1.108237569E1
4.167422667E0,-1.026345508E1,-3.796806746E0,-2.447351819E0,1.121355352E1
4.177361667E0,-1.016333204E1,-4.026574547E0,-2.209705480E0,1.115300045E1
4.187300667E0,-9.906628747E0,-4.107170228E0,-2.034615431E0,1.091557604E1
4.197239667E0,-9.603449446E0,-4.059615993E0,-1.835758497E0,1.058662989E1
4.207177667E0,-9.033117878E0,-4.038465737E0,-1.516047509E0,1.001023597E1
4.217116667E0,-7.919111030E0,-4.132903240E0,-1.053711530E0,8.994638219E0
4.227055667E0,-5.781257306E0,-4.072725450E0,-3.557926936E-1,7.080721508E0
4.236994667E0,-2.369721553E0,-3.942072925E0,3.994437665E-1,4.616825154E0
4.246932667E0,2.013865271E0,-3.423424604E0,1.151527189E0,4.135396500E0
4.256871667E0,6.911429366E0,-1.909023963E0,1.972290398E0,7.436542059E0
4.266810667E0,1.109318785E1,1.415884998E-1,2.525741054E0,1.137797134E1
4.276749667E0,1.411447809E1,1.851629010E0,3.385517982E0,1.463245549E1
4.286687667E0,1.541114611E1,2.704956167E0,4.489186953E0,1.627799164E1
4.296626667E0,1.498079688E1,2.600925137E0,5.249395155E0,1.608555987E1
4.306565667E0,1.325272831E1,1.715825672E0,5.339769720E0,1.439069165E1
4.316504667E0,1.102227282E1,5.345512124E-1,4.944793811E0,1.209244511E1
4.326443667E0,8.700627655E0,-3.695233447E-1,4.130231062E0,9.638271511E0
4.336381667E0,6.969167113E0,-8.604473117E-1,3.232073010E0,7.730197654E0
4.346320667E0,6.215553986E0,-1.284395005E0,2.466744402E0,6.809376611E0
4.356259667E0,6.269988640E0,-1.811610666E0,2.036150179E0,6.836709611E0
4.366198667E0,6.844797421E0,-2.066410397E0,2.027929578E0,7.431944701E0
4.376136667E0,7.457323666E0,-2.071437541E0,2.075599589E0,8.013154397E0
4.386075667E0,8.124285150E0,-2.085481091E0,1.944816670E0,8.610200489E0
4.396014667E0,8.480025072E0,-1.949393286E0,1.777483976E0,8.880901345E0
4.405953667E0,8.219614645E0,-1.830398062E0,1.597216657E0,8.571086456E0
4.415891667E0,7.365869704E0,-1.895870505E0,1.218527655E0,7.702932631E0
4.425830667E0,5.801783956E0,-2.043932238E0,5.664045775E-1,6.177310921E0
4.435769667E0,3.637136536E0,-2.079492957E0,-3.341379690E-1,4.202939605E0
4.445708667E0,1.412417160E0,-1.820732030E0,-1.202951769E0,2.599438462E0
4.455646667E0,-3.268026370E-1,-1.248358615E0,-1.636342131E0,2.083942121E0
4.465585667E0,-1.339639206E0,-8.669760203E-1,-1.366079146E0,2.100583932E0
4.475524667E0,-1.714139920E0,-5.380406114E-1,-2.669955977E-1,1.816328719E0
4.485463667E0,-1.814409728E0,1.855043967E-1,1.127151462E0,2.144053395E0
4.495402667E0,-2.175800985E0,1.064551975E0,2.336971883E0,3.365831014E0
4.505340667E0,-3.115216990E0,1.642605961E0,3.261765171E0,4.800192003E0
4.515279667E0,-4.329222921E0,2.035663983E0,3.323730454E0,5.825228157E0
4.525218667E0,-5.513958274E0,2.086409921E0,2.008746033E0,6.228314606E0
4.535157667E0,-6.901977927E0,1.642708872E0,-4.916409087E-1,7.111786170E0
4.545095667E0,-8.532130195E0,8.882847360E-1,-3.315692287E0,9.196744576E0
4.555034667E0,-1.014767904E1,2.107348216E-1,-5.336366640E0,1.146719704E1
4.564973667E0,-1.132587662E1,-2.626282758E-1,-5.851475349E0,1.275085168E1
4.574912667E0,-1.210851708E1,-5.089384344E-1,-5.114515092E0,1.315421867E1
4.584850667E0,-1.231648266E1,-7.032525203E-1,-3.727960752E0,1.288751336E1
4.594789667E0,-1.202954108E1,-1.269949459E0,-2.303918157E0,1.231384055E1
4.604728667E0,-1.204791654E1,-1.765708561E0,-1.071013441E0,1.222362833E1
4.614667667E0,-1.204844396E1,-2.017675316E0,-4.875472730E-1,1.222594446E1
4.624606417E0,-1.149249537E1,-2.533413478E0,-3.322154045E-1,1.177310498E1
4.634545417E0,-1.088804881E1,-3.314954076E0,-4.842804337E-1,1.139179771E1
4.644484417E0,-1.023482945E1,-4.073846362E0,-9.013605720E-1,1.105262001E1
4.654423417E0,-9.140105553E0,-4.575344507E0,-1.288209436E0,1.030217406E1
4.664361417E0,-7.716316727E0,-4.302308187E0,-1.277383316E0,8.926539515E0
4.674300417E0,-5.340577805E0,-3.430190125E0,-4.948767579E-1,6.366543693E0
4.684239417E0,-2.062335765E0,-2.246912482E0,5.802835286E-1,3.104605206E0
4.694178417E0,1.123089913E0,-3.707725292E-1,1.294264812E0,1.753261140E0
4.704117417E0,3.229887906E0,1.981043826E0,1.577210408E0,4.104181185E0
4.714055417E0,3.376640155E0,3.556656044E0,1.354177723E0,5.087759650E0
4.723994417E0,1.963395613E0,3.949161505E0,1.233569545E0,4.579573424E0
4.733933417E0,-2.686836523E-1,3.854716400E0,1.093119425E0,4.015711582E0
4.743872417E0,-3.088566551E0,3.616357285E0,7.304207307E-1,4.811527595E0
4.753810417E0,-5.939488809E0,3.284693566E0,3.172307450E-1,6.794657789E0
4.763749417E0,-8.385536991E0,2.761389692E0,1.802290935E-2,8.828523573E0
4.773688417E0,-1.079026465E1,2.203948311E0,4.395819783E-2,1.101313451E1
4.783627417E0,-1.352086642E1,1.579561282E0,3.009363091E-1,1.361614502E1
4.793565417E0,-1.653792327E1,6.128232837E-1,3.521356988E-1,1.655301961E1
4.803504417E0,-2.021864262E1,-4.689312002E-1,-4.511664820E-1,2.022911162E1
4.813443417E0,-2.482896400E1,-1.434756448E0,-2.164034048E0,2.496435504E1
4.823382417E0,-2.911907314E1,-2.112288236E0,-3.692775716E0,2.942819693E1
4.833320417E0,-3.182510139E1,-2.510306743E0,-4.309414893E0,3.221350300E1
4.843259417E0,-3.222102338E1,-2.795742669E0,-3.815131043E0,3.256632846E1
4.853198417E0,-3.044413874E1,-3.065356613E0,-2.396196576E0,3.069175383E1
4.863137417E0,-2.772277207E1,-3.321678666E0,-7.543317497E-1,2.793124875E1
4.873075417E0,-2.382397965E1,-3.742018043E0,4.034321523E-1,2.411944160E1
4.883014417E0,-1.779378357E1,-4.951066119E0,1.046027119E0,1.849935032E1
4.892953417E0,-8.208706664E0,-8.104927357E0,2.577515810E0,1.182016499E1
4.902892417E0,7.080803323E0,-1.198420996E1,3.466934028E0,1.434498852E1
4.912831417E0,2.570010090E1,-1.539897337E1,1.067955347E0,2.997939452E1
4.922769417E0,4.325710264E1,-1.927379923E1,-2.398680254E-1,4.735729936E1
4.932708417E0,5.373289936E1,-1.954090471E1,4.758250090E0,5.737344660E1
4.942647417E0,5.708272711E1,-2.012536549E1,1.172133434E1,6.165109690E1
4.952586417E0,5.562406198E1,-2.001926426E1,1.697796835E1,6.150657381E1
4.962524417E0,4.839557962E1,-1.670927008E1,1.553021413E1,5.350251755E1
4.972463417E0,3.780795374E1,-1.402979754E1,9.284807768E0,4.138217297E1
4.982402417E0,2.848998290E1,-1.223128055E1,3.522596598E0,3.120403878E1
4.992341417E0,2.080988967E1,-1.140556248E1,-5.051340166E-1,2.373591212E1
5.002279417E0,1.415664704E1,-9.865845587E0,-2.429074300E0,1.742544021E1
5.012218417E0,9.050446102E0,-8.326126941E0,-4.086656442E0,1.295900171E1
5.022157417E0,5.314951798E0,-6.762844015E0,-5.313704587E0,1.011040198E1
5.032096417E0,3.150534173E0,-5.496908378E0,-5.156988097E0,8.169234574E0
5.042034417E0,1.528380311E0,-4.315981901E0,-4.358278905E0,6.321253131E0
5.051973417E0,-6.009534359E-2,-3.035835190E0,-3.559832836E0,4.678922587E0
5.061912417E0,-9.578663099E-1,-1.978087912E0,-3.001498586E0,3.720125457E0
5.071851417E0,-9.787549031E-1,-1.224670082E0,-2.450780334E0,2.909313014E0
5.081789417E0,-7.710933781E-1,-3.627361161E-1,-1.941031768E0,2.119850658E0
5.091728417E0,-4.925261772E-1,6.220443428E-1,-1.757595257E0,1.928383335E0
5.101667417E0,-3.561340249E-1,1.619043143E0,-1.657102085E0,2.343953810E0
5.111606417E0,-4.085040271E-2,2.709433672E0,-1.865210776E0,3.289636883E0
5.121544417E0,3.585419083E-1,3.690924488E0,-2.181883258E0,4.302567887E0
5.131483417E0,8.184441304E-1,4.526653572E0,-2.645606051E0,5.306569017E0
5.141422417E0,1.274109460E0,5.096311541E0,-3.001804980E0,6.050337129E0
5.151361417E0,1.371754453E0,5.346903323E0,-3.102665357E0,6.332267978E0
5.161300417E0,1.416407300E0,5.367771451E0,-3.052498001E0,6.335370868E0
5.171238417E0,1.665419165E0,5.105566514E0,-2.856530907E0,6.082778908E0
5.181177417E0,1.757056144E0,4.486054600E0,-2.625578168E0,5.486856375E0
5.191116417E0,1.821751492E0,3.620649142E0,-2.388314821E0,4.704458140E0
5.201055417E0,2.008500450E0,2.597826113E0,-2.342596319E0,4.033674762E0
5.210993417E0,2.646448635E0,1.610645372E0,-2.334266376E0,3.879003533E0
5.220932417E0,3.946905064E0,7.080177087E-1,-2.631963328E0,4.796517447E0
5.230871417E0,5.530600619E0,5.418848634E-2,-3.004586501E0,6.294284681E0
5.240810417E0,6.521814770E0,-1.417815310E-1,-3.025468077E0,7.190801553E0
5.250748417E0,6.512118332E0,-1.086213863E-1,-2.733996656E0,7.063584181E0
5.260687417E0,5.759461225E0,-1.279247993E-1,-2.313001222E0,6.207876691E0
5.270626417E0,4.668278398E0,-1.464353299E-1,-2.181482724E0,5.154913518E0
5.280565417E0,3.847819902E0,-7.355914235E-2,-1.975494672E0,4.325934366E0
5.290503417E0,1.560786164E0,2.543872100E-1,-2.895041254E0,3.298792229E0
5.300442417E0,-1.369186941E0,8.682922286E-1,-4.186762528E0,4.489719895E0
5.310381417E0,-3.966899033E0,1.597227182E0,-5.171207356E0,6.710350820E0
5.320320417E0,-6.465499066E0,2.576898344E0,-5.591923878E0,8.928196677E0
5.330258417E0,-8.680620822E0,3.567730671E0,-4.802038718E0,1.054236481E1
5.340197417E0,-1.072163238E1,4.406791499E0,-3.294431226E0,1.205099536E1
5.350136417E0,-1.297145385E1,5.462377061E0,-1.903642917E-1,1.407595171E1
5.360075417E0,-1.493890275E1,6.462483657E0,1.800737768E0,1.637611575E1
5.370014417E0,-1.573411589E1,6.412272447E0,2.089208983E0,1.711854068E1
5.379952417E0,-1.711345302E1,7.068361618E0,4.244183940E0,1.899592344E1
5.389891417E0,-1.810494199E1,8.587200442E0,6.230897080E0,2.098458992E1
5.399830417E0,-1.831764147E1,1.022616271E1,7.324794184E0,2.222077862E1
5.409769417E0,-1.699767815E1,1.111040205E1,7.181758425E0,2.153926067E1
5.419707417E0,-1.506862557E1,1.168047751E1,6.004875298E0,1.998888588E1
5.429646417E0,-1.284190294E1,1.220311802E1,4.037355058E0,1.816950182E1
5.439585417E0,-9.983334861E0,1.283143876E1,2.285538604E0,1.641756627E1
5.449524417E0,-5.949486963E0,1.383730486E1,1.321982954E0,1.512002116E1
5.459462417E0,-1.089912812E0,1.489711504E1,1.546393243E0,1.501676658E1
5.469401417E0,4.384716505E0,1.655973573E1,2.811722524E0,1.735961894E1
5.479340417E0,1.050508893E1,1.822253417E1,4.388696705E0,2.148670063E1
5.489279417E0,1.737785943E1,1.907343269E1,6.039559811E0,2.650022859E1
5.499217417E0,2.539949086E1,2.021920395E1,8.110883331E0,3.346246812E1
5.509156417E0,3.381466330E1,2.167539454E1,9.222844239E0,4.121061802E1
5.519095417E0,4.190730331E1,2.141001982E1,1.114111981E1,4.836047529E1
5.529034417E0,4.756001719E1,1.859585550E1,1.618566595E1,5.356992495E1
5.538972417E0,4.808475100E1,1.311840724E1,1.985738292E1,5.365213456E1
5.548911417E0,4.556356726E1,5.141621615E0,1.993796457E1,4.999997366E1
5.558850417E0,4.450799047E1,-2.872443520E0,1.821679688E1,4.817742040E1
5.568789417E0,4.639086408E1,-9.502922360E0,1.640356128E1,5.011481443E1
5.578727417E0,4.989855729E1,-1.516874043E1,1.512744739E1,5.430282102E1
5.588666417E0,5.225596285E1,-1.976362867E1,1.273386160E1,5.730129059E1
5.598605417E0,5.086767014E1,-2.301206102E1,9.946999093E0,5.670994276E1
5.608544417E0,4.727604365E1,-2.707621036E1,8.574531865E0,5.515131972E1
5.618483417E0,4.186494608E1,-3.126800441E1,8.211853051E0,5.289419950E1
5.628421333E0,3.472625591E1,-3.438491651E1,8.647884015E0,4.962883467E1
5.638360333E0,2.697175570E1,-3.584728643E1,8.743897051E0,4.570513413E1
5.648299333E0,1.848917422E1,-3.596441786E1,7.616631056E0,4.114975071E1
5.658238333E0,1.053337425E1,-3.454634410E1,5.390990744E0,3.651663518E1
5.668176333E0,3.908412259E0,-3.188073180E1,3.795691974E0,3.234291304E1
5.678115333E0,-1.007940111E0,-2.946109783E1,3.363541807E0,2.966960806E1
5.688054333E0,-4.202444175E0,-2.760144937E1,3.264611596E0,2.810975334E1
5.697993333E0,-6.100269697E0,-2.605498011E1,2.355252618E0,2.686303210E1
5.707931333E0,-7.707892644E0,-2.460015309E1,3.306776964E-1,2.578155327E1
5.717870333E0,-9.829539056E0,-2.259355708E1,-2.187643350E0,2.473609595E1
5.727809333E0,-1.292106254E1,-1.946488740E1,-4.436570199E0,2.378064032E1
5.737748333E0,-1.606721306E1,-1.609152110E1,-6.117679782E0,2.354821422E1
5.747686333E0,-1.863589256E1,-1.288510451E1,-7.266821380E0,2.379346764E1
5.757625333E0,-2.065993666E1,-9.595774391E0,-7.882309824E0,2.410482684E1
5.767564333E0,-2.202674905E1,-6.594914321E0,-7.879809555E0,2.430559539E1
5.777503333E0,-2.306506720E1,-4.763139532E0,-7.805376838E0,2.481146369E1
5.787441333E0,-2.433089115E1,-3.920747545E0,-8.332766454E0,2.601537089E1
5.797380333E0,-2.512583181E1,-3.957393799E0,-9.203313954E0,2.704938775E1
5.807319333E0,-2.544539618E1,-4.111545992E0,-8.868332816E0,2.725839915E1
5.817258333E0,-2.540162627E1,-4.174285154E0,-7.278936810E0,2.675163910E1
5.827196333E0,-2.478287390E1,-4.001193830E0,-5.451439844E0,2.568888062E1
5.837135333E0,-2.342833833E1,-3.746360185E0,-3.804086237E0,2.402901004E1
5.847074333E0,-2.166945143E1,-3.653076630E0,-2.244674899E0,2.208955996E1
5.857013333E0,-1.977693927E1,-3.565264315E0,-1.217037566E0,2.013255118E1
5.866951333E0,-1.772312348E1,-3.381783658E0,-7.691292983E-1,1.805926705E1
5.876890333E0,-1.580391762E1,-3.152524565E0,-7.358703357E-1,1.613207142E1
5.886829333E0,-1.424897457E1,-2.891341136E0,-1.205722180E0,1.458927332E1
5.896768333E0,-1.333166806E1,-2.665526053E0,-2.041205389E0,1.374790609E1
5.906707333E0,-1.292966497E1,-2.907139436E0,-2.767861390E0,1.353841765E1
5.916645333E0,-1.300293993E1,-3.602232751E0,-2.989809417E0,1.381996701E1
5.926584333E0,-1.326002797E1,-3.781798990E0,-2.338149512E0,1.398561005E1
5.936523333E0,-1.206088567E1,-2.956883453E0,-7.683925492E-1,1.244180654E1
5.946462333E0,-9.447860300E0,-2.117391247E0,7.695596534E-1,9.712756149E0
5.956400333E0,-5.915143926E0,-1.544996051E0,2.372551020E0,6.557815094E0
5.966339333E0,-1.884948199E0,-1.191961343E0,5.318549005E0,5.767214672E0
5.976278333E0,1.943019821E0,-5.730079843E-1,8.443558327E0,8.683164250E0
5.986217333E0,4.221818340E0,3.840598883E-1,9.946925418E0,1.081261196E1
5.996155333E0,4.870339460E0,6.950132087E-1,1.075625842E1,1.182794762E1
6.006094333E0,4.944282179E0,3.589544293E-1,1.141850588E1,1.244817460E1
6.016033333E0,4.495465109E0,-6.014051333E-1,1.139281789E1,1.226243019E1
6.025972333E0,3.690043897E0,-1.742023683E0,9.688234073E0,1.051251397E1
6.035910333E0,3.184956146E0,-2.130398378E0,6.733516721E0,7.747437662E0
6.045849333E0,3.745880713E0,-1.980380313E0,4.296166856E0,6.034117844E0
6.055788333E0,5.506629374E0,-1.995922651E0,3.139172448E0,6.645380196E0
6.065727333E0,6.589447759E0,-9.135475581E-1,3.758883752E0,7.640981479E0
6.075665333E0,6.250121555E0,-1.734749747E-1,4.686797115E0,7.814101370E0
6.085604333E0,5.022975762E0,-8.735772344E-1,5.652182359E0,7.611871525E0
6.095543333E0,3.253753609E0,-1.931821380E0,5.469701284E0,6.651050934E0
6.105482333E0,2.160099456E0,-2.792506819E0,4.102268507E0,5.412275945E0
6.115420333E0,1.864312498E0,-3.026780777E0,2.282698027E0,4.224662500E0
6.125359333E0,1.882636210E0,-2.967827102E0,2.055734843E-1,3.520593311E0
6.135298333E0,2.296198078E0,-2.964145695E0,-1.710563763E0,4.121251473E0
6.145237333E0,2.708957709E0,-3.075144267E0,-2.949826156E0,5.049399814E0
6.155176333E0,2.484027602E0,-2.996731059E0,-3.385585810E0,5.158777127E0
6.165114333E0,1.566637181E0,-2.713874048E0,-3.183352255E0,4.466900042E0
6.175053333E0,6.445493987E-1,-2.725374644E0,-2.628083700E0,3.840564387E0
6.184992333E0,3.577531189E-2,-3.030994865E0,-2.083306804E0,3.678094206E0
6.194931333E0,-2.728214344E-1,-3.273750209E0,-2.054532071E0,3.874657920E0
6.204869333E0,-3.381248930E-1,-3.123015714E0,-2.367348753E0,3.933433069E0
6.214808333E0,-1.101363999E-1,-2.945964071E0,-2.465222372E0,3.842935814E0
6.224747333E0,2.670180729E-1,-2.818244509E0,-2.611626711E0,3.851544475E0
6.234686333E0,8.074507803E-1,-2.592458954E0,-2.778757676E0,3.885140205E0
6.244624333E0,1.712894755E0,-2.608565694E0,-2.322983589E0,3.890356819E0
6.254563333E0,3.063391364E0,-2.647090074E0,-1.223650328E0,4.229512104E0
6.264502333E0,4.488561594E0,-2.267713952E0,3.377562261E-1,5.040217358E0
6.274441333E0,5.696399004E0,-1.757511642E0,2.502144030E0,6.465178538E0
6.284379333E0,6.344213780E0,-1.333992550E0,5.301873330E0,8.374869875E0
6.294318333E0,6.393436811E0,-1.332301827E0,7.583914130E0,1.000833732E1
6.304257333E0,5.838607382E0,-1.683696392E0,8.499855904E0,1.044852717E1
6.314196333E0,5.046290950E0,-2.177053750E0,8.412709587E0,1.004879585E1
6.324134333E0,4.249559577E0,-2.567967891E0,7.627358943E0,9.101088953E0
6.334073333E0,3.589391681E0,-2.745595778E0,6.281457369E0,7.738135143E0
6.344012333E0,3.141643481E0,-2.682737332E0,4.856530675E0,6.375962167E0
6.353951333E0,2.965504296E0,-2.203021528E0,3.815554381E0,5.310929750E0
6.363889333E0,3.120050006E0,-1.726432229E0,3.377909585E0,4.911777015E0
6.373828333E0,3.530659323E0,-1.506271403E0,3.439358559E0,5.153988368E0
6.383767333E0,3.969058702E0,-1.607088511E0,3.631640153E0,5.614710203E0
6.393706333E0,4.216295060E0,-1.881859407E0,3.825611592E0,5.996152342E0
6.403645333E0,4.563506818E0,-2.216656650E0,3.868464081E0,6.379982408E0
6.413583333E0,5.380892018E0,-2.452175480E0,3.729719009E0,6.991277951E0
6.423522333E0,6.554913518E0,-2.770163147E0,4.152763308E0,8.239304472E0
6.433461333E0,7.133152860E0,-3.141217512E0,4.854813348E0,9.182501284E0
6.443400333E0,6.731038671E0,-3.251220010E0,4.797556243E0,8.882221515E0
6.453338333E0,5.836255047E0,-3.155136516E0,4.082866277E0,7.790157664E0
6.463277333E0,4.789517491E0,-2.916275710E0,3.527101293E0,6.624544161E0
6.473216333E0,3.915351734E0,-2.675914801E0,3.278263090E0,5.765198012E0
6.483155333E0,3.330133740E0,-2.586158579E0,3.074326242E0,5.218188265E0
6.493093333E0,2.802392707E0,-2.502198994E0,2.933673223E0,4.766638571E0
6.503032333E0,2.125654678E0,-2.331339552E0,2.638503438E0,4.112815619E0
6.512971333E0,1.199173298E0,-2.253539132E0,2.086453775E0,3.296929568E0
6.522910333E0,3.767706031E-1,-2.322020406E0,1.398971488E0,2.736942834E0
6.532848333E0,-9.890506804E-2,-2.446735961E0,8.064935911E-1,2.578125479E0
6.542787333E0,-4.295417243E-1,-2.207551950E0,4.097997701E-1,2.285985030E0
6.552726333E0,-5.629810327E-1,-1.633513248E0,-3.588021094E-1,1.764667710E0
6.562665333E0,-6.615732747E-1,-1.091270535E0,-1.387657710E0,1.885243883E0
6.572603333E0,-1.120624142E0,-6.240151468E-1,-2.540796465E0,2.846197471E0
6.582542333E0,-2.004050134E0,-5.615958273E-2,-3.650471111E0,4.164770122E0
6.592481333E0,-3.093047272E0,4.415763174E-1,-4.109075251E0,5.162018064E0
6.602420333E0,-4.208621759E0,5.777002287E-1,-4.230827730E0,5.995509815E0
6.612358333E0,-5.575319540E0,4.105242401E-1,-4.544755967E0,7.204687705E0
6.622297333E0,-6.981262663E0,1.060070962E-2,-5.084234701E0,8.636410322E0
6.632236333E0,-8.086279417E0,-2.803130333E-1,-5.729391918E0,9.914253475E0
6.642175333E0,-8.785259085E0,-6.077356213E-1,-6.269924905E0,1.081027650E1
6.652114333E0,-8.870090489E0,-1.068755758E0,-6.686092878E0,1.115905830E1
6.662052333E0,-8.873735059E0,-1.314781084E0,-6.824571902E0,1.127149524E1
6.671991333E0,-8.982611969E0,-1.366801277E0,-6.482291685E0,1.116134262E1
6.681930333E0,-8.988855041E0,-1.585448697E0,-5.907381747E0,1.087245702E1
6.691869333E0,-8.720794702E0,-2.099817879E0,-5.205014788E0,1.037080876E1
6.701807333E0,-8.193504488E0,-3.050711384E0,-4.334081957E0,9.758310415E0
6.711746333E0,-7.232239777E0,-4.007615535E0,-3.634031956E0,9.031747490E0
6.721685333E0,-5.824366488E0,-4.417864663E0,-2.951597863E0,7.883698568E0
6.731624333E0,-4.034951268E0,-4.236610626E0,-1.878498135E0,6.144791011E0
6.741562333E0,-1.445180864E0,-3.648091879E0,-4.237889412E-1,3.946735252E0
6.751501333E0,1.683805735E0,-2.727327906E0,1.365882972E0,3.484129095E0
6.761440333E0,4.245028278E0,-1.649474831E0,3.518835669E0,5.755279034E0
6.771379333E0,5.757813479E0,-3.538657437E-1,5.414815809E0,7.911881399E0
6.781317333E0,6.128201262E0,9.706148480E-1,6.466724058E0,8.961889529E0
6.791256333E0,5.287823641E0,2.082306199E0,6.701494444E0,8.786757408E0
6.801195333E0,3.116418008E0,3.052312059E0,6.188767891E0,7.571625857E0
6.811134333E0,5.276995182E-2,3.610927561E0,4.844921321E0,6.042751453E0
6.821072333E0,-3.637930003E0,3.617285239E0,2.915273790E0,5.900687119E0
6.831011333E0,-7.663958420E0,3.673853542E0,8.125746953E-1,8.537782858E0
6.840950333E0,-1.121492688E1,4.069051645E0,-8.850678903E-1,1.196307282E1
6.850889333E0,-1.398897696E1,4.555262829E0,-2.132254431E0,1.486567875E1
6.860827333E0,-1.616174382E1,4.838867406E0,-3.090601966E0,1.715133877E1
6.870766333E0,-1.807456336E1,5.018709633E0,-3.623012002E0,1.910506485E1
6.880705333E0,-1.990557801E1,5.359567807E0,-3.871916862E0,2.097495514E1
6.890644333E0,-2.171680452E1,5.603702509E0,-3.818859227E0,2.275092890E1
6.900582333E0,-2.365622538E1,5.461375433E0,-3.270985061E0,2.449781549E1
6.910521333E0,-2.570715732E1,5.047858003E0,-2.465122969E0,2.631379180E1
6.920460333E0,-2.748378701E1,4.647572823E0,-2.028955034E0,2.794772156E1
6.930399333E0,-2.803818024E1,4.288950807E0,-1.910658406E0,2.842859943E1
6.940337333E0,-2.637256110E1,4.248236353E0,-2.122914527E0,2.679675834E1
6.950276333E0,-2.222032229E1,4.211638337E0,-2.863256375E0,2.279646589E1
6.960215333E0,-1.631784928E1,3.923323828E0,-3.576579262E0,1.715973759E1
6.970154333E0,-9.221991715E0,3.173511976E0,-4.265481838E0,1.064474728E1
6.980093333E0,6.106381792E-1,1.081720278E0,-3.532369049E0,3.744413017E0
6.990031333E0,1.460398944E1,-1.403283663E0,5.187661421E-1,1.468042339E1
6.999970333E0,3.115014092E1,-7.695114139E-1,6.601556758E0,3.185127907E1
7.009909333E0,4.456221989E1,3.007321828E0,1.184230622E1,4.620687873E1
7.019848333E0,5.589843205E1,2.958643173E0,1.580972039E1,5.816644681E1
7.029786333E0,6.203019193E1,-1.928424001E0,1.691123525E1,6.432303947E1
7.039725333E0,5.946507455E1,-5.661936100E0,1.365483899E1,6.127484998E1
7.049664333E0,5.344462695E1,-6.966446403E0,1.084517001E1,5.497706102E1
7.059603333E0,4.689593721E1,-6.761544179E0,1.038794581E1,4.850625552E1
7.069541333E0,3.880146584E1,-6.692412549E0,8.777734303E0,4.034093153E1
7.079480333E0,2.998531241E1,-6.841895447E0,5.390429412E0,3.122478539E1
7.089419333E0,2.204217868E1,-7.041445130E0,1.890854471E0,2.321669488E1
7.099358333E0,1.554294469E1,-7.352011219E0,-9.697437590E-1,1.722137049E1
7.109296333E0,1.095249448E1,-6.663611503E0,-1.985766768E0,1.297320790E1
7.119235333E0,7.348348523E0,-5.940436642E0,-2.870036806E0,9.875430359E0
7.129174333E0,4.530448415E0,-6.036564867E0,-4.235000595E0,8.654496420E0
7.139113333E0,1.812834488E0,-5.534304246E0,-4.493401919E0,7.355647706E0
7.149051333E0,-6.322705382E-1,-5.086520378E0,-5.080745083E0,7.217092641E0
7.158990333E0,-3.042348404E0,-5.458378735E0,-5.999409320E0,8.662718651E0
7.168929333E0,-4.806096686E0,-6.147518123E0,-6.787335663E0,1.034207280E1
7.178868333E0,-6.401702435E0,-6.320165352E0,-7.446077131E0,1.167777157E1
7.188806333E0,-7.824158095E0,-6.064417495E0,-7.927733334E0,1.268241165E1
7.198745333E0,-8.696123545E0,-5.642984689E0,-8.015409994E0,1.310391691E1
7.208684333E0,-9.283054188E0,-5.119285251E0,-7.628037220E0,1.306021165E1
7.218623333E0,-9.775051777E0,-4.600631960E0,-6.988700906E0,1.286698846E1
7.228561333E0,-1.000282480E1,-4.414079468E0,-6.275338258E0,1.260636632E1
7.238500333E0,-1.014684874E1,-4.528037024E0,-5.631888428E0,1.245711949E1
7.248439333E0,-1.036087554E1,-4.664136230E0,-5.208188657E0,1.249908548E1
7.258378333E0,-1.071167808E1,-4.847312540E0,-4.996017759E0,1.277484558E1
7.268316333E0,-1.114591804E1,-5.020157404E0,-4.922180874E0,1.317806260E1
7.278255333E0,-1.152207995E1,-5.147588114E0,-4.862386662E0,1.352400805E1
7.288194333E0,-1.167688615E1,-5.086033890E0,-4.768423076E0,1.359982608E1
7.298133333E0,-1.156567211E1,-5.060738835E0,-4.687485332E0,1.346656480E1
7.308072333E0,-1.137255144E1,-5.067158493E0,-4.574875852E0,1.326425688E1
7.318010333E0,-1.117231822E1,-5.011723965E0,-4.427573965E0,1.302080960E1
7.327949333E0,-1.073029561E1,-5.252651469E0,-4.137263216E0,1.264304308E1
7.337888333E0,-1.023074927E1,-5.984765553E0,-3.785940865E0,1.244262824E1
7.347827333E0,-1.012993391E1,-6.674082112E0,-3.592103620E0,1.265156676E1
7.357765333E0,-1.008414671E1,-7.173105131E0,-3.479204703E0,1.285489469E1
7.367704333E0,-9.295263174E0,-7.802393589E0,-3.253229406E0,1.256434498E1
7.377643333E0,-7.890364949E0,-8.484170748E0,-3.007855094E0,1.197022158E1
7.387582333E0,-6.478334289E0,-8.950369252E0,-2.792196332E0,1.139623996E1
7.397520333E0,-4.634343497E0,-9.264795672E0,-2.762606790E0,1.072126741E1
7.407459333E0,-2.205711831E0,-9.243669097E0,-3.041299413E0,9.977980015E0
7.417398333E0,8.332574666E-2,-8.723558680E0,-3.346443379E0,9.343773463E0
7.427337333E0,2.604266236E0,-7.771905622E0,-3.196612571E0,8.797900406E0
7.437275333E0,5.760468700E0,-6.591720572E0,-1.841893396E0,8.945744855E0
7.447214333E0,9.132678419E0,-4.928912773E0,1.570214215E-1,1.037904870E1
7.457153333E0,1.229392761E1,-3.044359261E0,2.092793034E0,1.283699973E1
7.467092333E0,1.493324849E1,-9.873982573E-1,3.727711660E0,1.542312226E1
7.477030333E0,1.710879512E1,1.398176267E0,4.973896573E0,1.787191693E1
7.486969333E0,1.810794745E1,3.532343614E0,5.690165287E0,1.930681728E1
7.496908333E0,1.727058875E1,5.316689590E0,5.454827721E0,1.887579321E1
7.506847333E0,1.492936126E1,6.847788856E0,4.444026568E0,1.701550505E1
7.516785333E0,1.162628902E1,8.055035990E0,3.277035175E0,1.451871760E1
7.526724333E0,7.667442775E0,9.269455903E0,2.322646935E0,1.225182355E1
7.536663333E0,3.345131264E0,1.052908356E1,1.938441451E0,1.121646375E1
7.546602333E0,-5.066121197E-1,1.144388045E1,2.446001989E0,1.171332495E1
7.556540333E0,-3.379493011E0,1.201027451E1,3.583430445E0,1.298108780E1
7.566479333E0,-5.438529777E0,1.268922980E1,4.860954094E0,1.463635999E1
7.576418333E0,-6.811089976E0,1.381297811E1,5.830603128E0,1.646770305E1
7.586357333E0,-7.906564659E0,1.501019083E1,6.284041253E0,1.809167676E1
7.596295333E0,-9.105232174E0,1.632927006E1,6.477313950E0,1.978650827E1
7.606234333E0,-1.022791337E1,1.772629501E1,6.517628748E0,2.147815707E1
7.616173333E0,-1.020921280E1,1.888027109E1,6.125551304E0,2.232073120E1
7.626112458E0,-8.612428839E0,1.955986256E1,5.511552145E0,2.207123378E1
7.636050458E0,-5.177277351E0,2.002351167E1,5.025318156E0,2.128377417E1
7.645989458E0,-1.615585685E-1,2.007136763E1,5.064093382E0,2.070098890E1
7.655928458E0,6.641361678E0,1.950074253E1,7.192355334E0,2.182009669E1
7.665867458E0,1.441935893E1,1.820508842E1,1.249962564E1,2.637392268E1
7.675806458E0,2.167761180E1,1.574847899E1,1.866100635E1,3.265220669E1
7.685744458E0,2.817242764E1,1.204953037E1,2.361788635E1,3.868696702E1
7.695683458E0,3.601607684E1,8.635055809E0,2.585009133E1,4.516579681E1
7.705622458E0,4.509281027E1,6.044082048E0,2.523721659E1,5.202700805E1
7.715561458E0,5.168805320E1,2.110001536E0,2.276620197E1,5.651908441E1
7.725499458E0,5.513740992E1,-3.908997565E0,1.947234728E1,5.860534568E1
7.735438458E0,5.674482353E1,-1.148641427E1,1.608137969E1,6.008763170E1
7.745377458E0,5.567572330E1,-1.790529816E1,1.213701174E1,5.973016760E1
7.755316458E0,5.127952929E1,-2.230433508E1,8.784612383E0,5.660603239E1
7.765254458E0,4.407539942E1,-2.450593106E1,5.638473562E0,5.074420041E1
7.775193458E0,3.661211160E1,-2.681009188E1,3.559511240E0,4.551810478E1
7.785132458E0,2.848403044E1,-2.828312244E1,2.502438730E0,4.021861764E1
7.795071458E0,1.933653400E1,-2.806086978E1,1.595027752E0,3.411536418E1
7.805009458E0,1.105697136E1,-2.706249045E1,1.106268643E0,2.925506512E1
7.814948458E0,4.270633820E0,-2.545381383E1,8.465458488E-1,2.582346979E1
7.824887458E0,-9.544410110E-1,-2.389940640E1,1.789119351E-1,2.391912610E1
7.834826458E0,-5.808231096E0,-2.244496998E1,-1.146018015E0,2.321261689E1
7.844764458E0,-1.053024833E1,-2.075809738E1,-3.201100309E0,2.349535656E1
7.854703458E0,-1.460910926E1,-1.930920061E1,-5.326247449E0,2.479193848E1
7.864642458E0,-1.690694456E1,-1.811836953E1,-6.061992069E0,2.551211157E1
7.874581458E0,-1.763301321E1,-1.702502207E1,-6.007497189E0,2.523617550E1
7.884519458E0,-1.865882300E1,-1.588105408E1,-6.024285715E0,2.523195539E1
7.894458458E0,-2.134730025E1,-1.595612532E1,-7.132751741E0,2.758951450E1
7.904397458E0,-2.503531692E1,-1.743581002E1,-9.171481712E0,3.185734830E1
7.914336458E0,-2.836527349E1,-1.919205632E1,-9.975827036E0,3.567128945E1
7.924274458E0,-3.130851860E1,-2.003525990E1,-8.224511104E0,3.806937823E1
7.934213458E0,-3.329472888E1,-2.029767358E1,-5.629238470E0,3.939825948E1
7.944152458E0,-3.322381151E1,-1.977003721E1,-2.858071064E0,3.876653960E1
7.954091458E0,-3.028947755E1,-1.847988299E1,5.465168814E-1,3.548601424E1
7.964029458E0,-2.660979200E1,-1.703700067E1,4.095711440E0,3.186087372E1
7.973968458E0,-2.345129216E1,-1.520225667E1,6.641656963E0,2.872600423E1
7.983907458E0,-2.004711805E1,-1.323415989E1,7.810288500E0,2.525926635E1
7.993846458E0,-1.698714848E1,-1.144857226E1,7.549406787E0,2.183177874E1
8.003784458E0,-1.424121415E1,-9.695361829E0,6.692075164E0,1.848231835E1
8.013723458E0,-1.124451262E1,-8.372376662E0,5.996710246E0,1.524782899E1
8.023662458E0,-7.860075787E0,-7.030718998E0,5.319616706E0,1.181144034E1
8.033601458E0,-4.567629105E0,-5.318824993E0,5.146188290E0,8.696918355E0
8.043539458E0,-1.368236184E0,-3.531424724E0,5.630773948E0,6.785915273E0
8.053478458E0,2.047624755E0,-1.804633330E0,6.842131090E0,7.366425622E0
8.063417458E0,4.660672925E0,9.360222816E-2,8.009535881E0,9.267324237E0
8.073356458E0,5.608313039E0,1.556031062E0,8.979816999E0,1.070100561E1
8.083294458E0,5.785340416E0,1.621454681E0,1.029915584E1,1.192358545E1
8.093233458E0,6.248130578E0,1.277967014E0,1.152525031E1,1.317208146E1
8.103172458E0,6.803235412E0,1.521656743E0,1.159206995E1,1.352684505E1
8.113111458E0,7.162257376E0,1.772322055E0,1.020706921E1,1.259457495E1
8.123050458E0,7.246460205E0,1.511170201E0,8.064710208E0,1.094688867E1
8.132988458E0,6.812272283E0,1.078284088E0,5.785667861E0,9.002427608E0
8.142927458E0,6.669777977E0,7.990269890E-1,3.546839154E0,7.596344540E0
8.152866458E0,7.124773800E0,6.916445547E-1,1.676203769E0,7.351899957E0
8.162804458E0,7.419981008E0,8.493978283E-1,8.146574736E-1,7.512739954E0
8.172743458E0,7.944851643E0,1.026208128E0,1.223693597E0,8.103776698E0
8.182682458E0,8.454252884E0,1.116850349E0,2.383463679E0,8.854526845E0
8.192621458E0,8.855491161E0,1.113627072E0,3.123047581E0,9.455861418E0
8.202560458E0,8.756695436E0,8.104180229E-1,3.070460647E0,9.314731393E0
8.212498458E0,7.739752368E0,3.004048703E-1,2.243244524E0,8.063879699E0
8.222437458E0,6.095649227E0,-5.090644419E-2,8.434070635E-1,6.153930975E0
8.232376458E0,4.459256811E0,-2.298642068E-1,-5.594129156E-1,4.500083518E0
8.242315458E0,2.986153153E0,-5.937217458E-1,-2.033323781E0,3.661150333E0
8.252253458E0,1.867100158E0,-1.043343101E0,-3.357474151E0,3.980861779E0
8.262192458E0,8.126039314E-1,-1.444579478E0,-4.244816608E0,4.556929126E0
8.272131458E0,2.259539545E-2,-2.139384672E0,-4.439550524E0,4.928192994E0
8.282070458E0,-5.027816087E-1,-2.717829689E0,-4.055460961E0,4.907764377E0
8.292008458E0,-8.439818448E-1,-2.876799111E0,-3.787493593E0,4.830464387E0
8.301947458E0,-9.746805632E-1,-3.058256924E0,-3.942623148E0,5.084015627E0
8.311886458E0,-9.295581847E-1,-3.483422592E0,-4.176411202E0,5.517311111E0
8.321825458E0,-1.078494954E0,-4.206129676E0,-4.384699548E0,6.170921191E0
8.331763458E0,-1.288614063E0,-4.827757112E0,-4.240956861E0,6.553890450E0
8.341702458E0,-9.984167504E-1,-5.307191373E0,-3.438302552E0,6.401956007E0
8.351641458E0,-9.002197802E-2,-5.362829969E0,-2.377528170E0,5.866914814E0
8.361580458E0,1.375128297E0,-4.979877105E0,-1.248202202E0,5.314900051E0
8.371518458E0,3.479237739E0,-4.353797598E0,-4.590181231E-2,5.573397146E0
8.381457458E0,6.397859645E0,-3.402960227E0,9.380360627E-1,7.307027986E0
8.391396458E0,9.340008992E0,-2.013756220E0,1.806824135E0,9.723970153E0
8.401335458E0,1.119987147E1,-8.394199933E-1,2.272972353E0,1.145897683E1
8.411273458E0,1.105160713E1,-2.312543093E-1,2.073122123E0,1.124674771E1
8.421212458E0,9.055222692E0,-2.561947306E-1,1.549568281E0,9.190421949E0
8.431151458E0,6.170208244E0,-8.221806474E-1,1.037087896E0,6.310546893E0
8.441090458E0,3.364415381E0,-1.460147251E0,4.137039560E-1,3.690863288E0
8.451028458E0,1.075785354E0,-1.787185969E0,-2.159084380E-2,2.086100185E0
8.460967458E0,-3.594517350E-1,-1.878571079E0,-1.922283840E-1,1.922286816E0
8.470906458E0,-1.079280235E0,-1.807988316E0,-1.215004635E-1,2.109130138E0
8.480845458E0,-1.215592865E0,-1.678254096E0,-6.118665330E-2,2.073148964E0
8.490783458E0,-9.479324752E-1,-1.500011521E0,-1.880032591E-1,1.784364247E0
8.500722458E0,-7.636165434E-1,-1.397666682E0,-3.324137713E-1,1.626985339E0
8.510661458E0,-6.667714494E-1,-1.303353286E0,-2.377115357E-1,1.483179264E0
8.520600458E0,-5.527150762E-1,-1.213671031E0,-1.497882695E-1,1.341986532E0
8.530538458E0,-4.660991013E-1,-1.340334878E0,-3.520860706E-1,1.462091160E0
8.540477458E0,-2.105482954E-1,-1.304676072E0,-6.076976144E-1,1.454581256E0
8.550416458E0,5.380140066E-2,-1.043028082E0,-7.072622484E-1,1.261357229E0
8.560355458E0,2.696595526E-1,-8.809178290E-1,-7.429378653E-1,1.183507147E0
8.570293458E0,6.534351200E-1,-8.774314997E-1,-6.880507097E-1,1.292392074E0
8.580232458E0,9.854435331E-1,-9.552608637E-1,-3.834558709E-1,1.425012519E0
8.590171458E0,1.121066777E0,-1.106165951E0,1.801470132E-1,1.585196132E0
8.600110458E0,1.601433669E0,-1.420831596E0,1.002341986E0,2.363903906E0
8.610049458E0,2.743011893E0,-1.613848769E0,2.164452124E0,3.848827755E0
8.619987458E0,4.009925770E0,-1.768512009E0,3.201408457E0,5.427352533E0
8.629926458E0,4.930364052E0,-2.235497256E0,3.328943247E0,6.355139716E0
8.639865458E0,5.430593351E0,-2.918906372E0,2.728279248E0,6.742022413E0
8.649804458E0,5.534563862E0,-3.643845339E0,1.666696197E0,6.832779976E0
8.659742458E0,6.050603448E0,-4.354299874E0,6.942175488E-1,7.486766156E0
8.669681458E0,7.235577368E0,-5.196179060E0,2.070639396E-1,8.910484394E0
8.679620458E0,8.299398149E0,-6.117350584E0,2.724919438E-1,1.031388577E1
8.689559458E0,8.735551320E0,-6.721324691E0,1.085798564E0,1.107542419E1
8.699497458E0,8.922768640E0,-7.041917585E0,2.432574443E0,1.162419124E1
8.709436458E0,8.989240372E0,-7.241726884E0,3.067539378E0,1.194398797E1
8.719375458E0,8.743350336E0,-7.145045512E0,3.286895919E0,1.176016731E1
8.729314458E0,8.084786038E0,-6.597497036E0,3.308851045E0,1.094711047E1
8.739252458E0,6.916916394E0,-5.761192585E0,2.943611151E0,9.471004118E0
8.749191458E0,5.081176608E0,-4.928954288E0,2.348285660E0,7.458377279E0
8.759130458E0,3.104987286E0,-3.849726094E0,1.579629986E0,5.191971489E0
8.769069458E0,1.066560202E0,-2.280299207E0,1.005423469E0,2.710754782E0
8.779007458E0,-1.218453907E0,-7.806668781E-2,6.132015985E-1,1.366287134E0
8.788946458E0,-3.631786333E0,2.533176958E0,9.388870519E-2,4.428958406E0
8.798885458E0,-5.573492285E0,4.734952444E0,-4.084057574E-1,7.324642391E0
8.808824458E0,-6.604137134E0,6.209523168E0,-8.146726763E-1,9.101455753E0
8.818762458E0,-7.336071124E0,7.007562854E0,-9.287881064E-1,1.018756713E1
8.828701458E0,-8.258236674E0,7.324031707E0,-5.169564289E-1,1.105021074E1
8.838640458E0,-9.148798023E0,7.717374489E0,9.643246327E-3,1.196906292E1
8.848579458E0,-1.001400818E1,8.491995492E0,4.796061695E-2,1.312999039E1
8.858517458E0,-1.089932575E1,9.090434625E0,-1.908566272E-1,1.419393285E1
8.868456458E0,-1.165798795E1,9.178660923E0,-6.739418900E-1,1.485296930E1
8.878395458E0,-1.211788666E1,8.702443215E0,-1.288809360E0,1.497453587E1
8.888334458E0,-1.208963409E1,7.986949257E0,-1.671917760E0,1.458581228E1
8.898272458E0,-1.150711224E1,7.323579133E0,-1.742431673E0,1.375080040E1
8.908211458E0,-1.055341968E1,6.446551749E0,-1.363017544E0,1.244148356E1
8.918150458E0,-8.965526404E0,5.296345958E0,-6.591531122E-1,1.043390756E1
8.928089458E0,-7.300006667E0,4.087846935E0,5.290326834E-2,8.366802774E0
8.938027458E0,-6.068234557E0,2.600701774E0,1.080882299E0,6.689949693E0
8.947966458E0,-5.035785842E0,8.430724566E-1,2.493694804E0,5.682290382E0
8.957905458E0,-3.560064386E0,-1.159246902E0,3.679214269E0,5.249240845E0
8.967844458E0,-1.369727224E0,-3.673823136E0,4.099974060E0,5.672998889E0
8.977782458E0,9.767025304E-1,-5.938245690E0,3.744466857E0,7.087858757E0
8.987721458E0,3.574067298E0,-6.592382476E0,2.528088126E0,7.913576520E0
8.997660458E0,6.777307688E0,-6.013115779E0,1.144878978E0,9.132371474E0
9.007599458E0,1.050303656E1,-5.922463471E0,1.005449708E0,1.209959832E1
9.017537458E0,1.312614428E1,-6.607194643E0,1.890753314E0,1.481639743E1
9.027476458E0,1.295615285E1,-6.327962614E0,2.824002846E0,1.469285540E1
9.037415458E0,9.937003863E0,-4.630804762E0,4.086820164E0,1.170002126E1
9.047354458E0,5.607983841E0,-3.154286623E0,5.182974293E0,8.262095944E0
9.057292458E0,9.352855325E-1,-2.671949512E0,5.461836194E0,6.151888152E0
9.067231458E0,-3.737397573E0,-2.382005237E0,4.791237742E0,6.526718062E0
9.077170458E0,-8.544708726E0,-2.251434865E0,3.345556356E0,9.448478898E0
9.087109458E0,-1.289185570E1,-2.310330214E0,1.513852903E0,1.318443475E1
9.097047458E0,-1.666300691E1,-2.191910064E0,-7.872172214E-2,1.680673871E1
9.106986458E0,-1.963654996E1,-2.095420480E0,-8.383118729E-1,1.976582020E1
9.116925458E0,-2.194715909E1,-2.863868578E0,-1.812659072E0,2.220732465E1
9.126864458E0,-2.408971923E1,-3.611069064E0,-3.409530158E0,2.459632673E1
9.136802458E0,-2.633234161E1,-4.560431183E0,-4.629892012E0,2.712241965E1
9.146741458E0,-2.897695773E1,-6.296954244E0,-5.852200404E0,3.022522062E1
9.156680458E0,-3.204286574E1,-8.332551277E0,-6.741441452E0,3.378792222E1
9.166619458E0,-3.562115355E1,-1.035616503E1,-7.948114389E0,3.793796590E1
9.176557458E0,-3.736427871E1,-1.121283825E1,-9.201329409E0,4.008093721E1
9.186496458E0,-3.446594021E1,-1.005019543E1,-7.879409605E0,3.675585067E1
9.196435458E0,-2.841459592E1,-8.533434709E0,-4.909041595E0,3.007170528E1
9.206374458E0,-2.201628253E1,-7.071423220E0,-2.679267302E0,2.327874988E1
9.216312458E0,-1.659195389E1,-5.594571497E0,-1.850778240E0,1.760731507E1
9.226251458E0,-1.091212063E1,-4.718204849E0,-2.470638063E0,1.214248270E1
9.236190458E0,-4.755314788E0,-3.145041298E0,-3.525026116E0,6.702992810E0
9.246129458E0,2.438842074E0,-1.515487785E0,-3.907675509E0,4.849183619E0
9.256068458E0,1.050505852E1,-7.862885374E-1,-3.046736155E0,1.096618008E1
9.266006458E0,1.963199381E1,-9.013751900E-1,-1.661033753E0,1.972274553E1
9.275945458E0,2.801180228E1,-2.309828523E-1,-9.429056239E-1,2.802861915E1
9.285884458E0,3.490937667E1,2.424572821E0,-3.158419143E0,3.513571893E1
9.295823458E0,4.211906140E1,3.103226105E0,-5.642730335E0,4.260851735E1
9.305761458E0,4.785597517E1,-7.007630682E-1,-5.929859029E0,4.822705316E1
9.315700458E0,4.789642387E1,-3.358393334E0,-6.310570655E0,4.842695043E1
9.325639458E0,4.413471826E1,-3.268270199E0,-5.846081293E0,4.464002254E1
9.335578458E0,3.789721499E1,-1.693923756E0,-3.546366699E0,3.810045930E1
9.345516458E0,3.139834587E1,-1.807873126E0,-1.969501276E0,3.151195747E1
9.355455458E0,2.680264720E1,-3.564244561E0,-9.361748940E-1,2.705479920E1
9.365394458E0,2.262898185E1,-4.280166828E0,5.245875935E-1,2.303618545E1
9.375333458E0,1.859488954E1,-4.500856826E0,7.452948779E-1,1.914635980E1
9.385271458E0,1.548305750E1,-4.143892497E0,3.659339583E-1,1.603218084E1
9.395210458E0,1.250028053E1,-3.288982206E0,1.100498611E-1,1.292619543E1
9.405149458E0,1.072289070E1,-2.756276009E0,-2.514185786E-2,1.107149829E1
9.415088458E0,9.184851370E0,-2.484311484E0,-3.075958126E-1,9.519869402E0
9.425026458E0,7.522533569E0,-2.281784107E0,-4.908298999E-1,7.876291259E0
9.434965458E0,5.899603781E0,-2.228065152E0,-7.002456627E-1,6.345072347E0
9.444904458E0,4.147332999E0,-2.394077252E0,-9.780023664E-1,4.887582789E0
9.454843458E0,2.359728661E0,-2.485691135E0,-1.107644054E0,3.601923809E0
9.464781458E0,8.743201232E-1,-2.272242621E0,-1.193389233E0,2.711401864E0
9.474720458E0,-1.983007175E-1,-1.672979322E0,-1.327037871E0,2.144577464E0
9.484659458E0,-7.027920520E-1,-8.716818595E-1,-1.499819001E0,1.871684527E0
9.494598458E0,-8.004516631E-1,-3.911158696E-1,-1.513312036E0,1.756077392E0
9.504536458E0,-8.605633789E-1,-2.337281200E-1,-1.435237089E0,1.689705200E0
9.514475458E0,-7.058004445E-1,-1.935691506E-2,-1.446715173E0,1.609817924E0
9.524414458E0,-3.651901925E-1,2.152959421E-1,-1.400324534E0,1.463087495E0
9.534353458E0,-1.912062907E-1,4.838570952E-3,-1.346968106E0,1.360480186E0
9.544291458E0,-3.304191399E-1,-5.226112711E-1,-1.361706013E0,1.495507477E0
9.554230458E0,-9.767282581E-1,-1.095511082E0,-1.348036392E0,1.992823308E0
9.564169458E0,-1.815496141E0,-1.834328853E0,-1.283487225E0,2.882382354E0
9.574108458E0,-2.794739871E0,-2.655325293E0,-1.189901369E0,4.034499799E0
9.584046458E0,-3.690218729E0,-3.238667500E0,-1.082361571E0,5.027741840E0
9.593985458E0,-4.309372208E0,-3.707955673E0,-7.565531069E-1,5.735154462E0
9.603924458E0,-4.715221015E0,-4.539677660E0,-5.851946781E-1,6.571486536E0
9.613863458E0,-5.003417995E0,-5.744792315E0,-7.610595560E-1,7.656111416E0
9.623801458E0,-5.475426292E0,-7.105039448E0,-8.570883787E-1,9.010908896E0
9.633739583E0,-6.036650822E0,-8.795049663E0,-9.541732085E-1,1.071001859E1
9.643678583E0,-7.463276131E0,-1.061932364E1,-1.244996320E0,1.303919250E1
9.653617583E0,-1.038567709E1,-1.199397598E1,-1.744457148E0,1.596123050E1
9.663555583E0,-1.350476903E1,-1.284031717E1,-2.500841271E0,1.880177488E1
9.673494583E0,-1.616265599E1,-1.337646592E1,-3.000744880E0,2.119353106E1
9.683433583E0,-1.737904992E1,-1.358860290E1,-3.146218635E0,2.228407945E1
9.693372583E0,-1.656994730E1,-1.357290897E1,-3.023793435E0,2.163169754E1
9.703310583E0,-1.390625991E1,-1.316704672E1,-2.833970595E0,1.935940529E1
9.713249583E0,-1.036817988E1,-1.240944287E1,-2.707936785E0,1.639592474E1
9.723188583E0,-5.941749342E0,-1.151495804E1,-2.393403799E0,1.317676082E1
9.733127583E0,-1.264895418E0,-1.009574057E1,-1.810538871E0,1.033450478E1
9.743065583E0,3.018454342E0,-7.953518971E0,-1.371932793E0,8.616944367E0
9.753004583E0,6.986022881E0,-5.456274907E0,-9.017347938E-1,8.910026779E0
9.762943583E0,1.151814243E1,-2.825583641E0,1.049750626E-1,1.186012427E1
9.772882583E0,1.660155618E1,3.692127845E-1,1.412702504E0,1.666564473E1
9.782820583E0,2.122375092E1,3.840752957E0,2.380258820E0,2.169941516E1
9.792759583E0,2.348672395E1,6.673029029E0,2.435538397E0,2.453746861E1
9.802698583E0,2.232324264E1,8.316389573E0,1.783260441E0,2.388869011E1
9.812637583E0,1.850401095E1,8.932270950E0,1.536769896E0,2.060450308E1
9.822575583E0,1.379564930E1,8.991474593E0,1.587592140E0,1.654348826E1
9.832514583E0,9.148188744E0,9.010954008E0,1.735826658E0,1.295761335E1
9.842453583E0,5.236625420E0,9.315411510E0,2.092291051E0,1.088929838E1
9.852392583E0,2.413261675E0,9.743027746E0,2.356865280E0,1.031044303E1
9.862330583E0,3.025928253E-1,1.015883085E1,2.448253167E0,1.045405903E1
9.872269583E0,-1.656806801E0,1.062776702E1,2.506368644E0,1.104428922E1
9.882208583E0,-3.610648064E0,1.084424498E1,2.235576485E0,1.164612514E1
9.892147583E0,-5.384133130E0,1.073628199E1,2.055775774E0,1.218535410E1
9.902085583E0,-7.045803060E0,1.057334348E1,2.007347964E0,1.286345128E1
9.912024583E0,-8.505609564E0,1.063552160E1,1.936396680E0,1.375533881E1
9.921963583E0,-1.006171913E1,1.096249556E1,1.799678253E0,1.498844030E1
9.931902583E0,-1.180478347E1,1.141897365E1,1.771535604E0,1.651920732E1
9.941840583E0,-1.374381022E1,1.169998616E1,2.346891099E0,1.820137065E1
9.951779583E0,-1.635279575E1,1.223306044E1,3.443634628E0,2.071039150E1
9.961718583E0,-1.817737495E1,1.278974577E1,4.640162061E0,2.270519018E1
9.971657583E0,-1.815238395E1,1.351595943E1,5.331122857E0,2.325104457E1
9.981595583E0,-1.728509686E1,1.483945214E1,5.605913926E0,2.346082233E1
9.991534583E0,-1.431033876E1,1.630564146E1,5.810976949E0,2.245945663E1
1.000147358E1,-9.503193671E0,1.801774129E1,5.999657242E0,2.123547923E1
1.001141258E1,-3.006547657E0,2.047524884E1,1.174856249E1,2.379713984E1
1.002135058E1,7.754215456E0,2.173163072E1,1.754211006E1,2.898477628E1
1.003128958E1,1.655368503E1,2.319401935E1,2.180778719E1,3.588267833E1
1.004122858E1,2.343082223E1,2.352415782E1,2.429089152E1,4.113923726E1
1.005116758E1,2.978220820E1,2.174473550E1,2.675220210E1,4.555758734E1
1.006110658E1,3.676372054E1,1.950458298E1,3.075604560E1,5.174876082E1
1.007104458E1,4.330747757E1,1.721217741E1,3.449304790E1,5.797902223E1
1.008098358E1,5.012885339E1,1.282331815E1,3.581451396E1,6.292868059E1
1.009092258E1,5.524820296E1,6.142926305E0,3.146223488E1,6.387465614E1
1.010086158E1,5.770447792E1,-1.062287495E0,2.482073346E1,6.282518632E1
1.011079958E1,6.034134297E1,-8.510546953E0,1.909955454E1,6.386156954E1
1.012073858E1,6.401586894E1,-1.477027256E1,1.497068120E1,6.738185010E1
1.013067758E1,6.649827862E1,-2.058454734E1,1.090626873E1,7.046056589E1
1.014061658E1,6.464727000E1,-2.635327698E1,7.098022789E0,7.017226413E1
1.015055458E1,5.850446122E1,-3.139462938E1,3.922526268E0,6.651150990E1
1.016049358E1,4.904811018E1,-3.462798760E1,1.340429749E0,6.005506964E1
1.017043258E1,3.925800007E1,-3.547612857E1,4.997041460E-1,5.291498816E1
1.018037058E1,3.133779210E1,-3.565366407E1,5.396497652E-2,4.746834617E1
1.019030958E1,2.397933784E1,-3.666146444E1,3.167670608E-1,4.380835490E1
1.020024858E1,1.638607810E1,-3.722579793E1,2.288024840E0,4.073694447E1
1.021018758E1,8.674295304E0,-3.593920700E1,5.053581258E0,3.731499273E1
1.022012658E1,1.833031356E0,-3.376903162E1,8.884850031E0,3.496638473E1
1.023006458E1,-4.796744065E0,-3.140278273E1,1.123710887E1,3.369593644E1
1.024000358E1,-1.152711908E1,-2.967454225E1,9.557162302E0,3.323841578E1
1.024994258E1,-1.778449820E1,-2.821541636E1,6.765174131E0,3.403183330E1
1.025988058E1,-2.231127924E1,-2.691464945E1,5.585807106E0,3.540328766E1
1.026981958E1,-2.416378007E1,-2.545808230E1,6.649864115E0,3.572426226E1
1.027975858E1,-2.387341202E1,-2.419844236E1,8.822728043E0,3.511901115E1
1.028969758E1,-2.383112729E1,-2.259609711E1,1.013109868E1,3.436779587E1
1.029963558E1,-2.401156769E1,-2.104564473E1,1.010147318E1,3.348901768E1
1.030957458E1,-2.408100922E1,-2.007015842E1,9.357364697E0,3.271492837E1
1.031951358E1,-2.469562643E1,-1.926929570E1,8.495062941E0,3.245528949E1
1.032945258E1,-2.550887122E1,-1.873462162E1,7.984456589E0,3.264108002E1
1.033939058E1,-2.592416620E1,-1.787307416E1,7.585028025E0,3.238891513E1
1.034932958E1,-2.446056602E1,-1.645446480E1,7.300460996E0,3.037046975E1
1.035926858E1,-2.121446554E1,-1.490629751E1,7.554513745E0,2.700596104E1
1.036920758E1,-1.721783049E1,-1.355039135E1,8.387997499E0,2.346114436E1
1.037914558E1,-1.379461551E1,-1.190913288E1,9.210510707E0,2.041941161E1
1.038908458E1,-1.136753102E1,-1.006692899E1,9.429577226E0,1.787402438E1
1.039902358E1,-9.408406212E0,-8.734526303E0,9.419243442E0,1.592269463E1
1.040896258E1,-7.719640285E0,-7.820208886E0,8.985857173E0,1.419486324E1
1.041890158E1,-5.778583959E0,-6.960593925E0,8.181110730E0,1.219723219E1
1.042883958E1,-3.692424299E0,-5.776004752E0,7.733312244E0,1.033442530E1
1.043877858E1,-1.687114674E0,-4.890921951E0,8.081856583E0,9.596034561E0
1.044871758E1,8.277254158E-1,-4.291466280E0,9.210648701E0,1.019499199E1
1.045865558E1,4.243594540E0,-3.229235356E0,1.067449914E1,1.193235046E1
1.046859458E1,8.574842936E0,-1.838484323E0,1.190566548E1,1.478691403E1
1.047853358E1,1.235919657E1,4.241308571E-1,1.153439652E1,1.691070460E1
1.048847258E1,1.411705437E1,2.344767244E0,9.613434151E0,1.723970051E1
1.049841158E1,1.394528072E1,3.001803811E0,7.388759215E0,1.606472668E1
1.050834958E1,1.256011392E1,2.578798104E0,6.407692323E0,1.433405673E1
1.051828858E1,1.036061125E1,1.761649863E0,5.729790698E0,1.196980272E1
1.052822758E1,7.663866034E0,7.136047963E-1,5.044679457E0,9.202872661E0
1.053816658E1,4.703163471E0,-1.245282979E-1,4.368499253E0,6.420205577E0
1.054810458E1,2.342137898E0,-6.913514630E-1,3.694000708E0,4.428229670E0
1.055804358E1,1.453386846E0,-7.678095818E-1,3.331656940E0,3.715077771E0
1.056798258E1,2.050769972E0,-1.855891630E-2,2.658365260E0,3.357515118E0
1.057792158E1,3.381393356E0,9.693315303E-1,1.416781522E0,3.792188620E0
1.058785958E1,4.883858807E0,1.673378980E0,-6.107369971E-1,5.198583820E0
1.059779858E1,6.347188259E0,1.926429516E0,-2.731472998E0,7.173484105E0
1.060773758E1,6.471977781E0,1.625822405E0,-4.084292997E0,7.823761511E0
1.061767658E1,4.832719059E0,9.325847036E-1,-4.585757228E0,6.727113578E0
1.062761479E1,2.654802552E0,2.574595929E-1,-4.786272286E0,5.479294154E0
1.063755379E1,1.087082759E0,-3.785606916E-1,-4.962809082E0,5.094558971E0
1.064749279E1,1.933147967E-1,-7.946886474E-1,-5.192567235E0,5.256582079E0
1.065743179E1,-8.949631333E-2,-8.329753384E-1,-5.190631807E0,5.257805251E0
1.066736979E1,4.438387513E-2,-5.755581743E-1,-4.651366496E0,4.687051037E0
1.067730879E1,6.402379543E-1,-3.673443067E-1,-4.006388204E0,4.073817978E0
1.068724779E1,1.340320407E0,-2.851397637E-1,-4.361364480E0,4.571571240E0
1.069718679E1,1.400565439E0,-6.545689682E-1,-5.262526832E0,5.484909547E0
1.070712479E1,3.819050431E-1,-1.506678370E0,-5.629049020E0,5.839702393E0
1.071706379E1,-9.182724738E-1,-2.514748581E0,-5.069804943E0,5.733245758E0
1.072700279E1,-2.083698567E0,-3.544308479E0,-4.017081592E0,5.748118547E0
1.073694179E1,-2.508526851E0,-4.405406878E0,-3.085226036E0,5.934554441E0
1.074687979E1,-2.013820832E0,-4.956660150E0,-1.976840701E0,5.703670165E0
1.075681879E1,-4.515407038E-1,-5.376054617E0,-9.202045400E-1,5.472899473E0
1.076675779E1,2.106136088E0,-5.211121035E0,-2.669194742E-1,5.626974113E0
1.077669679E1,5.027660551E0,-4.323154095E0,-3.306494471E-1,6.639003013E0
1.078663479E1,8.214536923E0,-3.198065312E0,-5.444682363E-1,8.831912831E0
1.079657379E1,1.128056889E1,-1.934624974E0,-8.895404986E-1,1.147977746E1
1.080651279E1,1.314636863E1,-8.357972047E-1,-1.298770677E0,1.323678096E1
1.081645179E1,1.320160844E1,-2.680752495E-1,-1.425401487E0,1.328104285E1
1.082638979E1,1.139053163E1,-4.586043596E-1,-1.146070055E0,1.145722503E1
1.083632879E1,8.437582473E0,-1.287433218E0,-4.301364227E-1,8.546069249E0
1.084626779E1,5.465671967E0,-2.228050534E0,2.103740484E-1,5.906101631E0
1.085620679E1,3.059409410E0,-2.946361974E0,7.130597627E-1,4.306911775E0
1.086614479E1,1.474742047E0,-3.332348081E0,9.513911033E-1,3.766238557E0
1.087608379E1,7.242817390E-1,-3.444949374E0,6.966453858E-1,3.588533826E0
1.088602279E1,6.274272895E-1,-3.413054567E0,2.251791253E-1,3.477543978E0
1.089596179E1,9.649227297E-1,-3.248093796E0,-2.626744688E-1,3.398556614E0
1.090589979E1,1.333390287E0,-3.059569916E0,-8.272523761E-1,3.438494470E0
1.091583879E1,1.722068160E0,-2.894791870E0,-1.491106650E0,3.683576762E0
1.092577779E1,2.146624548E0,-2.665454717E0,-1.893102141E0,3.911071658E0
1.093571679E1,2.264357650E0,-2.338202429E0,-1.990553007E0,3.815338444E0
1.094565479E1,2.138482885E0,-2.099985109E0,-1.897186421E0,3.547162644E0
1.095559379E1,1.737686657E0,-1.931646987E0,-1.581416895E0,3.041659810E0
1.096553279E1,1.211286390E0,-1.748618612E0,-1.017680402E0,2.358082944E0
1.097547179E1,6.342691165E-1,-1.688177113E0,-6.213736671E-1,1.907444497E0
1.098540979E1,1.133851129E-1,-1.629448264E0,-1.318973976E-1,1.638705206E0
1.099534879E1,-4.755160421E-1,-1.464158879E0,2.809435459E-1,1.564866130E0
1.100528779E1,-1.006476552E0,-1.276555643E0,3.759502752E-1,1.668510704E0
1.101522679E1,-1.227815300E0,-1.243558928E0,4.314426541E-1,1.800031105E0
1.102516479E1,-1.053523250E0,-1.161418412E0,5.582015187E-1,1.664449729E0
1.103510379E1,-8.042289644E-1,-9.410473788E-1,7.294588637E-1,1.436824495E0
1.104504279E1,-7.043292850E-1,-6.173905438E-1,8.374206841E-1,1.256393341E0
1.105498179E1,-6.440076542E-1,-3.758658926E-1,9.698659658E-1,1.223380979E0
1.106491979E1,-6.197218287E-1,-4.186581556E-1,1.092551075E0,1.324008175E0
1.107485879E1,-6.652646220E-1,-6.039752769E-1,1.192405731E0,1.493048753E0
1.108479779E1,-5.569507992E-1,-6.506047752E-1,1.569059390E0,1.787576050E0
1.109473679E1,-3.774330926E-1,-7.091175699E-1,1.842683939E0,2.010171029E0
1.110467479E1,-2.018441302E-1,-8.229038018E-1,2.168505998E0,2.328160214E0
1.111461379E1,2.126749277E-2,-9.809674895E-1,2.470140465E0,2.657883263E0
1.112455279E1,2.804511738E-1,-1.265271686E0,2.685395184E0,2.981763337E0
1.113449179E1,5.635879737E-1,-1.539678301E0,2.698915116E0,3.157908086E0
1.114442979E1,6.223443049E-1,-1.547612095E0,2.354817000E0,2.885754448E0
1.115436879E1,5.873773706E-1,-1.701286278E0,1.843065763E0,2.576097549E0
1.116430779E1,5.046182191E-1,-2.261375863E0,1.442732635E0,2.729457418E0
1.117424679E1,4.272197950E-1,-3.022477226E0,1.213213048E0,3.284778720E0
1.118418479E1,5.165716821E-1,-3.595754621E0,1.161580964E0,3.813865222E0
1.119412379E1,1.007781066E0,-3.866480998E0,1.119875114E0,4.149628689E0
1.120406279E1,1.675671088E0,-3.592995028E0,1.096945843E0,4.113487212E0
1.121400179E1,2.200625923E0,-3.224571033E0,1.285538428E0,4.110136476E0
1.122393979E1,2.525263336E0,-3.155202882E0,1.344555545E0,4.259118425E0
1.123387879E1,2.555619741E0,-3.120253197E0,1.315912374E0,4.242498987E0
1.124381779E1,2.351657749E0,-3.054193693E0,1.194763986E0,4.035573599E0
1.125375679E1,1.934688123E0,-3.080899681E0,8.676660649E-1,3.740027457E0
1.126369479E1,1.272569304E0,-3.155189726E0,4.130462173E-1,3.427136124E0
1.127363379E1,6.081501889E-1,-2.964880106E0,6.088698350E-2,3.027221154E0
1.128357279E1,-1.819302678E-2,-2.109569719E0,2.019207287E-1,2.119289354E0
1.129351179E1,-9.556449527E-1,-8.597897923E-1,4.184232438E-1,1.351877869E0
1.130344979E1,-2.033979692E0,3.872806808E-1,2.396903796E-1,2.084349105E0
1.131338879E1,-3.288093429E0,1.218466187E0,1.392210352E-1,3.509359022E0
1.132332779E1,-4.766533256E0,1.548764289E0,-1.509669220E-1,5.014110201E0
1.133326679E1,-6.210875629E0,1.875371337E0,-6.835781014E-1,6.523746833E0
1.134320479E1,-7.459104728E0,2.398307128E0,-1.567709999E0,7.990484031E0
1.135314379E1,-8.358635121E0,2.642758749E0,-2.303548175E0,9.064065814E0
1.136308279E1,-8.894182772E0,2.741854437E0,-2.694649572E0,9.689447314E0
1.137302179E1,-9.412178836E0,2.922835409E0,-2.581974896E0,1.018816331E1
1.138295979E1,-9.875675926E0,3.151703908E0,-2.055297471E0,1.056818150E1
1.139289879E1,-1.017585327E1,3.339881926E0,-1.213422305E0,1.077845975E1
1.140283779E1,-1.042735371E1,3.326470752E0,-3.107350000E-1,1.094950543E1
1.141277679E1,-1.064809311E1,3.186342229E0,5.673717801E-1,1.112908687E1
1.142271479E1,-1.076948833E1,2.955283948E0,1.280560108E0,1.124079251E1
1.143265379E1,-1.049113397E1,2.506547568E0,1.776661273E0,1.093175182E1
1.144259279E1,-1.030066208E1,1.980613909E0,1.996066346E0,1.067758173E1
1.145253179E1,-1.051481285E1,1.541653490E0,1.923827505E0,1.079995820E1
1.146246979E1,-1.045723766E1,1.191396502E0,1.482453940E0,1.062877767E1
1.147240879E1,-9.796388267E0,1.154805503E0,9.192700819E-1,9.906959993E0
1.148234779E1,-8.808698818E0,1.566486323E0,1.846036879E-1,8.948806221E0
1.149228679E1,-7.545287424E0,2.202587079E0,-4.286348212E-1,7.871879062E0
1.150222479E1,-5.906968934E0,2.973362077E0,-7.607835674E-1,6.656722592E0
1.151216379E1,-4.144474295E0,4.016018276E0,-1.123965826E0,5.879487150E0
1.152210279E1,-2.905889009E0,5.365229666E0,-1.421057006E0,6.264924845E0
1.153204179E1,-2.413772137E0,6.493328889E0,-1.526471779E0,7.093640256E0
1.154197979E1,-2.677267554E0,6.763681337E0,-8.197047170E-1,7.320318477E0
1.155191879E1,-3.643702959E0,6.609583815E0,3.557804145E-2,7.547478735E0
1.156185779E1,-4.960193038E0,6.383291307E0,4.686706337E-1,8.097504248E0
1.157179679E1,-5.957222244E0,5.926102193E0,8.068034935E-1,8.441452241E0
1.158173479E1,-6.778319841E0,5.494319816E0,8.054294709E-1,8.762527417E0
1.159167379E1,-7.312809146E0,4.953030199E0,2.640907375E-1,8.836256542E0
1.160161279E1,-7.039100981E0,4.217017483E0,-4.283213373E-1,8.216790021E0
1.161155179E1,-5.687943345E0,3.203273427E0,-1.131833766E0,6.625308130E0
1.162148979E1,-3.607769480E0,1.486046762E0,-1.532872142E0,4.192139382E0
1.163142996E1,-1.434999107E0,-8.990132073E-1,-1.413779562E0,2.205951004E0
1.164136896E1,2.107256414E0,-3.388300087E0,-7.405661615E-1,4.058268759E0
1.165130796E1,7.932053257E0,-4.759407254E0,9.778602060E-1,9.301915763E0
1.166124596E1,1.533670988E1,-4.441014082E0,2.882496053E0,1.622485931E1
1.167118496E1,2.259451602E1,-3.246250754E0,3.676890585E0,2.312076605E1
1.168112396E1,2.749785542E1,-1.919739717E0,2.610415753E0,2.768811520E1
1.169106296E1,2.917555256E1,-1.219408173E0,2.611490764E-2,2.920103604E1
1.170100096E1,2.718279106E1,-1.605808263E0,-2.352292757E0,2.733159402E1
1.171093996E1,2.254241733E1,-2.673303142E0,-2.826898388E0,2.287571821E1
1.172087896E1,1.734914609E1,-4.022160191E0,-1.970710480E0,1.791798936E1
1.173081796E1,1.252789342E1,-4.802848558E0,-1.351862226E0,1.348491748E1
1.174075596E1,8.976382345E0,-4.457770741E0,-1.189362840E0,1.009265792E1
1.175069496E1,7.479630209E0,-3.192421871E0,-1.029238594E0,8.197301845E0
1.176063396E1,7.448282116E0,-1.263558744E0,-6.684449226E-1,7.584214250E0
1.177057296E1,7.422260252E0,6.623816523E-1,-2.086496862E-1,7.454678491E0
1.178051096E1,6.740205351E0,1.714398367E0,1.995566994E-1,6.957683005E0
1.179044996E1,5.203383415E0,2.021537110E0,4.268549287E-1,5.598572709E0
1.180038896E1,3.393085449E0,1.683997231E0,4.006249040E-1,3.809117463E0
1.181032796E1,1.948322076E0,9.087634394E-1,2.808622330E-1,2.168108276E0
1.182026596E1,5.126300740E-1,3.356009424E-2,6.545145160E-1,8.320487512E-1
1.183020496E1,-5.573431474E-1,-4.164539015E-1,1.047017637E0,1.257104279E0
1.184014396E1,-1.340305204E0,-5.581769603E-1,1.123434314E0,1.835778913E0
1.185008296E1,-1.443147202E0,-5.313128051E-1,9.401854992E-1,1.802474942E0
1.186002096E1,-8.153223020E-1,-5.770634669E-1,8.109702194E-1,1.286633358E0
1.186995996E1,7.625786626E-1,-8.450586095E-1,8.863203639E-1,1.442641348E0
1.187989896E1,2.964239543E0,-8.133023813E-1,1.137813202E0,3.277620435E0
1.188983796E1,5.138668186E0,-2.177731150E-1,1.464978366E0,5.347849799E0
1.189977596E1,6.821802660E0,4.754602012E-1,1.534361427E0,7.008374913E0
1.190971496E1,7.438187483E0,9.598450077E-1,1.180835845E0,7.592253207E0
1.191965396E1,6.626287556E0,1.111068184E0,7.407948607E-1,6.759507106E0
1.192959296E1,4.988111154E0,8.164304955E-1,3.027840110E-1,5.063545180E0
1.193953096E1,2.917782830E0,2.251995175E-1,-1.375884926E-1,2.929693168E0
1.194946996E1,5.249203366E-1,-5.481954709E-1,-7.191619170E-1,1.045587632E0
1.195940896E1,-1.487963771E0,-1.499623412E0,-1.579265705E0,2.637610041E0
1.196934796E1,-2.858755773E0,-2.381229458E0,-2.284258064E0,4.365841637E0
1.197928596E1,-3.527659702E0,-3.031198641E0,-2.791840822E0,5.424658823E0
1.198922496E1,-3.767293217E0,-3.478896847E0,-3.195969962E0,6.042304647E0
1.199916396E1,-3.805064476E0,-4.149137449E0,-3.250042673E0,6.500510335E0
1.200910296E1,-4.183881605E0,-4.950940404E0,-3.231690602E0,7.242962123E0
1.201904096E1,-4.927457986E0,-5.657609745E0,-2.927982713E0,8.053662086E0
1.202897996E1,-5.295143770E0,-6.734482096E0,-2.653212694E0,8.968351813E0
1.203891896E1,-5.826407166E0,-7.248227819E0,-2.016165565E0,9.515710723E0
1.204885796E1,-6.181210949E0,-7.462664512E0,-1.349485917E0,9.783651806E0
1.205879596E1,-6.466326447E0,-7.510740319E0,-7.025103624E-1,9.935699204E0
1.206873496E1,-7.157010670E0,-7.423975825E0,-4.980496033E-1,1.032406278E1
1.207867396E1,-8.189055927E0,-7.712195610E0,-6.247831786E-1,1.126627499E1
1.208861296E1,-9.770832426E0,-8.145143922E0,-9.730092828E-1,1.275771464E1
1.209855096E1,-1.188453130E1,-8.464910604E0,-1.002302664E0,1.462536859E1
1.210848996E1,-1.416348243E1,-8.758954800E0,-3.954121113E-1,1.665772717E1
1.211842896E1,-1.587695636E1,-8.466702776E0,8.821203089E-1,1.801501971E1
1.212836696E1,-1.638075596E1,-7.153801133E0,2.474211881E0,1.804515894E1
1.213830596E1,-1.572675542E1,-5.139870374E0,3.245649076E0,1.686070406E1
1.214824496E1,-1.461371570E1,-2.636962112E0,3.263633941E0,1.520412978E1
1.215818396E1,-1.289251176E1,3.061526102E-1,2.597275890E0,1.315509144E1
1.216812296E1,-1.007676869E1,3.616152633E0,1.503270028E0,1.081099662E1
1.217806096E1,-6.118207201E0,6.988291601E0,7.701449597E-1,9.319967924E0
1.218799996E1,-7.929613799E-1,1.068453764E1,1.131528688E0,1.077350869E1
1.219793896E1,5.663569812E0,1.531082660E1,1.831706961E0,1.642719040E1
1.220787796E1,1.304103338E1,2.028438637E1,8.931808289E-1,2.413136245E1
1.221781596E1,2.063124320E1,2.404951612E1,-1.252194096E0,3.171112441E1
1.222775496E1,2.682231256E1,2.618139223E1,-2.795618123E0,3.758613083E1
1.223769396E1,3.111686090E1,2.719333242E1,-2.749294142E0,4.141611980E1
1.224763296E1,3.374225138E1,2.619370179E1,-1.690170429E0,4.274934172E1
1.225757096E1,3.540424524E1,2.377919700E1,-2.666517448E-1,4.264952396E1
1.226750996E1,3.682187929E1,2.113121289E1,1.629155903E0,4.248568113E1
1.227744896E1,3.954504690E1,1.782952994E1,4.133271614E0,4.357507093E1
1.228738796E1,4.403650842E1,1.387333073E1,6.756587495E0,4.666192081E1
1.229732596E1,4.993618529E1,8.293439251E0,7.134066195E0,5.112043267E1
1.230726496E1,5.481093882E1,4.246745020E-1,4.253588601E0,5.497738061E1
1.231720396E1,5.570825721E1,-7.783291905E0,-8.488753796E-2,5.624941564E1
1.232714296E1,5.238616865E1,-1.508716124E1,-3.416555003E0,5.462239420E1
1.233708096E1,4.537255042E1,-1.965597675E1,-5.768749527E0,4.978256949E1
1.234701996E1,3.814096202E1,-2.079029215E1,-6.103099165E0,4.386589850E1
1.235695896E1,3.312476202E1,-2.086824956E1,-4.189939320E0,3.937371318E1
1.236689796E1,2.901156623E1,-2.132672039E1,-1.050873584E0,3.602227523E1
1.237683596E1,2.334863377E1,-2.154583193E1,2.790520813E0,3.189308042E1
1.238677496E1,1.584046505E1,-2.135710018E1,6.671301177E0,2.741445459E1
1.239671396E1,6.451383303E0,-2.180603537E1,1.038439772E1,2.499918481E1
1.240665196E1,-4.456325601E0,-2.276626512E1,1.354730870E1,2.686431161E1
1.241659096E1,-1.384100030E1,-2.343642152E1,1.525741111E1,3.120300846E1
1.242652996E1,-2.000515610E1,-2.268702833E1,1.454726677E1,3.356382719E1
1.243646896E1,-2.240747997E1,-2.057277105E1,1.187208141E1,3.265394898E1
1.244640696E1,-2.281526713E1,-1.838494760E1,9.128048594E0,3.068980260E1
1.245634596E1,-2.339323633E1,-1.677804269E1,7.295886719E0,2.969808387E1
1.246628496E1,-2.464287519E1,-1.680184905E1,6.765263593E0,3.058336509E1
1.247622396E1,-2.744692851E1,-1.810868186E1,7.221096738E0,3.366604345E1
1.248616196E1,-3.140510525E1,-1.953960897E1,8.941632927E0,3.805298613E1
1.249610096E1,-3.351616995E1,-2.008011038E1,1.064607933E1,4.049547489E1
1.250603996E1,-3.266870960E1,-1.863396648E1,1.165455563E1,3.937382329E1
1.251597896E1,-2.930005616E1,-1.619736272E1,1.220415882E1,3.563410364E1
1.252591696E1,-2.491861819E1,-1.396139447E1,1.204223305E1,3.099795872E1
1.253585596E1,-1.991464587E1,-1.164778222E1,1.139051175E1,2.572951046E1
1.254579496E1,-1.453842812E1,-9.138490552E0,1.004258821E1,1.989300077E1
1.255573396E1,-1.030997436E1,-6.743660470E0,8.391346784E0,1.490594609E1
1.256567196E1,-8.035554821E0,-4.883069725E0,7.080827297E0,1.177083797E1
1.257561096E1,-6.863866945E0,-4.167283114E0,5.882348648E0,9.953941109E0
1.258554996E1,-6.687993223E0,-3.911370365E0,4.994315050E0,9.217985371E0
1.259548896E1,-6.802292840E0,-3.442394434E0,4.654704672E0,8.932387301E0
1.260542696E1,-6.395545902E0,-3.034739715E0,4.562052616E0,8.421696776E0
1.261536596E1,-5.118692343E0,-2.540238640E0,4.308373504E0,7.156528900E0
1.262530496E1,-2.900869174E0,-1.506982279E0,3.900283167E0,5.089031965E0
1.263524254E1,-5.062080771E-1,-2.194741432E-1,3.287204360E0,3.333185867E0
1.264518054E1,1.729289471E0,9.167378721E-1,2.412017387E0,3.106232167E0
1.265511954E1,3.070488129E0,1.589281839E0,1.963535362E0,3.976076613E0
1.266505854E1,3.756349568E0,1.620296202E0,2.378603766E0,4.732153604E0
1.267499754E1,3.773086054E0,1.575591607E0,3.010551245E0,5.077606334E0
1.268493554E1,3.774540841E0,1.351114951E0,3.123806258E0,5.082404520E0
1.269487454E1,3.739470996E0,1.149229525E0,2.833343481E0,4.830342339E0
1.270481354E1,3.821267695E0,1.128202792E0,2.065502909E0,4.487898239E0
1.271475254E1,4.534444987E0,1.198631919E0,1.126375756E0,4.823549747E0
1.272469054E1,5.623716944E0,1.364901224E0,2.947943938E-1,5.794484563E0
1.273462954E1,6.596900620E0,1.482963232E0,3.811595231E-2,6.761636678E0
1.274456854E1,7.382139582E0,1.598643085E0,7.364758149E-1,7.589073800E0
1.275450754E1,7.723909337E0,1.656489736E0,2.196001945E0,8.199094964E0
1.276444554E1,7.255840309E0,1.231457823E0,3.255544611E0,8.047501331E0
1.277438454E1,5.934000027E0,6.545664831E-1,3.845090714E0,7.101094014E0
1.278432354E1,4.177926216E0,3.452327684E-2,4.350045733E0,6.031513674E0
1.279426254E1,2.201108903E0,-7.011774165E-1,4.196361025E0,4.790195823E0
1.280420054E1,2.330706006E-1,-1.414445852E0,3.363338616E0,3.656094312E0
1.281413954E1,-1.184638290E0,-1.737311266E0,2.251586454E0,3.080788840E0
1.282407854E1,-1.492488931E0,-1.825897022E0,1.241620283E0,2.665153668E0
1.283401754E1,-1.168307016E0,-1.920071546E0,8.781488800E-1,2.413039884E0
1.284395554E1,-5.060110259E-1,-2.015031498E0,9.791408193E-1,2.296762034E0
1.285389454E1,-1.412301385E-1,-2.135903239E0,9.235452005E-1,2.331300997E0
1.286383354E1,3.263506472E-2,-2.658902619E0,7.140514505E-1,2.753306678E0
1.287377254E1,-1.179430175E-1,-3.561800424E0,6.618404925E-1,3.624688353E0
1.288371054E1,-1.554154837E-1,-4.450974522E0,8.222968608E-1,4.528962386E0
1.289364954E1,7.599205184E-1,-4.852168360E0,7.498668158E-1,4.968230795E0
1.290358854E1,3.549120737E0,-4.084294167E0,1.846872300E-2,5.410920249E0
1.291352754E1,8.291953474E0,-2.338225233E0,-1.353520788E0,8.720998118E0
1.292346554E1,1.328374428E1,-3.858533755E-1,-2.989556233E0,1.362146069E1
1.293340454E1,1.645870870E1,1.239820510E0,-4.416144412E0,1.708591755E1
1.294334354E1,1.666424886E1,2.156754557E0,-5.127318156E0,1.756810097E1
1.295328254E1,1.454787839E1,1.979124039E0,-4.915713269E0,1.548295626E1
1.296322054E1,1.137499557E1,1.208450637E0,-3.842993025E0,1.206728937E1
1.297315954E1,8.138085163E0,1.995659819E-1,-2.462075400E0,8.504708812E0
1.298309854E1,5.319221435E0,-6.906967941E-1,-1.016567677E0,5.459357890E0
1.299303754E1,3.051105194E0,-1.452681672E0,2.608314264E-1,3.389330314E0
1.300297554E1,1.270450273E0,-2.029162171E0,1.153511953E0,2.657467373E0
1.301291454E1,6.743886173E-2,-2.195819220E0,1.624508536E0,2.732251458E0
1.302285354E1,-6.185594022E-1,-2.183020542E0,1.616368042E0,2.785828435E0
1.303279254E1,-6.977154994E-1,-2.197756695E0,1.190249863E0,2.594925074E0
1.304273054E1,-3.843503487E-1,-1.902385473E0,5.414451528E-1,2.014933878E0
1.305266954E1,-2.182303673E-1,-1.418133398E0,-1.359441094E-1,1.441252105E0
1.306260854E1,-3.047650659E-1,-1.146467081E0,-7.025277579E-1,1.378700027E0
1.307254754E1,-6.137775493E-1,-1.075337238E0,-9.890563814E-1,1.584709936E0
1.308248554E1,-1.003818993E0,-1.052562625E0,-1.032697660E0,1.783817566E0
1.309242454E1,-1.417242867E0,-1.032533207E0,-9.936243725E-1,2.015438305E0
1.310236354E1,-1.773940564E0,-1.009659996E0,-8.011002655E-1,2.192724348E0
1.311230254E1,-2.117269186E0,-1.072656874E0,-5.555489293E-1,2.437633317E0
1.312224054E1,-2.453337321E0,-1.209312370E0,-2.279057550E-1,2.744675109E0
1.313217954E1,-2.627496639E0,-1.257904194E0,-8.997359231E-2,2.914473675E0
1.314211854E1,-2.507467335E0,-1.343749214E0,-2.416548979E-1,2.855074689E0
1.315205754E1,-2.193987579E0,-1.416926241E0,-5.664431691E-1,2.672474384E0
1.316199554E1,-1.864168364E0,-1.297165031E0,-1.016523092E0,2.488188097E0
1.317193454E1,-1.826438035E0,-1.165556925E0,-1.394902118E0,2.576848999E0
1.318187354E1,-2.066209545E0,-1.118102677E0,-1.834245530E0,2.980575808E0
1.319181254E1,-2.484067363E0,-1.011925646E0,-2.340371308E0,3.559764323E0
1.320175054E1,-2.935817982E0,-8.731033907E-1,-2.840713019E0,4.177437877E0
1.321168954E1,-3.206636453E0,-7.871148220E-1,-3.139497553E0,4.556151004E0
1.322162854E1,-3.343067197E0,-9.047700834E-1,-3.200965823E0,4.716024744E0
1.323156754E1,-3.409754691E0,-1.050685377E0,-2.843482261E0,4.562428978E0
1.324150554E1,-3.384546175E0,-1.221432260E0,-2.423213636E0,4.338088738E0
1.325144454E1,-2.956893101E0,-1.418005929E0,-1.856545933E0,3.768384326E0
1.326138354E1,-2.456849744E0,-1.450171755E0,-1.340708077E0,3.152238400E0
1.327132254E1,-1.582201007E0,-1.758833113E0,-1.091342456E0,2.605356463E0
1.328126054E1,-7.967720103E-1,-2.436891735E0,-1.185802544E0,2.824785768E0
1.329119954E1,-4.326465958E-1,-3.238271059E0,-1.590267387E0,3.633528986E0
1.330113854E1,1.861870408E-1,-3.739739968E0,-1.192867807E0,3.929790611E0
1.331107654E1,1.301570908E0,-4.087584687E0,2.955216412E-1,4.299973075E0
1.332101554E1,3.494953301E0,-4.543900520E0,2.323455751E0,6.185481156E0
1.333095454E1,6.437855185E0,-4.767004541E0,4.422421983E0,9.150307529E0
1.334089354E1,9.126735894E0,-4.836582607E0,5.654344075E0,1.177545949E1
1.335083254E1,1.060057396E1,-4.819841736E0,5.753858423E0,1.298883865E1
1.336077054E1,1.079995700E1,-5.016637380E0,5.182247484E0,1.298697081E1
1.337070954E1,1.009906061E1,-5.461031617E0,4.517079926E0,1.233766196E1
1.338064854E1,8.860763011E0,-5.574495667E0,4.476409033E0,1.138535730E1
1.339058654E1,7.361450379E0,-5.201660825E0,4.942400545E0,1.027986139E1
1.340052554E1,5.787716725E0,-4.874937125E0,5.054344320E0,9.099949086E0
1.341046454E1,4.176565568E0,-4.665500093E0,4.716399229E0,7.839324764E0
1.342040354E1,2.437254555E0,-4.338622027E0,4.564875067E0,6.752920497E0
1.343034154E1,6.038945854E-1,-3.697280119E0,4.384139385E0,5.766736260E0
1.344028054E1,-1.009353967E0,-3.175572827E0,3.831875129E0,5.078023751E0
1.345021954E1,-2.667847105E0,-2.479511505E0,2.933685502E0,4.676739902E0
1.346015854E1,-4.493280004E0,-1.448997926E0,1.923570666E0,5.097968644E0
1.347009654E1,-6.110913384E0,-2.270456113E-1,1.274933771E0,6.246620544E0
1.348003554E1,-7.318926503E0,7.835348643E-1,9.629531682E-1,7.423468923E0
1.348997454E1,-7.953607848E0,1.568057762E0,7.345891377E-1,8.139920402E0
1.349991354E1,-8.298005342E0,2.287540691E0,3.107484486E-1,8.613146908E0
1.350985154E1,-8.697185984E0,2.901386653E0,-2.138162311E-1,9.170867239E0
1.351979054E1,-9.253511716E0,3.098352743E0,-6.126263056E-1,9.777657172E0
1.352972954E1,-9.697520036E0,2.681248924E0,-7.870188546E-1,1.009209539E1
1.353966854E1,-1.008200546E1,1.877825705E0,-7.218750981E-1,1.028076685E1
1.354960654E1,-1.043112633E1,8.477088600E-1,-5.826230361E-1,1.048172011E1
1.355954554E1,-1.066566984E1,-3.836510217E-1,-3.238503778E-1,1.067748006E1
1.356948454E1,-1.082935446E1,-1.405223038E0,2.223555779E-1,1.092240870E1
1.357942354E1,-1.085459689E1,-2.320226919E0,7.288846672E-1,1.112371338E1
1.358936154E1,-1.082793242E1,-3.196982407E0,1.108614546E0,1.134433088E1
1.359930054E1,-1.078020744E1,-3.812042251E0,1.385401855E0,1.151798059E1
1.360923954E1,-1.055877806E1,-4.136002849E0,1.537570964E0,1.144370736E1
1.361917854E1,-1.022291166E1,-4.355018789E0,1.496779618E0,1.121224601E1
1.362911654E1,-9.876698020E0,-4.491591328E0,1.422079099E0,1.094284540E1
1.363905579E1,-9.743869160E0,-4.693852365E0,1.291987907E0,1.089240419E1
1.364899479E1,-9.789096204E0,-4.833088311E0,1.158562705E0,1.097849783E1
1.365893379E1,-9.782161991E0,-4.605640977E0,1.308746027E0,1.089107149E1
1.366887179E1,-9.525359881E0,-3.909475867E0,1.605482866E0,1.042084726E1
1.367881079E1,-9.174224056E0,-3.081197889E0,1.663972564E0,9.819825465E0
1.368874979E1,-8.682640450E0,-2.422390348E0,1.535353700E0,9.144043480E0
1.369868879E1,-8.143475711E0,-1.852532405E0,1.491931107E0,8.483745128E0
1.370862679E1,-7.818289245E0,-1.312495700E0,1.574637634E0,8.082559951E0
1.371856579E1,-7.543663652E0,-8.276767378E-1,1.472958062E0,7.730557259E0
1.372850479E1,-7.322780403E0,-4.927969033E-1,1.061754960E0,7.415745762E0
1.373844379E1,-7.282455080E0,-8.797486782E-2,6.712438385E-1,7.313853968E0
1.374838179E1,-7.611275591E0,6.108776227E-2,2.450205553E-1,7.615463408E0
1.375832079E1,-8.566717646E0,-4.442693987E-1,-5.498956950E-1,8.595836887E0
1.376825979E1,-1.026201316E1,-1.757183028E0,-1.409901688E0,1.050639943E1
1.377819879E1,-1.138249989E1,-3.787280462E0,-1.565209729E0,1.209771377E1
1.378813679E1,-1.028845661E1,-5.759515604E0,-1.117046377E0,1.184365450E1
1.379807579E1,-7.274266639E0,-7.243875736E0,-1.021942730E-1,1.026640806E1
1.380801479E1,-1.940587379E0,-8.763704494E0,1.339107255E0,9.075329419E0
1.381795379E1,6.432222562E0,-1.073394076E1,3.269234405E0,1.293363309E1
1.382789179E1,1.502199987E1,-1.218730364E1,4.128852289E0,1.977974396E1
1.383783079E1,2.057637059E1,-1.270417294E1,3.811859525E0,2.448087641E1
1.384776979E1,2.404042019E1,-1.317541292E1,4.270257844E0,2.774470058E1
1.385770879E1,2.811954074E1,-1.464753249E1,5.077097005E0,3.210974452E1
1.386764679E1,3.280849782E1,-1.634444943E1,4.872673084E0,3.697676972E1
1.387758579E1,3.697178553E1,-1.603733379E1,4.043467153E0,4.050257556E1
1.388752479E1,3.940888162E1,-1.383592726E1,1.827381776E0,4.180708263E1
1.389746279E1,3.910216943E1,-1.020401930E1,-1.338295662E0,4.043380639E1
1.390740179E1,3.572325062E1,-5.844507807E0,-4.127620573E0,3.643276215E1
1.391734079E1,3.044617357E1,-2.188619251E0,-5.257817484E0,3.097425034E1
1.392727979E1,2.464019249E1,-1.612697160E-1,-5.173805274E0,2.517803318E1
1.393721779E1,1.944096293E1,5.424356711E-1,-5.033842227E0,2.008942119E1
1.394715679E1,1.475524288E1,8.689167112E-1,-5.161806788E0,1.565619551E1
1.395709579E1,1.035655328E1,1.332968118E0,-5.518554186E0,1.181056477E1
1.396703479E1,6.728836609E0,1.837474070E0,-5.916466566E0,9.146481821E0
1.397697279E1,4.037458554E0,2.176659356E0,-6.225290769E0,7.732603875E0
1.398691179E1,2.026819777E0,2.482825415E0,-6.469157669E0,7.219585957E0
1.399685079E1,4.352480221E-1,2.777385920E0,-6.707840427E0,7.273131140E0
1.400678979E1,-8.193036711E-1,3.108962224E0,-6.861188920E0,7.577124653E0
1.401672779E1,-1.760863266E0,3.412135677E0,-6.907252700E0,7.902749470E0
1.402666679E1,-2.403275800E0,3.648776588E0,-6.781552767E0,8.067140949E0
1.403660579E1,-2.651243352E0,3.725400256E0,-6.161384211E0,7.672701856E0
1.404654479E1,-3.158207474E0,3.722387770E0,-5.570833556E0,7.407066334E0
1.405648279E1,-4.411094465E0,3.508239344E0,-5.748334558E0,8.050394268E0
1.406642179E1,-4.704497806E0,2.817015424E0,-5.659633466E0,7.880312587E0
1.407636079E1,-4.448893790E0,2.002809940E0,-5.136401221E0,7.084244569E0
1.408629979E1,-4.249579166E0,1.175072245E0,-4.390337726E0,6.222120476E0
1.409623779E1,-4.040724224E0,4.395954269E-1,-3.736603229E0,5.521132138E0
1.410617679E1,-3.373047041E0,-2.506870919E-1,-3.105233746E0,4.591597432E0
1.411611579E1,-2.104940332E0,-1.110241826E0,-2.701673248E0,3.600340130E0
1.412605479E1,-6.518458468E-1,-2.449753855E0,-2.396964461E0,3.488787123E0
1.413599279E1,6.699716306E-1,-4.300207867E0,-1.979739751E0,4.781215239E0
1.414593179E1,1.792404901E0,-6.488272217E0,-1.027576815E0,6.809280858E0
1.415587079E1,2.096528528E0,-8.011208185E0,1.871401370E0,8.489819288E0
1.416580979E1,1.807787756E0,-8.510000823E0,3.830969980E0,9.506026592E0
1.417574779E1,1.052794102E0,-8.604939725E0,3.759857313E0,9.449332786E0
1.418568679E1,-4.646729654E-1,-8.191178466E0,3.175001262E0,8.797269954E0
1.419562579E1,-2.436124873E0,-7.824342867E0,2.126828799E0,8.466312446E0
1.420556479E1,-4.952598090E0,-7.208816416E0,1.139059829E0,8.820018098E0
1.421550279E1,-7.502496330E0,-6.349668648E0,4.752926785E-1,9.840307223E0
1.422544179E1,-9.650217816E0,-5.821239982E0,-2.222690392E-1,1.127221994E1
1.423538079E1,-1.203809322E1,-5.557965589E0,-5.327001301E-1,1.326990728E1
1.424531979E1,-1.423214863E1,-4.952176505E0,-8.630771700E-1,1.509380697E1
1.425525779E1,-1.578767990E1,-3.988540455E0,-1.310730572E0,1.633637984E1
1.426519679E1,-1.662165306E1,-2.083777212E0,-1.285739572E0,1.680102986E1
1.427513579E1,-1.697238777E1,6.453761950E-1,-4.948119269E-1,1.699185969E1
1.428507479E1,-1.667409089E1,3.734000341E0,1.916840082E-1,1.708814819E1
1.429501279E1,-1.500046107E1,6.409339483E0,1.410418582E0,1.637323259E1
1.430495179E1,-1.133352010E1,8.379789178E0,2.975019470E0,1.440556439E1
1.431489079E1,-6.689114134E0,1.018165721E1,5.021971210E0,1.317689593E1
1.432482979E1,-1.163260869E0,1.181173464E1,6.996946650E0,1.377779058E1
1.433476779E1,5.109875911E0,1.330222265E1,8.601507994E0,1.664469582E1
1.434470679E1,1.101476382E1,1.449145978E1,1.065348425E1,2.109085477E1
1.435464579E1,1.506050262E1,1.480059154E1,1.281342466E1,2.469939474E1
1.436458479E1,1.779298368E1,1.483009542E1,1.519592998E1,2.770267652E1
1.437452279E1,2.053472906E1,1.462384191E1,1.712802896E1,3.047788092E1
1.438446179E1,2.349228114E1,1.415342405E1,1.899545539E1,3.336216437E1
1.439440079E1,2.586877903E1,1.450110417E1,2.021117689E1,3.588826302E1
1.440433979E1,2.831149781E1,1.484075724E1,2.005614615E1,3.773642779E1
1.441427779E1,3.112069668E1,1.329912129E1,1.814362132E1,3.839993989E1
1.442421679E1,3.380720459E1,9.611597541E0,1.483030709E1,3.814771157E1
1.443415579E1,3.739580222E1,5.301268728E0,1.229255937E1,3.971972418E1
1.444409479E1,4.199499284E1,9.121475154E-1,9.520059965E0,4.307020987E1
1.445403279E1,4.639129911E1,-4.690448993E0,6.331035326E0,4.705565804E1
1.446397179E1,4.955680391E1,-1.068410845E1,3.639195925E0,5.082588646E1
1.447391079E1,5.118512717E1,-1.569003724E1,1.234644263E0,5.355015274E1
1.448384979E1,5.279196074E1,-2.165209689E1,-2.123124003E-3,5.705965670E1
1.449378779E1,5.448761586E1,-2.888052545E1,-1.245550489E-1,6.166847287E1
1.450372679E1,5.264715094E1,-3.604536203E1,-1.858653855E0,6.383138115E1
1.451366579E1,4.521874058E1,-4.122589687E1,-4.796001468E0,6.137842213E1
1.452360379E1,3.435928699E1,-4.319717570E1,-6.006913637E0,5.552152378E1
1.453354279E1,2.280377150E1,-4.235663143E1,-5.366742926E0,4.840349316E1
1.454348179E1,1.376623897E1,-3.947599362E1,-3.668122101E0,4.196806557E1
1.455342079E1,7.646824908E0,-3.573674365E1,-1.635013059E-1,3.654607381E1
1.456335879E1,2.271118786E0,-3.231182596E1,3.727969815E0,3.260536515E1
1.457329779E1,-3.904553096E0,-2.976739838E1,5.641447456E0,3.054782268E1
1.458323679E1,-1.103433211E1,-2.662269563E1,5.854706520E0,2.940751598E1
1.459317579E1,-1.856239539E1,-2.360918102E1,7.241402364E0,3.089326560E1
1.460311379E1,-2.482563576E1,-2.273360725E1,1.188738942E1,3.569928734E1
1.461305279E1,-3.009830400E1,-2.476050714E1,1.799257721E1,4.292695485E1
1.462299179E1,-3.637153843E1,-2.521787868E1,2.391598910E1,5.030710435E1
1.463293092E1,-3.868663588E1,-2.382538299E1,2.659307130E1,5.264500082E1
1.464286892E1,-3.548306337E1,-2.219162883E1,2.454905311E1,4.851981229E1
1.465280792E1,-3.073352680E1,-2.106923708E1,1.962848080E1,4.211578895E1
1.466274692E1,-2.629672505E1,-1.988488589E1,1.451438437E1,3.602212916E1
1.467268592E1,-2.316220816E1,-1.794814773E1,9.579126198E0,3.082829143E1
1.468262392E1,-2.182485638E1,-1.510521394E1,6.036467804E0,2.722004386E1
1.469256292E1,-2.221575211E1,-1.271464414E1,5.580560984E0,2.619817700E1
1.470250192E1,-2.292565554E1,-1.159661908E1,7.800271050E0,2.684979487E1
1.471244092E1,-2.267481233E1,-1.080597963E1,1.023096327E1,2.712174256E1
1.472237892E1,-2.189957211E1,-9.970648742E0,1.194559494E1,2.686451811E1
1.473231792E1,-2.080147202E1,-9.188304151E0,1.254354174E1,2.597049501E1
1.474225692E1,-1.845069019E1,-8.488681290E0,1.180828829E1,2.349300642E1
1.475219592E1,-1.363038827E1,-7.653038744E0,9.138758354E0,1.810727453E1
1.476213392E1,-6.992123281E0,-5.976260194E0,4.952942491E0,1.044687098E1
1.477207292E1,-8.204959184E-1,-3.657552674E0,2.201883075E-1,3.754915179E0
1.478201192E1,4.582696795E0,-1.620455538E0,-2.343524272E0,5.396210901E0
1.479195092E1,8.232539915E0,4.731925048E-1,-2.330335585E0,8.569077462E0
1.480188892E1,9.542444276E0,1.958443168E0,-1.511704344E0,9.857940577E0
1.481182792E1,1.123335613E1,1.859336810E0,9.439196773E-1,1.142525307E1
1.482176692E1,1.315079029E1,1.980448287E0,3.458817801E0,1.374150215E1
1.483170592E1,1.471371244E1,2.602934241E0,4.362074332E0,1.556586949E1
1.484164392E1,1.560400131E1,2.868441978E0,4.457971008E0,1.647987627E1
1.485158292E1,1.587540801E1,2.488938386E0,4.180377953E0,1.660418482E1
1.486152192E1,1.574056888E1,2.438421367E0,3.836951097E0,1.638394340E1
1.487146092E1,1.443542591E1,2.403162656E0,2.913091024E0,1.492122017E1
1.488139892E1,1.177972581E1,1.747136635E0,1.976044310E0,1.207141987E1
1.489133792E1,8.192621559E0,5.833563866E-1,1.647142084E0,8.376898574E0
1.490127692E1,4.287111858E0,-7.053947939E-1,1.434269375E0,4.575373049E0
1.491121592E1,9.444259000E-1,-1.604831632E0,1.477066169E0,2.376793915E0
1.492115392E1,-8.976440817E-1,-1.798733635E0,1.518560643E0,2.519371750E0
1.493109292E1,-1.531969916E0,-1.887977641E0,1.222739478E0,2.721485482E0
1.494103192E1,-1.541942343E0,-2.098052020E0,9.621887179E-1,2.775827011E0
1.495096992E1,-1.020295277E0,-2.347085519E0,3.815542833E-1,2.587546436E0
1.496090892E1,-4.008038288E-1,-2.529590861E0,-5.686146057E-1,2.623508376E0
1.497084792E1,3.236802238E-1,-2.488522941E0,-1.245846212E0,2.801722346E0
1.498078692E1,1.671769241E0,-2.069027026E0,-1.691098967E0,3.152062966E0
1.499072492E1,3.494469736E0,-1.575285505E0,-2.028049300E0,4.336568589E0
1.500066392E1,5.671562371E0,-1.265256776E0,-2.092925327E0,6.176393030E0
1.501060292E1,7.142196164E0,-1.522407964E0,-1.673090858E0,7.491857251E0
1.502054192E1,7.376402294E0,-2.494342090E0,-9.323129542E-1,7.842337707E0
1.503047992E1,7.041964948E0,-3.718501126E0,-2.771814108E-2,7.963497300E0
1.504041892E1,6.680269636E0,-4.592664544E0,5.625372291E-1,8.126193337E0
1.505035792E1,6.472341478E0,-5.032918952E0,4.777220504E-1,8.212776372E0
1.506029692E1,6.717785956E0,-5.115744762E0,2.063741143E-1,8.446424267E0
1.507023492E1,7.412865531E0,-4.943486373E0,-1.485695636E-1,8.911268474E0
1.508017392E1,8.418807648E0,-4.641598138E0,-6.335830919E-1,9.634426969E0
1.509011292E1,9.381350561E0,-4.085151076E0,-1.053511555E0,1.028630567E1
1.510005192E1,9.850850987E0,-3.605573558E0,-1.263927119E0,1.056583824E1
1.510998992E1,9.508554983E0,-3.372440100E0,-1.187314707E0,1.015852776E1
1.511992892E1,8.419097670E0,-3.396565711E0,-7.660471579E-1,9.110691107E0
1.512986792E1,6.944712887E0,-3.499383736E0,-1.624053915E-1,7.778245248E0
1.513980692E1,5.602527219E0,-3.360776074E0,3.946904918E-1,6.545143821E0
1.514974492E1,4.483807515E0,-3.131020260E0,8.403793021E-1,5.532996934E0
1.515968392E1,3.406506563E0,-2.960749340E0,1.053343082E0,4.634636476E0
1.516962292E1,2.370627286E0,-2.922965802E0,9.875864645E-1,3.890877772E0
1.517956192E1,1.284072531E0,-3.040676393E0,9.371238971E-1,3.431145055E0
1.518949992E1,1.763993865E-1,-3.138118487E0,8.298707592E-1,3.250782961E0
1.519943892E1,-9.120381725E-1,-3.131383372E0,7.171247470E-1,3.339407635E0
1.520937792E1,-1.869846595E0,-3.101594147E0,5.581447641E-1,3.664387823E0
1.521931692E1,-2.667391607E0,-3.057741491E0,4.198955727E-1,4.079347167E0
1.522925492E1,-3.337498308E0,-2.955625133E0,3.568180760E-1,4.472352180E0
1.523919392E1,-3.949766691E0,-2.819800453E0,3.221862602E-1,4.863716223E0
1.524913292E1,-4.373343671E0,-2.662191971E0,2.649233079E-1,5.126751926E0
1.525907192E1,-4.700091344E0,-2.445653495E0,1.854690027E-1,5.301554339E0
1.526900992E1,-4.933684686E0,-2.158266062E0,1.744038049E-1,5.387928513E0
1.527894892E1,-5.108474334E0,-1.873475669E0,1.979154591E-1,5.444776546E0
1.528888792E1,-5.301353513E0,-1.609748117E0,2.921127876E-1,5.548059837E0
1.529882692E1,-5.557044652E0,-1.389663305E0,4.128204417E-1,5.743024472E0
1.530876492E1,-5.749730288E0,-1.271073293E0,4.816469208E-1,5.908215421E0
1.531870392E1,-5.930310434E0,-1.243595911E0,4.952312453E-1,6.079503814E0
1.532864292E1,-6.010396823E0,-1.190872518E0,5.553194991E-1,6.152351345E0
1.533858092E1,-5.924391298E0,-1.144155823E0,5.721055397E-1,6.060924809E0
1.534851992E1,-5.390556296E0,-1.122671399E0,5.600743087E-1,5.534633816E0
1.535845892E1,-3.989692065E0,-1.153644100E0,6.582819501E-1,4.204981879E0
1.536839792E1,-1.855692240E0,-8.322602239E-1,6.260239577E-1,2.127946608E0
1.537833692E1,2.938442212E-1,-3.448833972E-3,3.942672995E-1,4.917347093E-1
1.538827492E1,1.956728033E0,9.927233166E-1,-7.857141215E-2,2.195554064E0
1.539821392E1,3.111944304E0,1.893800299E0,-7.542791247E-1,3.720163157E0
1.540815292E1,3.984202114E0,2.426352713E0,-1.171722375E0,4.809780379E0
1.541809092E1,5.467920806E0,2.557980262E0,-1.103998681E0,6.136793467E0
1.542802992E1,6.500808647E0,2.960092698E0,-1.039591674E0,7.218269370E0
1.543796892E1,6.563131195E0,3.356124906E0,-1.406117370E0,7.504360834E0
1.544790792E1,6.035386654E0,3.139575321E0,-1.866832355E0,7.054635944E0
1.545784592E1,6.041360754E0,2.374132400E0,-3.872959128E0,7.558727196E0
1.546778492E1,1.142294742E1,1.992696303E0,-1.421503032E1,1.834452652E1
1.547772392E1,1.399310977E1,3.034394436E0,-1.954267174E1,2.422665246E1
1.548766292E1,5.267380605E0,1.666837992E-1,-9.627868003E0,1.097583365E1
1.549760092E1,2.219673228E0,-5.648109773E0,-1.449070432E0,6.239222577E0
1.550753992E1,2.338461168E0,-6.409727154E0,3.354816592E0,7.603143901E0
1.551747892E1,2.485036247E0,-5.633641423E0,5.262590566E0,8.099887672E0
1.552741792E1,4.293653723E0,-5.059095182E0,4.103385326E0,7.801773996E0
1.553735592E1,5.590563816E0,-3.990900684E0,1.995305331E0,7.152827092E0
1.554729492E1,5.777011642E0,-2.890950542E0,7.470285773E-2,6.460420967E0
1.555723392E1,4.940758063E0,-2.320495452E0,-1.004653683E0,5.550235887E0
1.556717292E1,3.743676898E0,-2.227062209E0,-1.237479870E0,4.528385940E0
1.557711092E1,2.353272750E0,-2.408642374E0,-8.988047540E-1,3.485297794E0
1.558704992E1,8.239036757E-1,-2.539328521E0,-8.834675074E-2,2.671106841E0
1.559698892E1,-5.160682368E-1,-2.528236061E0,1.322441521E0,2.899509542E0
1.560692792E1,-1.534450305E0,-2.362038896E0,2.833462472E0,3.995281600E0
1.561686592E1,-2.293682021E0,-2.047696091E0,4.039416786E0,5.076507113E0
1.562680492E1,-2.808629347E0,-1.562928292E0,4.830976589E0,5.802540690E0
1.563674429E1,-3.201716605E0,-9.692876762E-1,5.167966830E0,6.156166743E0
1.564668329E1,-3.533194091E0,-3.062523052E-1,5.045521456E0,6.167214746E0
1.565662129E1,-3.865276179E0,2.438809329E-1,4.462909566E0,5.909094655E0
1.566656029E1,-4.244165229E0,6.138569983E-1,3.476023525E0,5.520190074E0
1.567649929E1,-4.563867007E0,8.942921653E-1,2.113749747E0,5.108481039E0
1.568643829E1,-4.656923690E0,1.041501594E0,7.283350289E-1,4.827228577E0
1.569637629E1,-4.991578553E0,1.028410993E0,-7.459070814E-1,5.150714804E0
1.570631529E1,-5.300116827E0,9.114833448E-1,-2.040402274E0,5.751980677E0
1.571625429E1,-5.361977445E0,9.270082140E-1,-2.659726492E0,6.056755845E0
1.572619329E1,-5.465816978E0,1.047429866E0,-2.734907652E0,6.200966411E0
1.573613129E1,-5.560532516E0,1.137848578E0,-2.435007470E0,6.176041016E0
1.574607029E1,-5.677380350E0,1.073006391E0,-1.823993315E0,6.058955518E0
1.575600929E1,-5.795408737E0,7.878544217E-1,-1.028367432E0,5.938435534E0
1.576594829E1,-6.066795557E0,6.245302865E-1,-2.285220516E-1,6.103135976E0
1.577588629E1,-6.500089440E0,4.895528680E-1,3.777442376E-1,6.529434542E0
1.578582529E1,-7.000608761E0,3.339371172E-1,8.197527373E-1,7.056346900E0
1.579576429E1,-7.428575245E0,1.124945911E-1,1.056647855E0,7.504191489E0
1.580570229E1,-7.858467802E0,-1.310951414E-1,1.025313796E0,7.926157361E0
1.581564129E1,-8.134051169E0,-4.244514307E-1,1.024902298E0,8.209346634E0
1.582558029E1,-8.087946458E0,-6.858476982E-1,1.291600821E0,8.219093482E0
1.583551929E1,-7.907346432E0,-9.515290976E-1,1.678025762E0,8.139244786E0
1.584545729E1,-7.652068691E0,-1.320677270E0,1.956666638E0,8.007926576E0
1.585539629E1,-7.510056195E0,-1.683906014E0,2.032343642E0,7.960333171E0
1.586533529E1,-7.506128036E0,-2.093414593E0,2.127772540E0,8.077856073E0
1.587527429E1,-7.555030639E0,-2.501008209E0,2.227609654E0,8.264125773E0
1.588521229E1,-8.043621640E0,-2.749452601E0,2.088520181E0,8.753356799E0
1.589515129E1,-8.913253466E0,-2.845745133E0,1.516987596E0,9.478692108E0
1.590509029E1,-9.995488883E0,-2.939580081E0,1.247263431E0,1.049316897E1
1.591502929E1,-1.160282882E1,-2.910075030E0,1.485423741E0,1.205407222E1
1.592496729E1,-1.421806502E1,-2.300500752E0,1.444904583E0,1.447526946E1
1.593490629E1,-1.728268781E1,-1.910837331E0,9.022031558E-1,1.741139190E1
1.594484529E1,-1.996172532E1,-3.221702681E0,7.303599197E-1,2.023322197E1
1.595478429E1,-2.215586258E1,-5.541463577E0,1.843910685E0,2.291266183E1
1.596472229E1,-2.272164151E1,-7.543325683E0,2.246355243E0,2.404622355E1
1.597466129E1,-1.740551325E1,-9.525944602E0,2.410713458E0,1.998767249E1
1.598460029E1,-4.239956403E0,-1.013512507E1,4.570440739E0,1.189903017E1
1.599453929E1,1.255206114E1,-7.470586905E0,7.421832236E0,1.638436759E1
1.600447729E1,2.892221610E1,-3.954715775E0,8.309240767E0,3.035091173E1
1.601441629E1,3.802906971E1,-1.875505823E0,1.009950266E1,3.939197404E1
1.602435529E1,3.889588200E1,-1.026167051E0,1.228152099E1,4.080169621E1
1.603429429E1,3.555068993E1,-1.383372871E0,1.356086254E1,3.807443063E1
1.604423229E1,3.066426069E1,-2.435412974E0,1.316684441E1,3.346033340E1
1.605417129E1,2.658757024E1,-1.815981752E0,1.192303054E1,2.919512525E1
1.606411029E1,2.358444730E1,6.312984386E-1,9.772556770E0,2.553678832E1
1.607404929E1,2.090764810E1,2.832023472E0,6.702429999E0,2.213758510E1
1.608398729E1,1.774032833E1,4.386488796E0,3.159348850E0,1.854567384E1
1.609392629E1,1.402861407E1,5.468770992E0,-7.056525099E-1,1.507340088E1
1.610386529E1,1.022677082E1,5.933917581E0,-4.670332525E0,1.271260104E1
1.611380429E1,6.443231699E0,5.893067763E0,-8.270436305E0,1.202678673E1
1.612374229E1,2.795408208E0,5.721795216E0,-1.079421737E1,1.253269230E1
1.613368129E1,-4.083286107E-1,5.422879704E0,-1.172396910E1,1.292384649E1
1.614362029E1,-2.706564444E0,5.071020579E0,-1.140963916E1,1.277578203E1
1.615355929E1,-4.203369205E0,4.776198703E0,-1.062915398E1,1.238786911E1
1.616349729E1,-5.108611743E0,4.624287456E0,-1.008783630E1,1.221664396E1
1.617343629E1,-5.489300566E0,4.739952983E0,-9.400510717E0,1.187304412E1
1.618337529E1,-5.465386623E0,4.931866786E0,-8.327858886E0,1.111516957E1
1.619331329E1,-5.278920085E0,4.988143314E0,-7.201857644E0,1.022816330E1
1.620325229E1,-5.219771406E0,4.822093499E0,-6.257955655E0,9.468928568E0
1.621319129E1,-5.563422210E0,4.434573959E0,-5.499578801E0,8.992356748E0
1.622313029E1,-5.988445791E0,3.824315264E0,-4.875209021E0,8.617107010E0
1.623306829E1,-6.309081370E0,2.869872499E0,-4.303643106E0,8.158555011E0
1.624300729E1,-6.477067782E0,1.604737784E0,-3.770453637E0,7.664457648E0
1.625294629E1,-6.452528188E0,2.224216515E-1,-3.206359879E0,7.208698570E0
1.626288529E1,-6.130703870E0,-1.420362649E0,-2.665808766E0,6.834434605E0
1.627282329E1,-5.466346151E0,-3.670780245E0,-2.255703771E0,6.960155699E0
1.628276229E1,-5.147360657E0,-6.384288257E0,-1.875322512E0,8.412567552E0
1.629270129E1,-5.209467443E0,-8.939242585E0,-1.864712155E0,1.051312325E1
1.630264029E1,-5.307137579E0,-1.099168135E1,-1.955912347E0,1.236156792E1
1.631257829E1,-4.988052097E0,-1.232693281E1,-1.663712947E0,1.340156248E1
1.632251729E1,-3.913192942E0,-1.272610351E1,-8.579794212E-1,1.334177343E1
1.633245629E1,-1.953634272E0,-1.201630298E1,5.508791236E-1,1.218653733E1
1.634239529E1,6.216227585E-1,-1.096108287E1,2.197955646E0,1.119655133E1
1.635233329E1,2.915311212E0,-9.979100307E0,3.683441806E0,1.102947079E1
1.636227229E1,4.395232723E0,-9.175619786E0,4.277619488E0,1.103667059E1
1.637221129E1,4.384990155E0,-8.607816555E0,3.982594714E0,1.044910069E1
1.638215029E1,3.739340603E0,-8.041184521E0,3.338173077E0,9.475585266E0
1.639208829E1,3.000537304E0,-7.378458175E0,2.765533029E0,8.431668998E0
1.640202729E1,2.654462829E0,-6.803509061E0,2.280684100E0,7.650844948E0
1.641196629E1,3.298814299E0,-5.880022625E0,1.333789651E0,6.872833236E0
1.642190529E1,5.161492208E0,-4.381360788E0,2.278741801E-1,6.774160524E0
1.643184329E1,7.483674143E0,-2.479156871E0,-6.615153142E-1,7.911333641E0
1.644178229E1,9.599005562E0,-2.795010012E-1,-1.320200722E0,9.693397678E0
1.645172129E1,1.063587945E1,1.935515504E0,-1.443682222E0,1.090652879E1
1.646166029E1,1.075278868E1,3.662564322E0,-1.091830844E0,1.141178936E1
1.647159829E1,1.004964229E1,4.987602446E0,-5.538891971E-1,1.123291064E1
1.648153729E1,8.736502662E0,5.983621253E0,-1.530157864E-1,1.059026043E1
1.649147629E1,6.869553362E0,6.759801124E0,7.848849133E-2,9.638041039E0
1.650141429E1,4.539488211E0,7.656900830E0,4.366129084E-1,8.912110545E0
