"Time (s)","Linear Acceleration x (m/s^2)","Linear Acceleration y (m/s^2)","Linear Acceleration z (m/s^2)","Absolute acceleration (m/s^2)"
6.949833332E-3,3.738529302E0,1.239321801E1,2.785851519E0,1.324120171E1
1.688883334E-2,4.366200712E0,1.199575470E1,-4.748374727E0,1.362016527E1
2.682783333E-2,3.444086033E0,8.290240240E0,7.543077176E0,1.172552025E1
3.676583333E-2,7.043192278E0,7.978845600E0,9.962724595E0,1.457821717E1
4.670483333E-2,7.710408701E0,7.398569089E0,5.337273543E0,1.194469404E1
5.664383333E-2,5.537635989E0,7.901130257E0,3.435242119E0,1.024178501E1
6.658283334E-2,4.143676735E0,8.848928831E0,4.253834769E0,1.065686204E1
7.652083333E-2,2.377783840E0,1.093470141E1,6.995701777E0,1.319702217E1
8.645983334E-2,8.909563288E-1,1.262893799E1,9.564559615E0,1.586709421E1
9.639883333E-2,1.232620249E0,1.417065229E1,1.025241671E1,1.753393246E1
1.063378333E-1,2.204219622E0,1.484242018E1,9.379072486E0,1.769528247E1
1.162758333E-1,2.518390811E0,1.432177241E1,8.613875440E0,1.690131082E1
1.262148333E-1,2.475266719E0,1.372303858E1,8.177403011E0,1.616535348E1
1.361538333E-1,2.310373776E0,1.343862299E1,7.589104704E0,1.560541333E1
1.460928333E-1,1.811575583E0,1.306488300E1,6.935664906E0,1.490222874E1
1.560308333E-1,2.595930592E-1,1.247036150E1,6.420685421E0,1.402863164E1
1.659698333E-1,-1.648913206E0,1.104846600E1,4.658611196E0,1.210331252E1
1.759088333E-1,-2.841732481E0,8.821292551E0,1.877312320E0,9.455947722E0
1.858478333E-1,-3.641158543E0,5.761551604E0,5.622922307E-1,6.838836522E0
1.957858333E-1,-4.706862127E0,2.086242106E0,2.649804352E0,5.790373072E0
2.057248333E-1,-5.397724983E0,-2.171507374E0,5.564855363E0,8.050993384E0
2.156638333E-1,-7.308454725E0,-8.024841553E0,3.119957328E0,1.129361440E1
2.256028333E-1,-1.155362567E1,-1.733115421E1,-8.731366467E-1,2.084748282E1
2.355408333E-1,-5.721681780E0,-2.662050877E1,-1.099491252E1,2.936455740E1
2.454798333E-1,6.366286435E0,-3.345426431E1,-1.524450514E1,3.731102170E1
2.554188333E-1,1.095310142E1,-3.493019978E1,-1.022223221E1,3.800767447E1
2.653578333E-1,7.715761242E0,-2.713101046E1,-9.897696540E0,2.989296066E1
2.752958333E-1,1.570029004E0,-9.830773988E0,-1.073218660E1,1.463861119E1
2.852348333E-1,-1.410749827E0,6.687516090E0,-7.649843241E0,1.025832287E1
2.951738333E-1,-7.450353785E0,-7.678850108E-1,-1.617328155E0,7.662451910E0
3.051118333E-1,-9.170345013E0,-1.670025601E0,4.711884009E0,1.044442742E1
3.150508333E-1,-7.295686160E0,2.208196898E0,1.537342338E0,7.776026720E0
3.249898333E-1,-3.521325998E0,1.951210601E0,1.161703756E0,4.190049547E0
3.349288333E-1,-1.313375998E0,2.489779508E-1,9.288430703E-1,1.627788679E0
3.448668333E-1,3.674090646E-1,-3.170683678E0,-1.124074584E0,3.384046110E0
3.548058333E-1,2.426535585E0,-6.648771855E0,-3.398799933E0,7.851501965E0
3.647448333E-1,4.083538122E0,-8.441567935E0,-5.370478712E0,1.080635898E1
3.746838333E-1,5.114027435E0,-8.904974978E0,-5.671081145E0,1.173085748E1
3.846218333E-1,5.576901212E0,-8.831314094E0,-6.131414891E0,1.211148976E1
3.945608333E-1,3.846344064E0,-7.816678922E0,-6.137307715E0,1.065651810E1
4.044998333E-1,1.494752973E-2,-5.693685311E0,-5.411247253E0,7.854926651E0
4.144388333E-1,-1.949299877E0,-3.236982332E0,-3.787854951E0,5.350296231E0
4.243768333E-1,-1.698267945E0,-1.528171565E0,-1.289770058E0,2.623533714E0
4.343158333E-1,-1.505227529E0,-8.717707372E-1,-3.688347620E-1,1.778126321E0
4.442548333E-1,-1.458051316E0,-9.445241332E-1,-2.460385555E-1,1.754586689E0
4.541938333E-1,-1.101054096E0,-1.440157521E0,-3.732008779E-1,1.850851886E0
4.641318333E-1,-3.157379508E-1,-2.107492057E0,-7.325725061E-1,2.253414232E0
4.740708333E-1,4.095401537E-1,-3.131903774E0,-1.281551211E0,3.408653384E0
4.840098333E-1,8.664101560E-1,-4.377232069E0,-1.752604074E0,4.794001271E0
4.939488333E-1,9.740055022E-1,-5.372509450E0,-2.254633146E0,5.907276456E0
5.038868333E-1,6.346857306E-1,-5.885444748E0,-2.458986316E0,6.409984366E0
5.138258333E-1,1.350759441E-1,-5.859631630E0,-2.458693956E0,6.355997508E0
5.237648333E-1,-3.612029761E-1,-5.470825703E0,-2.499018694E0,6.025404210E0
5.337038333E-1,-7.295933497E-1,-5.060578036E0,-2.140451058E0,5.542859122E0
5.436418333E-1,-1.102302769E0,-4.773668028E0,-1.721487531E0,5.192927609E0
5.535808333E-1,-1.518260388E0,-4.474663639E0,-1.307435666E0,4.902766292E0
5.635198333E-1,-2.001712418E0,-4.226699011E0,-7.040322465E-1,4.729428986E0
5.734588333E-1,-2.345221719E0,-3.831872206E0,-4.209235132E-2,4.492781018E0
5.833968333E-1,-2.623724601E0,-3.349279863E0,9.227695674E-1,4.353516976E0
5.933354583E-1,-2.918106181E0,-3.135750657E0,1.822868895E0,4.655225760E0
6.032744583E-1,-2.901775200E0,-3.343933169E0,2.594806611E0,5.131784261E0
6.132134583E-1,-2.622149653E0,-3.679017802E0,3.264802800E0,5.574027100E0
6.231514583E-1,-2.233000202E0,-3.632039518E0,3.682993909E0,5.634043406E0
6.330904583E-1,-1.800981305E0,-3.169029500E0,4.058742419E0,5.455242585E0
6.430294583E-1,-1.256268728E0,-2.404141772E0,4.245808296E0,5.038352595E0
6.529684583E-1,-6.574648748E-1,-1.617160340E0,3.687938607E0,4.080240041E0
6.629064583E-1,2.543986852E-1,-8.507651997E-1,2.168583182E0,2.343346567E0
6.728454583E-1,1.936001554E0,2.264322567E-1,-5.882883668E-2,1.950085746E0
6.827844583E-1,3.882769002E0,1.825899507E0,-1.996365724E0,4.732365184E0
6.927224583E-1,4.762004587E0,3.443244034E0,-2.790057128E0,6.505154567E0
7.026614583E-1,3.967539596E0,4.701378901E0,-2.079352332E0,6.493692334E0
7.126004583E-1,2.805620955E0,5.961210630E0,-6.701996720E-1,6.622439786E0
7.225394583E-1,2.119228150E0,7.359816667E0,7.397762758E-1,7.694497921E0
7.324774583E-1,2.972332674E0,1.024608300E1,9.641415417E-1,1.071198149E1
7.424164583E-1,4.426196653E0,1.466421225E1,-1.175154106E0,1.536266009E1
7.523554583E-1,5.095871245E0,1.413436447E1,-3.239799521E0,1.537024605E1
7.622944583E-1,7.612799376E0,1.530606229E1,-3.899718618E0,1.753391178E1
7.722324583E-1,9.027881112E0,1.645659552E1,-4.204175536E0,1.923531298E1
7.821714583E-1,8.123576467E0,1.529601560E1,-1.745786513E0,1.740713527E1
7.921104583E-1,6.214773967E0,1.502618180E1,2.439991052E0,1.644272214E1
8.020494583E-1,3.912936834E0,1.528454102E1,6.196908969E0,1.695080971E1
8.119874583E-1,1.832587552E0,1.481711110E1,8.470511652E0,1.716550978E1
8.219264583E-1,1.034617301E-1,1.357606998E1,9.562164595E0,1.660588366E1
8.318654583E-1,-1.540441362E0,1.184626829E1,9.859265131E0,1.548909749E1
8.418044583E-1,-2.311038604E0,1.025932110E1,9.349442305E0,1.407148323E1
8.517424583E-1,-2.498067352E0,9.175849582E0,7.358173015E0,1.202411187E1
8.616814583E-1,-2.466755512E0,8.693467155E0,5.195511893E0,1.042375162E1
8.716204583E-1,-2.289008634E0,8.601657098E0,2.857969030E0,9.348585579E0
8.815594583E-1,-2.366518594E0,8.500219016E0,6.375900427E-1,8.846505222E0
8.914974583E-1,-2.631499059E0,7.914925008E0,-5.978856942E-1,8.362313824E0
9.014364583E-1,-2.336605701E0,7.095007380E0,-9.509864759E-1,7.530154792E0
9.113754583E-1,-1.078586974E0,6.784333118E0,-1.335849333E0,6.998215426E0
9.213144583E-1,2.857586914E-1,6.750340914E0,-1.938885255E0,7.029085041E0
9.312524583E-1,1.376320690E0,6.809016554E0,-2.324304767E0,7.325254789E0
9.411914583E-1,1.862413322E0,7.010326248E0,-1.568878857E0,7.421228898E0
9.511304583E-1,2.026054376E0,7.266454759E0,4.431055105E-1,7.556626469E0
9.610694583E-1,2.307175056E0,7.368862309E0,2.617842886E0,8.153299323E0
9.710074583E-1,2.468865187E0,7.409436139E0,4.002816725E0,8.775966097E0
9.809464583E-1,2.581831347E0,7.269100040E0,4.377350768E0,8.869434494E0
9.908854583E-1,2.883683038E0,6.654508558E0,4.118906175E0,8.340473613E0
1.000824458E0,3.189802904E0,6.073651417E0,4.427942047E0,8.165216156E0
1.010762458E0,2.963050512E0,5.867864510E0,4.403373216E0,7.912091880E0
1.020701458E0,2.322312621E0,5.449837707E0,3.783716877E0,7.029251763E0
1.030640458E0,1.025275351E0,2.967874757E0,-2.034936297E-1,3.146566347E0
1.040579458E0,-4.767730473E0,-2.248482226E1,-3.523349719E1,4.206777639E1
1.050517458E0,-1.011662799E1,-3.440381939E1,-2.198852463E1,4.206499930E1
1.060456458E0,-1.031025737E1,-1.406862305E1,3.340463315E1,3.768417542E1
1.070395458E0,-1.272750450E1,-3.143142941E1,1.728930920E1,3.806368792E1
1.080334458E0,-1.358923674E1,-6.127677117E1,-3.513393080E1,7.192984870E1
1.090272458E0,-3.310248529E0,-4.586054033E1,-2.614030970E1,5.289104551E1
1.100211458E0,3.927977627E0,-1.830699135E1,-2.215683673E0,1.885428850E1
1.110150458E0,4.196554275E0,-6.859897855E0,9.873301957E0,1.273386657E1
1.120089458E0,4.870007338E0,2.064950055E-1,1.019537829E1,1.130067919E1
1.130027458E0,6.704433839E0,2.515482699E0,4.412835181E0,8.411313848E0
1.139966458E0,7.084537940E0,1.422446889E0,-1.603701219E0,7.401749157E0
1.149905458E0,3.880181901E0,-1.480732520E0,-9.079335440E0,9.984123017E0
1.159844458E0,-1.602259880E0,-6.291622168E0,-7.175169783E0,9.676508029E0
1.169782458E0,-5.808569650E0,-1.013617289E1,2.427044731E-1,1.168504975E1
1.179721458E0,-7.530819658E0,-1.073470675E1,-3.410539972E0,1.354913121E1
1.189660458E0,-8.124461735E0,-8.930440187E0,-5.687800089E0,1.334581246E1
1.199598458E0,-8.254265245E0,-6.669336512E0,-3.948720040E0,1.132277944E1
1.209537458E0,-7.853265535E0,-5.398169956E0,-5.319997360E0,1.091404555E1
1.219476458E0,-7.181184813E0,-4.564906642E0,-6.792441452E0,1.088783949E1
1.229415458E0,-6.301541970E0,-3.653141534E0,-6.498584951E0,9.761479429E0
1.239353458E0,-4.358979109E0,-2.613514777E0,-5.152481648E0,7.237349342E0
1.249292458E0,-2.181935006E0,-1.859484744E0,-4.014794161E0,4.933264238E0
1.259231458E0,-2.958135635E-1,-1.476640638E0,-2.811859934E0,3.189753835E0
1.269170458E0,9.947578552E-1,-5.372702408E-1,-1.976467941E0,2.276977827E0
1.279108458E0,1.875216385E0,5.848279846E-1,-1.154490046E0,2.278444103E0
1.289047458E0,2.523236691E0,1.593072150E0,-3.770126778E-1,3.007780051E0
1.298986458E0,2.890542406E0,2.536044433E0,5.002000630E-2,3.845680534E0
1.308925458E0,3.094570179E0,3.434629331E0,2.194892728E-1,4.628306254E0
1.318863458E0,3.108090404E0,4.294565889E0,4.918625182E-1,5.324044597E0
1.328802458E0,2.874852573E0,5.092978043E0,9.087499908E-1,5.918532690E0
1.338741458E0,2.413957786E0,5.730766599E0,1.329081181E0,6.358878422E0
1.348680458E0,1.845618072E0,6.101417506E0,1.566956439E0,6.564217709E0
1.358618458E0,1.158513515E0,6.310785833E0,1.727759547E0,6.644796795E0
1.368557458E0,5.695123726E-1,6.337809325E0,1.913862388E0,6.644925930E0
1.378496458E0,2.169077271E-1,6.270908992E0,1.947305830E0,6.569881927E0
1.388435458E0,1.084854385E-1,6.302321988E0,1.608937401E0,6.505360182E0
1.398373458E0,1.673057967E-1,6.314266680E0,1.153607409E0,6.420962934E0
1.408312458E0,3.767080379E-1,6.366023310E0,8.143124878E-1,6.428939769E0
1.418251458E0,7.755825779E-1,6.434916374E0,5.757212386E-1,6.507006379E0
1.428190458E0,1.103832401E0,6.693212448E0,1.770376101E-1,6.785932593E0
1.438128458E0,1.319465727E0,7.104202126E0,-5.328238718E-1,7.245314274E0
1.448067458E0,1.610349796E0,7.391657680E0,-1.645695337E0,7.741972802E0
1.458006458E0,1.611827679E0,7.454337493E0,-4.049849389E0,8.635184769E0
1.467945458E0,1.266712732E0,6.879303594E0,-8.863512372E0,1.129120147E1
1.477883458E0,1.227968789E0,2.489194202E0,-1.387696887E1,1.415182886E1
1.487822458E0,1.304817575E0,-4.970581786E0,-1.015619259E1,1.138233193E1
1.497761458E0,1.742303034E0,-8.323096914E0,2.141521390E0,8.769017959E0
1.507700458E0,5.776332781E-1,-9.942359912E0,1.018702963E1,1.424639441E1
1.517638458E0,8.254572809E-2,-1.065777610E1,9.182888460E0,1.406842016E1
1.527577458E0,2.551362091E0,-9.423516002E0,4.301656222E0,1.066847452E1
1.537516458E0,4.986583861E0,-5.858086796E0,-2.664900693E-1,7.697676043E0
1.547455458E0,4.643936439E0,-1.657136584E0,-2.684821280E0,5.614313192E0
1.557393458E0,3.733759143E0,1.426432351E0,-3.003574640E0,4.999712713E0
1.567332458E0,3.303320163E0,3.546670754E0,-2.875227964E0,5.635400020E0
1.577271458E0,3.061063879E0,4.837568155E0,-2.587624184E0,6.282354387E0
1.587210458E0,2.956126239E0,5.752660328E0,-2.652877356E0,6.990675322E0
1.597148458E0,3.013473391E0,6.804412456E0,-3.738315586E0,8.328028228E0
1.607087458E0,2.903855932E0,8.092365199E0,-5.074273970E0,9.983336622E0
1.617026458E0,3.120975328E0,9.254922649E0,-6.357057774E0,1.165359446E1
1.626965458E0,4.617674255E0,1.051085896E1,-8.812204224E0,1.447259531E1
1.636903458E0,6.737287005E0,1.129511793E1,-1.172845976E1,1.762179031E1
1.646842458E0,7.307563609E0,1.075773425E1,-1.309958505E1,1.845883151E1
1.656781458E0,2.923090348E0,8.631253949E0,-7.375773718E0,1.172369566E1
1.666720458E0,-2.381450044E0,6.522864929E0,-8.800848931E-1,6.999544315E0
1.676658458E0,-4.875967990E0,4.609745430E0,1.196366635E1,1.371692857E1
1.686597458E0,-3.568240255E0,3.035660359E0,1.711041246E1,1.774017438E1
1.696536458E0,-5.209239986E0,-4.861474496E-1,8.313678219E0,9.822920447E0
1.706475458E0,-6.399725491E0,-1.173695577E1,-1.511783340E1,2.018072109E1
1.716413458E0,-4.304666954E0,-2.426138647E1,-1.368708989E1,2.818654751E1
1.726352458E0,3.991951136E0,-2.749158252E1,4.420438315E0,2.812939847E1
1.736291458E0,8.564463544E0,-3.003430038E1,-1.544924130E0,3.126973018E1
1.746229458E0,1.800223213E0,-2.991811621E1,-9.016646272E0,3.129911166E1
1.756168458E0,-4.366334614E0,-2.621706960E1,-9.361375887E0,2.817862621E1
1.766107458E0,-5.591243262E0,-2.237356378E1,-8.578913183E0,2.460561133E1
1.776046458E0,-6.456151707E0,-2.033755393E1,-8.443543124E0,2.294757973E1
1.785984458E0,-7.552881787E0,-1.920746022E1,-8.604642102E0,2.236095743E1
1.795923458E0,-8.141982917E0,-1.774529378E1,-6.991719239E0,2.073816470E1
1.805862458E0,-7.417805843E0,-1.752856089E1,-5.322354373E0,1.976364709E1
1.815801458E0,-6.854144195E0,-1.750152453E1,-6.378943902E0,1.984876769E1
1.825739458E0,-6.656719390E0,-1.518166628E1,-8.497785405E0,1.862813090E1
1.835678458E0,-5.135082673E0,-1.079969504E1,-9.504884101E0,1.527564430E1
1.845617458E0,-2.465290492E0,-5.983411923E0,-6.348116212E0,9.065178150E0
1.855556458E0,8.299187064E-1,-1.708934144E0,6.148756564E-1,1.996820733E0
1.865494458E0,3.451498256E0,8.542407846E-1,8.416350063E0,9.136603084E0
1.875433458E0,3.664489226E0,1.268976189E0,9.075979139E0,9.869760847E0
1.885372458E0,4.125484877E0,1.287891932E0,2.569654813E0,5.028062943E0
1.895311458E0,6.455396247E0,2.929594790E0,-4.308450687E-1,7.102133047E0
1.905249458E0,9.318125203E0,5.193692240E0,3.025372950E-1,1.067208626E1
1.915188458E0,1.169908101E1,7.325604608E0,-2.239178809E-1,1.380518448E1
1.925127458E0,1.113603624E1,8.076129236E0,-7.111944278E-1,1.377464933E1
1.935066458E0,9.009343100E0,8.893878717E0,1.972959612E0,1.281256849E1
1.945004458E0,6.363874458E0,9.936786346E0,6.842432806E0,1.364028987E1
1.954943458E0,2.996437821E0,1.020808546E1,8.279421136E0,1.348081832E1
1.964882458E0,-5.295112049E-1,9.866154320E0,7.268478481E0,1.226589428E1
1.974821458E0,-3.364287912E0,9.721962567E0,7.132647661E0,1.251837258E1
1.984759458E0,-5.176434767E0,9.715172780E0,6.872020302E0,1.297708450E1
1.994698458E0,-6.778087122E0,9.890733676E0,7.683416784E0,1.424092592E1
2.004637458E0,-7.249031226E0,9.504547302E0,8.436064535E0,1.463051803E1
2.014576458E0,-7.019085377E0,8.847529593E0,8.894527173E0,1.437563748E1
2.024514458E0,-7.511945431E0,8.384240663E0,8.405064937E0,1.404884096E1
2.034453458E0,-8.874160736E0,7.888099737E0,5.361178131E0,1.302747394E1
2.044392458E0,-9.719394470E0,6.478289850E0,1.073257018E0,1.172973780E1
2.054331458E0,-9.081007159E0,4.617480127E0,-2.670733291E-1,1.019103243E1
2.064269458E0,-6.847554967E0,4.063771024E0,4.628734263E0,9.210234788E0
2.074208458E0,-2.986349620E0,6.809985437E0,9.435604536E0,1.201352649E1
2.084147458E0,1.381770880E0,2.032506896E1,7.999533049E0,2.188630275E1
2.094086458E0,3.448491033E0,1.984953830E1,-2.688729267E0,2.032548957E1
2.104024458E0,3.113638827E0,9.802078192E0,1.957950101E0,1.046943419E1
2.113963458E0,4.580204127E0,7.661623042E0,1.026416260E1,1.360263839E1
2.123902458E0,6.020549929E0,6.714775810E0,1.207307594E1,1.506965156E1
2.133841458E0,4.952387005E0,7.733037425E0,1.082134962E1,1.419251960E1
2.143779458E0,3.318698925E0,1.014512147E1,8.280125141E0,1.350917187E1
2.153718458E0,2.481412435E0,1.197437143E1,6.327504192E0,1.376881579E1
2.163657458E0,2.288275394E0,1.255109401E1,5.446057482E0,1.387175934E1
2.173596458E0,1.701972741E0,1.270688020E1,5.625413806E0,1.400024272E1
2.183534458E0,9.218376674E-2,1.303300632E1,5.629638419E0,1.419720325E1
2.193473458E0,-8.212863158E-1,1.296844370E1,4.511884090E0,1.375544043E1
2.203412458E0,-3.298900399E-1,1.217952918E1,1.712423177E0,1.230374543E1
2.213350458E0,-6.756475228E-1,1.071959871E1,-2.961350434E0,1.114162881E1
2.223289458E0,-4.728316146E0,8.466464794E0,-4.319440529E0,1.061581679E1
2.233228458E0,-8.322033305E0,6.052482743E0,3.142408882E0,1.075934567E1
2.243167458E0,-8.455152186E0,3.533399913E0,5.450362203E0,1.066212744E1
2.253105458E0,-9.677409707E0,-4.233354896E-1,-5.531008170E0,1.115452926E1
2.263044458E0,-9.880082388E0,-1.299811715E1,-1.616574800E1,2.297604156E1
2.272983458E0,-4.611130051E0,-3.445786403E1,-2.829827843E1,4.482632570E1
2.282922458E0,6.019094557E0,-4.929335176E1,-1.079430391E1,5.081910098E1
2.292860458E0,1.405926985E1,-4.627911677E1,5.402158926E0,4.866829603E1
2.302799458E0,4.417425245E0,-2.206955768E1,8.069145906E-1,2.252177021E1
2.312738458E0,2.216884106E-2,2.080749232E-1,-2.445914281E0,2.454848937E0
2.322677458E0,-7.483490248E-1,1.331213251E1,1.569346488E0,1.342519075E1
2.332615458E0,-2.295769770E0,1.236775690E1,4.577886876E0,1.338615022E1
2.342554458E0,-4.064471521E0,5.205338139E0,4.083472048E0,7.764677575E0
2.352493458E0,-2.681647119E0,-1.111448107E0,1.181656210E0,3.134144152E0
2.362432458E0,7.610515161E-1,-4.776415635E0,-2.700262899E0,5.539383129E0
2.372370458E0,2.758563148E0,-6.817388597E0,-4.562468938E0,8.654627706E0
2.382309458E0,3.974477025E0,-8.376743948E0,-4.814983284E0,1.044750548E1
2.392248458E0,3.911635829E0,-9.096581218E0,-6.627227789E0,1.191506747E1
2.402187458E0,1.922540533E0,-7.877589367E0,-6.933902555E0,1.066918839E1
2.412125458E0,1.768054757E0,-5.877421784E0,-4.827003990E0,7.808333495E0
2.422064458E0,1.458608264E0,-4.630331722E0,-3.300774871E0,5.870487601E0
2.432003458E0,-1.519622643E-1,-4.387620233E0,-2.667890959E0,5.137309219E0
2.441942458E0,-1.339343629E0,-4.353654342E0,-2.830159380E0,5.362643900E0
2.451880458E0,-1.476438032E0,-4.203572688E0,-2.816561680E0,5.270949848E0
2.461819458E0,-7.827452709E-1,-4.235323654E0,-3.111697551E0,5.313503389E0
2.471758458E0,5.706970185E-2,-4.627228605E0,-3.425104217E0,5.757242431E0
2.481696458E0,4.872560817E-1,-5.304284137E0,-3.366046754E0,6.301041140E0
2.491635458E0,4.990769590E-1,-6.001120216E0,-3.418032010E0,6.924266349E0
2.501574458E0,1.928369330E-1,-6.437852261E0,-3.093373547E0,7.145074367E0
2.511513458E0,-3.915260518E-1,-6.549994841E0,-2.508624499E0,7.024878785E0
2.521451458E0,-1.112905964E0,-6.389815046E0,-2.281844918E0,6.875689946E0
2.531390458E0,-1.706864083E0,-6.046748378E0,-1.943315690E0,6.576703340E0
2.541329458E0,-2.291712679E0,-5.700306113E0,-1.357110102E0,6.291834758E0
2.551268458E0,-2.575096816E0,-5.482868044E0,-6.326997238E-1,6.090424824E0
2.561206458E0,-2.392908102E0,-5.238220541E0,-1.163461429E-1,5.760078128E0
2.571145458E0,-2.091267642E0,-5.204518944E0,6.862520331E-1,5.650783985E0
2.581084458E0,-1.803934587E0,-5.427820017E0,1.618808670E0,5.944405070E0
2.591023458E0,-1.516578875E0,-5.626382105E0,2.295369528E0,6.262979191E0
2.600962208E0,-1.004264258E0,-5.420817391E0,2.720251021E0,6.147647803E0
2.610901208E0,-2.735603032E-1,-4.646977576E0,2.903533750E0,5.486323365E0
2.620840208E0,4.039851161E-1,-3.326961041E0,2.862417884E0,4.407415329E0
2.630779208E0,8.234234731E-1,-1.772768197E0,2.547069942E0,3.210653919E0
2.640717208E0,1.055737590E0,-2.233671463E-1,1.920265966E0,2.202702005E0
2.650656208E0,1.227545158E0,1.346328421E0,1.328114929E0,2.254630035E0
2.660595208E0,9.801310453E-1,2.796295815E0,1.075152685E0,3.152123165E0
2.670534208E0,3.998370648E-1,4.200891740E0,1.270642646E0,4.407027776E0
2.680472208E0,2.761040613E-1,5.673583168E0,1.578942354E0,5.895662675E0
2.690411208E0,6.411795752E-1,7.696991680E0,1.641988202E0,7.896259711E0
2.700350208E0,1.374658619E0,1.196819560E1,1.352878472E0,1.212260997E1
2.710289208E0,2.066594877E0,1.770303011E1,-1.154670140E-1,1.782361978E1
2.720227208E0,1.590906342E0,1.622115037E1,-2.188445881E0,1.644524240E1
2.730166208E0,3.271975287E0,1.329353954E1,-1.896225724E0,1.382098722E1
2.740105208E0,4.963699028E0,1.414536308E1,-1.114633085E0,1.503236547E1
2.750044208E0,4.845764782E0,1.483997137E1,-3.647189069E-1,1.561535163E1
2.759982208E0,4.301734283E0,1.443577674E1,7.636066031E-1,1.508242895E1
2.769921208E0,3.256599741E0,1.472283059E1,2.764910885E0,1.533009833E1
2.779860208E0,1.847915589E0,1.477305233E1,4.606189739E0,1.558444259E1
2.789799208E0,6.780302632E-1,1.383416374E1,6.961900778E0,1.550199580E1
2.799737208E0,-1.575818040E-1,1.241598473E1,8.956061516E0,1.530988396E1
2.809676208E0,-5.760623505E-1,1.086381678E1,9.974159410E0,1.475934344E1
2.819615208E0,-3.566338887E-1,9.634954244E0,9.502242914E0,1.353706583E1
2.829554208E0,-1.751011585E-1,9.048028863E0,7.821305823E0,1.196120025E1
2.839492208E0,3.991060898E-2,8.811047645E0,5.734012388E0,1.051261392E1
2.849431208E0,-1.034642883E-2,8.759824866E0,3.766711419E0,9.535342346E0
2.859370208E0,-1.428215314E-1,8.894682124E0,-9.495328581E-1,8.946361312E0
2.869308208E0,1.996349790E-1,8.582284103E0,-8.062942010E0,1.177737188E1
2.879247208E0,-9.064156361E-2,7.432733785E0,-6.144525518E0,9.644114332E0
2.889186208E0,-3.360338556E-1,7.272362201E0,-1.470625900E0,7.427173842E0
2.899125208E0,-3.229836012E-1,7.376005853E0,1.661638648E0,7.567748922E0
2.909063208E0,-4.542570278E-2,7.349123864E0,3.029569899E0,7.949212466E0
2.919002208E0,7.314888708E-1,7.217235237E0,2.810608045E0,7.779657962E0
2.928941208E0,1.574381672E0,7.152430546E0,1.423745702E0,7.460763512E0
2.938880208E0,1.894981436E0,7.361352730E0,8.314521387E-2,7.601801220E0
2.948818208E0,1.927820861E0,7.353160781E0,-2.221241013E-1,7.604919846E0
2.958757208E0,1.741990500E0,6.547081758E0,6.196271038E-1,6.803142523E0
2.968696208E0,1.725230772E0,5.785394211E0,1.976631371E0,6.352501788E0
2.978635208E0,1.427277713E0,5.434714469E0,3.179587233E0,6.456238688E0
2.988573208E0,8.057818387E-1,5.548141097E0,3.736797649E0,6.737567118E0
2.998512208E0,7.456509733E-1,5.716277198E0,4.113593979E0,7.081911875E0
3.008451208E0,7.031582339E-1,4.472616529E0,2.505059452E0,5.174364983E0
3.018390208E0,-5.468096808E0,-8.231334804E0,-1.941064863E1,2.178137359E1
3.028328208E0,-9.269055369E0,-1.603906924E1,-1.706189461E1,2.518482434E1
3.038267208E0,-8.807369746E0,-8.498197634E0,1.936198693E1,2.290579976E1
3.048206208E0,-1.219441268E1,-1.717763439E1,2.713405569E1,3.435159097E1
3.058145208E0,-1.137893075E1,-3.286595490E1,8.977322577E0,3.591995792E1
3.068083208E0,-2.819141471E0,-6.157360858E1,-5.287551044E1,8.121007595E1
3.078022208E0,7.910439609E0,-5.583511840E1,-1.686071297E1,5.885931654E1
3.087961208E0,2.266701214E1,-3.235680508E1,2.426622855E0,3.958086372E1
3.097899208E0,1.976723055E1,-2.113969135E1,1.793702691E0,2.899736752E1
3.107838208E0,1.401421471E0,-1.611509708E1,8.330852076E0,1.819514859E1
3.117777208E0,-7.925113197E0,-1.167196396E1,-4.014656167E0,1.466832049E1
3.127716208E0,-1.339306149E1,-9.377045841E0,-6.938221893E0,1.776068714E1
3.137654208E0,-1.207391209E1,-6.045963682E0,-4.890029958E0,1.436124727E1
3.147593208E0,-5.568779429E0,-2.322207078E0,-5.567722837E0,8.209962706E0
3.157532208E0,-2.432030067E0,-1.186173769E0,-4.303327357E0,5.083345827E0
3.167471208E0,-1.735207292E0,-7.961217999E-2,-2.952888928E0,3.425906517E0
3.177409208E0,-1.727292062E0,5.264634168E-1,-4.062710339E0,4.445932624E0
3.187348208E0,-2.588229663E0,-3.040218848E-1,-4.434041862E0,5.143159470E0
3.197287208E0,-2.751070526E0,-8.039646703E-1,-3.118694329E0,4.235682064E0
3.207226208E0,-1.511998897E0,-7.427413988E-1,-1.146193432E0,2.037538916E0
3.217164208E0,7.564490265E-1,-6.341305375E-1,5.682145831E-1,1.138948849E0
3.227103208E0,2.141424180E0,6.101978838E-2,1.282653704E0,2.496922398E0
3.237042208E0,2.835425382E0,1.605171794E0,1.087421021E0,3.434923298E0
3.246981208E0,3.580699210E0,3.241702205E0,-4.477324122E-1,4.850825119E0
3.256919208E0,3.515094035E0,4.932566698E0,-1.849921331E0,6.333112129E0
3.266858208E0,2.176627050E0,6.730270346E0,-1.630358675E0,7.258947145E0
3.276797208E0,1.106189413E-1,7.489606143E0,-6.619074431E-1,7.519611572E0
3.286736208E0,-1.116420287E0,7.470921950E0,5.563040972E-2,7.554082591E0
3.296674208E0,-1.604276439E0,7.363522632E0,4.668674254E-1,7.550704182E0
3.306613208E0,-1.771990225E0,7.151464001E0,5.139158767E-1,7.385627681E0
3.316552208E0,-1.837424076E0,6.806183578E0,4.406944111E-1,7.063602034E0
3.326491208E0,-1.567808086E0,6.343639584E0,1.778313696E-1,6.536926599E0
3.336429208E0,-1.199915749E0,5.755752921E0,-1.292462701E-1,5.880917793E0
3.346368208E0,-9.022930567E-1,4.896195263E0,-2.578689346E-1,4.985314152E0
3.356307208E0,-3.131777474E-1,3.769349683E0,-3.163133168E-1,3.795540995E0
3.366245208E0,7.807547325E-1,3.054952662E0,-4.403643358E-1,3.183745352E0
3.376184208E0,1.876427344E0,2.839596786E0,-6.677701539E-1,3.468458802E0
3.386123208E0,2.674861718E0,2.715947471E0,-8.393610826E-1,3.903304100E0
3.396062208E0,3.158827571E0,2.442423493E0,-8.848778558E-1,4.089820652E0
3.406000208E0,3.206483840E0,1.924746103E0,-7.857026464E-1,3.821454543E0
3.415939208E0,2.830433030E0,1.192478237E0,-5.407063571E-1,3.118608479E0
3.425878208E0,2.133596367E0,5.600632721E-1,-4.041557452E-1,2.242598089E0
3.435817208E0,1.245440562E0,1.012568182E-1,-4.570289004E-1,1.330507629E0
3.445755208E0,3.054757950E-1,-1.668175542E-1,-6.203542051E-1,7.113247482E-1
3.455694208E0,-4.398740467E-1,-2.589538854E-1,-7.326958823E-1,8.929667114E-1
3.465633208E0,-8.417394376E-1,-2.792513251E-1,-1.020109921E0,1.351714035E0
3.475572208E0,-9.252593118E-1,-2.118118787E-1,-1.475907397E0,1.754785375E0
3.485510208E0,-8.241887274E-1,-1.052352637E-1,-2.097429291E0,2.256007791E0
3.495449208E0,-4.700576663E-1,-4.862018287E-2,-2.683160378E0,2.724457331E0
3.505388208E0,2.286910361E-1,1.244842976E-1,-2.697376714E0,2.709914587E0
3.515327208E0,1.004395236E0,5.540032178E-1,-2.374573865E0,2.637106443E0
3.525265208E0,1.704989612E0,1.519448104E0,-2.881920102E0,3.677115118E0
3.535204208E0,2.452025498E0,2.728351169E0,-4.452647703E0,5.769090111E0
3.545143208E0,3.729457639E0,3.323333429E0,-5.826048732E0,7.674388782E0
3.555082208E0,5.143503249E0,1.901259007E0,-5.595952610E0,7.834864204E0
3.565020208E0,6.077208279E0,-1.715445018E0,-2.808408322E0,6.911032439E0
3.574959208E0,5.759272360E0,-5.526835012E0,1.771169861E-1,7.984140141E0
3.584898208E0,4.016042542E0,-8.006874813E0,2.373585685E0,9.266744357E0
3.594836583E0,1.130845952E0,-7.808836636E0,2.672363202E0,8.330562242E0
3.604774583E0,-1.046316556E0,-3.458548536E0,9.297806713E-1,3.731062638E0
3.614713583E0,-5.969830303E-1,2.385254096E0,-1.269734866E0,2.767318643E0
3.624652583E0,-3.046487063E-1,7.291027683E0,-2.130627443E0,7.602070034E0
3.634590583E0,3.556343803E-1,1.108322185E1,-2.993413933E0,1.148585258E1
3.644529583E0,1.138078666E0,1.392435236E1,-5.270638089E0,1.493192679E1
3.654468583E0,1.239501837E0,1.553671155E1,-6.540169179E0,1.690265020E1
3.664407583E0,7.075225957E-1,1.542420528E1,-6.559822841E0,1.677611315E1
3.674345583E0,9.229085849E-1,1.202166137E1,-3.577360450E0,1.257655001E1
3.684284583E0,2.771074143E0,7.413284776E0,1.962055432E0,8.153852132E0
3.694223583E0,5.082900367E0,3.773491850E0,5.325036491E0,8.272311074E0
3.704162583E0,5.190475101E0,1.411891496E0,7.446295817E0,9.185956171E0
3.714100583E0,3.057364931E0,8.590489501E-1,3.432879844E0,4.676548882E0
3.724039583E0,1.506916936E0,-5.122289550E-1,-2.586288972E0,3.036785768E0
3.733978583E0,-1.240672157E0,-5.517464849E0,-4.364119396E0,7.143334226E0
3.743917583E0,-2.808983981E0,-1.438374705E1,-1.051519760E1,1.803751509E1
3.753855583E0,-1.902067238E0,-2.222895512E1,-3.571565567E0,2.259425560E1
3.763794583E0,1.906365819E0,-2.606025430E1,2.625748030E0,2.626148582E1
3.773733583E0,2.739605305E0,-2.737646020E1,-1.632058168E0,2.756156063E1
3.783672583E0,-1.682880120E0,-2.535670795E1,-3.465178986E0,2.564765465E1
3.793610583E0,-4.372731760E0,-2.394727872E1,-5.336350268E0,2.492126753E1
3.803549583E0,-6.073707551E0,-2.401074206E1,-7.163883487E0,2.578229789E1
3.813488583E0,-7.109254705E0,-2.406862716E1,-8.057398850E0,2.635833819E1
3.823426583E0,-7.029967046E0,-2.383442044E1,-7.949991345E0,2.609027399E1
3.833365583E0,-5.537624879E0,-2.255429888E1,-7.350969830E0,2.435977103E1
3.843304583E0,-3.945238315E0,-2.004192806E1,-7.581340771E0,2.178808192E1
3.853243583E0,-3.235339265E0,-1.590390266E1,-1.014076763E1,1.913731194E1
3.863181583E0,-2.370579632E0,-1.126055504E1,-1.368305999E1,1.787864308E1
3.873120583E0,-1.650601443E0,-6.346162072E0,-1.324444514E1,1.477882219E1
3.883059583E0,1.266055798E0,-2.549295393E0,-5.847255998E0,6.503245881E0
3.892998583E0,3.367026747E0,-1.405214560E-1,1.007375781E0,3.517303138E0
3.902936583E0,3.513530197E0,8.346607983E-1,4.585553745E0,5.836853283E0
3.912875583E0,3.161881864E0,6.435182422E-1,5.848044203E0,6.679164143E0
3.922814583E0,3.068448328E0,7.816405857E-1,4.611869724E0,5.594254150E0
3.932753583E0,4.635498030E0,2.901274386E0,1.743475986E0,5.739768598E0
3.942691583E0,7.122385213E0,5.873311776E0,9.168890226E-1,9.277114197E0
3.952630583E0,8.989616933E0,8.682192553E0,1.618249092E0,1.260207960E1
3.962569583E0,9.943669689E0,9.958521616E0,2.176238356E0,1.424025046E1
3.972508583E0,9.054319882E0,1.079400102E1,4.548274237E0,1.480466025E1
3.982446583E0,6.882030151E0,1.187146745E1,9.166062512E0,1.650184173E1
3.992385583E0,2.630743014E0,1.223595598E1,1.332306914E1,1.827959515E1
4.002324583E0,-1.574743322E0,1.197779907E1,1.302762688E1,1.776700732E1
4.012262583E0,-4.416098512E0,1.167109624E1,1.137905120E1,1.688784236E1
4.022201583E0,-6.505889878E0,1.065243876E1,9.374053820E0,1.561005893E1
4.032140583E0,-9.339938825E0,9.102687466E0,4.344209919E0,1.374647359E1
4.042079583E0,-1.450246190E1,5.441914730E0,-7.751763718E0,1.732124931E1
4.052017583E0,-1.632355733E1,7.970702183E-1,-7.901637211E0,1.815295335E1
4.061956583E0,-1.360794432E1,-7.707530701E-1,5.364525661E0,1.464746888E1
4.071895583E0,-9.604718292E0,-6.447385561E-1,1.352249311E1,1.659891928E1
4.081834583E0,-3.094099186E0,7.720320901E0,1.183608478E1,1.446615732E1
4.091772583E0,2.186424498E0,3.745588820E1,-9.809507080E0,3.878079992E1
4.101711583E0,-5.686906634E0,1.523694937E1,-9.377865036E0,1.877364870E1
4.111650583E0,1.882618668E0,6.264741933E0,1.447404092E1,1.588361121E1
4.121589583E0,9.398199897E0,1.862048748E0,1.153225293E1,1.499287312E1
4.131527583E0,6.000012753E0,1.949201497E0,9.163541778E0,1.112519831E1
4.141466583E0,2.895889978E0,5.063187064E0,1.142635518E1,1.282901534E1
4.151405583E0,2.611064794E0,8.509179874E0,1.263086757E1,1.545194541E1
4.161344583E0,2.936848846E0,1.206209955E1,1.263900222E1,1.771619891E1
4.171282583E0,3.389600801E0,1.427549287E1,1.156527684E1,1.868247089E1
4.181221583E0,4.359073541E0,1.398634337E1,1.055107026E1,1.805393051E1
4.191160583E0,5.954488086E0,1.297528260E1,8.917604964E0,1.683263394E1
4.201099583E0,7.364635942E0,1.295771640E1,7.085744221E0,1.650297088E1
4.211037583E0,7.038681151E0,1.392763148E1,5.329564574E0,1.649018525E1
4.220976583E0,4.035770170E0,1.474429221E1,2.256307788E0,1.545226581E1
4.230915583E0,4.776124151E-1,1.378642707E1,-2.493721701E0,1.401828566E1
4.240854583E0,-3.720480993E0,1.193362686E1,-4.770525150E0,1.337951192E1
4.250792583E0,-6.208811561E0,9.226297604E0,1.121216465E0,1.117725525E1
4.260731583E0,-5.283271583E0,4.595727316E0,9.606968300E0,1.188812467E1
4.270670583E0,-7.308715510E0,1.018982577E0,2.698107031E0,7.857189666E0
4.280608583E0,-1.236559811E1,-5.717650709E0,-7.719909257E0,1.565875299E1
4.290547583E0,-9.781052774E0,-2.581550154E1,-3.353210479E1,4.343398629E1
4.300486583E0,3.297174447E0,-4.709831168E1,-3.493956468E1,5.873581107E1
4.310425583E0,1.584629940E1,-4.936431357E1,-4.072983897E0,5.200509453E1
4.320363583E0,1.056893585E1,-2.812770813E1,5.171669286E0,3.048961352E1
4.330302583E0,3.567157936E0,-2.314254865E0,-3.536007771E0,5.530256981E0
4.340241583E0,4.100058845E0,1.434454848E1,-4.034543132E0,1.545490511E1
4.350180583E0,-1.576854605E0,9.276136347E0,2.708677043E0,9.791328168E0
4.360118583E0,-7.758535379E0,-2.173769662E0,5.830945190E0,9.945856804E0
4.370057583E0,-7.081145386E0,-4.150333790E0,1.703612008E0,8.382731322E0
4.379996583E0,-5.250975657E0,-3.527212390E0,-4.586105722E-1,6.342262707E0
4.389935583E0,-4.298927912E0,-4.344446731E0,-6.495975924E-1,6.146297717E0
4.399873583E0,-2.946153520E0,-5.565838280E0,-1.569218434E0,6.490055687E0
4.409812583E0,-1.701711955E0,-6.327987757E0,-3.812327887E0,7.581101276E0
4.419751583E0,-9.568748414E-1,-7.095564619E0,-5.572539189E0,9.072807710E0
4.429690583E0,-1.401621446E-2,-6.901680304E0,-5.181231823E0,8.630095635E0
4.439628583E0,4.536173424E-1,-5.662163556E0,-3.981515903E0,6.936737974E0
4.449567583E0,-5.826370329E-2,-4.230973325E0,-3.109828196E0,5.251243791E0
4.459506583E0,-9.616360829E-1,-2.758747335E0,-1.806697251E0,3.435052513E0
4.469444583E0,-1.469149478E0,-1.684727840E0,-7.472232896E-1,2.356915512E0
4.479383583E0,-1.569204839E0,-1.006546719E0,7.397780299E-2,1.865747261E0
4.489322583E0,-1.681120108E0,-5.846256709E-1,1.051465030E0,2.067251969E0
4.499261583E0,-1.235959594E0,-2.560261846E-1,1.755831152E0,2.162426544E0
4.509199583E0,-7.431993820E-1,-2.950189269E-1,1.743604040E0,1.918211807E0
4.519138583E0,-3.660304374E-1,-6.329301041E-1,1.269140496E0,1.464683036E0
4.529077583E0,-2.940572061E-2,-9.987617362E-1,8.781611592E-1,1.330246866E0
4.539016583E0,1.992421557E-1,-1.293533911E0,6.593063092E-1,1.465473379E0
4.548954583E0,1.379967014E-1,-1.549844854E0,1.332498586E-1,1.561671440E0
4.558893583E0,-1.653227136E-2,-1.578067026E0,1.508838916E-1,1.585350057E0
4.568832583E0,-4.070257779E-1,-1.392020903E0,3.530607283E-1,1.492663410E0
4.578771583E0,-7.073581427E-1,-1.261408138E0,-2.964678669E-1,1.476278845E0
4.588709583E0,-3.385437364E-1,-1.288522262E0,-4.012096256E-1,1.391355686E0
4.598648458E0,-1.505347854E-1,-1.408653892E0,5.847665888E-1,1.532618176E0
4.608587458E0,-2.195497184E-1,-1.523068115E0,7.754045302E-1,1.723133990E0
4.618526458E0,1.636157286E-1,-1.492360293E0,3.075436628E-1,1.532479186E0
4.628464458E0,5.817361231E-1,-1.404059735E0,1.126331609E-1,1.523970763E0
4.638403458E0,8.117761850E-1,-1.392911434E0,-5.737551123E-1,1.711250351E0
4.648342458E0,9.953214537E-1,-1.766673644E0,-1.419326815E0,2.475134172E0
4.658280458E0,9.267081787E-1,-2.734686043E0,-1.856477521E0,3.432754665E0
4.668219458E0,7.326124133E-1,-4.141994491E0,-1.767674688E0,4.562621298E0
4.678158458E0,3.513490656E-1,-5.739618698E0,-1.210996369E0,5.876493952E0
4.688097458E0,-3.941218135E-1,-7.296982487E0,-9.693338692E-2,7.308261182E0
4.698035458E0,-9.701445857E-1,-8.242222320E0,1.376653835E0,8.412525487E0
4.707974458E0,-1.110194756E0,-8.157855769E0,3.245400569E0,8.849619652E0
4.717913458E0,-1.216297454E0,-6.693895987E0,5.006195422E0,8.446870166E0
4.727852458E0,-1.058109879E0,-4.862778425E0,6.109504205E0,7.879863714E0
4.737790458E0,-1.255583142E0,-3.637783822E0,6.343432592E0,7.419507882E0
4.747729458E0,-1.542080044E0,-3.343046731E0,5.470726300E0,6.594150329E0
4.757668458E0,-1.355494954E0,-3.391790290E0,4.095199516E0,5.487464535E0
4.767607458E0,-7.415793378E-1,-3.086510670E0,3.220375071E0,4.521869483E0
4.777545458E0,-5.218105680E-1,-2.892563789E0,2.222814353E0,3.685120783E0
4.787484458E0,-9.792602487E-1,-2.977635514E0,-2.175953597E-2,3.134603223E0
4.797423458E0,-6.347022490E-1,-2.014113193E0,-2.673107553E0,3.406611643E0
4.807362458E0,-3.095958893E-1,-3.810992968E-1,-6.316230175E0,6.335286096E0
4.817300458E0,-1.928483351E0,3.355834007E-1,-8.214697137E0,8.444697348E0
4.827239458E0,-3.621218953E0,7.247109246E-1,-5.705074518E0,6.796050903E0
4.837178458E0,-3.214385183E0,1.966457216E0,-2.476078897E0,4.508901506E0
4.847116458E0,-1.858596113E0,3.694481349E0,-5.859097195E-1,4.176944116E0
4.857055458E0,-1.861760773E-1,5.409645701E0,-2.485727388E-1,5.418552994E0
4.866994458E0,1.593902309E0,8.076855460E0,6.239259768E-1,8.256234148E0
4.876933458E0,4.923782426E0,2.139293192E1,2.410492726E0,2.208419445E1
4.886871458E0,7.556731009E0,4.265326302E1,-1.008351755E0,4.332922574E1
4.896810458E0,-1.000786919E0,2.206152595E1,3.491827087E0,2.235856341E1
4.906749458E0,4.584981595E-1,1.674772254E1,1.094593625E1,2.001274472E1
4.916688458E0,8.406308055E-1,1.603687069E1,1.275597693E1,2.050860378E1
4.926626458E0,1.351426023E-1,1.433658224E1,1.215495801E1,1.879624585E1
4.936565458E0,4.914510204E-1,1.267617764E1,1.140738213E1,1.706034498E1
4.946504458E0,1.382853199E0,1.097431512E1,1.043066674E1,1.520350894E1
4.956443458E0,2.081294192E0,9.748905952E0,8.412665733E0,1.304399852E1
4.966381458E0,2.540270215E0,9.186659330E0,6.821402126E0,1.172088774E1
4.976320458E0,2.721204118E0,8.883153169E0,5.323571763E0,1.070774385E1
4.986259458E0,2.613104303E0,8.668151050E0,3.578200695E0,9.734920489E0
4.996198458E0,2.494654332E0,8.426594385E0,2.818833615E0,9.229117841E0
5.006136458E0,2.548128873E0,8.292594913E0,2.624850774E0,9.063660008E0
5.016075458E0,3.060752515E0,8.273989658E0,2.532081774E0,9.178156075E0
5.026014458E0,3.163481662E0,8.301982033E0,2.965512774E0,9.366151180E0
5.035953458E0,2.973822545E0,7.725551235E0,1.062415841E0,8.346046359E0
5.045891458E0,3.316227307E0,6.461804211E0,-3.643708806E0,8.125816333E0
5.055830458E0,2.733976775E0,5.706953813E0,-2.673099074E0,6.869454818E0
5.065769458E0,1.702445196E0,5.668238229E0,-3.106987473E-1,5.926531699E0
5.075707458E0,1.014323370E0,5.997486171E0,1.504297968E0,6.265908126E0
5.085646458E0,1.047604113E0,5.637811072E0,2.349922296E0,6.197138280E0
5.095585458E0,1.576996693E0,5.201171998E0,2.122419414E0,5.834704182E0
5.105524458E0,1.659019972E0,5.333845321E0,8.103814048E-1,5.644375182E0
5.115462458E0,1.407505791E0,5.741989744E0,-1.965822573E-1,5.915248377E0
5.125401458E0,1.451337982E0,6.160989524E0,-3.322037101E-2,6.329713851E0
5.135340458E0,1.378483721E0,6.101773601E0,-3.442185688E-1,6.265009567E0
5.145279458E0,-2.030918383E0,1.603457975E0,-1.006927256E1,1.039643962E1
5.155217458E0,-8.706087785E0,-1.444949899E1,-2.840243371E1,3.303456109E1
5.165156458E0,-2.833242032E-1,-1.242645827E1,-4.648155205E0,1.327036113E1
5.175095458E0,-4.796549937E-1,-5.426306173E0,2.719540468E1,2.773562516E1
5.185034458E0,-6.461030624E0,-1.739047772E1,2.495734313E1,3.109730869E1
5.194972458E0,-1.115999930E1,-5.388594204E1,-3.386694676E1,6.461586815E1
5.204911458E0,-3.400800850E0,-8.069819973E1,-5.608069210E1,9.833010176E1
5.214850458E0,6.665994828E0,-5.267983921E1,7.238454198E0,5.359100825E1
5.224788458E0,7.924159516E0,-3.156936523E1,1.638272882E1,3.643914006E1
5.234727458E0,-5.106586268E0,-2.554491813E1,3.328337183E0,2.626209996E1
5.244666458E0,-1.566018604E1,-1.980815171E1,-2.878156250E0,2.541432832E1
5.254605458E0,-1.479578981E1,-1.043247353E1,-2.237654293E0,1.824168295E1
5.264543458E0,-9.863124293E0,-2.502226476E0,-9.203561291E-1,1.021711376E1
5.274482458E0,-5.750050131E0,4.175729417E0,-9.346743815E0,1.174143997E1
5.284421458E0,-2.704460031E0,7.012937615E0,-8.878426280E0,1.163279207E1
5.294360458E0,-2.063002932E-1,5.412241280E0,-3.499180546E0,6.448191993E0
5.304298458E0,1.294836378E0,1.229709213E0,-1.826381902E0,2.554301636E0
5.314237458E0,9.645736510E-1,-1.207801450E0,-4.092031202E0,4.374232050E0
5.324176458E0,6.748885542E-1,-1.565575619E0,-5.249219738E0,5.519131221E0
5.334115458E0,5.510281545E-1,-1.376631616E0,-4.546233266E0,4.781943490E0
5.344053458E0,9.911416447E-1,-4.245914716E-1,-3.192102321E0,3.369296203E0
5.353992458E0,1.856522545E0,9.209464055E-1,-2.084824449E0,2.939610726E0
5.363931458E0,2.692130884E0,2.257036936E0,-1.551493477E0,3.840431804E0
5.373869458E0,3.422551907E0,3.592495383E0,-1.850971929E0,5.295845704E0
5.383808458E0,4.023907339E0,4.987571456E0,-2.345565974E0,6.824176070E0
5.393747458E0,4.144242453E0,6.202760278E0,-2.223151444E0,7.784046693E0
5.403686458E0,3.747395435E0,6.988311481E0,-1.534702028E0,8.076805075E0
5.413624458E0,3.097591143E0,7.389247457E0,-5.298080242E-1,8.029741305E0
5.423563458E0,2.237247327E0,7.443529499E0,6.592843822E-1,7.800388638E0
5.433502458E0,1.338064843E0,7.483450779E0,1.066825811E0,7.676624936E0
5.443441458E0,6.113173333E-1,7.609650650E0,2.067100368E-1,7.636964118E0
5.453379458E0,3.234574449E-1,7.728174881E0,-1.039976274E0,7.804541137E0
5.463318458E0,4.348167899E-1,7.388383239E0,-1.206878467E0,7.498921800E0
5.473257458E0,7.954438153E-1,6.392880741E0,-4.009657967E-1,6.454643956E0
5.483196458E0,1.092504590E0,5.219935128E0,4.223622206E-1,5.349736336E0
5.493134458E0,9.991546690E-1,4.170147080E0,7.988248216E-1,4.361944270E0
5.503073458E0,5.103636932E-1,3.292582921E0,9.306030822E-1,3.459421265E0
5.513012458E0,1.458412528E-1,2.713352476E0,7.268170917E-1,2.812794770E0
5.522951458E0,2.919660956E-1,2.286502225E0,3.955787569E-2,2.305407004E0
5.532889458E0,5.409542790E-1,1.689457068E0,-8.754180841E-1,1.978194515E0
5.542828458E0,6.435784686E-1,1.101672147E0,-1.792512783E0,2.200221998E0
5.552767458E0,7.613773522E-1,7.037767231E-1,-2.453334982E0,2.663428183E0
5.562705458E0,1.134566828E0,5.674044514E-1,-2.691619545E0,2.975568093E0
5.572644458E0,1.799528564E0,6.002342284E-1,-2.533399737E0,3.164916809E0
5.582583458E0,2.758115251E0,5.321205980E-1,-2.174558305E0,3.552331050E0
5.592522458E0,3.608326719E0,4.712768108E-1,-1.698254789E0,4.015743129E0
5.602460958E0,4.385669017E0,3.779189962E-1,-1.316484086E0,4.594566992E0
5.612399958E0,5.154151613E0,2.475366122E-1,-1.354708358E0,5.334959040E0
5.622338958E0,4.987865571E0,8.197913289E-2,-1.878484540E0,5.330499761E0
5.632277958E0,3.315816833E0,-1.128068817E0,-2.419520534E0,4.256907345E0
5.642215958E0,9.613290310E-1,-4.127584028E0,-1.866841711E0,4.631004360E0
5.652154958E0,-5.759083495E-1,-8.458183967E0,2.848916955E-1,8.482553256E0
5.662093958E0,-1.088047257E0,-1.107402535E1,1.539106589E0,1.123328685E1
5.672032958E0,-3.872803885E-1,-1.084519808E1,1.390675897E0,1.094085403E1
5.681970958E0,-1.137258886E0,-7.239996693E0,1.260963750E0,7.436460144E0
5.691909958E0,-1.913759184E0,-1.643259972E0,1.337563591E0,2.855145164E0
5.701848958E0,-8.848132440E-1,3.535249388E0,1.593214238E-1,3.647775490E0
5.711787958E0,7.144622174E-1,7.640617504E0,-1.442194691E0,7.808291595E0
5.721725958E0,2.114239452E0,1.004875468E1,-1.921773671E0,1.044704231E1
5.731664958E0,3.251578152E0,1.105324903E1,-1.185782590E0,1.158245030E1
5.741603958E0,4.864456576E0,1.165677758E1,-1.340280938E0,1.270195868E1
5.751541958E0,6.818372684E0,1.161975768E1,-3.173974783E0,1.384135436E1
5.761480958E0,7.360314850E0,9.619702367E0,-4.090235815E0,1.278448033E1
5.771419958E0,8.326628047E0,5.982227862E0,-4.182553117E0,1.107309963E1
5.781358958E0,7.969413457E0,2.856339118E0,-3.675337857E0,9.229210821E0
5.791296958E0,4.982542266E0,4.439293832E-1,-3.494193748E0,6.101818636E0
5.801235958E0,3.060851333E0,-5.692550951E-1,-1.881213290E0,3.637557654E0
5.811174958E0,3.032330954E0,-2.474366248E-2,-3.165828735E-2,3.032597156E0
5.821113958E0,9.417300412E-1,9.501684505E-1,3.481777185E-1,1.382354252E0
5.831051958E0,-1.068031069E0,1.582414430E0,2.203619113E0,2.915589647E0
5.840990958E0,-3.386047155E0,1.034060792E0,3.841635009E0,5.224246989E0
5.850929958E0,-8.266414590E0,-8.130009574E-1,3.202910022E0,8.902427385E0
5.860868958E0,-1.214907337E1,-5.534683730E0,-4.087857752E0,1.396220931E1
5.870806958E0,-1.064593783E1,-1.343157593E1,-1.100710280E1,2.036908285E1
5.880745958E0,-7.015726152E0,-2.058720431E1,-4.420747048E0,2.219451282E1
5.890684958E0,-3.379786541E0,-2.527621284E1,4.801262793E-1,2.550569376E1
5.900622958E0,-4.696817196E0,-3.000364928E1,-4.476318986E0,3.069717403E1
5.910561958E0,-1.004736772E1,-3.213048509E1,-8.889111482E0,3.481858661E1
5.920500958E0,-1.193447705E1,-3.022393260E1,-1.100961827E1,3.430932146E1
5.930439958E0,-8.141620975E0,-2.584149359E1,-1.069235420E1,2.912722474E1
5.940377958E0,-3.857932369E0,-2.206254804E1,-9.067680770E0,2.416324694E1
5.950316958E0,-1.120668289E0,-1.953964288E1,-7.793298830E0,2.106630124E1
5.960255958E0,6.048503128E-1,-1.667957324E1,-6.484980819E0,1.790611582E1
5.970194958E0,1.509473046E0,-1.324463576E1,-6.561565311E0,1.485775975E1
5.980132958E0,1.707656235E0,-8.980499370E0,-8.360598031E0,1.238810148E1
5.990071958E0,1.760783744E0,-4.651283466E0,-7.448155231E0,8.955993168E0
6.000010958E0,2.399515748E0,-1.421711310E0,-1.510678450E0,3.171921854E0
6.009948958E0,2.781332498E0,5.776873648E-1,4.167190143E0,5.043313082E0
6.019887958E0,2.119019843E0,2.118260874E0,6.250601027E0,6.931615066E0
6.029826958E0,1.607269190E0,2.963035017E0,4.434268734E0,5.570065526E0
6.039765958E0,2.639391046E0,4.867994142E0,1.125566794E0,5.650721428E0
6.049703958E0,7.629116031E0,7.271923075E0,-1.647000436E0,1.066756238E1
6.059642958E0,1.211428946E1,7.538252054E0,-1.690935245E0,1.436803797E1
6.069581958E0,1.222736525E1,7.545148260E0,1.290463099E0,1.442577617E1
6.079520958E0,8.418656205E0,7.444522941E0,5.130508397E0,1.235381765E1
6.089458958E0,1.508939780E0,6.415970226E0,8.930163614E0,1.109907182E1
6.099397958E0,-3.596143461E0,5.802593796E0,1.173381464E1,1.357515188E1
6.109336958E0,-5.879578822E0,5.988682603E0,1.188812851E1,1.455202274E1
6.119275958E0,-6.480931622E0,6.032711552E0,1.113657770E1,1.422741882E1
6.129213958E0,-6.984255853E0,6.221198303E0,8.679527392E0,1.275998957E1
6.139152958E0,-9.287208635E0,5.953674154E0,2.393807403E0,1.128843630E1
6.149091958E0,-1.196934517E1,4.072829531E0,-1.513390973E0,1.273355867E1
6.159029958E0,-1.209165839E1,2.545244442E0,5.336003528E0,1.345954701E1
6.168968958E0,-1.054673514E1,2.219948047E0,1.082249685E1,1.527377587E1
6.178907958E0,-7.419512061E0,3.506711467E0,1.029663686E1,1.316688707E1
6.188846958E0,1.344715466E0,2.603262503E1,7.795535975E0,2.720801733E1
6.198784958E0,3.939957987E0,2.909976329E1,-5.125967449E-1,2.936975056E1
6.208723958E0,-1.066948749E-1,3.883074519E0,9.126138309E0,9.918470242E0
6.218662958E0,6.217414570E0,5.445111988E0,1.438327108E1,1.658867010E1
6.228601958E0,7.475481024E0,3.318004276E0,1.443811797E1,1.659371023E1
6.238539958E0,7.245748599E0,5.373873020E0,1.405674268E1,1.670243691E1
6.248478958E0,5.891040534E0,8.969032980E0,1.306857844E1,1.690963198E1
6.258417958E0,4.965342096E0,1.320042614E1,1.127297570E1,1.805507832E1
6.268356958E0,5.901429867E0,1.543220076E1,9.660528211E0,1.913910918E1
6.278294958E0,7.262420765E0,1.516749029E1,8.668253376E0,1.891914728E1
6.288233958E0,8.203683321E0,1.378199488E1,6.996075999E0,1.749825369E1
6.298172958E0,8.338658109E0,1.222649752E1,4.923074328E0,1.559670227E1
6.308111958E0,7.598407039E0,1.120318567E1,1.646178317E0,1.363660741E1
6.318049958E0,5.988097882E0,1.029402783E1,-3.528955445E0,1.242086357E1
6.327988958E0,9.972166094E-1,8.247728058E0,-6.946233163E0,1.082910958E1
6.337927958E0,-7.139818102E0,6.627729480E0,-6.472923861E0,1.169626196E1
6.347865958E0,-8.535278921E0,6.451834123E0,2.090764927E0,1.090176352E1
6.357804958E0,-8.877159188E0,4.218217040E0,5.942072108E0,1.148501333E1
6.367743958E0,-1.224670901E1,3.464510357E-1,-1.479242064E0,1.234058617E1
6.377682958E0,-1.288171312E1,-5.889372323E0,-1.732547072E1,2.237845336E1
6.387620958E0,-4.240994284E0,-2.439213723E1,-2.798563950E1,3.736520319E1
6.397559958E0,-1.879919740E0,-4.470526149E1,-1.191768618E1,4.630470546E1
6.407498958E0,3.868648853E0,-4.029023478E1,3.305801137E0,4.061031622E1
6.417437958E0,4.711411261E0,-9.984663348E0,-8.564837766E-1,1.107359304E1
6.427375958E0,7.869726031E0,2.034967170E1,-6.659464073E-1,2.182854120E1
6.437314958E0,7.519228138E0,1.441908996E1,6.888374380E0,1.766065255E1
6.447253958E0,1.547506553E-1,-5.261404751E0,5.955501993E0,7.948228212E0
6.457191958E0,1.243928033E0,-3.350676763E0,3.196017909E0,4.794676443E0
6.467130958E0,-2.684498002E-1,-2.934842666E0,1.387254837E0,3.257275358E0
6.477069958E0,-3.489547550E0,-4.937701723E0,-1.953083464E0,6.353925985E0
6.487008958E0,-6.870559083E0,-7.593861414E0,-4.274442111E0,1.109694411E1
6.496946958E0,-7.302189433E0,-8.506939806E0,-4.579728749E0,1.211048764E1
6.506885958E0,-5.134152381E0,-6.200055356E0,-4.647501487E0,9.295131907E0
6.516824958E0,-3.585794182E0,-3.104210776E0,-3.103826029E0,5.668137302E0
6.526763958E0,-1.759248996E0,-1.727696105E0,-1.916042522E0,3.122676705E0
6.536701958E0,-2.933081777E-1,-2.052703646E0,-1.579590225E0,2.606669758E0
6.546640958E0,5.624265705E-1,-2.867706106E0,-1.332525483E0,3.211804185E0
6.556579958E0,1.024416468E0,-3.295093131E0,-1.168935592E0,3.643278504E0
6.566518958E0,1.175928424E0,-2.713329087E0,-3.581554073E-1,2.978798028E0
6.576456958E0,1.057944476E0,-2.007904034E0,3.421077240E-1,2.295204309E0
6.586395958E0,6.531952380E-1,-1.261735582E0,1.099547853E0,1.796565106E0
6.596334208E0,-1.224276857E-1,-5.580658633E-1,1.446963680E0,1.555676681E0
6.606272208E0,-5.663380654E-1,-1.230587465E-1,1.302413492E0,1.425539605E0
6.616211208E0,-7.715387897E-1,6.078648448E-2,1.108268976E0,1.351749689E0
6.626150208E0,-9.442189816E-1,1.943994552E-1,1.005595962E0,1.393041231E0
6.636089208E0,-1.125520162E0,3.667122227E-1,7.850559443E-1,1.420417659E0
6.646027208E0,-1.076363351E0,5.352827722E-1,9.861539698E-1,1.554858631E0
6.655966208E0,-9.949386804E-1,3.998811382E-1,1.002319767E0,1.467805443E0
6.665905208E0,-6.839384361E-1,3.071717799E-2,6.758094907E-2,6.879553140E-1
6.675844208E0,1.297751507E-1,-6.032630861E-1,-6.941697478E-1,9.287839251E-1
6.685782208E0,5.420174490E-1,-1.329941599E0,-9.455906653E-1,1.719496809E0
6.695721208E0,5.151063699E-1,-1.711128604E0,-4.909836817E-1,1.853202808E0
6.705660208E0,4.075012662E-1,-1.732991343E0,-1.235551751E-1,1.784539761E0
6.715599208E0,3.341926039E-1,-1.689058873E0,3.759373748E-1,1.762365877E0
6.725537208E0,3.914265029E-2,-1.625472742E0,-3.532770753E-2,1.626327712E0
6.735476208E0,1.636127319E-1,-1.803874215E0,-4.980424404E-1,1.878504081E0
6.745415208E0,5.241168195E-1,-2.165930884E0,-7.095812541E-1,2.338687793E0
6.755353208E0,4.553072974E-1,-2.539012479E0,-2.012287107E0,3.271572788E0
6.765292208E0,-1.655447616E-1,-4.192213302E0,-4.070861358E0,5.845850634E0
6.775231208E0,-1.319457249E0,-7.205566533E0,-5.258260703E0,9.017231400E0
6.785170208E0,-2.583339052E0,-9.944158516E0,-4.668091287E0,1.128499028E1
6.795108208E0,-3.274105428E0,-1.120313538E1,-2.707752598E0,1.198173330E1
6.805047208E0,-3.571276422E0,-1.095926439E1,-7.508251745E-1,1.155089735E1
6.814986208E0,-3.700065148E0,-9.989840473E0,5.537091029E-1,1.066742652E1
6.824925208E0,-3.521740565E0,-8.645265048E0,1.160686340E0,9.406936650E0
6.834863208E0,-3.284038970E0,-7.351286164E0,1.620697905E0,8.212976435E0
6.844802208E0,-2.664257792E0,-6.034111376E0,2.228708346E0,6.962464403E0
6.854741208E0,-2.267200274E0,-4.407103740E0,3.381341316E0,5.999685788E0
6.864679208E0,-2.076015472E0,-2.848518468E0,4.237105885E0,5.511530094E0
6.874618208E0,-2.175123877E0,-2.103830531E0,4.053260654E0,5.058279224E0
6.884557208E0,-2.258262220E0,-2.233470318E0,2.674283720E0,4.152099630E0
6.894496208E0,-1.760510679E0,-2.496483341E0,1.177122864E0,3.273750931E0
6.904434208E0,-8.777998012E-1,-2.606688738E0,-4.984225094E-2,2.750971268E0
6.914373208E0,-5.503370136E-2,-2.416677033E0,-1.256014667E0,2.724138292E0
6.924312208E0,5.568133897E-1,-1.679404535E0,-3.153854806E0,3.616246795E0
6.934251208E0,4.073527104E-1,-4.497713363E-1,-6.310540835E0,6.339649526E0
6.944189208E0,-1.549433210E0,9.222111583E-1,-8.234672395E0,8.429771417E0
6.954128208E0,-1.593855385E0,2.058926838E0,-5.198461229E0,5.814082375E0
6.964067208E0,5.123684111E-1,2.405058031E0,-6.133454400E-1,2.534367406E0
6.974005208E0,2.736023301E0,2.232671589E0,1.756865525E0,3.944264494E0
6.983944208E0,4.210039124E0,2.721910461E0,2.496499128E0,5.600511930E0
6.993883208E0,4.797090805E0,4.348313495E0,2.577356473E0,6.968692620E0
7.003822208E0,4.487008573E0,6.690570676E0,3.284869859E0,8.699847809E0
7.013760208E0,3.550496880E0,9.117723581E0,5.374619710E0,1.116357686E1
7.023699208E0,4.352903267E0,1.545569721E1,8.106590890E0,1.798730550E1
7.033638208E0,5.756324778E0,2.666673686E1,9.953812269E0,2.904011895E1
7.043577208E0,6.033161788E0,3.377998463E1,9.041892210E0,3.548580304E1
7.053515208E0,3.669698218E0,2.599612905E1,6.543840061E0,2.705711096E1
7.063454208E0,2.823979165E0,1.833291791E1,5.448108101E0,1.933268267E1
7.073393208E0,3.247905516E0,1.341923596E1,7.116711075E0,1.553294436E1
7.083332208E0,3.486683876E0,1.050041817E1,7.827236069E0,1.355291005E1
7.093270208E0,3.596401908E0,8.930134377E0,6.894585292E0,1.184131382E1
7.103209208E0,4.015447295E0,8.006608180E0,6.332091333E0,1.096927400E1
7.113148208E0,4.429854964E0,7.808345470E0,5.924898836E0,1.075631443E1
7.123087208E0,4.538745614E0,7.744614912E0,5.334500209E0,1.044203832E1
7.133025208E0,4.246011195E0,7.570588911E0,4.754179551E0,9.896698981E0
7.142964208E0,3.851773204E0,7.383244706E0,4.600407719E0,9.513790537E0
7.152903208E0,3.235660569E0,6.979976276E0,4.933557801E0,9.139450788E0
7.162841208E0,2.811429579E0,6.278307474E0,5.261343355E0,8.660428102E0
7.172780208E0,2.654321326E0,5.378223934E0,5.166162379E0,7.915803693E0
7.182719208E0,2.438898792E0,4.317965276E0,4.507241986E0,6.701364172E0
7.192658208E0,2.138966157E0,3.213885246E0,3.407531580E0,5.149320932E0
7.202596208E0,9.134923750E-1,3.192075132E0,-2.659594345E0,4.254086746E0
7.212535208E0,3.029878047E-1,4.589454423E0,-7.082958022E0,8.445305670E0
7.222474208E0,1.120264246E0,5.030971245E0,-6.132489610E0,8.010810974E0
7.232413208E0,1.627770697E0,5.571089079E0,-3.437655265E0,6.745676000E0
7.242351208E0,2.119888739E0,6.357374108E0,3.479166403E-3,6.701503259E0
7.252290208E0,2.550361632E0,6.898036904E0,2.966981302E0,7.930336413E0
7.262229208E0,2.836468233E0,7.429277496E0,4.254311317E0,9.018807068E0
7.272168208E0,2.904147415E0,8.063478200E0,3.834675361E0,9.389275159E0
7.282106208E0,2.762916107E0,8.737622988E0,2.738396101E0,9.564443220E0
7.292045208E0,2.707693249E0,9.253854362E0,1.916331375E0,9.830450103E0
7.301984208E0,2.319184945E0,7.952943020E0,-2.330786698E0,8.605840349E0
7.311922208E0,9.720379141E-1,-6.902562064E-1,-1.443302153E1,1.448217601E1
7.321861208E0,3.846372423E0,-3.212128158E0,-5.626331234E0,7.534450960E0
7.331800208E0,1.210477428E0,-4.333374444E0,8.612847499E0,9.717228603E0
7.341739208E0,-8.884712037E0,-2.363692956E1,-5.200045824E-2,2.525163859E1
7.351677208E0,-2.656085314E1,-7.076032814E1,-4.326076534E1,8.708614572E1
7.361616208E0,-2.001355270E1,-9.117303283E1,-3.755299642E1,1.006145703E2
7.371555208E0,8.933774854E0,-5.717435532E1,1.238444719E1,5.917849078E1
7.381493208E0,1.044988654E1,-3.952925474E1,1.301745506E1,4.290939577E1
7.391432208E0,-5.858160471E0,-3.290094697E1,-1.115900060E1,3.523228136E1
7.401371208E0,-1.531384610E1,-2.150353317E1,-2.636364819E0,2.653047758E1
7.411310208E0,-1.412799217E1,-8.813711051E0,-9.944178396E-1,1.668144275E1
7.421248208E0,-1.265557439E1,1.433445502E0,-2.876456464E0,1.305727119E1
7.431187208E0,-9.214116100E0,6.465174546E0,-2.115622026E-1,1.125802718E1
7.441126208E0,-6.210410775E0,8.325165659E0,2.976527467E0,1.080450374E1
7.451065208E0,-4.099866179E0,8.511885381E0,1.240915986E0,9.528954187E0
7.461003208E0,-1.973380757E0,6.781502481E0,-1.620673347E0,7.246350088E0
7.470942208E0,-1.228690043E-1,4.434458769E0,-2.329845004E0,5.010758337E0
7.480881208E0,2.367050398E0,2.874867191E0,-1.797854799E0,4.135223190E0
7.490820208E0,4.251425132E0,2.442319998E0,-1.261928248E0,5.062806092E0
7.500758208E0,4.979711044E0,2.718841258E0,-1.172411470E0,5.793459115E0
7.510697208E0,5.434522680E0,3.118890211E0,-1.497176059E0,6.442286012E0
7.520636208E0,5.459910706E0,3.592190743E0,-1.825120950E0,6.785685355E0
7.530574208E0,5.493638030E0,4.205894033E0,-1.994975256E0,7.200661754E0
7.540513208E0,5.665135696E0,5.017351910E0,-1.918691603E0,7.806981498E0
7.550452208E0,5.547380959E0,6.022797014E0,-1.804430285E0,8.384717528E0
7.560391208E0,5.032710207E0,6.941191694E0,-1.867883100E0,8.774810621E0
7.570329208E0,4.281645004E0,7.675182735E0,-1.900756000E0,8.991873404E0
7.580268208E0,3.584564512E0,8.037749866E0,-1.391334147E0,8.910125496E0
7.590207208E0,3.056640753E0,8.079628209E0,-5.282535419E-1,8.654622840E0
7.600146833E0,2.535643898E0,7.899453276E0,3.534805584E-1,8.303962942E0
7.610084833E0,2.130065525E0,7.566233320E0,9.795254199E-1,7.921144857E0
7.620023833E0,1.761835658E0,7.276088632E0,9.660231757E-1,7.548425759E0
7.629962833E0,1.407944917E0,7.037984748E0,4.711721456E-1,7.192881300E0
7.639900833E0,1.121994730E0,6.719372306E0,-1.178658342E-1,6.813422687E0
7.649839833E0,5.536222717E-1,6.166123964E0,-5.518097810E-1,6.215470729E0
7.659778833E0,-4.847180977E-1,5.106478094E0,-8.194263165E-1,5.194471066E0
7.669717833E0,-1.292163323E0,3.609417225E0,-1.005305940E0,3.963359533E0
7.679655833E0,-1.258291572E0,1.859660745E0,-9.408405335E-1,2.434505428E0
7.689594833E0,-5.786530325E-1,8.418704152E-2,-6.065044901E-1,8.424811490E-1
7.699533833E0,3.909129712E-1,-1.770414108E0,-3.982139508E-1,1.856274068E0
7.709472833E0,1.228262904E0,-3.706012058E0,-4.396183772E-1,3.928920902E0
7.719410833E0,1.499042198E0,-5.797269321E0,-9.895827039E-1,6.069162465E0
7.729349833E0,1.004065453E0,-8.451511125E0,-3.245643228E0,9.108808248E0
7.739288833E0,2.188978270E-1,-1.176132345E1,-7.015684637E0,1.369658631E1
7.749227833E0,-6.290826362E-1,-1.338871116E1,-6.886800309E0,1.506921862E1
7.759165833E0,-1.257596923E0,-1.179047767E1,-2.259659997E0,1.207074882E1
7.769104833E0,-1.081995682E0,-7.903734022E0,3.599227867E0,8.751809378E0
7.779043833E0,-4.515158531E-1,-3.669952864E0,3.917140982E0,5.386688599E0
7.788981833E0,3.094106787E-1,-1.031530702E-1,-8.762520432E-2,3.377183745E-1
7.798920833E0,-6.674359855E-1,3.355019490E0,-1.768897340E0,3.851054969E0
7.808859833E0,-1.719833646E0,6.068607609E0,-2.330296701E0,6.724292439E0
7.818798833E0,-1.691333148E0,7.763258175E0,-2.790086657E0,8.421007591E0
7.828736833E0,-7.936694777E-1,8.306481466E0,-2.931991564E0,8.844440068E0
7.838675833E0,-7.814490893E-1,7.529654893E0,-1.494723737E0,7.716253270E0
7.848614833E0,-9.623783138E-1,6.204058360E0,2.619261713E-1,6.283718443E0
7.858553833E0,-7.852266830E-1,4.439924746E0,8.964999278E-1,4.597088733E0
7.868491833E0,-4.825575516E-1,2.296474652E0,8.074759233E-1,2.481667783E0
7.878430833E0,4.612312943E-2,2.520237654E-1,4.785666076E-1,5.428345230E-1
7.888369833E0,6.675523451E-1,-1.329783724E0,-2.268127643E-2,1.488107969E0
7.898307833E0,1.735746259E0,-2.452340371E0,-2.912169211E-1,3.018541977E0
7.908246833E0,3.552074166E0,-2.984478511E0,-2.988757503E-1,4.649050395E0
7.918185833E0,6.165823417E0,-2.707675999E0,-1.267171300E0,6.852343455E0
7.928124833E0,8.621575638E0,-1.780972425E0,-3.983247263E0,9.662799182E0
7.938062833E0,8.785690609E0,-6.431644857E-1,-7.814697300E0,1.177588697E1
7.948001833E0,6.125426173E0,8.065906549E-1,-1.093664151E1,1.256111308E1
7.957940833E0,3.859243022E0,2.614635104E0,-1.141802173E1,1.233293532E1
7.967879833E0,4.703785907E0,4.369695008E0,-9.607244874E0,1.155504177E1
7.977817833E0,6.934201348E0,5.724148720E0,-9.313173780E0,1.294543289E1
7.987756833E0,8.197778803E0,6.726845632E0,-1.042412020E1,1.486998021E1
7.997695833E0,5.722063018E0,8.026049003E0,-3.990905654E0,1.063422756E1
8.007633833E0,2.441193678E0,9.778751310E0,4.733804928E0,1.113518356E1
8.017572833E0,-7.119135623E-1,1.032975198E1,3.430943539E0,1.090788570E1
8.027511833E0,-4.008225399E0,7.706512116E0,8.009859817E0,1.181583912E1
8.037450833E0,-5.444674616E0,4.270842565E0,9.360775963E0,1.164082061E1
8.047388833E0,-8.066037526E0,3.876177728E-2,4.526780165E0,9.249551476E0
8.057327833E0,-1.097479459E1,-8.753409886E0,-3.203395341E0,1.439895978E1
8.067266833E0,-7.628095107E0,-2.140337739E1,-8.850788831E0,2.438501305E1
8.077205833E0,-2.833187360E0,-2.926283512E1,-1.430707251E0,2.943445928E1
8.087143833E0,-2.220135158E0,-3.345083784E1,-2.278347114E-1,3.352520636E1
8.097082833E0,-8.206187684E0,-3.744446976E1,-4.165578650E0,3.855881063E1
8.107021833E0,-1.346145403E1,-3.992766531E1,-7.668133332E0,4.282790527E1
8.116959833E0,-1.461871273E1,-3.989980917E1,-1.183099186E1,4.410979372E1
8.126898833E0,-1.012949771E1,-3.315227200E1,-1.328004065E1,3.712195229E1
8.136837833E0,-3.741672472E0,-2.219643992E1,-1.086343671E1,2.499392557E1
8.146776833E0,-2.742860450E0,-1.379661877E1,-1.034697203E1,1.746223935E1
8.156714833E0,-2.417854955E0,-7.742849638E0,-1.291568778E1,1.525164693E1
8.166653833E0,1.218744514E0,-2.363196060E0,-1.092284325E1,1.124182096E1
8.176592833E0,6.528668876E0,2.965485585E-1,-1.707440765E0,6.754762194E0
8.186531833E0,7.449056872E0,6.353929514E-1,8.057380139E0,1.099152160E1
8.196469833E0,4.061113757E0,-9.882490271E-1,7.453953331E0,8.545800217E0
8.206408833E0,1.977965998E0,-1.144172634E0,1.851248356E0,2.940850384E0
8.216347833E0,3.884963754E0,1.258900267E0,-1.260671974E0,4.273998957E0
8.226285833E0,7.516040236E0,3.554889016E0,-4.544210422E-1,8.326739771E0
8.236224833E0,9.728073492E0,5.081770685E0,1.922618301E0,1.114254317E1
8.246163833E0,1.097148039E1,6.399637783E0,4.010506983E0,1.331964384E1
8.256102833E0,9.010609022E0,7.864129661E0,6.778551975E0,1.374715888E1
8.266040833E0,1.791189558E0,7.691744973E0,9.828568418E0,1.260841219E1
8.275979833E0,-5.219207734E0,6.636559945E0,1.065067641E1,1.359120912E1
8.285918833E0,-9.101885228E0,5.653666967E0,1.101648641E1,1.536786380E1
8.295857833E0,-1.032841414E1,5.256290191E0,1.201822906E1,1.669558489E1
8.305795833E0,-9.611185897E0,5.522712725E0,1.097453381E1,1.559857822E1
8.315734833E0,-1.046733463E1,5.189440144E0,3.579801078E0,1.221926180E1
8.325673833E0,-1.155244805E1,2.306299728E0,-5.649337104E0,1.306495633E1
8.335611833E0,-1.240540244E1,7.199255633E-1,4.534439725E0,1.322775288E1
8.345550833E0,-1.072623063E1,8.656966496E-1,1.442400513E1,1.799592671E1
8.355489833E0,-6.926832102E0,2.095193608E0,1.431753318E1,1.604252460E1
8.365428833E0,-1.219996403E0,2.463465634E1,1.056672092E1,2.683300720E1
8.375366833E0,3.852311148E0,4.465156534E1,2.747848125E0,4.490159527E1
8.385305833E0,-3.632141552E0,4.524720483E0,8.066602952E0,9.936580442E0
8.395244833E0,5.543768549E0,5.281750138E0,1.543528341E1,1.723015462E1
8.405183833E0,8.685121424E0,8.319176356E0,1.371072200E1,1.823798035E1
8.415121833E0,6.813663921E0,9.386933482E0,1.399091356E1,1.817377777E1
8.425060833E0,7.711013888E0,1.291013994E1,1.374597603E1,2.037359334E1
8.434999833E0,8.859488903E0,1.546116904E1,1.207868927E1,2.152749465E1
8.444938833E0,1.065022969E1,1.510795160E1,1.043340324E1,2.122577436E1
8.454876833E0,1.243657863E1,1.308194167E1,8.901183059E0,2.012552473E1
8.464815833E0,1.109780130E1,1.151692153E1,7.744624853E0,1.777019666E1
8.474754833E0,7.767241883E0,1.178784174E1,5.346667680E0,1.509536733E1
8.484692833E0,4.453380359E0,1.300928767E1,1.928820443E0,1.388504630E1
8.494631833E0,1.016818815E0,1.352560266E1,-2.582545000E0,1.380743954E1
8.504570833E0,-3.990851567E0,1.260753601E1,-5.804048583E0,1.444173952E1
8.514509833E0,-6.700881656E0,1.049150702E1,-4.543646166E0,1.325210379E1
8.524447833E0,-6.129297030E0,7.963622375E0,3.033387546E0,1.049709500E1
8.534386833E0,-6.201806597E0,6.048907755E0,8.531302230E0,1.215873381E1
8.544325833E0,-9.469444127E0,5.171927149E0,1.555901400E0,1.090137751E1
8.554264833E0,-1.596179595E1,-2.637784231E-1,-1.292438727E1,2.053991955E1
8.564202833E0,-1.414301133E1,-1.940995398E1,-3.114738103E1,3.933103645E1
8.574141833E0,-8.041461679E0,-4.459349547E1,-2.990896415E1,5.429356390E1
8.584080833E0,3.787845303E0,-5.215920781E1,2.821190336E0,5.237260587E1
8.594018833E0,1.090855149E1,-3.508919960E1,1.240100767E1,3.878186968E1
8.603957958E0,1.114657497E0,-1.516547651E1,3.722108274E0,1.565529396E1
8.613896958E0,-8.610358340E-1,-3.320531443E0,-4.186598221E0,5.412477846E0
8.623835958E0,1.126800629E0,6.998417224E0,-3.878143562E0,8.080069356E0
8.633773958E0,1.759308784E0,1.472905086E1,1.235747048E0,1.488513276E1
8.643712958E0,1.885250865E-1,1.341189771E1,5.635038908E0,1.454882144E1
8.653651958E0,-2.428124858E0,3.446603259E0,4.293215182E0,6.017188792E0
8.663590958E0,-4.350326107E0,-5.893307499E0,-8.574626005E-1,7.375069669E0
8.673528958E0,-4.659013777E0,-1.104270065E1,-3.778114659E0,1.256669397E1
8.683467958E0,-4.483003815E0,-1.147444385E1,-3.111861858E0,1.270605639E1
8.693406958E0,-4.030683970E0,-7.838286138E0,-2.791899878E0,9.245531232E0
8.703344958E0,-2.950985075E0,-2.874083079E0,-1.869296957E0,4.523597857E0
8.713283958E0,-1.835713035E0,3.337947375E-1,-6.038267577E-1,1.961088480E0
8.723222958E0,-8.766910961E-1,7.204401183E-1,-8.227862728E-1,1.401641357E0
8.733161958E0,-1.094838871E-1,-6.679017162E-1,-9.212370121E-1,1.143134750E0
8.743099958E0,8.836374421E-2,-1.767299881E0,-8.448981035E-1,1.960869661E0
8.753038958E0,9.442186162E-2,-1.779729307E0,-9.487323743E-1,2.019020806E0
8.762977958E0,1.766302967E-1,-1.372834434E0,-4.902948797E-1,1.468421504E0
8.772916958E0,3.630759489E-1,-6.513388932E-1,4.711522651E-1,8.820719672E-1
8.782854958E0,5.345230727E-1,2.613886660E-1,9.866860664E-1,1.152210199E0
8.792793958E0,3.091209492E-1,8.165016854E-1,1.029936751E0,1.350185348E0
8.802732958E0,-1.413952310E-1,1.078209025E0,1.338907135E0,1.724876699E0
8.812670958E0,-6.728487530E-1,1.381085440E0,1.829019581E0,2.388605255E0
8.822609958E0,-8.743164687E-1,1.622384242E0,2.111106806E0,2.802379679E0
8.832548958E0,-7.879776518E-1,1.754124350E0,2.541387033E0,3.186927842E0
8.842487958E0,-6.826747066E-1,1.684957051E0,2.741082897E0,3.289173219E0
8.852425958E0,-5.005250220E-1,1.389416553E0,2.280048069E0,2.716546125E0
8.862364958E0,-1.766131753E-1,7.486921102E-1,8.620912564E-1,1.155393190E0
8.872303958E0,1.697210623E-1,-4.014768434E-1,-9.277952492E-1,1.025081909E0
8.882242958E0,2.600500922E-1,-1.950624710E0,-2.153013216E0,2.916852536E0
8.892180958E0,-4.698795089E-2,-3.262823517E0,-3.184559705E0,4.559566393E0
8.902119958E0,-2.280078438E-1,-3.956674592E0,-3.066861101E0,5.011277124E0
8.912058958E0,-5.938135470E-1,-4.155937761E0,-2.077889943E0,4.684235244E0
8.921996958E0,-8.697705509E-1,-4.152342893E0,-1.363050288E0,4.456047396E0
8.931935958E0,-1.093404038E0,-4.253084571E0,-1.435144118E0,4.619945822E0
8.941874958E0,-1.127598920E0,-4.577562355E0,-2.552917743E0,5.361244766E0
8.951813958E0,-1.151565707E0,-5.280698224E0,-3.344657055E0,6.355989940E0
8.961751958E0,-1.146682332E0,-6.511862808E0,-2.938738666E0,7.235704703E0
8.971690958E0,-1.324241294E0,-7.912988995E0,-1.921029612E0,8.249809975E0
8.981629958E0,-2.170170116E0,-8.968440072E0,-1.022119609E0,9.283710689E0
8.991568958E0,-3.247950247E0,-9.451038262E0,-4.666002077E-1,1.000445005E1
9.001506958E0,-4.104194580E0,-9.329230819E0,-3.084564131E-1,1.019676940E1
9.011445958E0,-4.593357147E0,-8.666453603E0,9.705910206E-2,9.808963676E0
9.021384958E0,-4.834792482E0,-7.487550847E0,9.503754419E-1,8.963361507E0
9.031322958E0,-4.955079063E0,-5.979424707E0,1.731561699E0,7.956420946E0
9.041261958E0,-4.752256109E0,-4.477565612E0,2.445348271E0,6.972249286E0
9.051200958E0,-4.226551076E0,-3.092771283E0,2.868789010E0,5.971508904E0
9.061139958E0,-3.633564179E0,-1.980155488E0,3.333080152E0,5.313494867E0
9.071077958E0,-3.050010595E0,-1.255003098E0,3.223375862E0,4.611697015E0
9.081016958E0,-2.732210039E0,-1.157362198E0,2.163320687E0,3.672113200E0
9.090955958E0,-1.891791926E0,-1.311312954E0,2.289000741E-1,2.313182570E0
9.100894958E0,4.202255018E-1,-7.309960967E-1,-1.547964390E0,1.762707723E0
9.110832958E0,2.421682835E0,3.512416595E-1,-3.538415655E0,4.302127823E0
9.120771958E0,2.681952928E0,1.141032679E0,-5.824523778E0,6.513056450E0
9.130710958E0,1.939486056E0,1.764183315E0,-6.472154367E0,6.983031654E0
9.140648958E0,1.763837452E0,2.544015942E0,-4.761931497E0,5.679712251E0
9.150587958E0,3.189766943E0,3.136484483E0,-1.858354185E0,4.844133394E0
9.160526958E0,4.987076197E0,3.168198026E0,1.031983861E0,5.997782792E0
9.170465958E0,7.107827985E0,3.477381833E0,1.865580174E0,8.129808882E0
9.180403958E0,7.144848461E0,4.428236162E0,2.577997912E0,8.792281176E0
9.190342958E0,5.975274353E0,5.867618927E0,3.915049433E0,9.244483086E0
9.200281958E0,4.548093558E0,6.976574950E0,5.353013663E0,9.900126682E0
9.210220958E0,3.841509294E0,8.093506576E0,5.840911769E0,1.069477876E1
9.220158958E0,4.219691707E0,1.204861704E1,6.890262446E0,1.450691860E1
9.230097958E0,4.504263999E0,2.125780978E1,7.729456006E0,2.306355049E1
9.240036958E0,3.213296431E0,2.912690373E1,5.947668478E0,2.990111294E1
9.249974958E0,1.216103034E0,2.355872890E1,5.160005845E0,2.414784202E1
9.259913958E0,1.496852124E0,1.732531050E1,5.351464736E0,1.819464551E1
9.269852958E0,2.261408607E0,1.431453706E1,6.416711653E0,1.584910498E1
9.279791958E0,2.224982208E0,1.179741831E1,7.182902141E0,1.399012894E1
9.289729958E0,1.890073868E0,9.739934569E0,6.716100789E0,1.198101475E1
9.299668958E0,1.728914080E0,8.455577279E0,5.741167626E0,1.036566142E1
9.309607958E0,1.556306612E0,7.713052812E0,4.953026106E0,9.297620209E0
9.319546958E0,1.833338627E0,7.643633498E0,4.084597637E0,8.858340783E0
9.329484958E0,2.189311853E0,7.520545515E0,3.441788370E0,8.555559504E0
9.339423958E0,2.302994736E0,7.294844745E0,3.073168201E0,8.243961875E0
9.349362958E0,2.291838102E0,6.999957966E0,2.793238014E0,7.877443241E0
9.359300958E0,2.338785981E0,6.708230436E0,2.803679387E0,7.637466436E0
9.369239958E0,2.411839047E0,6.529743594E0,2.861621493E0,7.526180742E0
9.379178958E0,2.288896660E0,6.491508066E0,2.521142803E0,7.330408306E0
9.389117958E0,2.224743349E0,6.640012726E0,1.894997516E0,7.254672119E0
9.399055958E0,2.905443451E0,7.047008171E0,-2.263604383E0,7.951467199E0
9.408994958E0,3.275782409E0,7.715377080E0,-4.385424603E0,9.459901840E0
9.418933958E0,2.256251070E0,7.979601061E0,-2.038928776E0,8.539433970E0
9.428872958E0,1.405045868E0,7.814760450E0,9.081146908E-1,7.991827518E0
9.438810958E0,1.276017699E0,7.682789378E0,1.820796057E0,7.998048016E0
9.448749958E0,1.351208799E0,7.749334785E0,2.440639508E0,8.236180913E0
9.458688958E0,1.202669349E0,8.156619667E0,3.157965399E0,8.828907261E0
9.468626958E0,5.441781414E-1,8.392323269E0,3.150984993E0,8.980864442E0
9.478565958E0,-1.427779550E0,6.246744204E0,-3.468006992E-1,6.417214217E0
9.488504958E0,-1.038952222E1,-1.001675755E1,-2.616341321E1,2.987978907E1
9.498443958E0,-1.050926618E1,-1.499170194E1,-1.443486224E1,2.331439578E1
9.508381958E0,-5.957255573E0,-5.929184845E0,2.441160612E1,2.581802936E1
9.518320958E0,-1.136084064E1,-1.997455411E1,1.737070478E1,2.880612602E1
9.528259958E0,-1.661932821E1,-5.898659456E1,-4.330584971E1,7.504010279E1
9.538198958E0,-7.278376647E0,-7.968721147E1,-3.237781530E1,8.632119879E1
9.548136958E0,1.396481860E1,-5.393589598E1,7.802701153E0,5.625814767E1
9.558075958E0,1.607611837E1,-3.213560959E1,1.444347051E1,3.872664233E1
9.568014958E0,6.910005569E0,-2.451061585E1,-5.167778549E0,2.598508036E1
9.577952958E0,-9.308880170E0,-1.949012165E1,-7.338295405E0,2.281163456E1
9.587891958E0,-1.350762364E1,-1.215520242E1,-4.163550543E0,1.864242462E1
9.597830958E0,-1.009651006E1,-2.361197482E0,-5.326195409E0,1.165689180E1
9.607769083E0,-6.190011594E0,2.742520727E0,-5.729182588E0,8.869114758E0
9.617707083E0,-2.218360090E0,3.922239754E0,-1.615266427E0,4.786874952E0
9.627646083E0,-6.425447539E-1,3.477511057E0,2.293874395E-1,3.543806641E0
9.637585083E0,-6.514137375E-1,1.777157702E0,-2.324441007E0,2.997608272E0
9.647523083E0,-1.869779352E0,-5.942232907E-1,-4.171348683E0,4.609699120E0
9.657462083E0,-2.497542272E0,-2.199959925E0,-3.667491186E0,4.952578386E0
9.667401083E0,-1.811278544E0,-2.000840598E0,-1.915026276E0,3.309292779E0
9.677340083E0,-9.072488643E-1,-1.071193535E0,-6.162349878E-1,1.533069357E0
9.687278083E0,-1.750903411E-1,-5.198525548E-2,-3.200400397E-1,3.684897846E-1
9.697217083E0,5.287480702E-1,1.163509961E0,-5.490650980E-1,1.390971758E0
9.707156083E0,1.152185220E0,2.721857252E0,-8.099048567E-1,3.064634326E0
9.717095083E0,1.648452592E0,4.559747059E0,-1.204078528E0,4.995847705E0
9.727033083E0,1.990964651E0,6.291982357E0,-1.726859368E0,6.821658559E0
9.736972083E0,2.086642640E0,7.726872706E0,-2.323048493E0,8.333978259E0
9.746911083E0,1.997333438E0,8.978267487E0,-3.042259526E0,9.687825915E0
9.756849083E0,1.831837062E0,1.004326882E1,-3.682120335E0,1.085269026E1
9.766788083E0,1.811944250E0,1.057711844E1,-3.034741176E0,1.115205051E1
9.776727083E0,2.181559615E0,1.064992095E1,-1.845539135E0,1.102660570E1
9.786666083E0,2.864740983E0,1.065568865E1,-1.075589472E0,1.108635802E1
9.796604083E0,3.629757349E0,1.065425842E1,-9.393481779E-1,1.129472159E1
9.806543083E0,4.386268064E0,1.064505490E1,-1.047632691E0,1.156088559E1
9.816482083E0,5.134231319E0,1.055631989E1,-1.019343789E0,1.178283848E1
9.826421083E0,5.563873031E0,9.892712374E0,-9.031294278E-1,1.138587212E1
9.836359083E0,5.406132694E0,8.526697547E0,-2.499195864E0,1.040080871E1
9.846298083E0,4.201506282E0,5.128235584E0,-4.928822726E0,8.261037992E0
9.856237083E0,2.042475112E0,-1.744049013E-2,-5.318380605E0,5.697120414E0
9.866175083E0,1.638274928E0,-4.049635965E0,-2.702722238E0,5.136944976E0
9.876114083E0,2.528520528E0,-7.147327681E0,-3.082384290E0,8.184057792E0
9.886053083E0,2.265226839E0,-9.595455717E0,-6.489598073E-2,9.859423642E0
9.895992083E0,3.008942091E-1,-1.239038095E1,4.080750754E0,1.304854797E1
9.905930083E0,-2.520028616E0,-1.576084001E1,4.323953995E0,1.653635994E1
9.915869083E0,-3.789911124E0,-1.449844486E1,5.185069643E-2,1.498569378E1
9.925808083E0,-2.281918593E0,-6.405501956E0,-5.338378083E0,8.644992095E0
9.935747083E0,-1.791442450E0,-5.596837878E-2,-7.364373987E0,7.579340521E0
9.945685083E0,-1.337509942E0,2.894931327E0,-6.122462804E0,6.903195711E0
9.955624083E0,-3.594444260E-1,4.205256686E0,-3.228041940E0,5.313533557E0
9.965563083E0,7.170268062E-1,4.808139119E0,-5.020828299E-1,4.887168546E0
9.975501083E0,2.441827370E0,4.656274649E0,1.556391982E0,5.483226287E0
9.985440083E0,3.419167247E0,3.234486741E0,2.761204920E0,5.456817914E0
9.995379083E0,3.561441405E0,1.867346910E0,3.602568966E0,5.399014033E0
1.000531808E1,3.872481411E0,8.537987351E-1,2.485963615E0,4.680288416E0
1.001525608E1,4.016507688E0,-1.786675215E-2,3.088511733E-1,4.028404433E0
1.002519508E1,4.099065695E0,-3.501002830E-1,-1.114245342E0,4.262212156E0
1.003513408E1,4.510202139E0,3.541132271E-2,-1.312193545E0,4.697342780E0
1.004507208E1,4.812747602E0,9.701852238E-1,-1.400570701E0,5.105428203E0
1.005501108E1,4.161970918E0,2.334251758E0,-3.488920144E0,5.911285559E0
1.006495008E1,3.859053572E0,5.228134679E0,-1.059205340E1,1.242647504E1
1.007488908E1,2.376050579E0,6.505035015E0,-1.236676053E1,1.417384433E1
1.008482708E1,1.627439599E0,5.031968780E0,-9.532242638E0,1.090105129E1
1.009476608E1,2.138029872E0,3.001192192E0,-2.082759212E0,4.232754687E0
1.010470508E1,3.693408093E0,1.825800104E0,2.975800658E0,5.082341873E0
1.011464408E1,3.277348001E0,1.507928504E0,4.089992863E0,5.453705155E0
1.012458208E1,5.454724956E-1,1.290085223E0,2.849304041E0,3.174963566E0
1.013452108E1,-1.423434776E0,7.919316852E-1,-7.838005471E-1,1.807668569E0
1.014446008E1,-2.168279126E0,1.101989651E-1,2.645514250E-1,2.187136401E0
1.015439808E1,-2.775085333E0,7.820165616E-1,5.633834381E0,6.328723279E0
1.016433708E1,-4.185943041E0,2.083790368E0,8.089825169E0,9.343959156E0
1.017427608E1,-5.102468659E0,2.743688416E0,3.310995803E0,6.672758481E0
1.018421508E1,-6.130319123E0,1.914995871E0,-3.443300167E0,7.287272314E0
1.019415308E1,-5.497351012E0,-9.721621674E-1,-6.288283993E0,8.408833629E0
1.020409208E1,-2.414966138E0,-7.335094639E0,-7.921991369E0,1.106316510E1
1.021403108E1,-2.660653861E0,-1.801381547E1,-3.168281642E0,1.848282000E1
1.022397008E1,-3.932325909E0,-2.622980016E1,1.022352328E0,2.654262248E1
1.023390808E1,-1.900785529E0,-3.012598706E1,-9.095339562E-1,3.019959162E1
1.024384708E1,-2.895742043E0,-3.325086307E1,-6.511086298E0,3.400587393E1
1.025378608E1,-6.142474900E0,-3.293116772E1,-9.833625090E0,3.491263364E1
1.026372408E1,-6.864296715E0,-2.985802086E1,-1.100133511E1,3.255225573E1
1.027366308E1,-6.679678482E0,-2.583756660E1,-9.315982783E0,2.826633134E1
1.028360208E1,-3.898593906E0,-2.040522493E1,-6.246885706E0,2.169322060E1
1.029354108E1,-1.701031047E-1,-1.489573744E1,-4.182101712E0,1.547261786E1
1.030347908E1,1.388129288E0,-1.034590316E1,-4.420618994E0,1.133607019E1
1.031341808E1,3.343347278E-1,-5.761192001E0,-9.394146023E0,1.102511190E1
1.032335708E1,-4.556369707E-1,-1.571087789E0,-1.210639805E1,1.221641501E1
1.033329508E1,6.623772669E-1,4.843617100E-1,-6.172562917E0,6.226867823E0
1.034323408E1,1.901662757E0,-1.527666950E-1,8.418411791E-1,2.085271080E0
1.035317308E1,1.049362371E0,-1.234158944E0,3.138395938E0,3.531832208E0
1.036311208E1,1.244697673E0,-7.706326175E-1,1.302390103E0,1.959430251E0
1.037305008E1,4.608136277E0,2.446363347E0,-3.275282764E-1,5.227512634E0
1.038298908E1,9.413599709E0,5.374329688E0,-1.218891864E0,1.090802349E1
1.039292808E1,1.187560611E1,5.482719525E0,9.029446558E-1,1.311127541E1
1.040286708E1,1.171891009E1,5.771842119E0,4.502625024E0,1.381740378E1
1.041280508E1,9.106612117E0,6.703858473E0,9.613107877E0,1.484196570E1
1.042274408E1,3.911172144E0,7.326816736E0,1.308213813E1,1.549586555E1
1.043268308E1,-1.307184674E0,7.424803206E0,1.242118525E1,1.453004740E1
1.044262108E1,-4.363067774E0,7.444725839E0,1.105461610E1,1.402372420E1
1.045256008E1,-5.671175870E0,7.343542696E0,1.054079203E1,1.404272593E1
1.046249908E1,-6.225151606E0,7.067954652E0,9.381066971E0,1.329334093E1
1.047243808E1,-8.405365484E0,6.449194690E0,8.682621154E-1,1.062996520E1
1.048237608E1,-1.189111878E1,3.707744588E0,-3.572215193E0,1.295788552E1
1.049231508E1,-1.246404300E1,1.766638561E0,6.729856948E0,1.427460522E1
1.050225408E1,-1.085853908E1,1.407953396E0,1.287837085E1,1.690392379E1
1.051219308E1,-7.525337893E0,1.916037844E0,1.043756294E1,1.300940551E1
1.052213108E1,9.906172226E-1,2.746078407E1,5.855253820E0,2.809555092E1
1.053207008E1,5.471998362E-1,2.688938012E1,-7.761337364E0,2.799243735E1
1.054200908E1,-1.235213928E0,8.458577485E0,1.061641290E1,1.363016909E1
1.055194708E1,6.175487695E0,5.800547270E0,1.321930796E1,1.570137255E1
1.056188608E1,7.457797290E0,3.318888375E0,1.231247966E1,1.477264079E1
1.057182508E1,6.846358627E0,5.502979542E0,1.258805893E1,1.534974391E1
1.058176408E1,5.114483517E0,8.046590272E0,1.284953355E1,1.600050216E1
1.059170208E1,3.824506468E0,1.022768182E1,1.327503193E1,1.718891497E1
1.060164150E1,3.530525422E0,1.223803525E1,1.244756204E1,1.780943338E1
1.061158050E1,3.956464384E0,1.368481884E1,1.086711344E1,1.791708770E1
1.062151850E1,5.116047648E0,1.361971594E1,1.025884397E1,1.780209216E1
1.063145750E1,7.057063043E0,1.289024538E1,8.945531850E0,1.720415952E1
1.064139650E1,8.462536635E0,1.265806414E1,7.584928038E0,1.701094493E1
1.065133550E1,6.789790909E0,1.319962156E1,5.926398647E0,1.598291184E1
1.066127350E1,3.336031827E0,1.303960198E1,2.644906724E0,1.371699164E1
1.067121250E1,-1.123117468E0,1.116614005E1,-3.769936159E0,1.183877084E1
1.068115150E1,-6.408003395E0,9.184736180E0,-8.105527866E0,1.382466883E1
1.069109050E1,-6.585143039E0,6.674105501E0,4.779174936E-1,9.388088102E0
1.070102850E1,-7.766928472E0,3.186589274E0,8.824289249E0,1.217980336E1
1.071096750E1,-1.159599226E1,1.244410282E0,2.371036007E0,1.190115142E1
1.072090650E1,-1.650253709E1,-3.850219014E0,-1.393651574E1,2.194047374E1
1.073084450E1,-9.106745433E0,-2.218337256E1,-2.819337002E1,3.701217292E1
1.074078350E1,-4.775257667E-1,-4.443525578E1,-2.859993394E1,5.284577759E1
1.075072250E1,1.013543380E1,-4.771102504E1,-2.231870520E0,4.882673627E1
1.076066150E1,7.599198167E0,-2.711834773E1,9.557427181E0,2.974049446E1
1.077059950E1,1.792838765E0,-6.220179133E0,3.988793932E0,7.603642306E0
1.078053850E1,2.669153958E0,1.034335495E1,-1.547479656E0,1.079370500E1
1.079047750E1,2.982517647E0,1.612342234E1,3.654474699E-1,1.640102775E1
1.080041550E1,-1.732304149E-1,6.103699089E0,2.623626952E0,6.645943856E0
1.081035450E1,-4.148186107E0,-3.007507769E0,-2.828081864E-1,5.131523305E0
1.082029350E1,-5.676230203E0,-7.807555511E0,-3.338616296E0,1.021390577E1
1.083023250E1,-5.605905156E0,-9.691483371E0,-4.220560019E0,1.196512221E1
1.084017050E1,-3.709602541E0,-9.070072866E0,-3.281523498E0,1.033420385E1
1.085010950E1,-1.994052127E0,-6.634563121E0,-3.824338653E0,7.913231819E0
1.086004850E1,-2.411179627E0,-4.502237939E0,-4.904225829E0,7.080633067E0
1.086998750E1,-1.307606843E0,-3.270703810E0,-4.321500503E0,5.575186603E0
1.087992550E1,6.251093070E-1,-2.338057711E0,-3.141195585E0,3.965398492E0
1.088986450E1,1.393397045E0,-2.049466628E0,-2.101009834E0,3.249016944E0
1.089980350E1,9.228208036E-1,-2.319551273E0,-1.347531778E0,2.836857105E0
1.090974150E1,1.428343952E-1,-2.125915464E0,-4.382388729E-1,2.175309526E0
1.091968050E1,-2.901613890E-1,-1.423802859E0,7.890098315E-1,1.653464462E0
1.092961950E1,-4.015008900E-1,-4.840991700E-1,1.396241423E0,1.531354003E0
1.093955850E1,-3.377907612E-1,2.365081787E-1,1.115523031E0,1.189298260E0
1.094949650E1,-1.786514782E-1,3.650726634E-1,7.288378894E-1,8.345052842E-1
1.095943550E1,-5.995475460E-2,9.865597665E-2,4.422184879E-1,4.570391289E-1
1.096937450E1,-1.835310162E-1,-1.918062150E-2,4.727959174E-1,5.075307967E-1
1.097931350E1,-3.880004000E-1,2.165843761E-1,8.198954093E-1,9.325672011E-1
1.098925150E1,-5.947563375E-1,5.427847499E-1,1.159885857E0,1.411979315E0
1.099919050E1,-6.270594996E-1,7.363778740E-1,1.440366851E0,1.734967624E0
1.100912950E1,-5.043320710E-1,8.376955032E-1,1.741799004E0,1.997485510E0
1.101906750E1,-2.879886550E-1,8.555265874E-1,1.848969696E0,2.057559755E0
1.102900650E1,6.547801623E-2,8.311665022E-1,1.393860437E0,1.624183500E0
1.103894550E1,5.688273713E-1,7.145239055E-1,7.828568065E-1,1.202902228E0
1.104888450E1,9.660356010E-1,5.324322546E-1,2.504239672E-1,1.131114959E0
1.105882250E1,1.092759894E0,3.058929938E-1,-2.288079804E-1,1.157604337E0
1.106876150E1,1.054411076E0,1.003206789E-1,-1.276529038E-1,1.066837485E0
1.107870050E1,9.298344657E-1,7.684235394E-2,1.064965081E-1,9.390625044E-1
1.108863850E1,8.461248493E-1,9.345078528E-2,1.491601324E-1,8.642390034E-1
1.109857750E1,6.100053643E-1,6.315577626E-2,2.501292676E-1,6.623140094E-1
1.110851650E1,3.517254070E-1,2.728474545E-1,1.456553113E-1,4.683716100E-1
1.111845550E1,5.383400620E-1,4.721386904E-1,-2.846559066E-1,7.705543137E-1
1.112839350E1,6.625429624E-1,3.333398241E-1,-4.717410797E-1,8.789870656E-1
1.113833250E1,4.454905166E-1,-1.041634691E-1,-4.767936587E-1,6.607904522E-1
1.114827150E1,1.438259551E-1,-6.796756697E-1,-1.189154679E0,1.377219580E0
1.115820950E1,-1.212620433E-1,-1.477798387E0,-1.558958910E0,2.151498417E0
1.116814850E1,-4.020050297E-1,-2.316228885E0,-1.835206520E0,2.982366051E0
1.117808750E1,-8.236227901E-1,-3.270234863E0,-2.538875070E0,4.221217500E0
1.118802650E1,-1.295973954E0,-4.379799582E0,-2.185156530E0,5.063309385E0
1.119796450E1,-1.757881040E0,-5.720305345E0,-2.426224952E0,6.457445819E0
1.120790350E1,-2.348356850E0,-7.299535967E0,-3.065659499E0,8.258103498E0
1.121784250E1,-2.973878386E0,-8.831310001E0,-3.311050183E0,9.889339831E0
1.122778150E1,-3.411193691E0,-1.001748026E1,-2.617038310E0,1.090114869E1
1.123771950E1,-3.775059197E0,-1.059176104E1,-1.230259436E0,1.131149911E1
1.124765850E1,-4.505010104E0,-1.027602192E1,4.224320948E-2,1.122022847E1
1.125759750E1,-5.550619147E0,-8.660957805E0,1.203776227E0,1.035715406E1
1.126753550E1,-5.745744826E0,-7.036890734E0,1.944630729E0,9.290479185E0
1.127747450E1,-5.695611384E0,-6.033043090E0,2.546633155E0,8.678878867E0
1.128741350E1,-6.040463791E0,-5.205589569E0,3.471680213E0,8.697006903E0
1.129735250E1,-6.678869228E0,-5.036264144E0,3.837253983E0,9.203030415E0
1.130729050E1,-6.719676361E0,-5.444164154E0,3.293065901E0,9.254040024E0
1.131722950E1,-5.756991946E0,-5.636538134E0,2.959250991E0,8.583162868E0
1.132716850E1,-3.902322384E0,-5.621312569E0,2.703121018E0,7.357590517E0
1.133710650E1,-1.547071374E0,-5.460401872E0,1.645029632E0,5.908937377E0
1.134704550E1,8.608788362E-1,-4.335289407E0,5.469076216E-2,4.420275748E0
1.135698450E1,2.364128106E0,-1.719803533E0,-1.567351710E0,3.317139925E0
1.136692350E1,1.524451713E0,2.878993571E-1,-2.449384896E0,2.899366385E0
1.137686150E1,4.036835825E-1,1.208620060E0,-1.978670295E0,2.353478069E0
1.138680050E1,1.505866484E0,1.683452563E0,-5.258710939E-1,2.319091806E0
1.139673950E1,3.418257127E0,1.582906181E0,8.775302446E-1,3.867833127E0
1.140667850E1,5.667599128E0,1.955634019E0,1.296926465E0,6.134183120E0
1.141661650E1,6.914265266E0,3.295635753E0,1.879155362E0,7.886666220E0
1.142655550E1,6.323728060E0,5.136025245E0,3.686177718E0,8.941822972E0
1.143649450E1,5.459683834E0,6.548132502E0,5.694846568E0,1.025268083E1
1.144643250E1,4.972044175E0,8.171705484E0,7.418161354E0,1.210483836E1
1.145637150E1,4.627882909E0,1.253859266E1,8.450841034E0,1.581297949E1
1.146631050E1,8.416696218E0,3.328460618E1,9.108710682E0,3.552005622E1
1.147624950E1,2.605494736E0,2.698733736E1,7.075447274E0,2.802083037E1
1.148618750E1,3.726578178E-1,1.600548400E1,1.136102307E1,1.963128211E1
1.149612650E1,3.999277698E0,2.091513956E1,1.174484015E1,2.431827615E1
1.150606550E1,3.868845027E0,2.208560478E1,1.032933449E1,2.468677888E1
1.151600450E1,2.281797556E0,1.687761376E1,8.689451872E0,1.911980701E1
1.152594250E1,1.656032483E0,1.243270660E1,7.335515639E0,1.453012136E1
1.153588150E1,1.443561477E0,1.008659552E1,6.263285977E0,1.196043603E1
1.154582050E1,1.222086929E0,8.520135802E0,5.202486452E0,1.005743883E1
1.155575850E1,1.275305654E0,7.824901861E0,4.391091140E0,9.062956198E0
1.156569750E1,1.456161642E0,7.730157087E0,3.580061864E0,8.642486810E0
1.157563650E1,1.720772855E0,7.732454458E0,2.200283569E0,8.221505881E0
1.158557550E1,2.198488035E0,7.682286517E0,-1.080756949E0,8.063430495E0
1.159551350E1,2.401584493E0,7.129860293E0,-3.117604116E0,8.143830260E0
1.160545233E1,2.369689978E0,6.900765799E0,-1.957461567E0,7.554313668E0
1.161539133E1,2.620472379E0,7.151358751E0,1.309103876E-2,7.616362574E0
1.162533033E1,3.094603801E0,7.833642864E0,2.556911099E0,8.802291041E0
1.163526833E1,3.194370164E0,8.610063640E0,4.725906801E0,1.032818434E1
1.164520733E1,3.236016080E0,9.041728488E0,5.788214908E0,1.121285360E1
1.165514633E1,3.197832008E0,8.869416890E0,5.169006464E0,1.075227015E1
1.166508433E1,3.141467480E0,8.348539318E0,3.963940927E0,9.761134891E0
1.167502333E1,2.856329763E0,7.896384657E0,2.641179124E0,8.802689222E0
1.168496233E1,2.377045483E0,7.504014267E0,1.632447885E0,8.038996296E0
1.169490133E1,2.077552266E0,7.268916437E0,1.619301590E0,7.731462166E0
1.170483933E1,1.881383736E0,7.171515273E0,2.194712049E0,7.732205187E0
1.171477833E1,1.438027965E0,6.795417684E0,2.196815293E0,7.285027341E0
1.172471733E1,8.148539400E-1,6.128282538E0,1.363093557E0,6.330707532E0
1.173465533E1,-4.522227230E0,1.115307854E0,-1.198990164E1,1.286282208E1
1.174459433E1,-1.409161431E1,-9.425936750E0,-2.596148781E1,3.100678517E1
1.175453333E1,-6.445855930E0,-6.177818980E0,1.847504969E0,9.117443755E0
1.176447233E1,-7.104409702E0,-9.148221488E0,1.785911919E1,2.128639782E1
1.177441033E1,-1.793834663E1,-3.806156619E1,-1.103016188E1,4.349863873E1
1.178434933E1,-2.303906580E1,-8.018302729E1,-5.515546144E1,1.000112061E2
1.179428833E1,-4.144344194E0,-9.705966339E1,-4.090448244E1,1.054083988E2
1.180422633E1,2.981023274E1,-6.275877371E1,-5.524427129E0,6.969815599E1
1.181416533E1,1.562482442E1,-3.056187594E1,2.210548999E1,4.082665902E1
1.182410433E1,-3.456711634E0,-1.780243161E1,2.147860065E0,1.826167378E1
1.183404333E1,-1.216687814E1,-9.890676373E0,-1.585748981E1,2.230063644E1
1.184398133E1,-9.761022552E0,-3.729945297E0,-1.507100539E0,1.055752837E1
1.185392033E1,-7.543206984E0,3.269516240E0,3.873737685E0,9.088209489E0
1.186385933E1,-5.028942261E0,8.498895206E0,-8.114707410E-1,9.908580360E0
1.187379733E1,-3.050316405E0,1.188265785E1,-4.298449025E0,1.299917889E1
1.188373633E1,-2.146260997E0,1.366917870E1,-3.573438138E0,1.429063829E1
1.189367533E1,-1.121073062E0,1.349050183E1,-2.039229323E0,1.368973705E1
1.190361433E1,3.005236419E-1,1.083116242E1,-2.791537351E0,1.118914986E1
1.191355233E1,1.209912879E0,6.332207692E0,-2.584529252E0,6.945540648E0
1.192349133E1,7.587474208E-1,1.008002091E0,-2.800817467E0,3.071863335E0
1.193343033E1,-7.728166987E-1,-3.449960731E0,-3.138458795E0,4.727515024E0
1.194336833E1,-1.725346547E0,-5.949105724E0,-2.784494380E0,6.791324508E0
1.195330733E1,-1.436298212E0,-6.370416323E0,-1.852167246E0,6.787906908E0
1.196324633E1,-9.308188444E-1,-4.738134499E0,-5.447096533E-1,4.859326173E0
1.197318533E1,-1.324737723E0,-1.991573346E0,1.758988649E-1,2.398381712E0
1.198312333E1,-1.906006800E0,9.900973320E-1,6.996620375E-1,2.258911600E0
1.199306233E1,-2.260085090E0,3.588451449E0,1.384168677E0,4.461041508E0
1.200300133E1,-2.332658392E0,5.689805099E0,2.177761848E0,6.523635789E0
1.201294033E1,-1.871892828E0,7.181055005E0,2.516054556E0,7.835946929E0
1.202287833E1,-1.218292232E0,8.180419005E0,2.083959645E0,8.529148777E0
1.203281733E1,-4.196263084E-1,8.686377406E0,1.282850755E0,8.790616857E0
1.204275633E1,4.525508103E-1,8.747110680E0,8.084018299E-1,8.796036665E0
1.205269433E1,1.265597376E0,8.564696263E0,9.205742303E-1,8.706504219E0
1.206263333E1,1.998830325E0,8.270576053E0,1.234045800E0,8.597710158E0
1.207257233E1,2.558390152E0,7.996161545E0,1.368013405E0,8.506198934E0
1.208251133E1,2.887683703E0,7.626816906E0,1.163011778E0,8.237696867E0
1.209244933E1,3.145338337E0,7.227067330E0,6.909865236E-1,7.912086818E0
1.210238833E1,3.191645654E0,6.663299847E0,3.099494997E-1,7.394743776E0
1.211232733E1,3.100584625E0,6.024478673E0,2.855534542E-1,6.781556538E0
1.212226533E1,2.763626252E0,5.238740358E0,4.060069737E-1,5.936907635E0
1.213220433E1,2.289892733E0,4.359030272E0,5.221817932E-1,4.951507595E0
1.214214333E1,1.868618680E0,3.474775729E0,2.448058163E-1,3.952939669E0
1.215208233E1,1.337354991E0,2.493744505E0,-7.137156741E-1,2.918333444E0
1.216202033E1,7.197013226E-1,9.779702067E-1,-2.893525071E0,3.137974356E0
1.217195933E1,1.082711381E-1,-1.730630237E0,-7.543835560E0,7.740559322E0
1.218189833E1,-8.742654517E-1,-6.726740382E0,-1.282415313E1,1.450766279E1
1.219183733E1,-1.403483199E0,-1.274622963E1,-9.051868730E0,1.569625631E1
1.220177533E1,2.219111896E-1,-1.643202318E1,-1.432878468E0,1.649587134E1
1.221171433E1,8.429562432E-1,-1.492564945E1,5.934159656E0,1.608414864E1
1.222165333E1,1.173885260E0,-1.041541954E1,9.106589313E0,1.388484568E1
1.223159133E1,2.136592188E0,-5.369357216E0,4.221354071E0,7.156455357E0
1.224153033E1,1.035695966E0,-4.967198002E-1,-1.425796613E0,1.830926726E0
1.225146933E1,-1.180050857E0,4.255055668E0,-3.821942464E0,5.839971144E0
1.226140833E1,-2.185603257E0,7.389228746E0,-2.846272552E0,8.214549927E0
1.227134633E1,-1.564776304E0,8.848285637E0,-8.193083489E-1,9.022857074E0
1.228128533E1,-1.232169136E-1,8.817043380E0,9.488091190E-1,8.868803477E0
1.229122433E1,5.585351023E-1,7.538076053E0,2.157240314E0,7.860549460E0
1.230116233E1,7.201217374E-1,5.156877000E0,2.520166318E0,5.784738022E0
1.231110133E1,1.360271106E0,1.931469816E0,1.941869966E0,3.058066726E0
1.232104033E1,2.082000828E0,-1.221668122E0,9.584978092E-1,2.597290607E0
1.233097933E1,2.921901316E0,-3.363999644E0,-8.750343606E-2,4.456641982E0
1.234091733E1,2.993637589E0,-4.562821525E0,-8.576426947E-1,5.524197433E0
1.235085633E1,2.728261707E0,-5.042593170E0,-2.520225083E0,6.262802271E0
1.236079533E1,2.790046311E0,-3.776318395E0,-4.502550472E0,6.505220964E0
1.237073333E1,2.646974007E0,-4.161708963E-1,-5.113116438E0,5.772662239E0
1.238067233E1,2.707493566E0,2.780559204E0,-6.372959862E0,7.461678651E0
1.239061133E1,3.148613070E0,4.796114904E0,-7.084408132E0,9.116211988E0
1.240055033E1,4.158781847E0,5.676377553E0,-7.150009214E0,1.003191708E1
1.241048833E1,5.789280855E0,5.721432104E0,-7.836804453E0,1.129894075E1
1.242042733E1,6.655453468E0,5.318193494E0,-6.675077308E0,1.082288778E1
1.243036633E1,5.185634192E0,5.468351746E0,-3.082823708E0,8.142326130E0
1.244030533E1,2.420801367E0,6.640882791E0,9.190013292E-1,7.127844481E0
1.245024333E1,7.906732182E-1,7.988295286E0,2.163536742E0,8.313778740E0
1.246018233E1,-1.454155024E0,8.791015669E0,-5.615730232E-1,8.928151409E0
1.247012133E1,-4.949052338E0,7.970056651E0,9.560142043E-1,9.430211303E0
1.248005933E1,-6.616551942E0,5.816022511E0,5.311666832E0,1.028682079E1
1.248999833E1,-7.396077590E0,3.390750071E0,6.691416768E0,1.053442965E1
1.249993733E1,-9.112767481E0,-5.323620880E-1,2.802917494E0,9.548941671E0
1.250987633E1,-7.730053006E0,-7.899538060E0,-8.324503754E0,1.383668254E1
1.251981433E1,-5.544689485E0,-1.861415962E1,-7.641706256E0,2.087166008E1
1.252975333E1,-5.173190147E0,-2.533129596E1,6.051068301E0,2.655281301E1
1.253969233E1,-3.350857150E0,-2.951746499E1,4.571472773E0,3.005673546E1
1.254963033E1,-6.691413260E0,-3.405226607E1,-1.133667234E0,3.472199645E1
1.255956933E1,-1.276842683E1,-3.696346845E1,-4.275548404E0,3.933968782E1
1.256950833E1,-1.574264230E1,-3.690825202E1,-7.984947170E0,4.091221377E1
1.257944733E1,-1.321758420E1,-3.192882632E1,-8.277330172E0,3.553404955E1
1.258938533E1,-6.993679225E0,-2.369664133E1,-7.250515834E0,2.574902599E1
1.259932433E1,-3.793349872E0,-1.659702810E1,-7.523714122E0,1.861335862E1
1.260926358E1,-1.538040496E0,-1.106441253E1,-1.101967197E1,1.569139776E1
1.261920158E1,1.178132678E0,-5.458299213E0,-1.496928605E1,1.597687553E1
1.262914058E1,5.233513532E0,-1.746656286E0,-1.178255586E1,1.301034568E1
1.263907958E1,9.052924737E0,-1.116884263E0,-4.546619475E-1,9.132885318E0
1.264901858E1,8.690266389E0,-1.359089969E0,7.349866460E0,1.146247759E1
1.265895658E1,5.883792325E0,-2.027452446E0,5.385641711E0,8.230110096E0
1.266889558E1,4.937232192E0,-1.034890512E0,-5.611578709E-1,5.075643628E0
1.267883458E1,5.456526922E0,8.025116372E-1,-4.823845909E0,7.327154996E0
1.268877258E1,6.010390391E0,2.955872762E0,-3.985687891E0,7.794080087E0
1.269871158E1,6.278174742E0,5.223838145E0,-1.539238590E0,8.311029929E0
1.270865058E1,7.217226466E0,7.805468640E0,8.130816489E-1,1.066183851E1
1.271858958E1,7.046843280E0,9.669270968E0,2.299715179E0,1.218365672E1
1.272852758E1,5.541783419E0,1.063805111E1,4.169677548E0,1.269904349E1
1.273846658E1,4.028028749E0,1.121254589E1,6.177709637E0,1.342051777E1
1.274840558E1,2.586431059E0,1.155890220E1,8.037461014E0,1.431428047E1
1.275834458E1,5.910667079E-1,1.181296138E1,9.777780672E0,1.534602266E1
1.276828258E1,-2.110481154E0,1.227354656E1,1.169110190E1,1.708145016E1
1.277822158E1,-5.039042741E0,1.251085113E1,1.366782332E1,1.920215462E1
1.278816058E1,-6.519764151E0,1.150120422E1,1.344002749E1,1.885256911E1
1.279809858E1,-8.381393069E0,1.052617165E1,1.097238554E1,1.736206450E1
1.280803758E1,-1.376975432E1,8.623143861E0,6.732298453E-1,1.626093425E1
1.281797658E1,-1.806317415E1,4.926266323E0,-9.528733724E0,2.100816810E1
1.282791558E1,-1.657076591E1,-1.256332755E-1,-9.830045425E0,1.926748193E1
1.283785358E1,-1.300640383E1,-2.447330477E0,7.157079667E-2,1.323484376E1
1.284779258E1,-8.677691951E0,-3.131423718E0,7.428310951E0,1.184432166E1
1.285773158E1,-3.988439006E0,6.527205902E-1,1.289857766E1,1.351691516E1
1.286766958E1,-2.014287878E0,2.065932855E1,1.241279917E1,2.418559065E1
1.287760858E1,5.425801558E0,3.360806246E1,-8.344795931E0,3.505105995E1
1.288754758E1,2.652224661E-1,1.292051524E1,-1.931634707E0,1.306680029E1
1.289748658E1,1.843950008E0,1.211999868E1,1.427459473E1,1.881644425E1
1.290742458E1,4.898107010E0,1.078350293E1,1.226648780E1,1.705116157E1
1.291736358E1,3.095553973E0,1.149555464E1,1.067787649E1,1.599210046E1
1.292730258E1,2.213483804E0,1.323265248E1,9.830581030E0,1.663258626E1
1.293724158E1,3.345499346E0,1.353335022E1,1.020455140E1,1.727648122E1
1.294717958E1,6.138752562E0,1.262692655E1,9.882680891E0,1.716947695E1
1.295711858E1,8.406007508E0,1.199262761E1,8.406403949E0,1.688643558E1
1.296705758E1,8.539558498E0,1.257616336E1,6.510153667E0,1.653680879E1
1.297699558E1,7.669997424E0,1.297485693E1,2.454920747E0,1.527096620E1
1.298693458E1,4.938932562E0,1.300181493E1,-5.743482538E0,1.504751933E1
1.299687358E1,-3.109173600E0,1.198225465E1,-7.487044478E0,1.446710828E1
1.300681258E1,-8.384031333E0,9.471482466E0,1.615859919E0,1.275193965E1
1.301675058E1,-9.873838731E0,6.372531261E0,1.473435779E0,1.184368435E1
1.302668958E1,-1.463903882E1,1.128390999E0,-1.101964157E1,1.835775651E1
1.303662858E1,-8.925882867E0,-1.330009543E1,-1.222264772E1,2.014837563E1
1.304656658E1,-4.644000759E0,-3.392783265E1,-3.174549038E1,4.669518959E1
1.305650558E1,5.436335902E0,-4.740834509E1,-1.394742898E1,4.971554794E1
1.306644458E1,1.455275614E1,-4.064389777E1,1.056700159E1,4.444514214E1
1.307638358E1,1.123290239E1,-2.217642139E1,1.580022919E0,2.490919979E1
1.308632158E1,1.982718322E0,-6.836300247E0,-8.350663027E0,1.097268181E1
1.309626058E1,-9.149433616E-1,3.592208285E0,-4.700501234E0,5.986300491E0
1.310619958E1,-2.048280959E0,9.112192699E0,3.938854033E-1,9.347869083E0
1.311613758E1,-2.590245198E0,7.894388418E0,4.139653850E0,9.282643625E0
1.312607658E1,-3.135899761E0,1.571074925E0,1.535285287E0,3.828739303E0
1.313601558E1,-4.582254746E0,-5.118878285E0,-3.712202505E0,7.808996151E0
1.314595458E1,-4.769682566E0,-9.332619866E0,-5.747414791E0,1.195326073E1
1.315589258E1,-2.967634436E0,-8.806622472E0,-4.308147216E0,1.024322146E1
1.316583158E1,-2.695036073E0,-5.130615985E0,-3.416875430E0,6.727665088E0
1.317577058E1,-1.487496871E0,-2.100740862E0,-2.535181968E0,3.612880668E0
1.318570858E1,2.027713524E-1,-1.214047446E0,-1.469794133E0,1.917112990E0
1.319564758E1,1.379332152E0,-1.861147692E0,-7.769359159E-1,2.443370078E0
1.320558658E1,1.706838502E0,-2.535861999E0,-8.069794947E-1,3.161504334E0
1.321552558E1,1.327398645E0,-2.548698977E0,-1.187136220E0,3.109203442E0
1.322546358E1,7.047296731E-1,-2.542838312E0,-1.325510579E0,2.952905161E0
1.323540258E1,2.016185738E-1,-2.434159039E0,-1.230247741E0,2.734829022E0
1.324534158E1,-9.828979477E-2,-2.391683695E0,-1.037663847E0,2.608938105E0
1.325527958E1,-4.451899698E-1,-2.679367290E0,-7.879824758E-1,2.828094688E0
1.326521858E1,-7.290087743E-1,-2.582530966E0,-6.420073217E-1,2.759183464E0
1.327515758E1,-8.921126157E-1,-2.239971253E0,-6.319588816E-1,2.492530473E0
1.328509658E1,-8.868145998E-1,-1.819607903E0,-4.021919578E-1,2.063776011E0
1.329503458E1,-7.714548822E-1,-1.415371174E0,1.153544551E-1,1.616083180E0
1.330497358E1,-7.939162302E-1,-1.081424993E0,4.158001828E-1,1.404518704E0
1.331491258E1,-7.186997677E-1,-8.759842408E-1,5.397675866E-1,1.255080393E0
1.332485158E1,-5.337356720E-1,-7.552415764E-1,8.637547892E-1,1.265439031E0
1.333478958E1,-3.056775239E-1,-6.280248749E-1,1.221930077E0,1.407468332E0
1.334472858E1,-1.107837597E-1,-6.062545216E-1,1.439682142E0,1.566046697E0
1.335466758E1,1.603855439E-1,-6.045658457E-1,1.419329154E0,1.551037921E0
1.336460558E1,2.686529179E-1,-5.834714305E-1,1.421870354E0,1.560233509E0
1.337454458E1,1.281447277E-1,-6.071257567E-1,1.427792414E0,1.556796047E0
1.338448358E1,4.974043630E-2,-5.831428170E-1,1.402651725E0,1.519855756E0
1.339442258E1,1.538862906E-2,-4.553127426E-1,1.494164159E0,1.562073313E0
1.340436058E1,-1.503056020E-2,-2.570465237E-1,1.574954553E0,1.595863614E0
1.341429958E1,4.609485266E-2,-9.383962512E-2,1.611040644E0,1.614429487E0
1.342423858E1,7.990736389E-3,-4.829390824E-2,1.494222631E0,1.495024222E0
1.343417658E1,-1.172365642E-1,-1.020368367E-1,1.271189945E0,1.280656006E0
1.344411558E1,-2.887098908E-1,-2.839156491E-1,1.102847437E0,1.174833591E0
1.345405458E1,-4.753143863E-1,-5.228293723E-1,9.772545075E-1,1.205943900E0
1.346399358E1,-7.117113217E-1,-7.674470544E-1,9.135800833E-1,1.389293545E0
1.347393158E1,-9.663278887E-1,-9.650157005E-1,9.229666185E-1,1.648305879E0
1.348387058E1,-1.152768772E0,-1.115010815E0,9.242261088E-1,1.851031836E0
1.349380958E1,-1.324774268E0,-1.295220832E0,7.617688233E-1,2.003226299E0
1.350374758E1,-1.464114733E0,-1.625665115E0,4.223823935E-1,2.228188929E0
1.351368658E1,-1.546643504E0,-2.192338665E0,3.469685143E-1,2.705335857E0
1.352362558E1,-1.718051415E0,-2.932447062E0,4.690513605E-1,3.430882629E0
1.353356458E1,-2.323083722E0,-3.855171606E0,7.749490321E-2,4.501674305E0
1.354350258E1,-3.113647013E0,-5.044840255E0,-5.233246315E-1,5.951393080E0
1.355344158E1,-3.592835106E0,-6.081772615E0,-6.008195347E-1,7.089245824E0
1.356338058E1,-3.509274886E0,-6.471183144E0,-1.166694939E-2,7.361477952E0
1.357331858E1,-3.023388515E0,-5.946887875E0,6.302152419E-1,6.701009235E0
1.358325758E1,-2.660797117E0,-4.387534863E0,1.055265720E0,5.238691556E0
1.359319658E1,-2.704428163E0,-2.232009099E0,1.323238351E0,3.747900218E0
1.360313675E1,-2.627706262E0,1.943596941E-1,1.335915114E0,2.954197875E0
1.361307475E1,-2.242331189E0,3.168980969E0,1.134082679E0,4.044333451E0
1.362301375E1,-1.865360903E0,5.692914648E0,6.287201089E-1,6.023631584E0
1.363295275E1,-1.730284082E0,6.622178718E0,-1.722531259E-2,6.844518295E0
1.364289075E1,-1.628107643E0,5.836409998E0,-3.020958120E-1,6.066768336E0
1.365282975E1,-1.312348204E0,4.383129571E0,-2.576692522E-2,4.575450424E0
1.366276875E1,-4.200364175E-1,3.803790368E0,9.606501693E-1,3.945643230E0
1.367270775E1,1.027366607E0,4.315459160E0,2.320410229E0,5.006293393E0
1.368264575E1,1.689837868E0,4.847708981E0,3.436355429E0,6.177732029E0
1.369258475E1,1.752549841E0,5.047622361E0,4.115449886E0,6.744393983E0
1.370252375E1,1.322247248E0,5.177890139E0,4.854264295E0,7.219609818E0
1.371246275E1,9.180638744E-1,5.329559312E0,5.164129887E0,7.477652120E0
1.372240075E1,9.121573826E-1,5.512630371E0,5.469398398E0,7.818915752E0
1.373233975E1,1.311143385E0,5.626099684E0,6.436586339E0,8.648799820E0
1.374227875E1,2.000068181E0,5.685932488E0,7.830540331E0,9.881673080E0
1.375221675E1,2.465860888E0,5.682952747E0,8.562918710E0,1.056882201E1
1.376215575E1,2.579131980E0,5.736872846E0,8.259056454E0,1.038150496E1
1.377209475E1,2.374013117E0,5.845619947E0,7.480155289E0,9.785700485E0
1.378203375E1,2.142129062E0,5.907953020E0,6.768363202E0,9.235982148E0
1.379197175E1,2.433982014E0,5.964283926E0,5.590428745E0,8.529351954E0
1.380191075E1,2.928512178E0,5.896909969E0,4.162996227E0,7.789754062E0
1.381184975E1,3.015390693E0,5.770465100E0,3.485285515E0,7.384989074E0
1.382178775E1,2.831378524E0,5.902973531E0,3.392897461E0,7.373842556E0
1.383172675E1,2.788231043E0,6.245507517E0,3.434528759E0,7.653534105E0
1.384166575E1,2.910434634E0,6.673951135E0,3.181590489E0,7.945739207E0
1.385160475E1,2.951025128E0,7.152189056E0,2.436698338E0,8.111711064E0
1.386154275E1,2.698616908E0,7.743159540E0,1.521291146E0,8.339866884E0
1.387148175E1,2.558637489E0,8.398458168E0,1.065623478E0,8.843996766E0
1.388142075E1,2.755589839E0,9.038535908E0,1.008375728E0,9.502906310E0
1.389135875E1,2.942237348E0,9.525156983E0,7.706700397E-1,9.998965370E0
1.390129775E1,2.881193293E0,9.707147477E0,2.156802138E-2,1.012573218E1
1.391123675E1,2.519241874E0,9.279314893E0,-1.532397348E0,9.736555148E0
1.392117575E1,1.803825244E0,8.411951787E0,-3.639378943E0,9.341295278E0
1.393111375E1,3.799041259E-1,7.216244718E0,-5.481255382E0,9.069877372E0
1.394105275E1,-1.106965193E0,5.791919703E0,-5.603204911E0,8.134347612E0
1.395099175E1,-1.299915269E0,4.839287821E0,-3.194043304E0,5.942255376E0
1.396093075E1,-8.482390563E-1,3.666378461E0,7.025985092E-1,3.828248318E0
1.397086875E1,-2.297356412E0,7.730112648E-1,-2.422382600E0,3.426854295E0
1.398080775E1,-8.860465388E0,-7.564755144E0,-2.622232976E1,2.869397054E1
1.399074675E1,-2.019009943E0,-8.927821804E0,-1.478826093E1,1.739181028E1
1.400068475E1,5.181410163E0,-4.305271556E0,1.000777038E1,1.206390659E1
1.401062375E1,2.000592968E0,-8.247592403E0,8.159049186E0,1.177264780E1
1.402056275E1,-6.500684102E0,-2.053906770E1,-4.914935589E-1,2.154886915E1
1.403050175E1,-1.860112735E1,-4.053757200E1,-1.336675135E1,4.656142957E1
1.404043975E1,-1.872872880E1,-5.049467859E1,-1.840931529E1,5.691555796E1
1.405037875E1,-4.003720412E0,-4.455654575E1,-1.918398015E1,4.867587329E1
1.406031775E1,4.085199316E0,-2.283242754E1,1.596934236E1,2.816076164E1
1.407025575E1,3.568803635E0,-1.153146239E1,1.425715366E1,1.868093720E1
1.408019475E1,4.986167539E0,-7.305611224E0,-2.219834758E0,9.119292101E0
1.409013375E1,4.178249274E0,-2.737981533E0,-1.751236118E0,5.293499581E0
1.410007275E1,2.554642964E0,-2.069990355E-1,2.198287622E0,3.376613354E0
1.411001075E1,4.157621759E0,2.478526542E0,-2.242141593E0,5.334427001E0
1.411994975E1,4.154915668E0,4.224267738E0,-3.374453881E0,6.818702305E0
1.412988875E1,2.895320166E0,3.752563496E0,-7.398435187E-1,4.797080372E0
1.413982675E1,2.065171226E0,1.196726239E0,3.716306081E-1,2.415614868E0
1.414976575E1,2.052756856E0,-2.306395038E0,2.777193546E-2,3.087724091E0
1.415970475E1,2.490638464E0,-6.237208564E0,6.067451030E-2,6.716377895E0
1.416964375E1,2.821178057E0,-8.928170882E0,1.123153209E0,9.430416431E0
1.417958175E1,3.387755127E0,-8.821229986E0,1.746532764E0,9.609441189E0
1.418952075E1,3.619311299E0,-6.022290060E0,2.082230916E0,7.328238358E0
1.419945975E1,3.034174581E0,-2.631708389E0,1.888730178E0,4.438401302E0
1.420939775E1,1.898716053E0,1.332410878E-1,1.049709622E0,2.173652716E0
1.421933675E1,1.039170455E0,2.072577163E0,2.893833804E-1,2.336491830E0
1.422927575E1,6.505292000E-1,3.671381924E0,-9.518308139E-1,3.848144406E0
1.423921475E1,2.786142710E-1,5.083987364E0,-2.542192780E0,5.690983883E0
1.424915275E1,-3.150830626E-2,5.966542121E0,-3.248444045E0,6.793600398E0
1.425909175E1,-2.149332686E-1,6.507762156E0,-3.190882884E0,7.251130820E0
1.426903075E1,-1.504623073E-1,6.789773952E0,-2.983088043E0,7.417714169E0
1.427896875E1,3.025086254E-2,6.550880694E0,-2.818541547E0,7.131558696E0
1.428890775E1,2.037205017E-1,5.630947026E0,-2.728508459E0,6.260497174E0
1.429884675E1,-2.804426953E-2,4.636002352E0,-2.311663964E0,5.180453124E0
1.430878575E1,-3.154521681E-1,3.311348391E0,-2.031700448E0,3.897735874E0
1.431872375E1,1.695531741E-2,2.154586701E0,-2.022605689E0,2.955243663E0
1.432866275E1,5.456384835E-1,1.664049747E0,-2.177463348E0,2.794303052E0
1.433860175E1,1.087835150E0,1.408403047E0,-2.263730829E0,2.879489837E0
1.434853975E1,1.765324107E0,1.234057787E0,-2.400307753E0,3.225018625E0
1.435847875E1,2.331141916E0,7.772130740E-1,-2.537619088E0,3.532392027E0
1.436841775E1,2.532003422E0,-6.373260409E-1,-2.737758754E0,3.783192938E0
1.437835675E1,2.179677250E0,-2.802787394E0,-2.972197019E0,4.630395794E0
1.438829475E1,1.576030733E0,-5.080328177E0,-3.128502449E0,6.170991397E0
1.439823375E1,1.203434895E0,-6.557956409E0,-3.190144966E0,7.391351211E0
1.440817275E1,1.084619766E0,-7.035779763E0,-3.285596960E0,7.840519389E0
1.441811075E1,1.105193194E0,-6.773906363E0,-3.091764393E0,7.527699945E0
1.442804975E1,9.104952385E-1,-5.578775829E0,-2.871545388E0,6.340150964E0
1.443798875E1,3.460497706E-1,-3.758721199E0,-2.795461125E0,4.697056355E0
1.444792775E1,-4.408804987E-1,-2.274985549E0,-2.570599723E0,3.460912856E0
1.445786575E1,-1.013254791E0,-1.404101250E0,-2.266945336E0,2.852582470E0
1.446780475E1,-1.559898996E0,-9.795980716E-1,-1.922627656E0,2.662591663E0
1.447774375E1,-2.283996401E0,-3.963447422E-1,-1.056864056E0,2.547683330E0
1.448768175E1,-2.919358070E0,3.350448722E-1,4.568733644E-1,2.973825798E0
1.449762075E1,-2.945921971E0,1.127838437E0,2.116444437E0,3.798659349E0
1.450755975E1,-2.570129607E0,1.899132375E0,3.416713755E0,4.678269216E0
1.451749875E1,-1.793821682E0,2.190404990E0,3.811504892E0,4.747972176E0
1.452743675E1,-1.014481464E0,1.844457400E0,3.250816845E0,3.872855006E0
1.453737575E1,-5.035884514E-1,1.076282952E0,2.344375919E0,2.628323567E0
1.454731475E1,-1.647708826E-1,4.195067328E-1,1.753247560E0,1.810252013E0
1.455725375E1,-3.357836679E-2,2.090169096E-1,1.455676323E0,1.470989169E0
1.456719175E1,-2.361122491E-1,4.283179021E-1,1.298250275E0,1.387320797E0
1.457713075E1,-7.003503279E-1,9.294868487E-1,1.143170713E0,1.631341676E0
1.458706975E1,-1.160349979E0,1.464118826E0,1.010649126E0,2.124021578E0
1.459700775E1,-1.463487765E0,2.028057048E0,1.012228166E0,2.698039601E0
1.460694596E1,-1.493932463E0,2.679010025E0,1.054096277E0,3.243462328E0
1.461688496E1,-1.300146527E0,3.350713601E0,1.194044413E0,3.787268763E0
1.462682396E1,-8.327040276E-1,4.053415605E0,1.347004359E0,4.351780648E0
1.463676196E1,-1.639104648E-1,4.718694845E0,1.411840917E0,4.928107391E0
1.464670096E1,4.120281440E-1,5.386231111E0,1.245356947E0,5.543660045E0
1.465663996E1,1.096211871E0,6.130593358E0,8.276593423E-1,6.282585087E0
1.466657796E1,1.917202902E0,6.990687205E0,1.464227584E-1,7.250297524E0
1.467651696E1,2.711816413E0,7.959336950E0,-8.520226434E-1,8.451682408E0
1.468645596E1,3.444784483E0,9.371964610E0,-2.144225435E0,1.021263744E1
1.469639496E1,4.390386258E0,1.079003193E1,-2.970599852E0,1.202184446E1
1.470633296E1,5.487701352E0,1.167929169E1,-3.766436015E0,1.344272148E1
1.471627196E1,6.168182184E0,1.241106372E1,-6.177797345E0,1.517386418E1
1.472621096E1,5.563313452E0,1.273520061E1,-5.458392184E0,1.493083508E1
1.473614896E1,4.245834609E0,1.281659268E1,-2.797193947E-1,1.350445861E1
1.474608796E1,3.003417350E0,1.268131267E1,2.561700553E0,1.328151032E1
1.475602696E1,-6.426308542E-1,1.000094200E1,5.092283978E0,1.124113746E1
1.476596596E1,-3.756931074E0,6.551845484E0,2.702553838E-2,7.552611517E0
1.477590396E1,-6.505347256E0,7.845560074E-1,-9.500408642E0,1.154092004E1
1.478584296E1,-8.502069075E0,-8.802751030E0,-8.835864397E0,1.509457200E1
1.479578196E1,-9.459243659E0,-1.954944983E1,-3.308092369E0,2.196819871E1
1.480571996E1,-9.273785766E0,-3.060233633E1,4.091466654E0,3.223734156E1
1.481565896E1,-1.374343454E-1,-3.575969047E1,1.017007096E0,3.577441340E1
1.482559796E1,7.177335007E0,-4.062641693E1,-5.007889946E0,4.155837884E1
1.483553696E1,5.283323039E0,-4.281367787E1,-6.880646700E0,4.368372482E1
1.484547496E1,3.719494860E0,-4.007299902E1,-8.985250232E0,4.123608389E1
1.485541396E1,2.951502846E0,-3.009838820E1,-7.229877502E0,3.109494284E1
1.486535296E1,3.516713422E0,-2.226716550E1,-7.496503519E0,2.375692526E1
1.487529096E1,4.330419846E0,-1.771121153E1,-8.274710619E0,2.002274671E1
1.488522996E1,2.722811809E0,-1.422367133E1,-6.879080815E0,1.603272538E1
1.489516896E1,5.945113391E-1,-1.068953818E1,-7.474086463E0,1.305686175E1
1.490510796E1,-3.105160949E-1,-6.843990505E0,-1.175696026E1,1.360745167E1
1.491504596E1,1.410688285E0,-4.197278745E0,-1.043209580E1,1.133295253E1
1.492498496E1,5.120351783E0,-3.171849028E0,-1.291921833E0,6.160169694E0
1.493492396E1,7.522048835E0,-1.512183523E0,7.626150323E0,1.081785960E1
1.494486196E1,6.571358812E0,4.512424958E-1,9.734955665E0,1.175396691E1
1.495480096E1,3.877805885E0,1.348542176E0,6.565028617E0,7.743096617E0
1.496473996E1,2.451230131E0,1.386767764E0,-1.025631592E-1,2.818186152E0
1.497467896E1,3.623512231E0,1.879788031E0,-4.822047306E0,6.317878136E0
1.498461696E1,5.797397960E0,3.077944499E0,-4.982019525E0,8.240393436E0
1.499455596E1,6.873162264E0,5.110451277E0,-2.424054465E0,8.901298322E0
1.500449496E1,4.975551919E0,6.713138589E0,2.731709225E0,8.791164992E0
1.501443296E1,2.904793533E0,8.142679321E0,6.901787893E0,1.106235635E1
1.502437196E1,1.052592007E0,9.896129487E0,1.027746969E1,1.430621236E1
1.503431096E1,-1.311551228E0,1.115051278E1,1.169999668E1,1.621554884E1
1.504424996E1,-3.669541805E0,1.173559570E1,1.070464154E1,1.630273272E1
1.505418796E1,-6.937717279E0,1.187648787E1,7.840004050E0,1.583188393E1
1.506412696E1,-1.010549255E1,1.094029719E1,5.432646893E0,1.585322474E1
1.507406596E1,-1.196819093E1,1.008680251E1,5.520543408E0,1.659691473E1
1.508400396E1,-1.275087816E1,9.066806611E0,1.873769492E0,1.575762952E1
1.509394296E1,-1.304145905E1,6.715217859E0,-4.986514864E0,1.549319643E1
1.510388196E1,-1.321089382E1,3.938861634E0,-1.641387109E0,1.388295711E1
1.511382096E1,-1.195326766E1,3.250519221E0,8.273448206E0,1.489618838E1
1.512375896E1,-7.208508267E0,3.270176391E0,1.229464331E1,1.462241086E1
1.513369796E1,-2.138463004E0,3.991432196E0,9.145204909E0,1.020486785E1
1.514363696E1,2.754420980E0,2.018836339E1,6.851334608E0,2.149645639E1
1.515357496E1,2.847299323E0,2.344345689E1,-1.197600397E0,2.364607856E1
1.516351396E1,2.950820768E0,1.014979807E1,3.208946688E0,1.104640589E1
1.517345296E1,4.715345853E0,1.050154084E1,1.253129650E1,1.701617579E1
1.518339196E1,3.689039930E0,9.170998732E0,1.149431737E1,1.516032866E1
1.519332996E1,2.280348469E0,1.054569901E1,8.927304910E0,1.400387553E1
1.520326896E1,1.290002192E0,1.324467786E1,7.626088343E0,1.533762761E1
1.521320796E1,1.621854631E0,1.464557133E1,7.288592902E0,1.643918363E1
1.522314696E1,2.809944386E0,1.470882768E1,7.275564721E0,1.664870089E1
1.523308496E1,3.746592612E0,1.436216848E1,6.579479426E0,1.623571339E1
1.524302396E1,3.822333643E0,1.378351282E1,4.722529449E0,1.506312532E1
1.525296296E1,4.449254271E0,1.282529685E1,1.167167979E0,1.362521133E1
1.526290096E1,4.193010278E0,1.129417536E1,-5.687830494E0,1.332258038E1
1.527283996E1,-1.699014489E0,9.228285658E0,-9.519262989E0,1.336653561E1
1.528277896E1,-6.658153127E0,7.083292483E0,-1.629131929E0,9.856881166E0
1.529271796E1,-8.587897430E0,4.974287167E0,7.624678579E0,1.251524025E1
1.530265596E1,-1.257459046E1,2.316214267E0,2.911880651E0,1.311351298E1
1.531259496E1,-1.598991053E1,-5.535894688E0,-1.551725904E1,2.295884790E1
1.532253396E1,-7.710941967E0,-2.367016982E1,-2.883021835E1,3.809090515E1
1.533247196E1,3.763493696E0,-3.913007001E1,-1.102136884E1,4.082642324E1
1.534241096E1,1.479313868E1,-4.306593611E1,9.710188614E0,4.655963454E1
1.535234996E1,1.175650067E1,-3.114304240E1,4.043409265E0,3.353287277E1
1.536228896E1,1.978035580E0,-1.137478157E1,-5.485598109E0,1.278241241E1
1.537222696E1,1.669689971E0,3.542076597E0,-5.635704321E0,6.862604054E0
1.538216596E1,3.054015646E0,1.239352324E1,8.672315437E-1,1.279369065E1
1.539210496E1,2.946298531E0,1.134312825E1,5.365854734E0,1.288951630E1
1.540204296E1,-2.237545243E-1,4.128431289E0,5.384668150E0,6.788863092E0
1.541198196E1,-4.070297686E0,-2.499496996E0,1.465370130E0,4.996210374E0
1.542192096E1,-6.751603913E0,-7.378150027E0,-3.876234446E0,1.072597066E1
1.543185996E1,-6.999409497E0,-1.073921612E1,-4.899742184E0,1.372333668E1
1.544179796E1,-4.033882397E0,-1.077685699E1,-3.864410207E0,1.213863748E1
1.545173696E1,-2.607822221E0,-7.984652470E0,-3.941090593E0,9.278340739E0
1.546167596E1,-1.197152939E0,-5.121003163E0,-3.738233140E0,6.452304671E0
1.547161396E1,5.320549630E-1,-3.640846009E0,-2.400958548E0,4.393568492E0
1.548155296E1,1.530518783E0,-3.040840407E0,-1.091650019E0,3.575038167E0
1.549149196E1,1.616936976E0,-2.879823291E0,-2.772995245E-1,3.314326839E0
1.550143096E1,1.230417457E0,-2.530265045E0,1.905432165E-2,2.813633128E0
1.551136896E1,8.567812537E-1,-1.789423406E0,1.875196213E-1,1.992805523E0
1.552130796E1,2.111391565E-1,-8.985451376E-1,7.609636617E-1,1.196256161E0
1.553124696E1,-5.078471978E-1,-1.514037091E-1,1.382442579E0,1.480533466E0
1.554118496E1,-1.066260678E0,-9.414017200E-5,1.126491823E0,1.551094991E0
1.555112396E1,-1.330028138E0,-3.539746481E-1,4.780163115E-1,1.456973745E0
1.556106296E1,-1.423100023E0,-7.860020238E-1,2.436411971E-1,1.643889866E0
1.557100196E1,-1.422429640E0,-1.142888585E0,2.176181638E-1,1.837622939E0
1.558093996E1,-1.333679431E0,-1.324594320E0,8.703346610E-2,1.881708203E0
1.559087896E1,-1.220956662E0,-1.360211465E0,1.253391606E-1,1.832108158E0
1.560081796E1,-1.065260512E0,-1.200038102E0,4.603676605E-1,1.669374070E0
1.561075571E1,-8.119581795E-1,-9.300394106E-1,6.697389114E-1,1.404563847E0
1.562069471E1,-4.621596859E-1,-5.317721039E-1,7.000976551E-1,9.932320335E-1
1.563063371E1,-2.909742616E-2,-1.344625711E-2,9.360462552E-1,9.365949252E-1
1.564057271E1,2.415163920E-1,4.904141629E-1,1.325820481E0,1.434097684E0
1.565051071E1,3.785002825E-1,8.990836662E-1,1.445598355E0,1.743951979E0
1.566044971E1,5.961193965E-1,1.292365052E0,1.261095312E0,1.901559136E0
1.567038871E1,4.638160560E-1,1.629637129E0,1.226543530E0,2.091710194E0
1.568032671E1,3.936874019E-1,1.801606665E0,1.256366084E0,2.231419298E0
1.569026571E1,4.400914170E-1,1.772910869E0,1.083422987E0,2.123840572E0
1.570020471E1,5.730224562E-1,1.529740373E0,1.356297339E0,2.123205787E0
1.571014371E1,4.577818025E-1,1.157898973E0,2.105122181E0,2.445778732E0
1.572008171E1,2.358899818E-1,8.609399396E-1,2.166580510E0,2.343273943E0
1.573002071E1,-1.556579970E-2,6.945930862E-1,2.129495714E0,2.239967376E0
1.573995971E1,-3.853635981E-1,6.871314543E-1,2.097454142E0,2.240528647E0
1.574989771E1,-5.600519431E-1,7.130258489E-1,2.459091566E0,2.620914987E0
1.575983671E1,1.104259101E-1,6.122128344E-1,7.100946397E-1,9.440512875E-1
1.576977571E1,1.811671477E0,-9.396107179E-1,-2.668020768E0,3.359070803E0
1.577971471E1,3.222434752E0,-4.645980041E0,-4.680179236E0,7.339842911E0
1.578965271E1,2.404816833E0,-9.684475483E0,-4.085426772E0,1.078252852E1
1.579959171E1,3.067621093E-1,-1.322180356E1,-1.102363288E0,1.327122440E1
1.580953071E1,-3.219364379E-1,-1.318958540E1,1.180325384E0,1.324620602E1
1.581946871E1,-1.849861689E-1,-1.074692509E1,2.430351332E0,1.101985601E1
1.582940771E1,-5.573287486E-1,-8.228435755E0,2.665737722E0,8.667406066E0
1.583934671E1,-7.200085938E-1,-6.509718634E0,2.612137758E0,7.051107200E0
1.584928571E1,-1.468081191E0,-4.988084257E0,3.712667359E0,6.389064552E0
1.585922371E1,-2.532663572E0,-3.689028236E0,4.996165693E0,6.707084742E0
1.586916271E1,-3.303476284E0,-2.560569994E0,5.441498408E0,6.861441480E0
1.587910171E1,-3.769910139E0,-1.888045469E0,4.754110846E0,6.354408555E0
1.588903971E1,-4.329984813E0,-2.056445864E0,3.442342686E0,5.901479580E0
1.589897871E1,-4.541188873E0,-2.669768500E0,1.784738909E0,5.561955879E0
1.590891771E1,-4.416649612E0,-3.149708546E0,2.528277576E-1,5.430596615E0
1.591885671E1,-3.711076332E0,-3.419715423E0,-1.323867219E0,5.217199012E0
1.592879471E1,-2.479555944E0,-3.287904564E0,-4.440422344E0,6.056060163E0
1.593873371E1,-1.301239956E0,-1.793921084E0,-8.049820858E0,8.349310997E0
1.594867271E1,-8.434735756E-1,9.620716274E-2,-8.243670090E0,8.287267345E0
1.595861071E1,9.458973518E-1,1.067456580E0,-4.907317836E0,5.110377060E0
1.596854971E1,3.123637273E0,1.965450325E0,-1.707300139E0,4.066322486E0
1.597848871E1,4.244572487E0,3.675265059E0,1.357106593E-1,5.616260877E0
1.598842771E1,3.859587131E0,6.450295136E0,4.583889627E-1,7.530792827E0
1.599836571E1,2.480332162E0,8.982170504E0,9.724425414E-1,9.368942261E0
1.600830471E1,1.263962787E0,1.044691966E1,2.703951323E0,1.086494754E1
1.601824371E1,3.261918953E-1,1.086623285E1,4.283473428E0,1.168458652E1
1.602818171E1,-3.118553996E-1,1.103544542E1,4.447155121E0,1.190191153E1
1.603812071E1,-3.781560277E-1,1.159933453E1,4.767092542E0,1.254642319E1
1.604805971E1,-1.034602683E-2,1.401401240E1,6.717618726E0,1.554088324E1
1.605799871E1,-3.236392568E-1,2.138003530E1,9.741360705E0,2.349690959E1
1.606793671E1,-2.079844375E0,2.011891484E1,6.383407667E0,2.120953513E1
1.607787571E1,-2.042566182E0,1.536466542E1,3.068328460E0,1.580062213E1
1.608781471E1,-1.437517357E0,1.575029631E1,2.676151321E0,1.604057592E1
1.609775271E1,-9.095537636E-1,1.524821578E1,1.753760945E0,1.537566421E1
1.610769171E1,2.736667226E-1,1.471126480E1,4.002148680E-1,1.471925193E1
1.611763071E1,1.932811021E0,1.412067146E1,-2.213429571E0,1.442318936E1
1.612756971E1,3.769360208E0,1.270836657E1,-5.656122798E0,1.441188337E1
1.613750771E1,4.622832668E0,1.079690709E1,-6.922302264E0,1.363312339E1
1.614744671E1,4.349230338E0,9.965568681E0,-5.154597756E0,1.203321410E1
1.615738571E1,3.724629008E0,1.003041079E1,-2.671061904E0,1.102799046E1
1.616732471E1,2.987529003E0,1.031369787E1,-5.581914322E-1,1.075217517E1
1.617726271E1,2.081515655E0,1.043623914E1,8.351180506E-1,1.067451249E1
1.618720171E1,1.534771756E0,1.052944609E1,1.493187089E0,1.074496938E1
1.619714071E1,1.237414527E0,1.050071989E1,2.046528987E0,1.076961438E1
1.620707871E1,7.816649978E-1,1.045505898E1,2.551254795E0,1.079018811E1
1.621701771E1,3.265571270E-1,1.040778892E1,3.135452449E0,1.087473089E1
1.622695671E1,2.435533427E-1,1.031841072E1,3.439530467E0,1.087930549E1
1.623689471E1,3.163004529E-1,1.001374974E1,3.803666992E0,1.071648787E1
1.624683371E1,7.578925578E-1,9.364038125E0,4.013958594E0,1.021623584E1
1.625677271E1,9.764891070E-1,8.684467705E0,3.997147849E0,9.609927223E0
1.626671171E1,1.192758026E0,7.951231540E0,3.681918606E0,8.843148723E0
1.627664971E1,1.537974714E0,7.010834371E0,1.811703490E0,7.402664003E0
1.628658871E1,8.924948774E-1,2.446156940E0,-8.138211463E0,8.544630870E0
1.629652771E1,-2.258098791E0,-1.166208685E1,-2.458335287E1,2.730282986E1
1.630646571E1,-3.614671241E0,-1.592901762E1,-9.857375311E0,1.907792700E1
1.631640471E1,-6.431300456E0,-1.289926763E1,1.936117300E1,2.413726892E1
1.632634371E1,-1.203626421E1,-3.170524283E1,1.448939571E1,3.687867496E1
1.633628271E1,-5.011447976E0,-9.141740902E1,-5.870558205E1,1.087593796E2
1.634622071E1,1.738220274E1,-8.624776872E1,-2.863470383E1,9.252440134E1
1.635615971E1,2.035095107E1,-4.522381597E1,1.807116262E1,5.278183076E1
1.636609871E1,5.937816505E0,-2.621872086E1,-2.865457267E-2,2.688270465E1
1.637603671E1,-5.414181386E0,-1.628979551E1,-8.611133096E-1,1.718756277E1
1.638597571E1,-8.317636199E0,-9.170477745E0,2.159105430E0,1.256751647E1
1.639591471E1,-5.480611019E0,-2.253353190E-1,-8.260057497E0,9.915463832E0
1.640585371E1,-3.271853372E0,4.168794619E0,-9.155932796E0,1.057898759E1
1.641579171E1,-3.281620561E0,2.873298967E0,-3.195844831E0,5.407245570E0
1.642573071E1,-3.313093492E0,2.497018361E-1,-1.468056926E0,3.632372590E0
1.643566971E1,-2.976629793E0,-1.190194899E0,-2.496157943E0,4.062966072E0
1.644560771E1,-2.438144208E0,-1.239110366E0,-2.953775366E0,4.025509979E0
1.645554671E1,-1.406160640E0,-1.187313391E0,-3.617970532E0,4.059151587E0
1.646548571E1,-2.231882215E-2,-1.413523453E0,-3.866061168E0,4.116427533E0
1.647542471E1,9.787234743E-1,-1.783705414E0,-2.896179999E0,3.539401536E0
1.648536271E1,1.255403925E0,-1.184580402E0,-1.899168043E0,2.566341559E0
1.649530171E1,1.029956778E0,-9.897581935E-3,-1.316476046E0,1.671531665E0
1.650524071E1,5.205431110E-1,1.530875902E0,-1.100288988E0,1.955807254E0
1.651517871E1,-5.809980583E-1,3.334358354E0,-1.094878559E0,3.557283153E0
1.652511771E1,-1.775284254E0,4.649560876E0,-1.030174148E0,5.082451111E0
1.653505671E1,-2.211188626E0,5.699819040E0,-7.873828438E-1,6.164192078E0
1.654499571E1,-2.100072525E0,6.604516618E0,-3.820567784E-1,6.940886957E0
