"Time (s)","Linear Acceleration x (m/s^2)","Linear Acceleration y (m/s^2)","Linear Acceleration z (m/s^2)","Absolute acceleration (m/s^2)"
5.880999997E-3,-3.291525452E0,-4.213303040E0,-3.995715866E0,6.674714046E0
1.582000000E-2,-3.707879074E0,-1.892560104E0,-3.302495706E0,5.313814907E0
2.575900000E-2,-3.664512907E0,3.857583582E-2,-2.463829857E0,4.415948427E0
3.569900000E-2,-3.301489985E0,2.093741745E0,-1.432679955E0,4.163671753E0
4.563800000E-2,-2.889283501E0,3.890342023E0,-2.353479449E-1,4.851608894E0
5.557700000E-2,-2.429905628E0,5.459624777E0,3.777720849E-1,5.987875735E0
6.551600000E-2,-1.948331578E0,6.708798786E0,7.486378773E-1,7.025982903E0
7.545600000E-2,-1.338251077E0,7.881187159E0,1.047579263E0,8.062347629E0
8.539500000E-2,-8.030889036E-1,9.028792693E0,1.124260672E0,9.133893548E0
9.533400000E-2,-2.299360545E-1,1.004879795E1,1.336594122E0,1.013990605E1
1.052730000E-1,5.442003608E-1,1.092596099E1,1.669068997E0,1.106609998E1
1.152130000E-1,1.069974976E0,1.189584216E1,1.807037559E0,1.207978857E1
1.251520000E-1,1.535855537E0,1.270544764E1,2.110910632E0,1.297085948E1
1.350910000E-1,1.905078554E0,1.320876193E1,2.557326836E0,1.358825362E1
1.450300000E-1,2.008921304E0,1.337821891E1,3.040330237E0,1.386564510E1
1.549690000E-1,2.055578576E0,1.357423746E1,3.613618157E0,1.419660389E1
1.649090000E-1,2.233134250E0,1.364353983E1,4.119553169E0,1.442580279E1
1.748480000E-1,2.167411838E0,1.358738902E1,4.430839050E0,1.445500429E1
1.847870000E-1,1.831013628E0,1.347379399E1,4.723020323E0,1.439453564E1
1.947260000E-1,9.481879985E-1,1.300817319E1,5.080685441E0,1.399732099E1
2.046660000E-1,-6.663698919E-2,1.192068113E1,5.257267261E0,1.302865834E1
2.146050000E-1,-4.969162667E-1,1.071649852E1,5.347594464E0,1.198695261E1
2.245440000E-1,-8.189991774E-1,9.816815515E0,5.576439866E0,1.131977509E1
2.344830000E-1,-1.205956873E0,9.080733510E0,5.798380877E0,1.084136863E1
2.444230000E-1,-1.590546299E0,8.500669836E0,6.051696292E0,1.055529503E1
2.543620000E-1,-1.957565647E0,8.068888044E0,6.273447853E0,1.040649631E1
2.643010000E-1,-2.190763132E0,7.745762136E0,6.404696209E0,1.028671025E1
2.742400000E-1,-2.235532339E0,7.541249337E0,6.564378991E0,1.024495573E1
2.841790000E-1,-1.910595402E0,7.539596913E0,6.527790624E0,1.015420833E1
2.941190000E-1,-1.101860354E0,7.813667606E0,6.493087399E0,1.021898633E1
3.040580000E-1,-5.932473904E-1,8.133705599E0,6.424768531E0,1.038204026E1
3.139970000E-1,-2.698371617E-1,8.339963207E0,6.265391559E0,1.043469836E1
3.239360000E-1,7.091707796E-2,8.488659071E0,6.257285564E0,1.054589895E1
3.338760000E-1,2.565378159E-1,8.501122996E0,6.245855427E0,1.055204311E1
3.438150000E-1,2.422309218E-1,8.289121667E0,6.217822121E0,1.036482155E1
3.537540000E-1,-2.299573968E-1,7.824244634E0,6.336649237E0,1.007098843E1
3.636930000E-1,-9.342407812E-1,7.259097793E0,6.599053565E0,9.854684904E0
3.736330000E-1,-1.459271923E0,6.804311299E0,6.791448010E0,9.723779762E0
3.835720000E-1,-2.150347909E0,6.130173528E0,6.852317525E0,9.442313226E0
3.935110000E-1,-3.071746450E0,5.214359808E0,6.702879065E0,9.030712166E0
4.034500000E-1,-4.171116841E0,3.989837660E0,6.387296065E0,8.608982012E0
4.133890000E-1,-5.515131810E0,2.327279538E0,5.838067684E0,8.361575402E0
4.233290000E-1,-6.917331546E0,5.213260531E-2,4.774131128E0,8.405029539E0
4.332680000E-1,-8.204422410E0,-2.665999970E0,2.969891462E0,9.123615413E0
4.432070000E-1,-8.883787007E0,-6.262748033E0,4.754192707E-1,1.087978437E1
4.531460000E-1,-8.812870806E0,-1.157144565E1,-3.239424422E0,1.490164141E1
4.630860000E-1,-6.665236444E0,-2.461234805E1,-2.208107903E1,3.373080350E1
4.730250000E-1,-3.394926445E0,-4.554310668E1,-5.222941182E1,6.938019567E1
4.829640000E-1,-4.690217151E0,-3.800508443E1,-2.596473652E1,4.626610122E1
4.929030000E-1,-1.078730012E0,-1.953076681E1,3.217222252E0,1.982334557E1
5.028420000E-1,-4.932884202E0,-9.263110505E0,2.024270976E0,1.068813528E1
5.127820000E-1,-6.632549340E0,-2.637878956E0,-2.037931826E0,7.423091152E0
5.227210000E-1,-5.595764914E0,9.446293831E-2,-2.949210445E0,6.326084924E0
5.326600000E-1,-3.157717769E0,1.190449253E0,-1.336495158E0,3.629679083E0
5.425990000E-1,-9.410371462E-1,1.520652046E0,-1.252866526E0,2.183485307E0
5.525390000E-1,-6.237189853E-1,2.570121421E0,1.538572007E-1,2.649192618E0
5.624780000E-1,-1.405214560E-1,2.209158765E0,2.193319827E-1,2.224462912E0
5.724170000E-1,2.721656692E-1,7.001391703E-1,-2.139920130E0,2.267934561E0
5.823560000E-1,1.521197006E-1,-3.968037486E-2,-2.264869866E0,2.270319459E0
5.922960000E-1,-3.373896056E-1,-5.640621829E-1,-1.835497127E0,1.949627553E0
6.022348750E-1,-7.754244107E-1,-8.589314210E-1,-2.222171159E0,2.505412314E0
6.121738750E-1,-1.044310961E0,-6.797353113E-1,-2.514521416E0,2.806322047E0
6.221128750E-1,-1.096515487E0,-3.325732541E-1,-2.069172329E0,2.365253752E0
6.320518750E-1,-7.999148887E-1,6.649453640E-3,-1.427315281E0,1.636195879E0
6.419918750E-1,-2.725562632E-1,8.158924055E-1,6.173379189E-1,1.058807556E0
6.519308750E-1,-3.517509520E-2,9.894050217E-1,1.291129535E0,1.627014155E0
6.618698750E-1,1.498723233E-1,8.207181126E-1,-8.477819502E-2,8.385864749E-1
6.718088750E-1,6.256503206E-1,3.501897454E-1,-1.042912892E0,1.265598073E0
6.817488750E-1,1.314644113E0,2.933887231E-1,-3.406891894E-1,1.389401026E0
6.916878750E-1,1.549078869E0,-3.921844482E-2,5.044100583E-2,1.550395990E0
7.016268750E-1,1.202317931E0,-8.759093964E-1,-6.759281892E-1,1.633910828E0
7.115658750E-1,9.502865642E-1,-1.372376597E0,-1.096313174E0,1.997089045E0
7.215048750E-1,1.126408793E0,-1.476509076E0,-1.083059290E0,2.149858890E0
7.314448750E-1,1.448474600E0,-1.609440261E0,-1.279440951E0,2.515024010E0
7.413838750E-1,1.835080805E0,-1.521077138E0,-1.338594893E0,2.733684969E0
7.513228750E-1,2.307217741E0,-9.576990795E-1,-1.432914575E0,2.879875937E0
7.612618750E-1,2.660787177E0,1.420247751E-1,-8.422656870E-1,2.794525170E0
7.712018750E-1,2.625141966E0,1.164539655E0,1.639145871E0,3.306708656E0
7.811408750E-1,2.163784372E0,7.163149077E-1,9.714125544E-1,2.477642469E0
7.910798750E-1,1.977097979E0,3.683283931E-1,-6.657850242E-1,2.118455079E0
8.010188750E-1,1.678605221E0,-2.604174435E-2,-1.029746132E0,1.969459509E0
8.109588750E-1,1.817511676E0,-8.164847285E-1,-1.622326940E0,2.569424197E0
8.208978750E-1,2.051733009E0,-1.175799639E0,-2.085041673E0,3.152699146E0
8.308368750E-1,2.179169565E0,-1.321604639E0,-1.984630947E0,3.230197952E0
8.407758750E-1,2.207992830E0,-1.297914060E0,-1.601480739E0,3.020687637E0
8.507148750E-1,2.209120758E0,-1.287621791E0,-1.216559409E0,2.831642844E0
8.606548750E-1,2.365509219E0,-1.320819358E0,-8.930490473E-1,2.852671422E0
8.705938750E-1,2.438835642E0,-1.489174730E0,-7.546983701E-1,2.955525383E0
8.805328750E-1,2.250141315E0,-1.599024031E0,-7.079492962E-1,2.849772973E0
8.904718750E-1,2.070087419E0,-1.789786518E0,-6.356677705E-1,2.809389830E0
9.004118750E-1,2.054226261E0,-2.184456618E0,-1.014647452E0,3.165628800E0
9.103508750E-1,2.031189986E0,-2.602027338E0,-1.177140113E0,3.504559583E0
9.202898750E-1,1.729019330E0,-2.866610337E0,-1.309326363E0,3.594620730E0
9.302288750E-1,1.124945235E0,-2.970981383E0,-1.385467343E0,3.465797443E0
9.401678750E-1,6.440222722E-1,-3.295072666E0,-1.277959852E0,3.592415614E0
9.501078750E-1,2.182882547E-1,-3.626246096E0,-1.240171928E0,3.838663430E0
9.600468750E-1,-3.057748801E-1,-3.734920108E0,-1.192566237E0,3.932599740E0
9.699858750E-1,-6.805036354E-1,-3.580132615E0,-1.027208440E0,3.786237171E0
9.799248750E-1,-1.038546191E0,-3.125022771E0,-7.464561349E-1,3.376616986E0
9.898648750E-1,-1.424088787E0,-2.547995557E0,-2.742887932E-1,2.931815917E0
9.998038750E-1,-1.637305167E0,-1.901819755E0,1.544422147E-1,2.514267088E0
1.009742875E0,-1.840173145E0,-1.268816561E0,5.293349844E-1,2.297025945E0
1.019681875E0,-1.928803486E0,-6.763953817E-1,7.371175468E-1,2.172817497E0
1.029620875E0,-2.017350504E0,-2.134298033E-1,4.757429141E-1,2.083647440E0
1.039560875E0,-2.112104633E0,7.323988438E-2,-5.036791563E-2,2.113974217E0
1.049499875E0,-2.285802606E0,1.524141079E-1,-8.384380996E-1,2.439488074E0
1.059438875E0,-2.330952759E0,-6.699388862E-2,-1.393073986E0,2.716336517E0
1.069377875E0,-2.483291730E0,-6.654739523E-1,-1.487027340E0,2.969990523E0
1.079317875E0,-2.521610873E0,-1.421152900E0,-1.386685903E0,3.209531859E0
1.089256875E0,-2.202529777E0,-2.414439304E0,-8.523579812E-1,3.377450029E0
1.099195875E0,-1.835240434E0,-3.688110223E0,-1.390631604E-1,4.121844615E0
1.109134875E0,-1.694007664E0,-4.966686956E0,2.980919310E-1,5.256091712E0
1.119073875E0,-1.637145831E0,-6.152676537E0,4.725544274E-1,6.384276210E0
1.129013875E0,-1.905452045E0,-7.503721907E0,4.471032518E-1,7.754772161E0
1.138952875E0,-2.784673305E0,-8.884909673E0,3.650866967E-1,9.318224810E0
1.148891875E0,-3.464549534E0,-1.024108247E1,2.486861748E-1,1.081409813E1
1.158830875E0,-4.182649596E0,-1.190592042E1,2.776755005E-2,1.261928166E1
1.168770875E0,-5.206441509E0,-1.370239790E1,-1.027548748E-1,1.465855723E1
1.178709875E0,-6.138461956E0,-1.545369279E1,4.754254103E-2,1.662827701E1
1.188648875E0,-6.463898098E0,-1.712491941E1,-1.914708772E-1,1.830523161E1
1.198587875E0,-7.162647386E0,-1.774065226E1,-1.066201767E0,1.916170782E1
1.208526875E0,-7.515232151E0,-1.785395844E1,-1.699145320E0,1.944555582E1
1.218466875E0,-7.725447155E0,-1.625814570E1,-1.889580363E0,1.809918090E1
1.228405875E0,-7.271299177E0,-1.305123911E1,-1.516743767E0,1.501689534E1
1.238344875E0,-6.596429919E0,-9.821779801E0,-7.347032315E-1,1.185411469E1
1.248283875E0,-5.486227269E0,-6.731191868E0,-1.186660257E-1,8.684567648E0
1.258223875E0,-4.265147670E0,-3.617412708E0,1.922120118E-1,5.595900714E0
1.268162875E0,-3.285315417E0,-7.798525071E-1,4.310427046E-1,3.404007217E0
1.278101875E0,-2.512057984E0,1.725306348E0,8.264279187E-1,3.157546582E0
1.288040875E0,-1.810143307E0,3.662568415E0,1.190760909E0,4.255459756E0
1.297979875E0,-8.880318439E-1,5.105762395E0,1.304840964E0,5.344157570E0
1.307919875E0,-5.834117889E-2,6.442120728E0,1.307961038E0,6.573818164E0
1.317858875E0,3.756958848E-1,7.923056731E0,1.347677081E0,8.045632907E0
1.327797875E0,5.564075929E-1,9.361945406E0,1.400660748E0,9.482481834E0
1.337736875E0,5.400985390E-1,1.066918051E1,1.341165183E0,1.076670067E1
1.347676875E0,4.285278171E-1,1.139504919E1,1.096897895E0,1.145573948E1
1.357615875E0,8.115935326E-4,1.170532701E1,4.354960902E-1,1.171342554E1
1.367554875E0,-1.152888201E0,1.211425320E1,-1.341373198E-1,1.216972780E1
1.377493875E0,-2.186841697E0,1.309922136E1,-5.347208548E-1,1.329126793E1
1.387433875E0,-2.292652327E0,1.466883272E1,-5.113285569E-1,1.485571826E1
1.397372875E0,-1.430041545E0,1.582213988E1,-6.227788261E-1,1.589883589E1
1.407311875E0,-3.468746665E-1,1.630390016E1,-1.228922178E0,1.635382928E1
1.417250875E0,2.312383756E-1,1.704753151E1,-1.772096937E0,1.714094890E1
1.427189875E0,5.090439767E-1,1.755231462E1,-2.236240729E0,1.770151538E1
1.437129875E0,7.476287940E-1,1.781319282E1,-2.500024999E0,1.800330282E1
1.447068875E0,1.055631463E0,1.752915730E1,-2.606246688E0,1.775325985E1
1.457007875E0,1.019574608E0,1.719571632E1,-2.643294647E0,1.742754139E1
1.466946875E0,1.063574613E0,1.646368118E1,-2.668438843E0,1.671240721E1
1.476886875E0,9.066058168E-1,1.545460027E1,-2.510595596E0,1.568342099E1
1.486825875E0,7.338195710E-1,1.441007472E1,-2.169349751E0,1.459091577E1
1.496764875E0,8.059707038E-1,1.319130448E1,-1.837501552E0,1.334303244E1
1.506703875E0,1.033576497E0,1.212767724E1,-1.465199976E0,1.225951249E1
1.516642875E0,1.312170449E0,1.129577165E1,-9.821193910E-1,1.141406181E1
1.526582875E0,1.594690221E0,1.064379424E1,-4.553752347E-1,1.077222165E1
1.536521875E0,1.902203478E0,1.014835498E1,9.548042692E-2,1.032553163E1
1.546460875E0,2.212602337E0,9.754616343E0,6.327038900E-1,1.002239808E1
1.556399875E0,2.451926534E0,9.468210949E0,1.120382725E0,9.844502007E0
1.566339875E0,2.612953445E0,9.238602485E0,1.553684721E0,9.725905500E0
1.576278875E0,2.707432171E0,9.041327369E0,2.010382669E0,9.649737200E0
1.586217875E0,2.650712425E0,8.812732812E0,2.518365376E0,9.541105813E0
1.596157208E0,2.419742875E0,8.602583297E0,3.023778816E0,9.434131295E0
1.606096208E0,2.056479340E0,8.438467156E0,3.486257614E0,9.358997135E0
1.616036208E0,1.717630123E0,8.317747296E0,3.933195097E0,9.359764794E0
1.625975208E0,1.461471937E0,8.168287202E0,4.461220890E0,9.421215838E0
1.635914208E0,9.729705450E-1,7.934377525E0,4.998620939E0,9.428002423E0
1.645853208E0,-2.089736402E-1,7.439503691E0,5.050171162E0,8.994115516E0
1.655793208E0,-3.911346099E0,5.863348705E0,4.433749794E0,8.326801522E0
1.665732208E0,-8.968025504E0,2.946720116E0,4.518671246E0,1.046551627E1
1.675671208E0,-1.333312636E1,-9.503982460E-1,2.674615842E0,1.363191421E1
1.685610208E0,-1.524773631E1,-4.808685833E0,3.222529185E-1,1.599127165E1
1.695549208E0,-1.488644855E1,-7.965655451E0,-2.003435007E0,1.700211072E1
1.705489208E0,-1.197050058E1,-1.007270254E1,-4.333733170E0,1.623371380E1
1.715428208E0,-8.220669483E0,-1.158572221E1,-5.496622449E0,1.523224292E1
1.725367208E0,-4.788968145E0,-1.849149673E1,-1.033279137E1,2.171718777E1
1.735306208E0,3.009328008E0,-3.911823290E1,-2.580957481E1,4.696196708E1
1.745246208E0,5.220217549E0,-4.738862360E1,-1.761690764E1,5.082605388E1
1.755185208E0,3.947160295E0,-3.098481674E1,-2.834266756E0,3.136354589E1
1.765124208E0,8.011958967E0,-1.795657357E1,-4.724940841E0,2.022263798E1
1.775063208E0,3.445236180E0,-8.260466217E0,-2.859005156E0,9.395683315E0
1.785002208E0,-1.213230005E-1,-2.516315342E0,1.024728636E0,2.719674787E0
1.794942208E0,-1.192613892E0,8.539975405E-2,-4.616663271E-1,1.281700749E0
1.804881208E0,-1.561296042E0,3.733540750E-1,-2.847548707E0,3.268879354E0
1.814820208E0,-2.317762610E0,2.167044194E0,-2.968067423E0,4.344827762E0
1.824759208E0,-3.317908382E0,2.782681158E0,-2.377659148E-1,4.336860972E0
1.834698208E0,-5.854274411E0,2.063959537E0,-3.032321014E0,6.908504077E0
1.844638208E0,-7.326674064E0,2.557513654E-1,-4.238326199E0,8.468114936E0
1.854577208E0,-4.547658525E0,4.870730639E-3,-2.051871588E0,4.989128060E0
1.864516208E0,-1.765668508E0,6.831723046E-1,-3.590283966E-1,1.926969400E0
1.874455208E0,-9.552771628E-2,1.049707357E0,-1.033771355E0,1.476378777E0
1.884395208E0,1.004579716E0,1.524373798E0,-1.120181508E0,2.141892269E0
1.894334208E0,1.579939304E0,1.415944785E0,-1.434944728E0,2.561283704E0
1.904273208E0,1.266502817E0,1.096816034E0,-1.184704948E0,2.051965061E0
1.914212208E0,1.502711034E0,9.187320650E-2,-3.166309376E0,3.506008585E0
1.924152208E0,1.000726401E0,-3.509083682E-1,-2.461154464E0,2.679901361E0
1.934091208E0,8.537782699E-1,-6.891990298E-1,-1.781170061E0,2.092008466E0
1.944030208E0,1.115038882E0,-1.541700268E-1,-1.052282470E0,1.540901847E0
1.953969208E0,1.256078401E0,1.460861342E0,1.872797685E0,2.686860618E0
1.963908208E0,1.670697446E0,9.711248714E-1,8.952379525E-1,2.129733426E0
1.973848208E0,2.057818791E0,5.954149532E-1,5.037516618E-1,2.200659646E0
1.983787208E0,2.332004673E0,6.127969712E-1,1.067229708E0,2.636805865E0
1.993726208E0,2.255416673E0,4.582989156E-2,7.696397603E-1,2.383558287E0
2.003665208E0,2.139578653E0,-5.563806957E-1,2.866223252E-1,2.229239478E0
2.013604208E0,2.210838085E0,-9.857493424E-1,4.867690086E-2,2.421131192E0
2.023544208E0,2.462503417E0,-4.637783414E-1,-1.173232126E-1,2.508541043E0
2.033483208E0,2.559125147E0,-3.764203548E-2,-8.563364267E-2,2.560834153E0
2.043422208E0,2.434326269E0,5.296285146E-1,7.213593006E-1,2.593609452E0
2.053361208E0,2.015896593E0,2.439271259E-1,1.765163308E0,2.690565187E0
2.063301208E0,2.207055522E0,-1.187647267E0,-3.484443516E-1,2.530417668E0
2.073240208E0,2.057111278E0,-1.886877780E0,-9.245810348E-1,2.940555161E0
2.083179208E0,2.131579662E0,-1.879280493E0,-5.935344887E-1,2.903034656E0
2.093118208E0,2.139447675E0,-2.116640611E0,2.458672321E-1,3.019578535E0
2.103057208E0,2.097474023E0,-2.904962225E0,1.108850481E0,3.750700227E0
2.112997208E0,1.712852363E0,-3.784232016E0,7.990421918E-1,4.229981512E0
2.122936208E0,1.675695646E0,-4.723048097E0,2.657851875E-2,5.011571176E0
2.132875208E0,1.543577224E0,-5.502492469E0,-7.556546822E-1,5.764639452E0
2.142814208E0,1.958827769E0,-5.912931340E0,-1.628167431E0,6.438221217E0
2.152754208E0,2.197984151E0,-5.567125252E0,-2.847883168E0,6.628307207E0
2.162693208E0,2.035415769E0,-4.667646899E0,-4.320487473E0,6.678057871E0
2.172632208E0,1.658508341E0,-3.749139367E0,-5.324342426E0,6.719770694E0
2.182571208E0,1.334905300E0,-3.067840510E0,-5.536031513E0,6.468482239E0
2.192510208E0,1.410073596E0,-2.488667952E0,-4.830059453E0,5.613488224E0
2.202450208E0,1.654238704E0,-1.756962004E0,-3.924105308E0,4.606736767E0
2.212389208E0,1.921272857E0,-1.229198751E0,-3.422821756E0,4.113140860E0
2.222328208E0,2.207999847E0,-9.700349504E-1,-3.081875582E0,3.913334669E0
2.232267208E0,2.415305277E0,-9.644052511E-1,-2.318409019E0,3.484077704E0
2.242206208E0,2.579040179E0,-1.018876743E0,-1.817151780E0,3.315357997E0
2.252146208E0,2.649471061E0,-1.261083033E0,-1.492743285E0,3.292158841E0
2.262085208E0,2.721896428E0,-1.556043488E0,-1.151472298E0,3.340041909E0
2.272024208E0,2.514720222E0,-1.951400635E0,-5.308646160E-1,3.227010919E0
2.281963208E0,2.539566795E0,-2.406558427E0,-1.889790863E-1,3.503803086E0
2.291903208E0,1.986352659E0,-2.855543312E0,4.141819659E-1,3.503037424E0
2.301842208E0,1.651064543E0,-3.499419404E0,6.828711730E-1,3.929155549E0
2.311781208E0,1.247471300E0,-4.154888771E0,9.074855304E-1,4.432021585E0
2.321720208E0,4.325208807E-1,-4.412804775E0,4.468146917E-1,4.456407035E0
2.331659208E0,-1.168870103E-1,-5.060027813E0,-3.667379504E-1,5.074646862E0
2.341599208E0,-8.114938375E-1,-5.857899685E0,-3.543786907E-1,5.924448938E0
2.351538208E0,-1.793974879E0,-6.094532994E0,-5.781887636E-1,6.379340133E0
2.361477208E0,-2.366314380E0,-6.366327950E0,-5.712706304E-1,6.815858379E0
2.371416208E0,-3.847583089E0,-6.539594983E0,-2.479893621E0,7.982485236E0
2.381356208E0,-5.032898487E0,-7.394154441E0,-3.206245566E0,9.501768136E0
2.391295208E0,-5.243926839E0,-8.195345777E0,-1.288450049E0,9.814405974E0
2.401234208E0,-4.647461725E0,-9.225531619E0,5.652661246E-1,1.034547534E1
2.411173208E0,-4.972021955E0,-1.063168349E1,9.335839927E-2,1.173722335E1
2.421112208E0,-6.126078722E0,-1.111680475E1,-3.013771892E-1,1.269657499E1
2.431052208E0,-6.592031643E0,-1.166865678E1,-5.882474363E-1,1.341485994E1
2.440991208E0,-7.649028139E0,-1.200951554E1,-1.023316534E0,1.427526783E1
2.450930208E0,-8.487893085E0,-1.224492444E1,-1.459058645E0,1.497034922E1
2.460869208E0,-8.344639226E0,-1.232906938E1,-1.323171985E0,1.494622828E1
2.470808208E0,-8.432712911E0,-1.216499417E1,-8.655159706E-1,1.482723333E1
2.480748208E0,-9.017792326E0,-1.089374283E1,-5.657467657E-1,1.415324276E1
2.490687208E0,-8.534751502E0,-8.305677474E0,-1.581601667E-1,1.191013334E1
2.500626208E0,-7.649683027E0,-5.378348479E0,2.675899306E-1,9.354992632E0
2.510565208E0,-6.126285714E0,-2.652665395E0,9.311872190E-1,6.740557839E0
2.520504208E0,-4.921528909E0,-4.899534023E-1,1.649567948E0,5.213691164E0
2.530444208E0,-4.232276670E0,1.372699948E0,1.917366039E0,4.844869811E0
2.540383208E0,-3.728589912E0,2.967654902E0,2.148923088E0,5.227545197E0
2.550322208E0,-3.074070718E0,4.629869792E0,2.272297584E0,6.004077064E0
2.560261208E0,-2.424189097E0,6.209758810E0,2.369845514E0,7.074882686E0
2.570201208E0,-1.528370370E0,7.035756959E0,2.696076293E0,7.688082944E0
2.580140208E0,-5.740667689E-1,8.077805632E0,2.510359368E0,8.478348934E0
2.590079208E0,3.810134889E-1,9.095292492E0,2.679330744E0,9.489379855E0
2.600018500E0,1.257033252E0,1.004940606E1,2.517412280E0,1.043590242E1
2.609957500E0,1.867653158E0,1.082468838E1,2.303739525E0,1.122360115E1
2.619897500E0,2.271493592E0,1.145505682E1,2.043755945E0,1.185558722E1
2.629836500E0,2.555594013E0,1.159122444E1,1.610435457E0,1.197835745E1
2.639775500E0,2.756896984E0,1.134291190E1,1.186402102E0,1.173327241E1
2.649714500E0,2.678731112E0,1.109266160E1,8.053814507E-1,1.143990301E1
2.659654500E0,2.651590092E0,1.089149984E1,5.601737845E-1,1.122361321E1
2.669593500E0,2.603852254E0,1.076366333E1,4.131502247E-1,1.108184046E1
2.679532500E0,2.397150549E0,1.111001847E1,1.650226052E-1,1.136688496E1
2.689471500E0,2.209010246E0,1.178707459E1,1.626976061E-1,1.199338668E1
2.699410500E0,2.519659950E0,1.209737931E1,9.247254610E-2,1.235733885E1
2.709350500E0,2.741225861E0,1.202503522E1,-2.515121341E-2,1.233354871E1
2.719289500E0,2.793342971E0,1.216239801E1,-1.169947453E-1,1.247959847E1
2.729228500E0,2.769929550E0,1.235388496E1,-1.682711720E-2,1.266061873E1
2.739167500E0,2.463876927E0,1.262025721E1,1.435598154E-1,1.285932312E1
2.749107500E0,2.262619858E0,1.278748407E1,3.279773426E-1,1.299025660E1
2.759046500E0,2.177832600E0,1.280843815E1,5.398243046E-1,1.300347850E1
2.768985500E0,1.947718936E0,1.273226764E1,6.944347729E-1,1.289908865E1
2.778924500E0,1.828354460E0,1.224804568E1,1.040558803E0,1.242739980E1
2.788863500E0,1.962998587E0,1.141284694E1,1.343691034E0,1.165812782E1
2.798803500E0,2.166369133E0,1.074030370E1,1.596392784E0,1.107229646E1
2.808742500E0,2.363656821E0,1.022865596E1,1.805395807E0,1.065231104E1
2.818681500E0,2.583030903E0,9.798969228E0,2.063226442E0,1.034160287E1
2.828620500E0,2.752809488E0,9.466779551E0,2.307262472E0,1.012528198E1
2.838559500E0,2.832779225E0,9.195838873E0,2.568837957E0,9.959268004E0
2.848499500E0,2.854740197E0,8.939578215E0,2.800582701E0,9.793307089E0
2.858438500E0,2.838873778E0,8.726263602E0,2.987899424E0,9.650617791E0
2.868377500E0,2.793177203E0,8.573282899E0,3.192032155E0,9.565149650E0
2.878316500E0,2.725268225E0,8.449905480E0,3.398337125E0,9.506665279E0
2.888256500E0,2.592951874E0,8.302860870E0,3.593617171E0,9.411428288E0
2.898195500E0,2.275836904E0,8.120232444E0,3.635937856E0,9.183553379E0
2.908134500E0,1.650863983E0,7.755397178E0,3.476897099E0,8.657964583E0
2.918073500E0,7.136763516E-1,7.146868089E0,3.220107268E0,7.871222792E0
2.928012500E0,-8.317684731E-1,6.125080018E0,3.090789370E0,6.910963967E0
2.937952500E0,-4.034644874E0,3.650603843E0,2.806051894E0,6.122025393E0
2.947891500E0,-8.192563671E0,3.686757177E-1,2.285514046E0,8.513377458E0
2.957830500E0,-1.131948913E1,-3.655125495E0,1.333957466E0,1.196955383E1
2.967769500E0,-1.269589445E1,-8.786029748E0,-8.932691950E-1,1.546538020E1
2.977708500E0,-1.283717956E1,-1.336761440E1,-3.330100411E0,1.883018488E1
2.987648500E0,-1.117647676E1,-1.796873928E1,-4.613746095E0,2.165815960E1
2.997587500E0,-9.745217528E0,-2.672845071E1,-6.378129385E0,2.915578633E1
3.007526500E0,-7.205338492E0,-3.534965096E1,-1.087239815E1,3.767922196E1
3.017465500E0,-2.471000006E0,-3.401223136E1,-1.912182658E1,3.909708397E1
3.027404500E0,4.265080134E0,-2.468361859E1,-2.335346824E1,3.424699132E1
3.037344500E0,4.154129802E0,-1.348593632E1,-1.590195905E1,2.126028162E1
3.047283500E0,-7.535990936E-1,-3.702738787E0,6.511623073E-1,3.834344594E0
3.057222500E0,-1.508058313E-1,1.772567053E0,6.182172816E0,6.433039491E0
3.067161500E0,1.220598666E0,2.053169670E0,1.002154291E0,2.590305005E0
3.077101500E0,6.939539856E-1,1.310372722E-1,-5.920822742E0,5.962791699E0
3.087040500E0,1.000324112E-1,-8.743019968E-1,-6.849060625E0,6.905363272E0
3.096979500E0,9.661354423E-3,6.309730411E-3,-4.319977303E0,4.319992715E0
3.106918500E0,-9.011056334E-2,7.059302527E-1,-2.625034377E0,2.719790969E0
3.116857500E0,-6.541303539E-1,1.180249370E0,-1.300435379E0,1.874035024E0
3.126797500E0,-1.159318092E0,1.324746348E0,-5.094445109E-1,1.832622447E0
3.136736500E0,-1.549651312E0,1.039646053E0,6.483433646E-1,1.975508092E0
3.146675500E0,-2.101403644E0,7.832286894E-1,1.165621975E0,2.527453074E0
3.156614500E0,-2.593337790E0,5.862944663E-1,1.921736541E0,3.280581264E0
3.166553500E0,-2.850512368E0,1.500915939E-1,8.907712644E-1,2.990221011E0
3.176493500E0,-2.980801781E0,-1.046891338E-1,3.059228146E-1,2.998287485E0
3.186432500E0,-2.481756544E0,6.001991451E-2,6.213309824E-1,2.559056490E0
3.196371500E0,-1.757140929E0,-1.237224054E-1,3.275855792E-1,1.791692995E0
3.206310500E0,-1.329556852E0,-1.916559416E-1,1.003165859E-1,1.347040029E0
3.216250500E0,-5.282064718E-1,2.106108606E-2,9.379343212E-2,5.368825329E-1
3.226189500E0,1.044955909E-2,5.802724189E-1,6.819929212E-1,8.955108140E-1
3.236128500E0,3.518269658E-1,3.322627670E-1,3.137516516E-1,5.767329183E-1
3.246067500E0,6.711685556E-1,1.530309892E-1,2.384085238E-1,7.285082964E-1
3.256006500E0,1.072526116E0,3.852835643E-1,5.133527899E-1,1.249914709E0
3.265946500E0,1.643464040E0,9.303855658E-1,1.995924551E0,2.747782045E0
3.275885500E0,1.919342691E0,1.303660119E-1,1.533095505E0,2.459929570E0
3.285824500E0,2.039152724E0,-6.590882081E-1,1.045592379E0,2.384492508E0
3.295763500E0,2.409224757E0,-1.415585182E0,7.860566953E-1,2.902779782E0
3.305702500E0,2.726553150E0,-2.375734245E0,3.622420263E-1,3.634477207E0
3.315642500E0,3.294096181E0,-2.408389775E0,7.379741639E-2,4.081281296E0
3.325581500E0,4.239953479E0,-1.765790715E0,1.737456277E-1,4.596238668E0
3.335520500E0,4.501625150E0,-2.425775886E-1,2.854071568E0,5.335653418E0
3.345459500E0,4.524452096E0,-2.105640829E-1,2.007262302E0,4.954200839E0
3.355399500E0,4.436387181E0,-1.996911269E0,3.594955891E-2,4.865231567E0
3.365338500E0,4.652920101E0,-3.426136250E0,-1.333658381E0,5.930153434E0
3.375277500E0,5.148492093E0,-4.609648951E0,-1.883523817E0,7.162645898E0
3.385216500E0,5.863678488E0,-5.893885789E0,-2.026905439E0,8.557392171E0
3.395155500E0,6.194462494E0,-6.804303698E0,-2.313502621E0,9.488003414E0
3.405095500E0,5.585719982E0,-6.440266576E0,-2.823238031E0,8.980421720E0
3.415034500E0,4.374384475E0,-4.980543687E0,-3.264293507E0,7.388955749E0
3.424973500E0,3.574492975E0,-3.539834189E0,-3.733149863E0,6.264489925E0
3.434912500E0,3.101878322E0,-2.585576196E0,-3.915968031E0,5.625091911E0
3.444851500E0,2.897214079E0,-1.923467901E0,-3.993778099E0,5.295643652E0
3.454791500E0,2.736400446E0,-1.857953943E0,-4.233184158E0,5.372125126E0
3.464730500E0,2.325834106E0,-1.962961750E0,-4.281878308E0,5.253304195E0
3.474669500E0,1.593597230E0,-2.280980700E0,-4.338417667E0,5.154055970E0
3.484608500E0,5.689902163E-1,-2.811923668E0,-4.307235051E0,5.175223509E0
3.494547500E0,-5.083013803E-1,-3.558987329E0,-4.082232731E0,5.439612594E0
3.504487500E0,-1.264328238E0,-4.158121111E0,-3.369185247E0,5.499082314E0
3.514426500E0,-2.005360203E0,-4.809982161E0,-2.547811662E0,5.800753589E0
3.524365500E0,-2.279247585E0,-5.391951442E0,-1.525754911E0,6.049465923E0
3.534304500E0,-2.618541629E0,-5.769286886E0,-5.479577816E-1,6.359378048E0
3.544244500E0,-2.691735320E0,-6.143223928E0,1.013758090E-1,6.707825007E0
3.554183500E0,-2.475834776E0,-6.610807053E0,8.482561594E-1,7.109997626E0
3.564122500E0,-2.634495757E0,-7.074892373E0,1.589874308E0,7.715074225E0
3.574061500E0,-2.046852630E0,-7.272033003E0,2.005648763E0,7.816309657E0
3.584000500E0,-2.155494482E0,-7.292587135E0,1.937356793E0,7.847377583E0
3.593940500E0,-2.064449826E0,-7.292348569E0,1.655223083E0,7.757581078E0
3.603879458E0,-2.739602382E0,-7.349734898E0,1.262823749E0,7.944730838E0
3.613818458E0,-2.663295925E0,-7.437795135E0,4.843143475E-1,7.915080672E0
3.623757458E0,-2.544605341E0,-7.921898398E0,-3.678834200E-1,8.328675091E0
3.633696458E0,-3.084843921E0,-8.391889406E0,-1.564937103E0,9.076844052E0
3.643636458E0,-3.329049959E0,-9.195667550E0,-2.488699527E0,1.009140727E1
3.653575458E0,-3.251129671E0,-1.003458688E1,-1.794404941E0,1.069965733E1
3.663514458E0,-3.354012600E0,-1.063322832E1,-1.143260468E0,1.120812159E1
3.673453458E0,-2.582018458E0,-1.147383223E1,-1.208234144E0,1.182266785E1
3.683392458E0,-3.028656564E0,-1.147120098E1,-2.769847982E0,1.218331935E1
3.693332458E0,-2.595465592E0,-1.116601141E1,-2.582418700E0,1.175096331E1
3.703271458E0,-2.335427341E0,-1.119490601E1,-1.980908024E0,1.160621118E1
3.713210458E0,-2.334266814E0,-1.128127289E1,-2.227588604E0,1.173362990E1
3.723149458E0,-2.555766799E0,-1.082617591E1,-3.036705256E0,1.153081123E1
3.733088458E0,-2.665391859E0,-9.683545191E0,-3.103849711E0,1.051233772E1
3.743028458E0,-2.546036739E0,-7.774079032E0,-2.037089534E0,8.430204128E0
3.752967458E0,-3.632523375E0,-5.430967573E0,-1.550039567E0,6.715151339E0
3.762906458E0,-4.292809385E0,-2.996693929E0,-1.088389319E0,5.347240244E0
3.772845458E0,-4.029893134E0,-4.301246917E-1,-7.502454230E-1,4.121639736E0
3.782785458E0,-3.881601605E0,1.969612373E0,-1.441525769E-1,4.355110089E0
3.792724458E0,-3.840994155E0,4.169864659E0,7.353385314E-1,5.716793693E0
3.802663458E0,-3.463314017E0,5.966973646E0,1.355671102E0,7.031156562E0
3.812602458E0,-3.532110602E0,7.590380566E0,1.324112802E0,8.476022484E0
3.822541458E0,-2.812542304E0,8.999165436E0,1.535625011E0,9.552670670E0
3.832481458E0,-2.094404819E0,1.026365973E1,1.865905279E0,1.064005852E1
3.842420458E0,-1.936798384E0,1.134105717E1,1.747245247E0,1.163716596E1
3.852359458E0,-1.876083381E0,1.221601931E1,1.419727642E0,1.244051620E1
3.862298458E0,-7.561737688E-1,1.374932064E1,1.024600728E0,1.380816510E1
3.872237458E0,-3.850366656E-1,1.441743987E1,2.089349024E-1,1.442409372E1
3.882177458E0,-1.505282347E0,1.264076807E1,-1.025000459E0,1.277127709E1
3.892116458E0,-1.627605075E0,1.238349176E1,-1.553981760E0,1.258629515E1
3.902055458E0,-1.396273436E0,1.323916745E1,-1.678352036E0,1.341797301E1
3.911994458E0,-7.789934050E-1,1.400584033E1,-1.888914950E0,1.415409459E1
3.921934458E0,-1.447353981E-1,1.436745670E1,-2.000344169E0,1.450676178E1
3.931873458E0,2.399594977E-1,1.480486703E1,-2.435444257E0,1.500576746E1
3.941812458E0,5.292313425E-1,1.518216213E1,-2.598356456E0,1.541199497E1
3.951751458E0,7.372533484E-1,1.548225760E1,-2.356123853E0,1.567785581E1
3.961690458E0,9.410340764E-1,1.554920822E1,-2.105037396E0,1.571924311E1
3.971630458E0,1.051206437E0,1.536076299E1,-1.842427247E0,1.550653452E1
3.981569458E0,9.260388918E-1,1.516637347E1,-1.681358675E0,1.528736077E1
3.991508458E0,8.961764306E-1,1.453766915E1,-1.432000655E0,1.463549051E1
4.001447458E0,9.014346854E-1,1.342069075E1,-1.342730044E0,1.351778268E1
4.011386458E0,7.960175733E-1,1.260389436E1,-1.444506680E0,1.271134913E1
4.021326458E0,8.312414928E-1,1.203911999E1,-1.508605027E0,1.216171294E1
4.031265458E0,9.604998958E-1,1.159129110E1,-1.441344506E0,1.171998564E1
4.041204458E0,1.024572954E0,1.114062280E1,-1.211822580E0,1.125307692E1
4.051143458E0,1.137395272E0,1.073055055E1,-8.868670785E-1,1.082704559E1
4.061082458E0,1.245735115E0,1.031343357E1,-5.379110956E-1,1.040231303E1
4.071022458E0,1.290945202E0,9.922680523E0,-1.800825842E-1,1.000792476E1
4.080961458E0,1.328860156E0,9.650021349E0,2.387535095E-1,9.744012756E0
4.090900458E0,1.335927540E0,9.395837038E0,7.418139573E-1,9.519282745E0
4.100839458E0,1.349040798E0,9.131998388E0,1.319480345E0,9.324930778E0
4.110778458E0,1.272470047E0,8.870071194E0,1.997835860E0,9.180887273E0
4.120718458E0,1.105765490E0,8.632713414E0,2.593741833E0,9.081517214E0
4.130657458E0,8.920917119E-1,8.389132444E0,2.967345876E0,8.943070632E0
4.140596458E0,5.980589180E-1,8.046941105E0,3.190111052E0,8.676851049E0
4.150535458E0,1.190241677E-1,7.548786982E0,3.385101660E0,8.273890555E0
4.160475458E0,-7.940837529E-1,6.881135527E0,3.277946756E0,7.663258451E0
4.170414458E0,-2.402572964E0,5.865164266E0,2.898439071E0,6.969466103E0
4.180353458E0,-5.402960579E0,3.889271983E0,2.395430006E0,7.075062155E0
4.190292458E0,-9.421458367E0,1.051149280E0,1.446928596E0,9.589702547E0
4.200231458E0,-1.253253377E1,-2.923757515E0,2.219059271E-1,1.287097522E1
4.210171458E0,-1.453937186E1,-7.682232138E0,-1.038629807E0,1.647691648E1
4.220110458E0,-1.513267012E1,-1.365536524E1,-2.087890436E0,2.048965572E1
4.230049458E0,-1.357754699E1,-2.564775896E1,-4.254684370E0,2.933018345E1
4.239988458E0,-8.788562762E0,-4.540786760E1,-5.038597768E0,4.652419524E1
4.249927458E0,-7.952713224E0,-4.151476336E1,-4.351153488E0,4.249298484E1
4.259867458E0,-4.393615383E0,-2.382157762E1,-5.330962644E0,2.480303568E1
4.269806458E0,3.880102087E0,-1.253908499E1,-7.448800764E0,1.509200045E1
4.279745458E0,1.306918889E1,-6.980062814E0,-1.547421885E1,2.142373507E1
4.289684458E0,1.112947333E1,-7.151413715E0,-2.329427103E1,2.678863486E1
4.299623458E0,2.723194217E0,-7.176901728E0,-2.327275796E1,2.450601902E1
4.309563458E0,-1.722055296E0,-4.059609561E0,-5.363571396E0,6.943615942E0
4.319502458E0,-2.191177115E0,3.905647695E-1,5.744743783E0,6.160834288E0
4.329441458E0,-4.957954139E0,1.884680981E0,9.360386539E-1,5.386046788E0
4.339380458E0,-3.967955040E0,1.332913154E0,-3.589325607E0,5.514035092E0
4.349319458E0,-3.141447307E0,-2.943576068E-1,-3.783629753E0,4.926580121E0
4.359259458E0,-2.641718237E0,-9.304089546E-1,-3.696955891E0,4.638083540E0
4.369198458E0,-2.147682602E0,-9.554280210E-1,-3.002666275E0,3.813317194E0
4.379137458E0,-2.421301596E0,-1.155696326E-1,-1.107449196E0,2.665051872E0
4.389076458E0,-2.945978689E0,6.086635745E-1,3.569245684E-1,3.029299742E0
4.399015458E0,-3.071293583E0,1.100786878E0,1.155808008E0,3.461281291E0
4.408955458E0,-2.634151356E0,1.462160009E0,1.117888815E0,3.213462409E0
4.418894458E0,-1.753378245E0,1.820927035E0,1.470913875E0,2.924670608E0
4.428833458E0,-1.040176980E0,1.493542015E0,1.829418361E-1,1.829235801E0
4.438772458E0,-1.514756298E-1,1.477335872E0,-7.816171968E-1,1.678210829E0
4.448712458E0,7.026666293E-1,1.431708294E0,-4.643513685E-1,1.661069302E0
4.458651458E0,8.805585176E-1,6.203223377E-1,-1.387735478E0,1.756699423E0
4.468590458E0,1.295600317E0,-3.118483829E-1,-2.154405438E0,2.533237530E0
4.478529458E0,2.159388435E0,-6.330347693E-1,-2.055251278E0,3.047580885E0
4.488468458E0,2.303319402E0,-1.842077583E-1,-1.258693276E0,2.631258545E0
4.498408458E0,2.313821002E0,3.989087462E-1,8.767116344E-1,2.506295893E0
4.508347458E0,2.153655240E0,-2.721598220E-1,5.359552020E-1,2.235967316E0
4.518286458E0,2.413795525E0,-1.457629586E0,-1.058122085E0,3.011762805E0
4.528225458E0,2.970057523E0,-1.815402585E0,-4.087864476E-1,3.504858712E0
4.538164458E0,3.437955812E0,-1.959028328E0,3.055719817E-1,3.968715963E0
4.548104458E0,3.620260302E0,-2.846570760E0,-3.947022593E-1,4.622233185E0
4.558043458E0,4.001735575E0,-3.791937477E0,-1.177808157E0,5.637367248E0
4.567982458E0,4.241148650E0,-4.408695352E0,-1.209179054E0,6.235868068E0
4.577921458E0,5.042735258E0,-5.234281272E0,-1.444935281E0,7.410446496E0
4.587860458E0,5.459018421E0,-5.573280616E0,-1.503823759E0,7.945050336E0
4.597800458E0,5.584835299E0,-5.046585649E0,-1.358666630E0,7.648816055E0
4.607739458E0,5.689318610E0,-4.279046794E0,-9.152710980E-1,7.177486252E0
4.617678458E0,5.787676379E0,-3.255291719E0,-4.201241988E-1,6.653617541E0
4.627617458E0,5.546702097E0,-2.174626864E0,-1.287176818E-1,5.959150476E0
4.637556458E0,5.048079028E0,-9.944880062E-1,5.346460104E-2,5.145383050E0
4.647496458E0,4.430863316E0,-2.452304703E-1,5.922410846E-2,4.438039568E0
4.657435458E0,3.975730083E0,3.798585176E-2,-1.094569534E-1,3.977417937E0
4.667374458E0,3.548136066E0,1.460014665E-1,-1.859332716E-1,3.556002974E0
4.677313458E0,3.232673519E0,2.403796202E-1,-1.283931613E-1,3.244140140E0
4.687252458E0,3.010093993E0,2.591462588E-1,-7.412164450E-2,3.022137761E0
4.697192458E0,2.805199370E0,9.433254540E-2,-1.834634078E-1,2.812774601E0
4.707131458E0,2.464489131E0,-9.528271794E-2,-3.224985015E-1,2.487326025E0
4.717070458E0,2.145480248E0,-1.705305362E-1,-5.945700306E-1,2.232863560E0
4.727009458E0,1.854604073E0,7.289139032E-3,-1.135603247E0,2.174673340E0
4.736949458E0,1.650730374E0,-1.492262059E-1,-1.602034763E0,2.305145247E0
4.746888458E0,1.762646082E0,-4.691150951E-1,-1.855729662E0,2.602061253E0
4.756827458E0,1.990892145E0,-8.415815628E-1,-1.931924145E0,2.899007065E0
4.766766458E0,2.090808781E0,-1.403122426E0,-1.983560906E0,3.205424741E0
4.776705458E0,2.043946856E0,-2.080720580E0,-2.147601618E0,3.622058750E0
4.786645458E0,1.903529481E0,-2.748876650E0,-2.498966361E0,4.174276009E0
4.796584458E0,1.842137809E0,-3.625767794E0,-2.799802098E0,4.937464490E0
4.806523458E0,1.589002488E0,-4.647225498E0,-2.908286952E0,5.707868843E0
4.816462458E0,1.367556152E0,-5.864363197E0,-2.977158674E0,6.717472687E0
4.826401458E0,9.453214011E-1,-7.125521075E0,-3.067512481E0,7.815133777E0
4.836341458E0,3.313652194E-1,-8.720187761E0,-3.087314369E0,9.256510547E0
4.846280458E0,-4.739527890E-1,-1.066786840E1,-3.380372140E0,1.120066798E1
4.856219458E0,-1.373776420E0,-1.255941459E1,-4.047483898E0,1.326681132E1
4.866158458E0,-2.119892540E0,-1.428639675E1,-4.862834558E0,1.523949594E1
4.876097458E0,-3.123539040E0,-1.529138694E1,-4.940296133E0,1.637038597E1
4.886037458E0,-4.159261318E0,-1.536965310E1,-3.843136282E0,1.637972489E1
4.895976458E0,-3.542033620E0,-1.537752929E1,-2.687459836E0,1.600739984E1
4.905915458E0,-3.244509453E0,-1.510249966E1,-1.785618038E0,1.554994435E1
4.915854458E0,-3.195477626E0,-1.438293779E1,-1.302549148E0,1.479109905E1
4.925793458E0,-3.385378819E0,-1.380294896E1,-1.816700667E-1,1.421320491E1
4.935733458E0,-4.156294441E0,-1.335008796E1,2.672309116E-1,1.398467176E1
4.945672458E0,-5.325358672E0,-1.279154321E1,-5.640165746E-2,1.385590862E1
4.955611458E0,-6.617951181E0,-1.185225467E1,-7.901640719E-1,1.359770488E1
4.965550458E0,-8.164605210E0,-1.076284589E1,-1.091201538E0,1.355324134E1
4.975489458E0,-9.007174952E0,-9.270885547E0,-7.707963395E-1,1.294884730E1
4.985429458E0,-9.164064519E0,-7.399610478E0,-4.586497486E-2,1.177864242E1
4.995368458E0,-9.137172589E0,-5.210320551E0,7.541604263E-1,1.054533646E1
5.005307458E0,-8.869112835E0,-2.566756348E0,1.540290212E0,9.360656738E0
5.015246458E0,-8.469993004E0,2.893085361E-1,2.199535710E0,8.755708895E0
5.025185458E0,-7.879004978E0,3.124771340E0,2.777687344E0,8.919555053E0
5.035125458E0,-6.781189070E0,5.457685255E0,3.199367487E0,9.273985436E0
5.045064458E0,-5.292123098E0,7.225749952E0,3.400415518E0,9.580232511E0
5.055003458E0,-3.986109475E0,8.228929260E0,3.862506646E0,9.925890544E0
5.064942458E0,-2.895244445E0,9.033158809E0,3.775882777E0,1.020968605E1
5.074881458E0,-1.866273361E0,9.902239827E0,3.306627349E0,1.060523994E1
5.084821458E0,-6.792309889E-1,1.046217037E1,2.966575506E0,1.089582185E1
5.094760458E0,1.702545476E-1,1.106408041E1,2.717883776E0,1.139428603E1
5.104699458E0,9.465917087E-1,1.142005071E1,2.327295910E0,1.169315613E1
5.114638458E0,1.341580774E0,1.169078030E1,1.803755809E0,1.190494511E1
5.124577458E0,1.815639398E0,1.177088365E1,1.291757526E0,1.197993680E1
5.134517458E0,2.190195075E0,1.197504386E1,7.943585721E-1,1.219957522E1
5.144456458E0,2.454218497E0,1.216851186E1,4.275239964E-1,1.242089554E1
5.154395458E0,2.771828141E0,1.238193757E1,1.001511097E-1,1.268879188E1
5.164334458E0,2.948154730E0,1.269098396E1,-8.818302870E-2,1.302921588E1
5.174273458E0,2.963410116E0,1.312649862E1,-2.086460499E-1,1.345846569E1
5.184213458E0,2.949630567E0,1.350984442E1,-3.205281360E-1,1.383180953E1
5.194152458E0,3.160351355E0,1.337209454E1,-4.158000366E-1,1.374676772E1
5.204091458E0,3.315637031E0,1.300338900E1,-4.180640054E-1,1.342595814E1
5.214030458E0,3.338414275E0,1.292653905E1,-4.117422152E-1,1.335701887E1
5.223970458E0,3.344986545E0,1.298806930E1,-2.437341678E-1,1.341410770E1
5.233909458E0,3.289916883E0,1.311179170E1,7.796911240E-2,1.351845827E1
5.243848458E0,3.398577738E0,1.299096250E1,4.586696291E-1,1.343598955E1
5.253787458E0,3.700027433E0,1.235041172E1,8.051523860E-1,1.291786139E1
5.263726458E0,3.430251813E0,1.123852390E1,1.053140988E0,1.179746383E1
5.273666458E0,2.743718529E0,1.050636830E1,1.263371779E0,1.093196572E1
5.283605458E0,2.453082675E0,1.010895527E1,1.468948187E0,1.050554140E1
5.293544458E0,2.380155617E0,9.842204125E0,1.660610561E0,1.026117684E1
5.303483458E0,2.407817917E0,9.632282651E0,1.799320696E0,1.009039202E1
5.313422458E0,2.467705100E0,9.444465991E0,1.920726142E0,9.948703193E0
5.323362458E0,2.544320289E0,9.297979206E0,2.097840351E0,9.865440547E0
5.333301458E0,2.622203155E0,9.150196677E0,2.288990800E0,9.789868615E0
5.343240458E0,2.666462192E0,9.030369102E0,2.478407258E0,9.736533741E0
5.353179458E0,2.655502756E0,8.926500333E0,2.704079962E0,9.697739506E0
5.363118458E0,2.562630260E0,8.889054179E0,2.951507231E0,9.710497051E0
5.373058458E0,2.378240361E0,8.871925346E0,3.153396092E0,9.711384735E0
5.382997458E0,2.140887552E0,8.859180754E0,3.264169546E0,9.681078761E0
5.392936458E0,1.754929804E0,8.761456824E0,3.195300163E0,9.489617876E0
5.402875458E0,8.099671295E-1,8.494404545E0,2.815275585E0,8.985362093E0
5.412814458E0,-1.798747961E0,7.578310744E0,2.168232349E0,8.085018211E0
5.422754458E0,-7.386996864E0,4.892748914E0,1.908659828E0,9.063647000E0
5.432693458E0,-1.368949193E1,9.086725152E-1,1.725473578E0,1.382769446E1
5.442632458E0,-1.726358145E1,-4.190807632E0,1.220345482E0,1.780683453E1
5.452571458E0,-1.730101064E1,-8.248904518E0,-3.860036489E-1,1.917076926E1
5.462510458E0,-1.520153746E1,-1.063790025E1,-2.229457667E0,1.868748630E1
5.472450458E0,-1.248960352E1,-1.281704525E1,-5.529013685E0,1.873063900E1
5.482389458E0,-6.663312711E0,-2.253960599E1,-2.253313429E1,3.256033961E1
5.492328458E0,9.961091468E-1,-3.507405765E1,-3.683830997E1,5.087477602E1
5.502267458E0,-1.189106440E0,-2.745471232E1,-6.370149690E-1,2.748783350E1
5.512206458E0,5.074453479E-1,-2.165755351E1,2.408480991E0,2.179697010E1
5.522146458E0,-2.997932661E0,-1.275160322E1,-3.064553790E0,1.345297271E1
5.532085458E0,-1.447807141E0,-6.717404718E0,-4.064114841E0,7.983526858E0
5.542024458E0,2.191297568E0,-3.137838698E0,-1.330019951E0,4.051761320E0
5.551963458E0,3.734338894E0,-1.385281402E-1,-1.963956946E0,4.221564155E0
5.561902458E0,3.723306660E0,3.358821934E-1,-1.776637300E0,4.139114571E0
5.571842458E0,3.693098482E0,-8.062561941E-1,-2.410201242E0,4.483089948E0
5.581781458E0,2.394668991E0,-2.283230708E0,-3.389346154E0,4.736586260E0
5.591720458E0,5.006874284E-1,-3.224448826E0,-4.611158118E0,5.648941256E0
5.601659125E0,-1.615497684E0,-2.933528797E0,-3.855785564E0,5.107103512E0
5.611598125E0,-2.735722754E0,-2.519697372E0,-2.180355965E0,4.311265008E0
5.621538125E0,-3.549304340E0,-2.279538192E0,-5.375672793E-1,4.252391591E0
5.631477125E0,-3.935523459E0,-1.437947273E0,3.459043211E-1,4.204246312E0
5.641416125E0,-3.040859410E0,-8.519673872E-1,7.067693281E-1,3.236077451E0
5.651355125E0,-1.744231738E0,9.588848948E-3,9.365350825E-1,1.979781367E0
5.661294125E0,-6.094196194E-1,5.309172410E-1,9.319777626E-1,1.233632011E0
5.671234125E0,1.089473686E-1,-2.963251948E-1,1.668988305E-1,3.571181455E-1
5.681173125E0,6.123593071E-1,-1.178361304E0,-3.104257554E-1,1.363775433E0
5.691112125E0,1.286992630E0,-1.454222413E0,-7.782684964E-1,2.092083820E0
5.701051125E0,1.529630738E0,-8.231844682E-1,-9.791741484E-1,1.994037330E0
5.710990125E0,1.071060804E0,-2.906089568E-1,-1.557628083E-1,1.120663582E0
5.720930125E0,4.589304149E-1,-1.424872899E-1,6.757977962E-1,8.292300133E-1
5.730869125E0,2.351358372E-1,-6.030759752E-2,1.633465301E0,1.651403875E0
5.740808125E0,-4.221894354E-2,-1.333379762E0,6.651774985E-1,1.490686128E0
5.750747125E0,4.483644962E-3,-2.843317954E0,-1.360575746E0,3.152085572E0
5.760686125E0,5.956926960E-1,-3.170119421E0,-1.467985590E0,3.543936882E0
5.770626125E0,1.408755049E0,-3.176459557E0,-9.257884848E-1,3.596049280E0
5.780565125E0,1.813709232E0,-2.953733266E0,-4.427581859E-1,3.494297668E0
5.790504125E0,1.939463544E0,-2.216088885E0,-7.034785151E-2,2.945762653E0
5.800443125E0,2.000697341E0,-1.737855642E0,1.120893699E-1,2.652450963E0
5.810382125E0,1.820141169E0,-1.884176366E0,2.978618431E-1,2.636618314E0
5.820322125E0,1.498601611E0,-1.734330940E0,1.401086426E-1,2.296375629E0
5.830261125E0,1.371693642E0,-1.654048085E0,-1.694745290E-1,2.155490694E0
5.840200125E0,1.360961663E0,-1.668219981E0,-3.438952178E-1,2.180238169E0
5.850139125E0,1.604711033E0,-2.011648591E0,-9.762496635E-1,2.752251980E0
5.860079125E0,1.575421160E0,-2.080986044E0,-1.113709810E0,2.837746340E0
5.870018125E0,1.293350893E0,-1.581042674E0,-1.464447439E0,2.513375971E0
5.879957125E0,1.004573284E0,-6.266004932E-1,-1.495716010E0,1.907606365E0
5.889896125E0,9.369613445E-1,-1.819098026E-1,-1.387831957E0,1.684359011E0
5.899835125E0,8.618415803E-1,-7.976186872E-3,-1.154326616E0,1.440591707E0
5.909774125E0,6.652131665E-1,-1.781646609E-3,-1.018693725E0,1.216654691E0
5.919714125E0,5.653076398E-1,-1.692347932E-1,-9.641953361E-1,1.130436106E0
5.929653125E0,6.376230794E-1,-4.277442902E-1,-8.748913962E-1,1.164028919E0
5.939592125E0,7.990962785E-1,-7.486564422E-1,-7.791949877E-1,1.343944255E0
5.949531125E0,1.069552807E0,-9.720481467E-1,-7.031148183E-1,1.607230927E0
5.959470125E0,1.250627042E0,-1.032525313E0,-6.140649399E-1,1.734143094E0
5.969410125E0,1.348242799E0,-9.777620459E-1,-4.684040737E-1,1.730080819E0
5.979349125E0,1.450770217E0,-8.200445133E-1,-3.050258517E-1,1.694180627E0
5.989288125E0,1.515730444E0,-7.605368149E-1,-7.253851086E-2,1.697385302E0
5.999227125E0,1.543627510E0,-8.845153284E-1,2.643198752E-1,1.798615649E0
6.009166125E0,1.603584275E0,-9.037099832E-1,5.677365732E-1,1.926265578E0
6.019106125E0,1.878240273E0,-6.898854929E-1,6.789149469E-1,2.112972792E0
6.029045125E0,2.133609231E0,-5.199390936E-1,3.293280494E-1,2.220603966E0
6.038984125E0,2.302630016E0,-5.184346050E-1,-9.880800426E-2,2.362338344E0
6.048923125E0,2.492008467E0,-6.585660517E-1,-5.947893012E-1,2.645295778E0
6.058862125E0,2.635720748E0,-9.044344532E-1,-1.105674566E0,2.997922912E0
6.068802125E0,2.639009222E0,-1.190855049E0,-1.537582074E0,3.278210496E0
6.078741125E0,2.459878601E0,-1.585085438E0,-1.859394112E0,3.467109033E0
6.088680125E0,2.250272292E0,-2.136016529E0,-2.041413842E0,3.713982025E0
6.098619125E0,1.958862852E0,-2.789836981E0,-2.167502908E0,4.039604301E0
6.108558125E0,1.626025888E0,-3.547480009E0,-2.318087130E0,4.538953904E0
6.118498125E0,1.160143426E0,-4.455830342E0,-2.553261267E0,5.264931140E0
6.128437125E0,5.133215073E-1,-5.448544303E0,-2.623497729E0,6.069009336E0
6.138376125E0,2.449895650E-2,-6.215492005E0,-3.037465687E0,6.918029984E0
6.148315125E0,-6.814874294E-1,-6.904600988E0,-3.462463540E0,7.754133974E0
6.158254125E0,-1.369239273E0,-8.030896930E0,-3.680380788E0,8.939537148E0
6.168194125E0,-1.927175036E0,-9.214992013E0,-3.891344821E0,1.018688598E1
6.178133125E0,-2.670660493E0,-1.053725329E1,-4.659261991E0,1.182687012E1
6.188072125E0,-3.809425330E0,-1.127207522E1,-4.225829237E0,1.262652105E1
6.198011125E0,-3.632331294E0,-1.244584412E1,-2.671846016E0,1.323750837E1
6.207950125E0,-2.586766397E0,-1.483819733E1,-2.189390498E0,1.522027894E1
6.217890125E0,-3.679762445E0,-1.564870912E1,-3.540275069E0,1.646075018E1
6.227829125E0,-3.920929978E0,-1.552802259E1,-4.387343659E0,1.660547988E1
6.237768125E0,-4.267306169E0,-1.494975168E1,-4.319042626E0,1.613564707E1
6.247707125E0,-4.571426872E0,-1.299353060E1,-3.711100305E0,1.426541435E1
6.257646125E0,-4.911558822E0,-1.066447701E1,-2.729524998E0,1.205424351E1
6.267586125E0,-5.566001417E0,-8.471005742E0,-1.925336964E0,1.031722988E1
6.277525125E0,-6.187521265E0,-6.403358951E0,-1.131560190E0,8.976015470E0
6.287464125E0,-6.798470516E0,-4.478266109E0,-3.388084325E-1,8.147935925E0
6.297403125E0,-6.932282876E0,-2.402585828E0,4.168974128E-1,7.348657564E0
6.307342125E0,-6.683868597E0,-1.215858328E-1,1.189847867E0,6.790038327E0
6.317282125E0,-6.186606175E0,2.060904951E0,1.829587053E0,6.772651916E0
6.327221125E0,-5.344827561E0,3.978544348E0,2.198471224E0,7.016357496E0
6.337160125E0,-4.276976295E0,5.677254635E0,2.399608718E0,7.502124260E0
6.347099125E0,-3.208081884E0,7.159695711E0,2.740106119E0,8.310307672E0
6.357038125E0,-1.944773401E0,7.952531961E0,3.003969912E0,8.720593064E0
6.366978125E0,-1.019523372E0,8.933176684E0,2.840902762E0,9.429305492E0
6.376917125E0,-1.982179794E-1,9.797842469E0,2.886169274E0,1.021601588E1
6.386856125E0,4.130068217E-1,1.045000114E1,2.781654095E0,1.082176963E1
6.396795125E0,7.353277141E-1,1.085926414E1,2.525765612E0,1.117335296E1
6.406734125E0,1.031382037E0,1.104020973E1,2.316409710E0,1.132765350E1
6.416674125E0,1.238518189E0,1.105583116E1,2.145260539E0,1.132993701E1
6.426613125E0,1.152906181E0,1.114782189E1,1.925998869E0,1.137156969E1
6.436552125E0,1.100161080E0,1.118873720E1,1.753254577E0,1.137858058E1
6.446491125E0,9.618055791E-1,1.149409868E1,1.559724018E0,1.163924884E1
6.456430125E0,6.662744361E-1,1.242502219E1,1.538528738E0,1.253763011E1
6.466370125E0,7.624630339E-1,1.293451465E1,1.512660510E0,1.304496688E1
6.476309125E0,1.202182714E0,1.300033208E1,1.315079585E0,1.312186388E1
6.486248125E0,1.358744398E0,1.325451054E1,1.225754156E0,1.338023577E1
6.496187125E0,1.477590226E0,1.369799612E1,1.000374398E0,1.381372939E1
6.506126125E0,1.768061919E0,1.399968204E1,9.487553246E-1,1.414274644E1
6.516066125E0,1.920153700E0,1.398564171E1,1.251935649E0,1.417224425E1
6.526005125E0,1.921759053E0,1.398049265E1,1.596126297E0,1.420193479E1
6.535944125E0,1.825132498E0,1.391236440E1,1.655459164E0,1.412889015E1
6.545883125E0,1.710713452E0,1.362352832E1,1.467856951E0,1.380875333E1
6.555822125E0,1.637338496E0,1.298552342E1,1.399969608E0,1.316300158E1
6.565762125E0,1.474997863E0,1.221976621E1,1.468714299E0,1.239578261E1
6.575701125E0,1.388280000E0,1.160666460E1,1.574140766E0,1.179491007E1
6.585640125E0,1.519760930E0,1.114310904E1,1.575445865E0,1.135608128E1
6.595579125E0,1.712591723E0,1.078439873E1,1.544923399E0,1.102828249E1
6.605518083E0,1.895994759E0,1.049298402E1,1.521561288E0,1.077091726E1
6.615458083E0,2.106224527E0,1.029867286E1,1.544907173E0,1.062476271E1
6.625397083E0,2.226034414E0,1.017313197E1,1.568624503E0,1.053130695E1
6.635336083E0,2.343089386E0,1.001237915E1,1.558964903E0,1.040039305E1
6.645275083E0,2.347872847E0,9.895968103E0,1.587522412E0,1.029382917E1
6.655214083E0,2.233880208E0,9.776918208E0,1.651148304E0,1.016388908E1
6.665154083E0,2.002508662E0,9.635977507E0,1.759099892E0,9.997826558E0
6.675093083E0,1.758174424E0,9.552903190E0,1.880555770E0,9.893716525E0
6.685032083E0,1.571142168E0,9.439446157E0,2.045585246E0,9.785502054E0
6.694971083E0,1.274815219E0,9.272924471E0,2.118500171E0,9.596891428E0
6.704910083E0,3.966011426E-1,8.941573285E0,1.960202741E0,9.162500754E0
6.714850083E0,-1.795139352E0,8.078183362E0,1.054016755E0,8.342093445E0
6.724789083E0,-6.186904968E0,5.345321651E0,6.531164467E-1,8.202244676E0
6.734728083E0,-1.182871144E1,6.949912816E-1,-1.051995957E-1,1.184957781E1
6.744667083E0,-1.551906817E1,-4.347711816E0,-2.255407902E0,1.627362712E1
6.754606083E0,-1.507497331E1,-7.201637789E0,-3.082563214E0,1.698883760E1
6.764545083E0,-1.231272992E1,-8.288453915E0,-2.153608170E0,1.499799368E1
6.774485083E0,-1.046863154E1,-9.696304985E0,-2.368188705E0,1.446440094E1
6.784424083E0,-8.241939315E0,-1.644167109E1,-7.836134362E0,1.999157607E1
6.794363083E0,-1.875762808E0,-3.529125599E1,-2.339312406E1,4.238194767E1
6.804302083E0,2.255796449E0,-4.488014937E1,-2.284324722E1,5.040962576E1
6.814241083E0,-3.880095363E0,-2.849393094E1,-4.830449170E0,2.915977503E1
6.824181083E0,-7.312553623E0,-1.553053923E1,5.386246313E0,1.799118503E1
6.834120083E0,-1.744655661E0,-9.155822868E0,6.813158137E-1,9.345432414E0
6.844059083E0,5.253056681E-1,-5.266212916E0,-9.453497601E-1,5.376116693E0
6.853998083E0,2.604021238E0,-3.297152520E0,-7.967562228E-1,4.276325739E0
6.863937083E0,3.912674879E0,-3.075803248E0,-3.080274029E0,5.853005931E0
6.873877083E0,4.072178736E0,-2.582169608E0,-3.164496154E0,5.767519003E0
6.883816083E0,3.383693066E0,-2.844235967E0,-2.822650385E0,5.244655585E0
6.893755083E0,1.591181453E0,-4.453358139E0,-2.311004398E0,5.263553786E0
6.903694083E0,1.666263503E-1,-5.025546198E0,-2.109491220E0,5.452873750E0
6.913633083E0,-8.625818378E-1,-3.945346781E0,-6.164152282E-1,4.085312275E0
6.923573083E0,-1.230983321E0,-2.760267611E0,5.010818231E-1,3.063573112E0
6.933512083E0,-1.375713018E0,-1.784398894E0,1.481101479E0,2.696354448E0
6.943451083E0,-1.706600228E0,-1.818574700E0,2.112779694E0,3.268567930E0
6.953390083E0,-1.567422462E0,-2.449272337E0,7.165429491E-1,2.994859254E0
6.963329083E0,-7.413889378E-1,-2.712122807E0,-6.809117711E-1,2.892906586E0
6.973268083E0,2.058696458E-1,-2.413069301E0,-1.328984117E0,2.762514171E0
6.983208083E0,3.830788717E-1,-1.929711558E0,-1.231443205E0,2.320988687E0
6.993147083E0,2.346984655E-1,-1.227625850E0,-9.228327173E-1,1.553630851E0
7.003086083E0,-2.110201657E-2,-7.431910497E-1,-5.994524556E-1,9.550505107E-1
7.013025083E0,-3.481367880E-1,-4.776303953E-1,-3.246260110E-1,6.743234125E-1
7.022965083E0,-5.463310862E-1,-5.480753106E-1,-2.095262021E-1,8.017265314E-1
7.032904083E0,-7.173299843E-1,-5.846309334E-1,-1.472907776E-1,9.370433330E-1
7.042843083E0,-8.253795129E-1,-6.262829894E-1,-9.272456110E-2,1.040230536E0
7.052782083E0,-4.932763749E-1,-6.189289463E-1,-2.526631585E-1,8.308028011E-1
7.062721083E0,1.114865220E-1,-4.098553187E-1,-3.868082258E-1,5.744834466E-1
7.072660083E0,3.095931119E-1,-2.389324343E-1,-3.307100388E-1,5.121579179E-1
7.082600083E0,5.830919462E-1,-3.701603258E-1,-2.621350631E-1,7.387351866E-1
7.092539083E0,9.978425539E-1,-1.839270920E-1,-4.433522630E-1,1.107285043E0
7.102478083E0,1.444313722E0,-3.222447324E-1,-4.037043402E-1,1.533903839E0
7.112417083E0,1.691877816E0,-1.034343213E0,-2.804576057E-1,2.002741345E0
7.122356083E0,1.830795965E0,-1.400268985E0,-1.601300937E-1,2.310456393E0
7.132296083E0,2.093803725E0,-1.724045103E0,-2.050337863E-1,2.719997134E0
7.142235083E0,2.354037566E0,-2.033738787E0,-3.617409199E-1,3.131843357E0
7.152174083E0,2.638862457E0,-2.350151507E0,-5.206267262E-1,3.571814575E0
7.162113083E0,2.955212612E0,-2.605388317E0,-6.757087724E-1,3.997238072E0
7.172052083E0,3.201500258E0,-2.747298487E0,-8.463330102E-1,4.302735461E0
7.181992083E0,3.473824972E0,-2.664536412E0,-1.045843517E0,4.501222377E0
7.191931083E0,3.279342486E0,-2.127710559E0,-1.337925095E0,4.131740907E0
7.201870083E0,3.149119731E0,-1.536369946E0,-1.605913074E0,3.854392883E0
7.211809083E0,3.083629746E0,-1.074352786E0,-1.682242774E0,3.673274707E0
7.221748083E0,2.997812501E0,-7.169750583E-1,-1.701711663E0,3.520902670E0
7.231688083E0,2.985494172E0,-4.419822603E-1,-1.827081960E0,3.527995501E0
7.241627083E0,3.120408148E0,-3.013701725E-1,-1.906736094E0,3.669252447E0
7.251566083E0,3.256969870E0,-2.931589276E-1,-1.912350736E0,3.788255565E0
7.261505083E0,3.294919469E0,-3.053258139E-1,-1.783816950E0,3.759218146E0
7.271444083E0,3.277940324E0,-3.285673267E-1,-1.562602894E0,3.646172933E0
7.281384083E0,3.230183775E0,-3.624864399E-1,-1.410817216E0,3.543428969E0
7.291323083E0,3.180372514E0,-4.176408863E-1,-1.151604445E0,3.408135273E0
7.301262083E0,3.026570277E0,-4.781736016E-1,-9.786695337E-1,3.216608725E0
7.311201083E0,2.869952606E0,-5.799572539E-1,-9.445244256E-1,3.076541039E0
7.321140083E0,2.789979068E0,-6.926330996E-1,-8.924783590E-1,3.010023494E0
7.331079083E0,2.688191907E0,-8.889720762E-1,-8.511038996E-1,2.956522439E0
7.341019083E0,2.524557577E0,-1.187664809E0,-7.828532982E-1,2.897722890E0
7.350958083E0,2.371315504E0,-1.556001388E0,-7.086228955E-1,2.923426747E0
7.360897083E0,2.212426774E0,-1.923770787E0,-6.418778059E-1,3.001288621E0
7.370836083E0,2.033539105E0,-2.371661659E0,-4.943268272E-1,3.162976340E0
7.380775083E0,1.706514274E0,-2.813826937E0,-2.043642801E-1,3.297207570E0
7.390715083E0,1.398163403E0,-3.163293967E0,-1.432985911E-1,3.461477157E0
7.400654083E0,1.108511635E0,-3.583159719E0,-3.502824238E-1,3.767031907E0
7.410593083E0,6.663565895E-1,-4.169105106E0,-4.841134956E-1,4.249686384E0
7.420532083E0,2.590179124E-1,-4.947456633E0,-4.751307106E-1,4.976963593E0
7.430471083E0,-2.085669664E-1,-5.818319297E0,-5.253965923E-1,5.845714773E0
7.440411083E0,-7.245097804E-1,-6.796437439E0,-5.048661411E-1,6.853565941E0
7.450350083E0,-1.373077678E0,-7.902936462E0,-2.902908683E-1,8.026581827E0
7.460289083E0,-1.886855853E0,-8.982510812E0,-4.716539562E-2,9.178668208E0
7.470228083E0,-2.063413699E0,-9.976894737E0,8.551377475E-2,1.018839621E1
7.480167083E0,-2.375388382E0,-1.101205188E1,7.119277418E-3,1.126533654E1
7.490107083E0,-2.749002365E0,-1.184999063E1,-3.898166183E-1,1.217091816E1
7.500046083E0,-2.537937176E0,-1.247562984E1,-1.040187505E0,1.277358427E1
7.509985083E0,-3.076496143E0,-1.289441093E1,-1.519247837E0,1.334311717E1
7.519924083E0,-3.166219329E0,-1.331355105E1,-1.298236241E0,1.374630873E1
7.529863083E0,-3.111461323E0,-1.318336396E1,-8.924438605E-1,1.357493031E1
7.539802083E0,-3.424254909E0,-1.259209936E1,-1.398928803E0,1.312415673E1
7.549742083E0,-4.259209237E0,-1.211210611E1,-2.468766954E0,1.307435612E1
7.559681083E0,-4.749218481E0,-1.185961398E1,-3.048896116E0,1.313397455E1
7.569620083E0,-5.041570492E0,-1.135654995E1,-3.008764921E0,1.278441732E1
7.579559083E0,-5.306263420E0,-1.064878309E1,-2.753546821E0,1.221208552E1
7.589498083E0,-5.670484729E0,-9.710652298E0,-2.265068379E0,1.147090667E1
7.599437958E0,-5.811444726E0,-8.411849461E0,-1.667433531E0,1.035917158E1
7.609376958E0,-5.820035455E0,-6.829749611E0,-1.233941135E0,9.057643357E0
7.619315958E0,-5.858016629E0,-4.893689146E0,-6.072505948E-1,7.657238769E0
7.629254958E0,-5.661018671E0,-2.877845178E0,2.961211270E-1,6.357421882E0
7.639193958E0,-5.615905648E0,-5.806752920E-1,1.088975503E0,5.749908494E0
7.649133958E0,-5.258320929E0,1.747314098E0,1.833575147E0,5.836526653E0
7.659072958E0,-5.099235148E0,3.825478275E0,2.518327954E0,6.854083368E0
7.669011958E0,-4.819272510E0,5.553856165E0,3.025938486E0,7.951541331E0
7.678950958E0,-4.159554264E0,6.649625548E0,3.816191143E0,8.722541284E0
7.688889958E0,-3.411876353E0,7.784434451E0,3.858197832E0,9.334024346E0
7.698829958E0,-2.726738800E0,8.932750422E0,3.827145609E0,1.009337298E1
7.708768958E0,-2.054750172E0,9.892174430E0,3.949136946E0,1.084770924E1
7.718707958E0,-1.570489034E0,1.061111415E1,3.848613077E0,1.139622753E1
7.728646958E0,-1.064074843E0,1.087601056E1,3.377658155E0,1.143802586E1
7.738585958E0,-6.997362971E-1,1.092120954E1,2.950115301E0,1.133426791E1
7.748524958E0,-7.393701866E-1,1.101051757E1,2.472904151E0,1.130899732E1
7.758464958E0,-8.509645897E-1,1.111133059E1,2.040119269E0,1.132907299E1
7.768403958E0,-9.498301890E-1,1.131368401E1,1.683221744E0,1.147758070E1
7.778342958E0,-1.014987833E0,1.188441670E1,1.530114302E0,1.202542350E1
7.788281958E0,-9.952192736E-1,1.289807012E1,1.406824591E0,1.301267957E1
7.798220958E0,-6.886790662E-1,1.342596494E1,1.002531728E0,1.348094519E1
7.808160958E0,-8.340424553E-2,1.341178193E1,5.622096388E-1,1.342381952E1
7.818099958E0,2.106319837E-1,1.369241788E1,2.132364066E-1,1.369569797E1
7.828038958E0,2.747084771E-1,1.409891397E1,2.559725364E-1,1.410391300E1
7.837977958E0,3.328590368E-1,1.447260251E1,2.184310730E-1,1.447807759E1
7.847916958E0,3.829106180E-1,1.474295437E1,2.358814303E-1,1.474981234E1
7.857856958E0,4.497363992E-1,1.481506457E1,4.363578967E-1,1.482831107E1
7.867795958E0,4.717909272E-1,1.475982476E1,6.725457211E-1,1.478266996E1
7.877734958E0,6.725050829E-1,1.434845793E1,8.807203393E-1,1.439118398E1
7.887673958E0,8.870555051E-1,1.358803338E1,9.973011748E-1,1.365342918E1
7.897612958E0,1.063482374E0,1.278311971E1,1.020314427E0,1.286779646E1
7.907552958E0,1.260543774E0,1.212619673E1,9.783419435E-1,1.223073058E1
7.917491958E0,1.399368368E0,1.157159417E1,9.492605241E-1,1.169449097E1
7.927430958E0,1.524293399E0,1.117419751E1,9.968169522E-1,1.132165202E1
7.937369958E0,1.660870470E0,1.082346982E1,1.064821386E0,1.100181050E1
7.947308958E0,1.882548063E0,1.051689797E1,1.094533428E0,1.073997828E1
7.957247958E0,2.032390858E0,1.017431545E1,1.257114089E0,1.045120296E1
7.967187958E0,2.183804946E0,9.867276986E0,1.463560417E0,1.021147238E1
7.977126958E0,2.328450150E0,9.587228685E0,1.738183086E0,1.001787974E1
7.987065958E0,2.357047713E0,9.321872098E0,2.023730401E0,9.825907494E0
7.997004958E0,2.322540808E0,9.016802393E0,2.313348108E0,9.594190985E0
8.006943958E0,2.188833551E0,8.787357066E0,2.595911150E0,9.420583380E0
8.016883958E0,1.958270967E0,8.661877572E0,2.846000656E0,9.325377633E0
8.026822958E0,1.710797213E0,8.592196888E0,3.155922382E0,9.311955785E0
8.036761958E0,1.501922244E0,8.524155178E0,3.435676860E0,9.312403955E0
8.046700958E0,1.194057570E0,8.353252759E0,3.595629491E0,9.172303777E0
8.056639958E0,5.155415489E-1,7.704842736E0,3.023810684E0,8.292997994E0
8.066579958E0,-2.989597456E0,4.921371619E0,1.223906436E0,5.886895491E0
8.076518958E0,-1.284515399E1,-1.983603591E0,9.478427204E-1,1.303192503E1
8.086457958E0,-2.405192751E1,-1.384556347E1,-1.060296957E0,2.777263175E1
8.096396958E0,-2.669506779E1,-2.291853129E1,-1.585882999E0,3.521932347E1
8.106335958E0,-2.297678827E1,-2.795528076E1,-4.000255937E0,3.640649076E1
8.116274958E0,-1.994995136E1,-4.368368743E1,-1.264969326E1,4.966165368E1
8.126214958E0,1.034917117E0,-5.403172482E1,-4.213933019E1,6.852898284E1
8.136153958E0,6.170806999E0,-2.785893735E1,-1.624447959E1,3.283416462E1
8.146092958E0,8.231731830E0,-1.062030481E1,3.781105510E0,1.395883383E1
8.156031958E0,6.929543456E0,-5.186909469E0,-5.592347217E-1,8.673831093E0
8.165970958E0,2.000580981E-1,-5.848870414E-1,2.963450754E0,3.027235779E0
8.175910958E0,-7.034516180E-1,1.204222954E0,1.726717865E-1,1.405280274E0
8.185849958E0,1.580313233E0,1.209702380E0,-5.610157835E0,5.952700287E0
8.195788958E0,3.025044739E0,-6.533912659E-1,-6.244331642E0,6.969181694E0
8.205727958E0,3.531123300E0,-2.436725382E0,-5.781282449E0,7.199283929E0
8.215666958E0,1.830515006E0,-1.224436778E0,-2.077963033E0,3.027864096E0
8.225606958E0,1.401302188E0,-3.826482242E-1,-1.119126086E0,1.833714995E0
8.235545958E0,1.626210660E0,1.338661551E-2,-1.089778326E0,1.957640700E0
8.245484958E0,2.037685950E0,1.148188502E-1,-4.627597564E-1,2.092724060E0
8.255423958E0,1.703356485E0,4.525616276E-1,2.796658927E-1,1.784502270E0
8.265362958E0,1.306460935E0,7.101133507E-1,5.317393595E-1,1.579192164E0
8.275301958E0,1.207537740E0,7.232561374E-1,9.094227129E-1,1.675797275E0
8.285241958E0,8.193881634E-1,7.948915458E-1,5.697257960E-1,1.275867162E0
8.295180958E0,3.008190724E-1,8.090160799E-1,-3.987374228E-1,9.507842364E-1
8.305119958E0,1.668005973E-1,7.313048297E-1,-1.067498095E0,1.304676732E0
8.315058958E0,4.352936304E-1,5.689861232E-1,-9.600239325E-1,1.197861304E0
8.324997958E0,8.564291051E-1,1.757544386E-1,-4.998164856E-1,1.007063530E0
8.334937958E0,1.340431504E0,-4.842874503E-1,-9.293564558E-2,1.428260475E0
8.344876958E0,1.610611751E0,-8.510713014E-1,1.604756641E-1,1.828700361E0
8.354815958E0,1.612828430E0,-6.995316446E-1,1.462021430E0,2.286496606E0
8.364754958E0,1.680105909E0,-1.103730952E0,1.339726914E0,2.415749590E0
8.374693958E0,1.883435524E0,-1.489838973E0,9.342342031E-1,2.576769894E0
8.384633958E0,1.862180310E0,-2.431219936E0,-9.693098956E-1,3.212181122E0
8.394572958E0,2.133126251E0,-3.104642885E0,-2.452987073E0,4.495128544E0
8.404511958E0,2.289391919E0,-2.899861114E0,-2.275388423E0,4.339113079E0
8.414450958E0,2.130534180E0,-1.400268400E0,-1.530994016E-1,2.554088274E0
8.424389958E0,1.676406960E0,-6.273325646E-1,1.651904495E0,2.435708296E0
8.434328958E0,1.385653870E0,-5.943343878E-1,2.152582861E0,2.628094934E0
8.444268958E0,1.645224636E0,-3.614596689E-1,1.764708395E0,2.439592777E0
8.454207958E0,2.098105229E0,-5.330830497E-1,9.934243977E-1,2.381830205E0
8.464146958E0,2.366957282E0,-1.233188306E0,-2.157447159E-2,2.669027094E0
8.474085958E0,2.310252446E0,-2.077811590E0,-1.195946805E0,3.329392757E0
8.484024958E0,1.838316654E0,-2.911296514E0,-1.997755022E0,3.980713584E0
8.493964958E0,1.168388878E0,-3.334944245E0,-2.353555171E0,4.245728162E0
8.503903958E0,7.568954614E-1,-3.350141743E0,-2.329466397E0,4.150030618E0
8.513842958E0,6.323342729E-1,-3.348248999E0,-2.406067261E0,4.171304071E0
8.523781958E0,4.875952202E-1,-3.127543505E0,-2.722015126E0,4.174762727E0
8.533720958E0,-1.511657274E-1,-2.222618471E0,-2.897395343E0,3.654830190E0
8.543660958E0,-4.271668777E-1,-1.571528669E0,-3.078457884E0,3.482682421E0
8.553599958E0,-1.825372088E-1,-1.330548540E0,-3.119940371E0,3.396720060E0
8.563538958E0,-1.392251283E-2,-1.439158816E0,-2.976771296E0,3.306439064E0
8.573477958E0,1.144048673E-1,-2.157037854E0,-2.781415821E0,3.521672152E0
8.583416958E0,5.759823167E-1,-3.239014240E0,-2.546483467E0,4.160233998E0
8.593355958E0,1.104516817E0,-4.138379742E0,-2.307603657E0,4.865303580E0
8.603296708E0,1.435405489E0,-4.709126462E0,-1.850772977E0,5.259431677E0
8.613235708E0,1.641829158E0,-4.846854703E0,-1.085396130E0,5.231222443E0
8.623174708E0,1.735588676E0,-4.630180280E0,-3.529712659E-1,4.957360809E0
8.633113708E0,2.227831848E0,-4.171245772E0,-1.865133154E-1,4.732579978E0
8.643052708E0,2.542579573E0,-3.765636116E0,-5.283725327E-1,4.574265381E0
8.652992708E0,2.197483922E0,-3.326119627E0,-1.051824633E0,4.122904609E0
8.662931708E0,7.781901437E-1,-3.267872003E0,-2.634170651E-1,3.369563159E0
8.672870708E0,7.702431929E-1,-3.084737794E0,1.496962928E0,3.514225354E0
8.682809708E0,1.316196841E0,-2.443650239E0,-9.843389940E-1,2.944948874E0
8.692748708E0,1.213730234E0,-2.434718617E0,-3.102440824E0,4.126273730E0
8.702687708E0,1.195059198E0,-3.298887974E0,-4.507116855E0,5.711823763E0
8.712627708E0,7.527855997E-1,-4.487355021E0,-4.876526106E0,6.669598796E0
8.722566708E0,4.043316002E-1,-6.020256983E0,-5.077372409E0,7.885853712E0
8.732505708E0,3.137148142E-1,-7.690942150E0,-4.890952649E0,9.119782122E0
8.742444708E0,-1.201594046E-1,-8.799131019E0,-4.596878632E0,9.928264608E0
8.752383708E0,-7.980681919E-1,-9.275372701E0,-3.543666747E0,9.961276303E0
8.762323708E0,-1.832962212E0,-9.253116444E0,-3.250551089E0,9.977274015E0
8.772262708E0,-2.799168260E0,-9.968281789E0,-3.887111437E0,1.105945840E1
8.782201708E0,-2.899652953E0,-1.110096231E1,-4.494436291E0,1.232230940E1
8.792140708E0,-3.457639294E0,-1.229667814E1,-4.747249431E0,1.362717653E1
8.802079708E0,-4.075068137E0,-1.279225189E1,-4.457233382E0,1.414619448E1
8.812018708E0,-4.341640068E0,-1.222732900E1,-3.619376495E0,1.347060871E1
8.821958708E0,-4.378159730E0,-1.095212260E1,-2.467525298E0,1.205014328E1
8.831897708E0,-4.661650579E0,-9.676613317E0,-1.504529518E0,1.084580290E1
8.841836708E0,-5.068674091E0,-8.501560952E0,-7.032782480E-1,9.922832053E0
8.851775708E0,-6.048000852E0,-7.064387265E0,2.382752073E-1,9.302723086E0
8.861714708E0,-6.945088279E0,-5.235427326E0,8.142952386E-1,8.735389357E0
8.871654708E0,-7.304304371E0,-3.005406280E0,1.297154799E0,8.004245113E0
8.881593708E0,-7.035697317E0,-5.083253539E-1,1.845389446E0,7.291426034E0
8.891532708E0,-6.168890866E0,2.106661168E0,2.403385727E0,6.947625404E0
8.901471708E0,-5.387938498E0,4.601269891E0,2.849968577E0,7.637007710E0
8.911410708E0,-4.576299649E0,6.685728596E0,3.036398277E0,8.652236696E0
8.921350708E0,-3.552312440E0,8.388782780E0,3.114470301E0,9.627591883E0
8.931289708E0,-2.698381850E0,9.379903375E0,3.521376868E0,1.037612389E1
8.941228708E0,-2.117712113E0,9.739042284E0,3.339860876E0,1.051134244E1
8.951167708E0,-1.453506129E0,1.043035918E1,3.224318433E0,1.101368703E1
8.961106708E0,-8.060427707E-1,1.095809027E1,3.161105354E0,1.143337371E1
8.971045708E0,-2.387118481E-1,1.134298558E1,3.025171331E0,1.174188940E1
8.980985708E0,3.804455781E-1,1.138682098E1,2.744818683E0,1.171914931E1
8.990924708E0,7.815381132E-1,1.139072108E1,2.438682152E0,1.167503744E1
9.000863708E0,9.949209926E-1,1.153489821E1,2.124377939E0,1.177101211E1
9.010802708E0,1.017110007E0,1.168560084E1,1.852295008E0,1.187513270E1
9.020741708E0,1.026987269E0,1.184414692E1,1.547982370E0,1.198894360E1
9.030681708E0,9.821321087E-1,1.208773842E1,1.229125514E0,1.218969865E1
9.040620708E0,9.830248323E-1,1.237171663E1,1.094871104E0,1.245891059E1
9.050559708E0,1.254535613E0,1.222218228E1,1.225778714E0,1.234739376E1
9.060498708E0,1.234089654E0,1.293689680E1,1.416382596E0,1.307258260E1
9.070437708E0,1.536789484E0,1.337920008E1,1.740029490E0,1.357911703E1
9.080376708E0,2.168229571E0,1.319463973E1,1.869992337E0,1.350172613E1
9.090316708E0,2.922148361E0,1.264246611E1,1.794700080E0,1.309930718E1
9.100255708E0,3.322247016E0,1.223930994E1,1.778748583E0,1.280632577E1
9.110194708E0,3.499501265E0,1.184963395E1,1.843043689E0,1.249228337E1
9.120133708E0,3.603903301E0,1.133394695E1,1.909966242E0,1.204551550E1
9.130072708E0,3.532407933E0,1.083083147E1,1.963786207E0,1.156033184E1
9.140012708E0,3.242284880E0,1.043320677E1,2.083407083E0,1.112226595E1
9.149951708E0,2.585936092E0,1.018555731E1,2.413190339E0,1.078221363E1
9.159890708E0,2.145136139E0,1.002589791E1,2.761445240E0,1.061818336E1
9.169829708E0,2.142535005E0,9.858910789E0,3.020176055E0,1.053138365E1
9.179768708E0,2.197648229E0,9.710501440E0,3.209149878E0,1.046050376E1
9.189708708E0,2.284378517E0,9.559464936E0,3.332737798E0,1.037828966E1
9.199647708E0,2.318756929E0,9.422923095E0,3.413574677E0,1.028691428E1
9.209586708E0,2.420911002E0,9.268544322E0,3.473426192E0,1.018977004E1
9.219525708E0,2.525583764E0,9.062831089E0,3.544750528E0,1.005379217E1
9.229464708E0,2.644352993E0,8.842674065E0,3.596715903E0,9.905647513E0
9.239403708E0,2.743294021E0,8.569062379E0,3.595999619E0,9.689463628E0
9.249343708E0,2.894624348E0,8.270492438E0,3.580241958E0,9.465623474E0
9.259282708E0,3.015483956E0,7.922637486E0,3.554338500E0,9.192097171E0
9.269221708E0,3.058243183E0,7.593883633E0,3.532760228E0,8.916294904E0
9.279160708E0,2.900085355E0,7.199994721E0,3.437892662E0,8.489377186E0
9.289099708E0,2.571431782E0,6.619380240E0,3.169307828E0,7.776436734E0
9.299039708E0,1.855224170E0,5.698396997E0,2.933277659E0,6.672158788E0
9.308978708E0,6.570826131E-1,4.400626779E0,2.902523059E0,5.312430114E0
9.318917708E0,-1.797795157E0,1.764879134E0,3.194071663E0,4.068041245E0
9.328856708E0,-7.934195677E0,-6.534507905E0,4.951813978E0,1.140928202E1
9.338795708E0,-2.031406918E1,-2.720533091E1,8.220745497E0,3.493382448E1
9.348734708E0,-2.217283822E1,-4.714442984E1,6.148188799E0,5.245981553E1
9.358674708E0,-1.467159495E1,-4.870543528E1,-3.296926526E0,5.097396245E1
9.368613708E0,-9.448062029E0,-3.190528075E1,-6.425413479E0,3.388950803E1
9.378552708E0,-4.560305760E0,-1.543797313E1,-1.026094078E1,1.908963878E1
9.388491708E0,7.882220362E0,-1.427650560E1,-3.498391230E1,3.859821408E1
9.398430708E0,2.074172283E0,-1.377379942E1,-2.411562942E1,2.784929664E1
9.408369708E0,-1.223976603E0,-5.630558186E0,4.992042822E0,7.623765195E0
9.418309708E0,-1.944952033E0,9.753179097E-1,1.022926875E1,1.045810798E1
9.428248708E0,-2.894477290E0,4.638136001E0,4.730610886E0,7.229729159E0
9.438187708E0,-9.608425426E-1,2.935545502E0,-9.263159037E0,9.764566612E0
9.448126708E0,1.749779284E-3,4.941446865E-1,-1.311059653E1,1.311990562E1
9.458065708E0,-4.539646670E-1,1.288411165E0,-5.064724297E0,5.245714389E0
9.468005708E0,-1.059277787E0,2.131128842E0,-2.014237154E0,3.117840740E0
9.477944708E0,-2.166578756E0,2.965601944E0,-8.023531777E-1,3.759338907E0
9.487883708E0,-2.402654241E0,3.110953785E0,-1.590629768E-1,3.933965161E0
9.497822708E0,-2.282902972E0,3.247127252E0,8.193989807E-1,4.053010740E0
9.507761708E0,-1.604470128E0,3.137517686E0,1.640278476E0,3.887011075E0
9.517700708E0,-1.384560733E0,2.747513664E0,2.054219829E0,3.699413314E0
9.527640708E0,-9.579355994E-1,1.845939084E0,1.063733073E0,2.335949436E0
9.537579708E0,-6.923883936E-1,8.363015270E-1,6.570943075E-1,1.269084261E0
9.547518708E0,-3.696141958E-1,-5.416919053E-1,-8.435251772E-1,1.068447237E0
9.557457708E0,-4.379254621E-1,-8.173220497E-1,-1.421922979E0,1.697544992E0
9.567396708E0,-1.838773906E-1,8.901023430E-1,1.848614185E0,2.059967835E0
9.577336708E0,-3.493647033E-1,1.142897356E0,3.604802018E0,3.797745074E0
9.587275708E0,-7.275456548E-1,2.291792786E-1,2.178750905E0,2.308419660E0
9.597214708E0,-7.464204669E-2,-1.684231997E-1,2.122954434E0,2.130932505E0
9.607153083E0,4.327945304E-1,-1.120770907E0,1.904521168E0,2.251808032E0
9.617092083E0,1.298792896E0,-1.215536147E0,1.546889087E0,2.357383498E0
9.627031083E0,1.790836678E0,1.013183309E0,3.821943634E0,4.340609354E0
9.636971083E0,1.822206405E0,9.760488117E-1,4.951066704E0,5.365274361E0
9.646910083E0,9.644128525E-1,2.258586448E-1,4.466848835E0,4.575351658E0
9.656849083E0,-2.628849685E-2,-1.204106010E0,3.930907082E0,4.111276305E0
9.666788083E0,-1.008002676E0,-2.986650167E0,2.940991891E0,4.311099850E0
9.676727083E0,-9.845366299E-1,-4.946006523E0,1.719791839E0,5.328224552E0
9.686667083E0,-2.258487046E-1,-6.606866614E0,7.027876666E-1,6.647977482E0
9.696606083E0,7.354148376E-1,-8.400479550E0,2.082687584E-1,8.435180350E0
9.706545083E0,2.032559404E0,-9.891435342E0,-8.627750883E-1,1.013489870E1
9.716484083E0,3.125667134E0,-1.020079281E1,-1.987759499E0,1.085251846E1
9.726423083E0,3.727014672E0,-9.306823704E0,-2.695610562E0,1.038142197E1
9.736362083E0,4.445961996E0,-7.937704006E0,-3.345643480E0,9.693660468E0
9.746302083E0,4.801704842E0,-5.923211914E0,-3.939589028E0,8.582608606E0
9.756241083E0,4.817212828E0,-3.584587609E0,-4.197450361E0,7.326213025E0
9.766180083E0,3.966579190E0,-1.466564716E0,-4.147503737E0,5.923373177E0
9.776119083E0,2.802618409E0,-1.700019479E-1,-4.040139210E0,4.919989375E0
9.786058083E0,1.758030875E0,1.611106718E-1,-4.035400334E0,4.404666283E0
9.795998083E0,9.536042744E-1,-1.387257761E-1,-3.709348772E0,3.832476258E0
9.805937083E0,5.256892455E-1,-8.786973488E-1,-2.870748997E0,3.047894030E0
9.815876083E0,1.690535295E-1,-1.491206052E0,-2.157657951E0,2.628262244E0
9.825815083E0,-1.230564076E-1,-1.856478106E0,-1.519229710E0,2.402022637E0
9.835754083E0,-3.545967919E-1,-2.095676004E0,-1.270655656E0,2.476320374E0
9.845693083E0,-6.689471984E-1,-2.287510870E0,-1.418505574E0,2.773509401E0
9.855633083E0,-7.762360042E-1,-2.495440782E0,-1.576748771E0,3.052196540E0
9.865572083E0,-7.991296077E-1,-2.902694090E0,-1.639275825E0,3.428041181E0
9.875511083E0,-7.925357026E-1,-3.272145149E0,-1.536145121E0,3.700647044E0
9.885450083E0,-7.166072685E-1,-3.353750060E0,-1.483021997E0,3.736377883E0
9.895389083E0,-4.192991567E-1,-3.165798914E0,-1.568932213E0,3.558039184E0
9.905328083E0,-2.080263913E-1,-2.801626722E0,-1.795141983E0,3.333904919E0
9.915268083E0,2.327916884E-1,-2.366226087E0,-2.165258162E0,3.215829718E0
9.925207083E0,6.257590789E-1,-2.037561112E0,-2.445266702E0,3.243849404E0
9.935146083E0,8.254923642E-1,-1.921493881E0,-2.550736147E0,3.298458923E0
9.945085083E0,1.001101207E0,-1.812056224E0,-2.498910520E0,3.245043170E0
9.955024083E0,1.054227254E0,-1.647393368E0,-2.525479099E0,3.194267473E0
9.964964083E0,1.167159793E0,-1.684805608E0,-2.436925649E0,3.184248504E0
9.974903083E0,1.211017419E0,-1.721941860E0,-2.185533967E0,3.034502542E0
9.984842083E0,1.266801318E0,-1.803031631E0,-1.774483478E0,2.829222553E0
9.994781083E0,1.343569120E0,-1.985241981E0,-1.204673482E0,2.682834676E0
1.000472008E1,1.416229837E0,-2.197980058E0,-4.389732832E-1,2.651324354E0
1.001465908E1,1.439704069E0,-2.525583179E0,3.262231779E-1,2.925361476E0
1.002459908E1,1.276903844E0,-2.899420819E0,9.489650935E-1,3.307213217E0
1.003453808E1,1.124155568E0,-3.463585328E0,1.395195356E0,3.899579355E0
1.004447708E1,9.442832279E-1,-4.245886649E0,1.605598056E0,4.636504003E0
1.005441608E1,7.895033365E-1,-4.994091101E0,1.607154292E0,5.305394082E0
1.006435508E1,7.222539246E-1,-5.857717836E0,1.593253999E0,6.113343381E0
1.007429408E1,6.151393658E-1,-7.001691080E0,1.716514474E0,7.235226076E0
1.008423408E1,2.581504780E-1,-8.508929613E0,1.816545424E0,8.704502404E0
1.009417308E1,-3.044996023E-2,-1.018164669E1,1.411586271E0,1.027907740E1
1.010411208E1,-6.327561495E-1,-1.173797201E1,6.115854281E-1,1.177091347E1
1.011405108E1,-1.766228086E0,-1.307450167E1,-1.224365150E0,1.324995191E1
1.012399008E1,-2.285047000E0,-1.550957112E1,-3.003474652E0,1.596211440E1
1.013393008E1,-2.774744732E0,-1.671971906E1,-2.912498994E0,1.719682715E1
1.014386908E1,-4.883299813E0,-1.653439740E1,-4.401323475E0,1.779338537E1
1.015380808E1,-5.225091788E0,-1.538080841E1,-3.846576491E0,1.669332209E1
1.016374708E1,-4.924884042E0,-1.269038287E1,-2.405297767E0,1.382337721E1
1.017368608E1,-6.245028630E0,-1.035125687E1,-2.585541990E0,1.236260202E1
1.018362508E1,-6.678568096E0,-8.190955102E0,-2.381368914E0,1.083355598E1
1.019356508E1,-6.994972630E0,-5.972173575E0,-1.467054713E0,9.313900838E0
1.020350408E1,-7.510901118E0,-3.490740967E0,-1.318622851E0,8.386755888E0
1.021344308E1,-7.425688475E0,-7.725586903E-1,-1.187079356E0,7.559553800E0
1.022338208E1,-7.322696203E0,1.830283749E0,-7.016869283E-1,7.580513362E0
1.023332108E1,-7.341414310E0,4.094273610E0,-3.505418940E-1,8.413222930E0
1.024326008E1,-6.906375618E0,6.230881877E0,4.324819967E-2,9.301816142E0
1.025320008E1,-6.032872936E0,8.011986449E0,3.421441229E-1,1.003516544E1
1.026313908E1,-4.502930541E0,9.530072737E0,3.931761360E-1,1.054766596E1
1.027307808E1,-3.098184051E0,1.067199653E1,4.704167584E-1,1.112256923E1
1.028301708E1,-2.055959668E0,1.153610274E1,3.310939085E-1,1.172255346E1
1.029295608E1,-1.250972028E0,1.216142971E1,-2.323964167E-1,1.222780895E1
1.030289608E1,-7.409974667E-1,1.249049697E1,-7.015442562E-1,1.253210901E1
1.031283508E1,-3.597480427E-1,1.265754725E1,-1.270196503E0,1.272620604E1
1.032277408E1,-1.769678821E-1,1.280686642E1,-1.553492932E0,1.290195665E1
1.033271308E1,-1.022761340E-1,1.281249144E1,-1.874408593E0,1.294927816E1
1.034265208E1,7.745075673E-3,1.269447007E1,-2.237066356E0,1.289007744E1
1.035259108E1,1.376080808E-1,1.261729384E1,-2.370157170E0,1.283871820E1
1.036253108E1,2.710485587E-1,1.255729556E1,-2.536201723E0,1.281372149E1
1.037247008E1,3.548115309E-1,1.261226056E1,-2.705433592E0,1.290404505E1
1.038240908E1,3.873616648E-1,1.269538809E1,-2.832310570E0,1.301325904E1
1.039234808E1,3.960855643E-1,1.275890990E1,-2.842715106E0,1.307775572E1
1.040228708E1,4.248101574E-1,1.277255730E1,-2.698081888E0,1.306132955E1
1.041222708E1,4.912142082E-1,1.274153899E1,-2.493885423E0,1.299259680E1
1.042216608E1,5.490316227E-1,1.267460708E1,-2.249202837E0,1.288433210E1
1.043210508E1,6.301326500E-1,1.260880252E1,-1.960509574E0,1.277585871E1
1.044204408E1,6.903006452E-1,1.255402112E1,-1.640896527E0,1.267960972E1
1.045198308E1,7.088582459E-1,1.244263400E1,-1.339857892E0,1.253462565E1
1.046192208E1,6.145009229E-1,1.232694099E1,-1.047960866E0,1.238665845E1
1.047186208E1,2.202366932E-1,1.202759513E1,-8.087727626E-1,1.205676831E1
1.048180108E1,-2.408906668E-2,1.156769992E1,-7.938109803E-1,1.159492983E1
1.049174008E1,-1.566111662E-1,1.129978869E1,-8.424575488E-1,1.133223218E1
1.050167908E1,-2.407710182E-1,1.107718987E1,-7.599287045E-1,1.110583620E1
1.051161808E1,-3.097764952E-1,1.093769167E1,-5.655106113E-1,1.095668120E1
1.052155708E1,-3.565710311E-1,1.080857813E1,-3.419697297E-1,1.081986356E1
1.053149708E1,-3.255098176E-1,1.066562774E1,-6.419073343E-2,1.067078686E1
1.054143608E1,-2.702911980E-1,1.046948056E1,2.839232139E-1,1.047681692E1
1.055137508E1,-2.523386380E-1,1.030507673E1,6.582748604E-1,1.032916294E1
1.056131408E1,-1.997069728E-1,1.012605370E1,1.019267921E0,1.017918236E1
1.057125308E1,-1.545875180E-1,9.945048462E0,1.363429188E0,1.003926418E1
1.058119308E1,-6.447900116E-2,9.680157899E0,1.677705627E0,9.824678654E0
1.059113208E1,1.411839455E-2,9.408731318E0,1.863204889E0,9.591452278E0
1.060107108E1,1.267499475E-1,9.029544645E0,1.975181407E0,9.243921443E0
1.061101008E1,3.068762031E-1,8.570557512E0,2.080494293E0,8.824799464E0
1.062094908E1,3.359276555E-1,7.977494309E0,2.092696555E0,8.254249918E0
1.063088808E1,5.421582207E-2,7.180438709E0,2.012191067E0,7.457248306E0
1.064082808E1,-9.191246324E-1,6.097862399E0,1.976304073E0,6.475684806E0
1.065076708E1,-3.166762827E0,3.998847635E0,1.864406345E0,5.430946532E0
1.066070608E1,-6.141676755E0,6.312145311E-1,1.912668094E0,6.463507127E0
1.067064508E1,-9.686075281E0,-5.710800696E0,2.446461873E0,1.150732265E1
1.068058408E1,-1.718490716E1,-2.344631033E1,3.329518028E0,2.925980507E1
1.069052308E1,-1.754025649E1,-4.797014557E1,3.623392363E0,5.120473060E1
1.070046308E1,-1.196276237E1,-5.136604938E1,1.694947896E0,5.276790275E1
1.071040208E1,-6.161670139E0,-3.524142134E1,-1.078486767E-1,3.577618745E1
1.072034108E1,-3.394292022E0,-1.765784049E1,9.997081080E-1,1.800888573E1
1.073028008E1,-1.622337172E0,-8.177190172E0,1.747911976E0,8.517840882E0
1.074021908E1,3.455660304E0,-5.829068234E0,-5.766028233E0,8.897567431E0
1.075015808E1,1.414268155E1,-1.563860046E1,-3.766478817E1,4.316500357E1
1.076009808E1,-1.700093446E0,-1.050307281E1,-1.339793806E1,1.710875801E1
1.077003708E1,-2.703142945E0,-2.807369857E0,-6.344550580E-1,3.948523840E0
1.077997608E1,-9.221263736E-2,-7.073546344E-1,-2.430105749E0,2.532640460E0
1.078991508E1,1.738934453E0,-9.639310420E-1,-4.903887275E0,5.291612844E0
1.079985408E1,2.747244692E0,-1.659263216E0,-4.305966790E0,5.370461602E0
1.080979408E1,2.048317942E0,-4.687280095E-1,3.724904412E-1,2.134024711E0
1.081973308E1,8.748987052E-1,-4.145845467E-1,3.112373489E0,3.259477999E0
1.082967208E1,6.753922918E-1,-6.454226804E-1,2.380391552E0,2.557144721E0
1.083961108E1,8.405466056E-1,1.682717568E-1,3.250454902E0,3.361590554E0
1.084955008E1,1.655045912E0,4.638514316E-1,3.806173108E0,4.176276913E0
1.085948908E1,2.185363813E0,3.835592204E-1,4.126649058E0,4.685313770E0
1.086942908E1,2.182166848E0,-2.531622183E-1,4.060154229E0,4.616361730E0
1.087936808E1,1.833505857E0,-1.381273720E0,3.821859434E0,4.458281098E0
1.088930708E1,1.066427470E0,-2.414873752E0,3.420220622E0,4.320508291E0
1.089924608E1,7.996687210E-1,-3.973709870E0,2.328073005E0,4.674373125E0
1.090918508E1,5.051307276E-1,-5.782248409E0,1.377660433E0,5.965526128E0
1.091912408E1,3.635120416E-1,-7.385273690E0,6.173873278E-1,7.419944446E0
1.092906408E1,5.553957322E-1,-7.652535299E0,-4.111235797E-2,7.672773367E0
1.093900308E1,1.427573436E0,-6.897548077E0,-9.656469074E-1,7.109613867E0
1.094894208E1,2.712229226E0,-5.803208338E0,-1.697361627E0,6.626797936E0
1.095888108E1,3.996143590E0,-4.618715644E0,-2.196898031E0,6.490613126E0
1.096882008E1,4.888114703E0,-3.293813760E0,-2.415937945E0,6.370214329E0
1.097875908E1,5.714067535E0,-2.157523173E0,-2.350108237E0,6.544347391E0
1.098869908E1,6.012966675E0,-1.272927738E0,-1.940563698E0,6.445300670E0
1.099863808E1,5.989826319E0,-7.766002858E-1,-1.544082131E0,6.234205399E0
1.100857708E1,5.528937671E0,-9.579089946E-1,-1.097682592E0,5.717661103E0
1.101851608E1,4.822080927E0,-1.698575801E0,-7.809494448E-1,5.171799131E0
1.102845508E1,4.140577710E0,-2.516540460E0,-7.404168382E-1,4.901589207E0
1.103839508E1,3.603322672E0,-3.012649811E0,-6.216619349E-1,4.737769172E0
1.104833408E1,2.899523145E0,-2.581435783E0,-7.221299636E-1,3.948736108E0
1.105827308E1,2.152776403E0,-1.296549904E0,-1.157655436E0,2.766885254E0
1.106821208E1,1.648117839E0,-5.147379953E-1,-1.552176139E0,2.321744685E0
1.107815108E1,1.267943571E0,-3.488793844E-1,-1.659605863E0,2.117472395E0
1.108809008E1,9.170328641E-1,-5.652187622E-1,-1.780589140E0,2.081086065E0
1.109803008E1,7.849512792E-1,-1.051296045E0,-2.019918308E0,2.408618246E0
1.110796908E1,6.862745449E-1,-1.719338679E0,-2.127327859E0,2.820039373E0
1.111790808E1,7.378519571E-1,-2.478528880E0,-2.173036713E0,3.377812825E0
1.112784708E1,7.121759561E-1,-2.683149853E0,-1.729014652E0,3.270470821E0
1.113778608E1,7.065860179E-1,-2.403509688E0,-1.360734791E0,2.850915957E0
1.114772508E1,7.440929827E-1,-1.794335652E0,-9.491653606E-1,2.161996688E0
1.115766508E1,8.027189210E-1,-1.256444437E0,-4.703187445E-1,1.563396946E0
1.116760408E1,8.420505095E-1,-8.270231652E-1,1.655989945E-2,1.180377315E0
1.117754308E1,9.126158774E-1,-5.263967586E-1,3.679050547E-1,1.115937013E0
1.118748208E1,9.902631006E-1,-4.245593119E-1,5.569917297E-1,1.212893814E0
1.119742108E1,1.009574407E0,-5.157244205E-1,5.945872799E-1,1.280135225E0
1.120736008E1,7.549796212E-1,-7.270527345E-1,4.732540467E-1,1.150030130E0
1.121730008E1,6.005391607E-1,-9.014167053E-1,3.067089728E-1,1.125730764E0
1.122723908E1,3.756532001E-1,-1.118124458E0,-1.235165834E-2,1.179605948E0
1.123717808E1,1.120078012E-1,-1.195929263E0,-4.803736165E-1,1.293658132E0
1.124711708E1,-1.101878554E-1,-1.174423204E0,-1.038425154E0,1.571540017E0
1.125705608E1,-2.981495261E-1,-1.050110815E0,-1.522278741E0,1.873221404E0
1.126699508E1,-5.498154420E-1,-1.026859362E0,-1.815018131E0,2.156624210E0
1.127693508E1,-7.449162707E-1,-7.409819716E-1,-2.100044166E0,2.348220610E0
1.128687408E1,-1.006894921E0,-4.326553667E-1,-2.369009070E0,2.610216853E0
1.129681308E1,-1.163023765E0,-1.925920808E-1,-2.526645326E0,2.788127075E0
1.130675208E1,-1.449228306E0,4.570651531E-2,-2.163224793E0,2.604206842E0
1.131669108E1,-1.547184518E0,1.823044896E-2,-1.384790820E0,2.076477281E0
1.132663008E1,-1.646402412E0,-5.263663530E-3,-5.763843128E-1,1.744387423E0
1.133657008E1,-1.874615438E0,-7.156056404E-2,-1.634051192E-1,1.883083956E0
1.134650908E1,-2.131650998E0,-1.100942999E-1,2.146337450E-1,2.145256250E0
1.135644808E1,-2.396812288E0,-3.850806659E-1,6.205176347E-1,2.505601404E0
1.136638708E1,-2.636269509E0,-9.691917819E-1,8.070648640E-1,2.922431065E0
1.137632608E1,-2.872840546E0,-1.635370908E0,6.180603424E-1,3.362982218E0
1.138626608E1,-3.267807392E0,-2.478607818E0,5.917420247E-1,4.143937800E0
1.139620508E1,-3.603983992E0,-3.502305590E0,1.895187843E-1,5.028992188E0
1.140614408E1,-4.093259410E0,-4.685553412E0,-4.716603881E-1,6.239522970E0
1.141608308E1,-4.495263965E0,-5.793489096E0,-1.787284787E0,7.547602330E0
1.142602208E1,-4.966441373E0,-6.794473944E0,-3.408355745E0,9.080049833E0
1.143596108E1,-5.262293528E0,-7.636261913E0,-4.498535774E0,1.030733008E1
1.144590108E1,-5.719663321E0,-8.089211211E0,-5.158931712E0,1.116980138E1
1.145584008E1,-5.862687385E0,-8.761084356E0,-4.867466430E0,1.161119856E1
1.146577908E1,-5.825139490E0,-9.625615071E0,-4.474026000E0,1.210791577E1
1.147571808E1,-5.525317075E0,-1.041553999E1,-4.749610244E0,1.271107390E1
1.148565708E1,-4.947368340E0,-1.149271172E1,-4.992905871E0,1.347174767E1
1.149559608E1,-4.498427893E0,-1.233878745E1,-4.959085575E0,1.403830684E1
1.150553608E1,-4.267327512E0,-1.228522696E1,-4.807924818E0,1.386553376E1
1.151547508E1,-3.960024462E0,-1.169088438E1,-4.314375378E0,1.307564172E1
1.152541408E1,-3.652203349E0,-1.043672796E1,-3.736856413E0,1.167167408E1
1.153535308E1,-3.164185375E0,-8.863012435E0,-3.128715580E0,9.917354470E0
1.154529208E1,-2.766184993E0,-7.321853619E0,-2.575032205E0,8.239666904E0
1.155523108E1,-2.430342269E0,-5.643574088E0,-2.013791596E0,6.466208211E0
1.156517108E1,-2.104388063E0,-3.649475330E0,-1.393612222E0,4.437259777E0
1.157511008E1,-1.910571136E0,-1.599311129E0,-6.202846232E-1,2.567650905E0
1.158504908E1,-1.648643211E0,5.930433226E-1,4.908284381E-1,1.819515698E0
1.159498808E1,-1.474085843E0,2.880672891E0,1.359379991E0,3.509860302E0
1.160492758E1,-1.508062406E0,5.073102188E0,2.129896249E0,5.705004474E0
1.161486658E1,-1.571145676E0,7.057056026E0,2.804190141E0,7.754612875E0
1.162480658E1,-1.271635649E0,8.320391407E0,3.539488327E0,9.130933578E0
1.163474558E1,-8.732443817E-1,9.145530015E0,3.983079156E0,1.001340075E1
1.164468458E1,-6.199304281E-1,9.830481627E0,4.236214477E0,1.072232232E1
1.165462358E1,-4.543887729E-1,1.013348902E1,4.354606268E0,1.103887062E1
1.166456258E1,-3.421071027E-1,1.024797984E1,4.229836627E0,1.109187297E1
1.167450158E1,-8.735586695E-2,1.037011063E1,3.980214605E0,1.110805716E1
1.168444158E1,1.863756135E-2,1.069651391E1,4.157301332E0,1.147601462E1
1.169438058E1,-5.022028074E-1,1.105717718E1,4.342040602E0,1.188977256E1
1.170431958E1,-9.533319403E-1,1.149712169E1,4.437334722E0,1.236052541E1
1.171425858E1,-1.062790356E0,1.199112838E1,4.240873539E0,1.276329470E1
1.172419758E1,-8.793134992E-1,1.242880651E1,3.779891628E0,1.302059922E1
1.173413658E1,-5.110149269E-1,1.269383740E1,3.404993888E0,1.315251412E1
1.174407658E1,-6.032952458E-2,1.290191993E1,3.330958782E0,1.332510653E1
1.175401558E1,4.238156922E-1,1.302872382E1,3.481700002E0,1.349257199E1
1.176395458E1,8.443679072E-1,1.312989702E1,3.729641826E0,1.367542983E1
1.177389358E1,1.458225417E0,1.275968875E1,3.995039636E0,1.344977397E1
1.178383258E1,1.721610323E0,1.239291162E1,4.111518510E0,1.317014749E1
1.179377158E1,4.879215679E-1,1.176661050E1,4.193906948E0,1.250120177E1
1.180371158E1,-1.100685064E0,1.126051879E1,4.201607147E0,1.206914635E1
1.181365058E1,-1.508966531E0,1.082313770E1,4.247581172E0,1.172430107E1
1.182358958E1,-1.831139489E0,1.049909670E1,4.435088514E0,1.154357456E1
1.183352858E1,-2.006860891E0,1.018223141E1,4.724625676E0,1.140295641E1
1.184346758E1,-2.080886787E0,9.929727588E0,5.099349754E0,1.135486449E1
1.185340758E1,-2.196837512E0,9.733846448E0,5.529638752E0,1.140836388E1
1.186334658E1,-2.344069818E0,9.474369822E0,5.963359482E0,1.143765724E1
1.187328558E1,-2.352109739E0,9.170450263E0,6.352927886E0,1.140128374E1
1.188322458E1,-2.302759531E0,8.859149179E0,6.738372833E0,1.136630521E1
1.189316358E1,-2.305029713E0,8.513945940E0,7.093532712E0,1.131895065E1
1.190310258E1,-2.340897703E0,8.223294883E0,7.385573652E0,1.129818919E1
1.191304258E1,-2.390080096E0,7.944717157E0,7.645713353E0,1.128219598E1
1.192298158E1,-2.457550825E0,7.649054452E0,7.923302314E0,1.128389603E1
1.193292058E1,-2.636013986E0,7.332122499E0,8.180345914E0,1.129719653E1
1.194285958E1,-2.884205779E0,6.904064798E0,8.327532027E0,1.119520180E1
1.195279858E1,-2.984434657E0,6.357918484E0,8.340539158E0,1.090387872E1
1.196273758E1,-3.033929290E0,5.716314036E0,8.158053989E0,1.041320402E1
1.197267758E1,-2.978230176E0,5.005781440E0,7.837011445E0,9.764550742E0
1.198261658E1,-3.165984855E0,4.081313841E0,7.391229663E0,9.017253391E0
1.199255558E1,-4.154050865E0,2.796853055E0,6.962220036E0,8.576189913E0
1.200249458E1,-6.128471988E0,8.014059287E-1,6.643687116E0,9.074083913E0
1.201243358E1,-8.433033339E0,-2.139635956E0,6.324393473E0,1.075602371E1
1.202237258E1,-1.008333160E1,-6.440525023E0,6.231346146E0,1.349013023E1
1.203231258E1,-1.075991059E1,-1.356703603E1,4.790591624E0,1.796635496E1
1.204225158E1,-1.030546616E1,-2.917647408E1,2.631119574E0,3.105466250E1
1.205219058E1,-7.477755007E0,-4.088284307E1,8.209935164E-1,4.156919181E1
1.206212958E1,-9.402769496E0,-3.668178702E1,-4.564793206E0,3.814187869E1
1.207206858E1,3.779779361E0,-3.034426596E1,-4.226405831E1,5.216619436E1
1.208200758E1,2.444252385E1,-3.925311647E1,-8.733116890E1,9.881789912E1
1.209194758E1,5.799938575E0,-2.553468083E1,-3.197753947E0,2.637962931E1
1.210188658E1,1.958788007E-2,-4.551943949E0,1.726280026E1,1.785286672E1
1.211182558E1,-4.394650340E-2,5.257076057E0,9.783128536E0,1.110623176E1
1.212176458E1,1.938768018E0,5.972764143E0,-5.543517119E-1,6.303970079E0
1.213170358E1,4.331805636E0,3.600451689E0,-9.485435677E0,1.103183042E1
1.214164258E1,4.484179983E0,2.921071889E0,-7.529792302E0,9.237873306E0
1.215158258E1,3.646541197E0,2.365833154E0,-4.397500273E0,6.183238461E0
1.216152158E1,2.400901830E-1,2.099073236E0,-1.651582898E0,2.681693088E0
1.217146058E1,-2.440812878E0,2.036706249E0,-9.398177093E-1,3.314965637E0
1.218139958E1,-3.271173634E0,8.118841392E-1,-2.390615993E0,4.132163794E0
1.219133858E1,-3.019084087E0,2.805464834E-2,-3.378462147E0,4.530967034E0
1.220127758E1,-2.236961106E0,-6.483936507E-1,-3.657069109E0,4.335731055E0
1.221121758E1,-1.169772329E0,-1.434057121E0,-3.196367573E0,3.693460814E0
1.222115658E1,7.199574307E-1,-2.118763442E0,-2.687281496E0,3.496995720E0
1.223109558E1,3.000541981E0,-2.475609073E0,-2.147419184E0,4.443343518E0
1.224103458E1,4.702315917E0,-1.840012347E0,-1.518782691E0,5.272961339E0
1.225097358E1,5.014552848E0,-1.170658182E0,-9.428483212E-1,5.234992244E0
1.226091258E1,4.403025307E0,-3.800997153E-1,2.743373251E-1,4.427907928E0
1.227085258E1,3.486372512E0,-1.896281272E-1,8.147440124E-1,3.585325637E0
1.228079158E1,2.345157107E0,-8.071160272E-1,2.480096519E-1,2.492530226E0
1.229073058E1,1.209153619E0,-1.601842097E0,-5.708110392E-1,2.086570348E0
1.230066958E1,5.817242825E-1,-1.998502004E0,-1.004227129E0,2.311035596E0
1.231060858E1,8.761093712E-1,-1.822791419E0,-6.612335515E-1,2.127760794E0
1.232054758E1,2.074121705E0,-1.690140316E0,-3.831007987E-1,2.702835799E0
1.233048758E1,3.433437376E0,-1.391410453E0,-6.693354535E-1,3.764641446E0
1.234042658E1,4.021587164E0,-1.158487203E0,-7.545282161E-1,4.252595530E0
1.235036558E1,3.665683227E0,-1.003229301E0,-7.006858850E-1,3.864539204E0
1.236030458E1,2.950314399E0,-1.113616839E0,-9.029211938E-1,3.280207951E0
1.237024358E1,2.406636779E0,-1.218092842E0,-1.252177724E0,2.973819061E0
1.238018258E1,1.839056619E0,-1.253246595E0,-9.652700543E-1,2.425799364E0
1.239012258E1,1.271702161E0,-1.060507749E0,-4.927366769E-1,1.727626263E0
1.240006158E1,1.058072091E0,-7.703075123E-1,-2.909486800E-1,1.340724188E0
1.241000058E1,1.163908741E0,-2.156771806E-1,-4.904118240E-1,1.281289960E0
1.241993958E1,1.153516777E0,5.384566408E-1,-6.451320738E-1,1.427141164E0
1.242987858E1,1.317358098E0,6.703014135E-1,-5.808197182E-1,1.588108274E0
1.243981758E1,1.459936897E0,4.831387648E-1,-4.339078403E-1,1.597846934E0
1.244975758E1,1.508079947E0,1.923938602E-1,-3.285480309E-1,1.555398448E0
1.245969658E1,1.343858849E0,1.873009354E-2,-2.905452222E-1,1.375035981E0
1.246963558E1,1.073028099E0,7.420876801E-2,-5.971159083E-1,1.230220976E0
1.247957458E1,8.594056302E-1,3.990432322E-3,-9.549672604E-1,1.284739829E0
1.248951358E1,6.538163584E-1,2.577306479E-2,-1.038279558E0,1.227258947E0
1.249945258E1,6.811810353E-1,2.108617061E-1,-1.123413849E0,1.330612242E0
1.250939258E1,9.068399978E-1,4.755289060E-1,-1.194037689E0,1.572962976E0
1.251933158E1,1.226554055E0,7.556190142E-1,-1.309801449E0,1.947042573E0
1.252927058E1,1.374408212E0,9.869860286E-1,-1.439580985E0,2.221605898E0
1.253920958E1,1.482958262E0,1.104710945E0,-1.477714187E0,2.367105975E0
1.254914858E1,1.494003945E0,9.625394046E-1,-1.260636891E0,2.178929843E0
1.255908758E1,1.490113500E0,6.677619678E-1,-1.162935179E0,2.004685142E0
1.256902758E1,1.327702408E0,3.663450176E-1,-1.422639847E0,1.980127897E0
1.257896658E1,9.411254391E-1,-2.092572302E-1,-1.756596553E0,2.003780709E0
1.258890558E1,4.372834378E-1,-1.789102979E0,-1.323962236E0,2.268255337E0
1.259884458E1,1.639094415E-1,-4.726490353E0,-5.502405345E-2,4.729651680E0
1.260878300E1,1.067442546E0,-8.993185489E0,-9.919503146E-1,9.110476620E0
1.261872200E1,1.398724735E0,-1.211367199E1,-4.936684892E0,1.315554399E1
1.262866200E1,-5.510727395E-1,-1.432445043E1,-9.061009682E0,1.695863962E1
1.263860100E1,-2.860711082E0,-1.584845352E1,-1.186464843E1,2.000317548E1
1.264854000E1,-2.287821796E0,-1.703233342E1,-1.085800348E1,2.032807787E1
1.265847900E1,-1.564296833E0,-1.725649696E1,-6.037822019E0,1.834908735E1
1.266841800E1,-1.860694972E0,-1.683415959E1,-1.613371637E0,1.701335014E1
1.267835700E1,-2.591463758E0,-1.507309869E1,-2.966684264E-1,1.529712393E1
1.268829700E1,-2.507184330E0,-1.221951712E1,-1.573086952E0,1.257287455E1
1.269823600E1,-2.184105346E0,-1.080825303E1,-2.804360880E0,1.137774537E1
1.270817500E1,-2.650592557E0,-1.161108509E1,-2.937187108E0,1.226662162E1
1.271811400E1,-3.655734190E0,-1.165134434E1,-4.135903154E0,1.289278528E1
1.272805300E1,-3.829620151E0,-1.087845470E1,-4.683064544E0,1.244740377E1
1.273799200E1,-4.743433830E0,-9.571504353E0,-4.963646988E0,1.177928909E1
1.274793200E1,-5.066273224E0,-7.743907399E0,-5.054109262E0,1.054415699E1
1.275787100E1,-5.675667116E0,-5.741540678E0,-3.744203147E0,8.899300185E0
1.276781000E1,-6.918193426E0,-3.841608989E0,-2.860908133E0,8.414520500E0
1.277774900E1,-6.923388677E0,-1.928630408E0,-2.754087397E0,7.696617660E0
1.278768800E1,-6.839190525E0,-5.887502968E-2,-2.219483778E0,7.190556415E0
1.279762700E1,-6.395244770E0,2.122322350E0,-1.703695039E0,6.950250687E0
1.280756700E1,-5.660073761E0,4.683053727E0,-1.537565117E0,7.505433611E0
1.281750600E1,-4.328080375E0,7.020805044E0,-1.047773244E0,8.313952848E0
1.282744500E1,-3.639075180E0,9.023662931E0,-8.218246982E-2,9.730165200E0
1.283738400E1,-3.171471005E0,1.043197418E1,3.608468807E-1,1.090937780E1
1.284732300E1,-2.583797473E0,1.137456756E1,4.358549631E-1,1.167247900E1
1.285726200E1,-2.084184032E0,1.203890598E1,2.957591844E-1,1.222156102E1
1.286720200E1,-1.560147210E0,1.225357481E1,-8.750117026E-2,1.235280581E1
1.287714100E1,-1.019393856E0,1.231298720E1,-4.096312972E-1,1.236190177E1
1.288708000E1,-6.118341541E-1,1.240906748E1,-6.016305069E-1,1.243869993E1
1.289701900E1,-3.356312748E-1,1.260158939E1,-6.243727040E-1,1.262151119E1
1.290695800E1,-1.246747707E-1,1.296139664E1,-8.117537463E-1,1.298738968E1
1.291689700E1,1.981383841E-1,1.315184162E1,-8.446080816E-1,1.318042335E1
1.292683700E1,5.929225045E-1,1.303428335E1,-7.153752601E-1,1.306735862E1
1.293677600E1,1.075129369E0,1.299649630E1,-5.714285052E-1,1.305340377E1
1.294671500E1,1.512708603E0,1.298588478E1,-8.209841609E-2,1.307395238E1
1.295665400E1,1.888951495E0,1.290969906E1,6.304736888E-1,1.306238741E1
1.296659300E1,2.047134466E0,1.276261937E1,1.081215809E0,1.297089975E1
1.297653200E1,2.024509688E0,1.260661800E1,1.336811492E0,1.283793292E1
1.298647200E1,1.726540841E0,1.241818563E1,1.479930282E0,1.262467707E1
1.299641100E1,8.596906820E-1,1.193618561E1,1.637669303E0,1.207864047E1
1.300635000E1,2.552221924E-1,1.112935872E1,1.788062174E0,1.127496919E1
1.301628900E1,3.546671046E-1,1.042106912E1,2.042769081E0,1.062531768E1
1.302622800E1,2.660564252E-1,9.973628483E0,2.520366293E0,1.029059266E1
1.303616700E1,1.525329526E-1,9.628932196E0,3.007981686E0,1.008898188E1
1.304610700E1,7.985630125E-2,9.400699582E0,3.426139759E0,1.000589643E1
1.305604600E1,7.010226846E-3,9.252376771E0,3.786282050E0,9.997122427E0
1.306598500E1,-1.421633542E-2,9.168333571E0,4.088175548E0,1.003851194E1
1.307592400E1,2.087163627E-3,9.151337469E0,4.281961631E0,1.010357250E1
1.308586300E1,1.551394951E-1,9.173304874E0,4.391686679E0,1.017155359E1
1.309580200E1,6.143492608E-1,9.216726297E0,4.451580878E0,1.025387931E1
1.310574200E1,9.235200575E-1,9.208881088E0,4.580753181E0,1.032664902E1
1.311568100E1,1.044164196E0,9.221039788E0,4.762199299E0,1.043055108E1
1.312562000E1,1.196132746E0,9.244447362E0,4.829682892E0,1.049839880E1
1.313555900E1,9.866686709E-1,9.246650593E0,4.784846443E0,1.045795476E1
1.314549800E1,9.292341028E-1,9.197134616E0,4.768279527E0,1.040131005E1
1.315543700E1,7.623167074E-1,9.090697165E0,4.743347876E0,1.028208397E1
1.316537700E1,5.902483535E-1,8.837391690E0,4.620230365E0,9.989715393E0
1.317531600E1,6.698467925E-1,8.536527886E0,4.433005151E0,9.642226805E0
1.318525500E1,7.000005913E-1,8.176596680E0,4.285596552E0,9.258135444E0
1.319519400E1,5.520040548E-1,7.715567114E0,4.102689507E0,8.755954863E0
1.320513300E1,-3.358554424E-1,6.997719651E0,4.020231195E0,8.077322456E0
1.321507200E1,-2.766137631E0,5.582107573E0,3.849546292E0,7.323281300E0
1.322501200E1,-7.568170502E0,2.745421531E0,3.479148277E0,8.770348731E0
1.323495100E1,-1.389633017E1,-2.222619056E0,2.377873448E0,1.427243181E1
1.324489000E1,-1.935483111E1,-8.610921426E0,7.917121223E-1,2.119868541E1
1.325482900E1,-2.353889281E1,-1.781646142E1,-1.652138092E0,2.956747085E1
1.326476800E1,-2.062559947E1,-3.264279474E1,-1.741628031E1,4.235911026E1
1.327470700E1,5.277752981E0,-5.552474351E1,-6.169615219E1,8.317010890E1
1.328464700E1,9.473813167E0,-3.413974977E1,-1.562465602E1,3.872215808E1
1.329458600E1,-4.498610326E0,-1.290773323E1,1.125223211E1,1.770479595E1
1.330452500E1,-9.408563502E0,-2.811319651E0,1.547849200E1,1.833052918E1
1.331446400E1,-6.473899176E0,2.382856153E0,1.105524059E1,1.303102906E1
1.332440300E1,-3.134490582E-1,2.827039890E0,1.951156806E0,3.449263361E0
1.333434200E1,6.477129178E0,-6.218958235E-1,-1.435175927E1,1.575794882E1
1.334428100E1,7.308533077E0,-5.689442571E0,-2.804778839E1,2.953748205E1
1.335422100E1,-6.229506612E-1,-4.181065586E0,-7.296482551E0,8.432558009E0
1.336416000E1,-3.712958550E-1,-2.952731638E0,8.637161976E-1,3.098788539E0
1.337409900E1,6.210602564E-1,-2.364436255E0,1.612123548E0,2.928347141E0
1.338403800E1,1.770921354E0,-2.357128989E0,5.221598661E-1,2.994139349E0
1.339397700E1,3.115019062E0,-1.324410717E0,-2.806540722E-1,3.396494400E0
1.340391600E1,3.660789400E0,6.346427536E-1,7.980274075E-1,3.800131340E0
1.341385600E1,2.944173945E0,1.561308905E0,2.638950166E0,4.250870934E0
1.342379500E1,2.096793114E0,4.958637679E-1,1.960631050E0,2.913159171E0
1.343373400E1,8.762631530E-1,-4.557062602E-1,8.542606652E-1,1.305858565E0
1.344367300E1,-1.383439529E-1,-1.065559743E0,-3.314248610E-1,1.124455003E0
1.345361200E1,-1.504395324E0,-1.275955426E0,-2.752898365E-1,1.991745977E0
1.346355100E1,-2.624965965E0,-1.730629068E0,4.186659032E-1,3.171877114E0
1.347349100E1,-3.238462847E0,-2.165798153E0,5.306646413E-1,3.931911522E0
1.348343000E1,-3.060861858E0,-2.111966931E0,1.244065881E0,3.921349200E0
1.349336900E1,-1.968954854E0,-2.333041384E0,1.699482704E0,3.494010129E0
1.350330800E1,-8.197141457E-1,-2.376097357E0,1.743706951E0,3.059131226E0
1.351324700E1,1.480029684E-1,-2.994169686E0,1.468320635E0,3.338101627E0
1.352318600E1,1.062923818E0,-4.404266671E0,1.037199578E0,4.647919418E0
1.353312600E1,1.693226184E0,-5.781236256E0,5.353383207E-1,6.047833883E0
1.354306500E1,2.121763941E0,-7.006658875E0,-2.986348450E-2,7.320931815E0
1.355300400E1,2.932017877E0,-8.075644501E0,-4.930810779E-1,8.605573304E0
1.356294300E1,3.690285972E0,-8.979756773E0,-1.004416871E0,9.760281528E0
1.357288200E1,4.462631823E0,-9.369980065E0,-1.626193411E0,1.050505184E1
1.358282100E1,5.251835783E0,-9.433852710E0,-2.548385274E0,1.109385522E1
1.359276100E1,5.115133143E0,-8.099858406E0,-3.519442610E0,1.020582038E1
1.360270000E1,4.099860039E0,-4.979638538E0,-4.844598555E0,8.066956518E0
1.361263975E1,3.449827999E0,-2.456902369E0,-5.874685872E0,7.242210751E0
1.362257875E1,2.405539842E0,-9.817381525E-1,-5.686031306E0,6.251510517E0
1.363251775E1,2.563224045E0,-9.703413445E-1,-5.262331535E0,5.933280122E0
1.364245675E1,3.030148188E0,-1.980524447E0,-4.464603212E0,5.747778438E0
1.365239675E1,2.814383007E0,-2.616183447E0,-2.750793368E0,4.725677908E0
1.366233575E1,2.632676688E0,-2.736553643E0,-1.235788271E0,3.993355110E0
1.367227475E1,3.077587819E0,-3.273321608E0,-3.996411100E-1,4.510642321E0
1.368221375E1,3.051689331E0,-3.866901121E0,8.126343369E-2,4.926696235E0
1.369215275E1,2.572595378E0,-3.898170276E0,7.702811998E-1,4.733636192E0
1.370209175E1,2.430126799E0,-3.814396632E0,1.181114465E0,4.674416467E0
1.371203075E1,2.272741388E0,-3.687231386E0,1.524727847E0,4.591930283E0
1.372197075E1,2.166724936E0,-3.417609841E0,1.781775540E0,4.421479170E0
1.373190975E1,2.246971539E0,-3.176263091E0,1.869479097E0,4.316535696E0
1.374184875E1,2.471760728E0,-2.999449137E0,1.662731785E0,4.227407386E0
1.375178775E1,2.791880875E0,-2.847327390E0,1.462666962E0,4.247501233E0
1.376172675E1,2.990566924E0,-2.983531846E0,1.326726215E0,4.427770913E0
1.377166575E1,2.905330892E0,-3.034204987E0,1.153764699E0,4.356434376E0
1.378160575E1,2.893581789E0,-3.098153061E0,9.583311635E-1,4.346235909E0
1.379154475E1,3.169898104E0,-4.036235316E0,7.639577284E-1,5.188745603E0
1.380148375E1,2.867421639E0,-4.288705809E0,7.541130638E-1,5.213807715E0
1.381142275E1,2.805520675E0,-4.415267622E0,3.474573416E-1,5.242734119E0
1.382136175E1,2.567636646E0,-4.782441190E0,-4.371378422E-2,5.428297393E0
1.383130075E1,2.108944213E0,-5.098448113E0,-4.154645526E-1,5.533030784E0
1.384124075E1,1.795904168E0,-5.686759284E0,-5.755958158E-1,5.991311499E0
1.385117975E1,1.085068978E0,-6.169142296E0,-5.309073007E-1,6.286298905E0
1.386111875E1,4.423041496E-1,-6.400818921E0,-4.090413862E-1,6.429108078E0
1.387105775E1,8.540203446E-1,-7.545828876E0,-4.778280312E-1,7.609021212E0
1.388099675E1,8.066058576E-1,-8.816503097E0,-3.422837251E-1,8.859937811E0
1.389093575E1,8.470437393E-1,-1.017110299E1,-5.396904033E-1,1.022057165E1
1.390087575E1,4.693761733E-1,-1.135814624E1,-6.358364627E-1,1.138560881E1
1.391081475E1,-1.834604841E-1,-1.189813193E1,-9.138098788E-1,1.193458209E1
1.392075375E1,-3.130277663E-1,-1.219875833E1,3.335833606E-1,1.220733260E1
1.393069275E1,7.029142588E-2,-1.290472308E1,1.365067577E-1,1.290563648E1
1.394063175E1,-8.268807855E-1,-1.217792704E1,-1.692294137E0,1.232272285E1
1.395057075E1,-3.596750987E-1,-1.181756665E1,-2.628693272E0,1.211174125E1
1.396050975E1,7.473735631E-2,-1.144296127E1,-2.572523164E0,1.172880317E1
1.397044975E1,-1.341580774E-1,-1.122513845E1,-2.144167255E0,1.142887505E1
1.398038875E1,-8.055723622E-1,-1.102454154E1,-2.219400456E0,1.127453774E1
1.399032775E1,-1.547893054E0,-1.068260338E1,-2.593356209E0,1.110132804E1
1.400026675E1,-2.101360082E0,-9.933245273E0,-2.586817560E0,1.047743771E1
1.401020575E1,-2.896774954E0,-8.657020875E0,-2.205798663E0,9.391531467E0
1.402014475E1,-3.736235731E0,-7.141923684E0,-1.608153581E0,8.219044305E0
1.403008475E1,-4.699744897E0,-5.602028452E0,-4.212521267E-1,7.324464364E0
1.404002375E1,-5.812146392E0,-3.858157779E0,6.539107910E-1,7.006712956E0
1.404996275E1,-6.657176642E0,-1.876327649E0,1.479604884E0,7.073035905E0
1.405990175E1,-6.819704679E0,1.895059204E-1,1.677303631E0,7.025498692E0
1.406984075E1,-6.336492532E0,2.413164026E0,1.670782816E0,6.983266674E0
1.407977975E1,-5.893778785E0,4.576436766E0,1.866358438E0,7.691794047E0
1.408971975E1,-5.656353763E0,6.647066222E0,2.521167946E0,9.084828840E0
1.409965875E1,-5.242332888E0,8.600114602E0,3.143995816E0,1.055124329E1
1.410959775E1,-4.807553520E0,1.009670068E1,3.561066599E0,1.173614633E1
1.411953675E1,-4.265021077E0,1.108617821E1,3.625731834E0,1.241932701E1
1.412947575E1,-3.460381638E0,1.180872332E1,3.485845678E0,1.278949990E1
1.413941475E1,-2.928125385E0,1.224615586E1,3.019405684E0,1.294832276E1
1.414935475E1,-2.626892914E0,1.253171049E1,2.550183585E0,1.305556473E1
1.415929375E1,-2.326627281E0,1.296457518E1,2.770131279E0,1.345983029E1
1.416923275E1,-2.366126392E0,1.351812407E1,2.708457187E0,1.398835133E1
1.417917175E1,-2.493159199E0,1.405090833E1,2.349874641E0,1.446256473E1
1.418911075E1,-2.357735930E0,1.458025676E1,2.121431965E0,1.492123586E1
1.419904975E1,-1.997346009E0,1.503100224E1,2.036239057E0,1.529923819E1
1.420898975E1,-1.406950452E0,1.501066329E1,1.830990385E0,1.518723305E1
1.421892875E1,-6.068257580E-1,1.430668893E1,1.487331833E0,1.439658785E1
1.422886775E1,-7.796873233E-1,1.357146471E1,1.439247548E0,1.366982078E1
1.423880675E1,-2.220511134E0,1.285934167E1,1.709021852E0,1.316108254E1
1.424874575E1,-2.786549091E0,1.210673018E1,1.939087861E0,1.257369608E1
1.425868475E1,-2.621828641E0,1.132669290E1,2.222909954E0,1.183677684E1
1.426862475E1,-2.244533104E0,1.074429618E1,2.688082272E0,1.130060245E1
1.427856375E1,-1.725763161E0,1.039133720E1,3.252087737E0,1.102425607E1
1.428850275E1,-1.345896458E0,1.013754465E1,3.764723074E0,1.089744872E1
1.429844175E1,-1.131100599E0,9.896509556E0,4.343253899E0,1.086665286E1
1.430838075E1,-9.830808194E-1,9.578844362E0,4.863662524E0,1.078776716E1
1.431831975E1,-7.996212123E-1,9.265551133E0,5.292993749E0,1.070072963E1
1.432825875E1,-6.935630992E-1,8.907127923E0,5.750928383E0,1.062502399E1
1.433819875E1,-6.719425808E-1,8.556780303E0,6.199338487E0,1.058781345E1
1.434813775E1,-6.186817552E-1,8.154983616E0,6.694747927E0,1.056911419E1
1.435807675E1,-4.956561917E-1,7.741512964E0,7.125729235E0,1.053340948E1
1.436801575E1,-3.389877959E-1,7.348739702E0,7.530624361E0,1.052754440E1
1.437795475E1,-2.936291899E-1,7.031097897E0,7.837014953E0,1.053287041E1
1.438789375E1,-4.049293318E-1,6.855819422E0,8.052479587E0,1.058341416E1
1.439783375E1,-5.669531925E-1,6.777872529E0,8.143823621E0,1.061050683E1
1.440777275E1,-7.772256455E-1,6.813142934E0,8.120566905E0,1.062857484E1
1.441771175E1,-9.271060087E-1,6.844689832E0,7.988767156E0,1.056076253E1
1.442765075E1,-1.066038630E0,6.873449947E0,7.775672398E0,1.043272897E1
1.443758975E1,-1.229474301E0,6.848327969E0,7.499756325E0,1.023022717E1
1.444752875E1,-1.405377113E0,6.713157885E0,7.176263212E0,9.926748073E0
1.445746875E1,-1.506213224E0,6.500422146E0,6.911239917E0,9.606737404E0
1.446740775E1,-1.570143756E0,6.200716676E0,6.647450384E0,9.225119800E0
1.447734675E1,-1.896279957E0,5.731238469E0,6.418511426E0,8.811371118E0
1.448728575E1,-2.572432533E0,4.883019732E0,6.191694422E0,8.294478323E0
1.449722475E1,-3.869292047E0,3.124196559E0,5.652271237E0,7.528625055E0
1.450716375E1,-6.880847844E0,-8.956607062E-1,4.520811619E0,8.281667275E0
1.451710375E1,-1.321824260E1,-1.286755467E1,9.974040127E-1,1.847405520E1
1.452704275E1,-2.115592556E1,-4.148211250E1,-2.152257171E0,4.661513761E1
1.453698175E1,-1.753228790E1,-5.018930892E1,-1.330483051E0,5.318005297E1
1.454692075E1,-1.327648789E1,-4.136532256E1,-2.919204873E0,4.354166738E1
1.455685975E1,-7.970268320E0,-2.667179821E1,-8.211470643E0,2.902306405E1
1.456679875E1,2.274511340E-1,-1.616779452E1,-5.598259453E1,5.827092074E1
1.457673775E1,-5.819457750E0,-1.448358358E1,-7.599137824E1,7.757789536E1
1.458667775E1,-9.935156143E0,-1.329590766E1,5.119196373E0,1.736935979E1
1.459661675E1,-1.338575305E0,8.049470025E-1,1.358586524E1,1.367535951E1
1.460655563E1,6.308514190E-1,9.549271485E0,-4.670755863E-2,9.570200677E0
1.461649462E1,2.623551815E0,9.036535576E0,-3.476966096E0,1.003151497E1
1.462643363E1,1.826157077E0,3.643059765E0,-8.976754228E0,9.858440576E0
1.463637262E1,1.165127885E-1,1.562364913E0,-7.948542405E0,8.101474293E0
1.464631263E1,1.190227059E-1,1.171530002E0,-4.967802020E0,5.105458437E0
1.465625162E1,7.896629655E-1,1.427212370E0,-2.252003653E0,2.780651579E0
1.466619063E1,9.312801898E-1,2.524455251E0,-4.056190109E-1,2.721154881E0
1.467612962E1,1.466167398E0,2.863181530E0,-2.316836411E-1,3.225078700E0
1.468606863E1,2.151331556E0,2.576966171E0,2.922689813E-1,3.369629545E0
1.469600762E1,2.602562943E0,2.105620948E0,1.691479620E0,3.750743493E0
1.470594662E1,2.005537081E0,1.628759462E0,2.781691225E0,3.796424955E0
1.471588663E1,1.384045885E0,9.812984419E-1,2.610271912E0,3.113205598E0
1.472582562E1,8.246509498E-1,3.047402152E-1,1.661021474E0,1.879337150E0
1.473576463E1,2.123802280E-1,-7.879438841E-1,-9.308270305E-1,1.237901404E0
1.474570362E1,4.155089915E-2,-1.368601050E0,-2.972304608E0,3.272520434E0
1.475564263E1,4.815544617E-1,-9.291450790E-1,-2.802616655E0,2.991632563E0
1.476558162E1,1.128506774E0,1.452433750E-1,-1.323575150E0,1.745415239E0
1.477552163E1,1.848232947E0,9.279607254E-1,-2.538808411E-1,2.083634233E0
1.478546062E1,2.059072434E0,1.229701319E0,2.117247552E-1,2.407648644E0
1.479539962E1,1.617678403E0,8.320394915E-1,2.756827694E-1,1.839884268E0
1.480533863E1,1.203489713E0,4.769155732E-1,8.069572753E-1,1.525455997E0
1.481527762E1,8.638547766E-1,2.243085480E-1,1.530314569E0,1.771559223E0
1.482521663E1,3.517532909E-1,-5.356900308E-1,1.893737733E0,1.999234051E0
1.483515662E1,-3.967043459E-2,-1.296977628E0,2.138781677E0,2.501621829E0
1.484509563E1,-2.933594871E-1,-1.599742654E0,2.595963190E0,3.063374158E0
1.485503462E1,-5.481086397E-1,-2.259325536E0,2.729837531E0,3.585664221E0
1.486497363E1,-3.215132457E-1,-2.735027520E0,2.729349874E0,3.877253801E0
1.487491262E1,3.054462665E-1,-3.168753512E0,2.600562025E0,4.110622713E0
1.488485163E1,9.097858250E-1,-3.429204285E0,2.248791193E0,4.200501649E0
1.489479063E1,9.358638221E-1,-3.781920612E0,1.940804896E0,4.352641526E0
1.490473062E1,1.114192790E0,-4.454002503E0,1.685988500E0,4.891024544E0
1.491466963E1,1.241779620E0,-5.447060280E0,1.098312922E0,5.693748641E0
1.492460862E1,1.264101366E0,-6.617799153E0,4.973232329E-2,6.737632463E0
1.493454763E1,1.456057854E0,-7.750892483E0,-1.104813271E0,7.963482349E0
1.494448662E1,1.648347049E0,-8.034778311E0,-2.097076412E0,8.465957712E0
1.495442563E1,1.062642567E0,-6.890933706E0,-3.458829787E0,7.783166455E0
1.496436562E1,3.004749638E-1,-5.148885611E0,-5.235815581E0,7.349494747E0
1.497430463E1,-1.992608303E-1,-3.761420859E0,-6.880771830E0,7.844298103E0
1.498424362E1,-5.953979963E-1,-2.848445377E0,-8.202237890E0,8.703151512E0
1.499418262E1,-9.142753172E-1,-2.824306317E0,-8.673494235E0,9.167448270E0
1.500412163E1,-1.361973816E0,-3.541526374E0,-7.914799293E0,8.777324739E0
1.501406062E1,-1.789315233E0,-4.347590779E0,-5.975816975E0,7.603524387E0
1.502400063E1,-1.881656801E0,-4.962986838E0,-4.102804112E0,6.708567079E0
1.503393962E1,-1.723157788E0,-5.069106785E0,-2.691783267E0,5.992563184E0
1.504387863E1,-1.393386227E0,-4.725668820E0,-1.517883974E0,5.155331486E0
1.505381762E1,-9.333655992E-1,-4.258730058E0,-6.728177628E-1,4.411421176E0
1.506375663E1,-3.511285159E-1,-3.788023351E0,-4.226425946E-1,3.827667554E0
1.507369562E1,1.654884821E-1,-3.732692319E0,-4.773199081E-2,3.736663850E0
1.508363462E1,6.951126114E-1,-3.966472186E0,7.918910471E-1,4.104043686E0
1.509357462E1,9.057424754E-1,-4.744422594E0,1.884590934E0,5.184746684E0
1.510351362E1,1.002896887E0,-5.463464059E0,2.483339970E0,6.084588654E0
1.511345263E1,1.084841521E0,-6.014450113E0,2.393645728E0,6.563538006E0
1.512339162E1,9.611337340E-1,-6.855410702E0,1.705228179E0,7.129392476E0
1.513333063E1,8.762549669E-1,-7.588418241E0,7.979993409E-1,7.680411259E0
1.514326962E1,8.296304387E-1,-8.645538697E0,-2.792033780E-1,8.689739959E0
1.515320963E1,5.665972432E-1,-9.693055687E0,-1.917893751E0,9.897205536E0
1.516314862E1,4.944171667E-2,-1.049244257E1,-4.616407163E0,1.146320246E1
1.517308763E1,-4.878027964E-1,-1.230629097E1,-5.323979899E0,1.341743310E1
1.518302662E1,-1.189460781E0,-1.373598665E1,-5.354122880E0,1.479049621E1
1.519296562E1,-2.767700592E0,-1.371868825E1,-6.585401486E0,1.546706457E1
1.520290463E1,-3.949153318E0,-1.344000293E1,-7.247364185E0,1.577193008E1
1.521284362E1,-3.461346429E0,-1.315719182E1,-5.153951054E0,1.454839604E1
1.522278363E1,-2.879018129E0,-1.178297452E1,-4.331827855E0,1.287990553E1
1.523272262E1,-3.737096441E0,-1.027782052E1,-5.168344560E0,1.209591956E1
1.524266163E1,-3.999947496E0,-8.740975782E0,-5.154614128E0,1.090753338E1
1.525260062E1,-4.701460762E0,-7.116586529E0,-5.109181262E0,9.942498192E0
1.526253963E1,-5.119608602E0,-4.931017771E0,-4.907314328E0,8.637537983E0
1.527247862E1,-5.364777092E0,-2.584107960E0,-4.078403682E0,7.217466577E0
1.528241862E1,-5.887296562E0,-2.950469935E-1,-3.396514256E0,6.803206790E0
1.529235763E1,-6.077581331E0,1.816622314E0,-2.924822293E0,6.985105362E0
1.530229662E1,-6.436910859E0,3.971045294E0,-1.904257021E0,7.799308747E0
1.531223563E1,-6.107838333E0,6.186296858E0,-1.215877186E0,8.778058740E0
1.532217462E1,-5.459041225E0,8.229702846E0,-9.178608298E-1,9.918246243E0
1.533211363E1,-4.591553865E0,1.003045406E1,-8.220740819E-1,1.106201525E1
1.534205362E1,-3.592511463E0,1.125600474E1,-5.356095584E-1,1.182753816E1
1.535199263E1,-2.817702472E0,1.203984271E1,-3.996547779E-1,1.237162009E1
1.536193162E1,-2.293745171E0,1.273697582E1,-4.525429165E-1,1.294977278E1
1.537187063E1,-1.757901944E0,1.308224338E1,-5.184492230E-1,1.321000003E1
1.538180962E1,-1.220394160E0,1.317453466E1,-5.016361026E-1,1.324044426E1
1.539174862E1,-7.383508708E-1,1.319997239E1,-5.357850480E-1,1.323145868E1
1.540168763E1,-3.415702187E-1,1.312481696E1,-6.306584609E-1,1.314439883E1
1.541162762E1,-1.350073855E-1,1.319672368E1,-6.873600805E-1,1.321530199E1
1.542156663E1,-1.463596085E-1,1.319412284E1,-9.488592589E-1,1.322900724E1
1.543150562E1,-3.219466706E-1,1.334415654E1,-1.229984617E0,1.340458972E1
1.544144463E1,-4.031728283E-1,1.366114463E1,-1.452702137E0,1.374408107E1
1.545138362E1,-3.192337087E-1,1.392662810E1,-1.549323868E0,1.401617940E1
1.546132263E1,1.941056326E-2,1.416370346E1,-1.184638217E0,1.421317136E1
1.547126262E1,5.157412313E-1,1.427241489E1,-8.196556735E-1,1.430523161E1
1.548120162E1,1.026920611E0,1.345077818E1,-5.386683100E-1,1.350067269E1
1.549114063E1,4.631383637E-1,1.257011968E1,-3.001457655E-1,1.258222927E1
1.550107962E1,-5.766632250E-1,1.213245091E1,6.357677579E-2,1.214631415E1
1.551101863E1,-9.206916862E-1,1.164033520E1,5.692206696E-1,1.169055555E1
1.552095762E1,-1.022820982E0,1.125645380E1,1.166478592E0,1.136286000E1
1.553089663E1,-1.040316436E0,1.099049203E1,1.737205431E0,1.117546670E1
1.554083662E1,-9.135749669E-1,1.083828784E1,2.237981884E0,1.110457858E1
1.555077563E1,-7.869032259E-1,1.067266311E1,2.633289768E0,1.102085158E1
1.556071462E1,-7.607040453E-1,1.049670051E1,3.018097662E0,1.094843851E1
1.557065362E1,-7.028089359E-1,1.028384900E1,3.380628833E0,1.084804784E1
1.558059263E1,-6.445556845E-1,1.004759459E1,3.694731317E0,1.072476800E1
1.559053162E1,-5.540263874E-1,9.732376458E0,3.976027999E0,1.052781532E1
1.560047163E1,-4.772413362E-1,9.350581927E0,4.216317864E0,1.026832401E1
1.561041000E1,-3.460754983E-1,8.989143308E0,4.446858374E0,1.003488989E1
1.562034900E1,-2.131631702E-1,8.611544155E0,4.715013438E0,9.820156974E0
1.563028800E1,-1.508257118E-1,8.246005468E0,5.046842927E0,9.669021569E0
1.564022700E1,-2.074600884E-1,7.976878012E0,5.294573082E0,9.576331585E0
1.565016600E1,-3.487663139E-1,7.758159987E0,5.454144182E0,9.489909013E0
1.566010500E1,-5.186892512E-1,7.605859315E0,5.626080973E0,9.474751795E0
1.567004500E1,-7.279883621E-1,7.499794332E0,5.734190728E0,9.468781621E0
1.567998400E1,-8.842261836E-1,7.347011849E0,5.884992174E0,9.454817393E0
1.568992300E1,-8.611082663E-1,7.089402239E0,6.035858524E0,9.350546490E0
1.569986200E1,-6.662454193E-1,6.689135184E0,6.083033860E0,9.065964560E0
1.570980100E1,-4.806131331E-1,6.194516873E0,6.018189408E0,8.649949828E0
1.571974000E1,-5.804778754E-1,5.550374148E0,5.829039583E0,8.069777581E0
1.572968000E1,-1.172347589E0,4.446199393E0,5.486963434E0,7.158900449E0
1.573961900E1,-2.600243352E0,2.521308864E0,5.130621833E0,6.280250335E0
1.574955800E1,-5.528438319E0,-2.245896236E0,4.186555536E0,7.289370851E0
1.575949700E1,-1.418944992E1,-2.139377626E1,2.678664454E0,2.581103242E1
1.576943600E1,-1.775629123E1,-4.802145606E1,6.486335034E0,5.160831970E1
1.577937500E1,-1.263802573E1,-4.767820579E1,6.272758466E0,4.972201223E1
1.578931500E1,-6.511607870E0,-3.281638922E1,-2.365933142E0,3.353973879E1
1.579925400E1,-2.877439966E0,-1.616329801E1,-3.853577655E0,1.686362726E1
1.580919300E1,1.883219469E0,-9.815902179E0,-1.380414413E1,1.704267721E1
1.581913200E1,1.470889434E1,-1.297857576E1,-8.810345043E1,9.026080533E1
1.582907100E1,-2.290840275E0,-1.473060505E1,-3.475522302E1,3.781751183E1
1.583901000E1,-2.747021621E0,-8.002111672E0,1.212699195E1,1.478661059E1
1.584894900E1,-2.005780910E0,-3.982029873E-1,5.634923717E0,5.994504815E0
1.585888900E1,-2.747723287E0,1.319886142E0,-1.111246378E0,3.244526345E0
1.586882800E1,-3.663258972E0,3.410616571E-1,-4.887429702E0,6.117414359E0
1.587876700E1,-3.437904649E0,1.560048246E0,-3.457853302E0,5.119539859E0
1.588870600E1,-1.480794500E0,2.146363177E0,-3.012848032E0,3.984580342E0
1.589864500E1,5.146526259E-1,2.737632747E0,-4.308526701E-1,2.818711480E0
1.590858400E1,2.017284430E0,3.466987238E0,2.213286315E0,4.581274199E0
1.591852300E1,2.592937256E0,3.480954774E0,2.728448233E0,5.126870343E0
1.592846300E1,1.799772393E0,2.991864129E0,2.537122659E0,4.315949840E0
1.593840200E1,1.524736033E0,2.146377503E0,1.300749959E0,2.936614856E0
1.594834100E1,1.300949349E0,1.241487844E0,-2.547631860E-3,1.798267991E0
1.595828000E1,1.242333936E0,7.397031856E-1,-1.042337526E0,1.782420245E0
1.596821900E1,1.641599655E0,1.409845555E0,-7.532248718E-1,2.291257651E0
1.597815800E1,1.745171678E0,1.857470378E0,5.041112655E-1,2.598066312E0
1.598809800E1,1.200348004E0,1.184271669E0,7.784579462E-1,1.857237597E0
1.599803700E1,5.645162192E-1,7.639562666E-1,1.305673315E0,1.614648737E0
1.600797600E1,1.350367677E-1,2.669107765E-1,1.936913574E0,1.959875119E0
1.601791500E1,-2.865948433E-1,-3.897911829E-1,2.682963912E0,2.726237173E0
1.602785400E1,-8.735430282E-1,-1.037993045E0,3.218494606E0,3.492737395E0
1.603779300E1,-9.846740395E-1,-1.676134772E0,3.633162183E0,4.120543434E0
1.604773300E1,-1.896417512E0,-3.633180894E0,3.567483918E0,5.433538837E0
1.605767200E1,-2.767522836E0,-4.488097032E0,3.153232078E0,6.143701666E0
1.606761100E1,-2.393615615E0,-5.167117229E0,2.768144395E0,6.331754857E0
1.607755000E1,-1.455784205E0,-6.966354017E0,1.379581536E0,7.249320048E0
1.608748900E1,-3.170547438E-1,-7.944537063E0,8.031033754E-2,7.951266729E0
1.609742800E1,5.890485048E-1,-7.994782187E0,-5.963955313E-1,8.038607341E0
1.610736700E1,1.250374442E0,-7.837248257E0,-1.388303828E0,8.056878056E0
1.611730700E1,1.364609740E0,-7.400775243E0,-2.456864946E0,7.916427181E0
1.612724600E1,5.923919427E-1,-5.888341459E0,-3.950458125E0,7.115448879E0
1.613718500E1,-9.466782475E-1,-2.606907424E0,-5.801743026E0,6.430582256E0
1.614712400E1,-1.545959964E0,-4.162574351E-1,-6.906615354E0,7.089753036E0
1.615706300E1,-1.446291835E0,2.175134987E-1,-7.207375077E0,7.354272751E0
1.616700200E1,-6.509605783E-1,3.862319827E-2,-6.529386914E0,6.561869771E0
1.617694100E1,-4.097553313E-2,-3.342695314E-1,-4.782912768E0,4.794754390E0
1.618688100E1,1.714175588E-1,-4.382078826E-1,-2.947433476E0,2.984756979E0
1.619682000E1,3.215237707E-1,-4.312052572E-1,-1.456573286E0,1.552714155E0
1.620675900E1,4.015236211E-1,-6.031806403E-1,-3.180949634E-1,7.913485382E-1
1.621669800E1,4.089267808E-1,-8.325224715E-1,5.540020484E-1,1.080385601E0
1.622663700E1,4.561290139E-1,-1.085690537E0,1.201903656E0,1.682661587E0
1.623657600E1,4.022328883E-1,-1.301439931E0,1.710529264E0,2.186652134E0
1.624651600E1,2.871631926E-1,-1.288309423E0,2.043278520E0,2.432527693E0
1.625645500E1,2.463005108E-1,-1.104840168E0,2.083599457E0,2.371228044E0
1.626639400E1,2.569862974E-1,-8.882803506E-1,1.845466629E0,2.064178049E0
1.627633300E1,3.164805472E-1,-7.325385922E-1,1.524570265E0,1.720780991E0
1.628627200E1,4.061651409E-1,-7.076013869E-1,1.177663146E0,1.432675934E0
1.629621100E1,5.887508816E-1,-8.165011007E-1,7.901719657E-1,1.279716134E0
1.630615000E1,7.292150348E-1,-8.177407104E-1,3.164036563E-1,1.140423478E0
1.631609000E1,7.535786283E-1,-7.664062500E-1,-2.144899035E-1,1.096022449E0
1.632602900E1,8.038652676E-1,-8.549635005E-1,-8.207786313E-1,1.432075248E0
1.633596800E1,7.608519799E-1,-9.621599203E-1,-1.275597284E0,1.769688074E0
1.634590700E1,6.988948828E-1,-1.157782613E0,-1.617557658E0,2.108413483E0
1.635584600E1,6.129764807E-1,-1.351137171E0,-1.849576052E0,2.371127030E0
1.636578500E1,5.685218543E-1,-1.538636327E0,-1.934042591E0,2.535969162E0
1.637572500E1,4.931722945E-1,-1.705990071E0,-1.865690979E0,2.575737537E0
1.638566400E1,5.277065349E-1,-2.047238839E0,-1.916287228E0,2.853387073E0
1.639560300E1,3.567772186E-1,-2.268753002E0,-1.763433994E0,2.895553422E0
1.640554200E1,2.413256997E-1,-2.459832408E0,-1.573407672E0,2.929953118E0
1.641548100E1,5.448172420E-2,-2.652882911E0,-1.269450691E0,2.941472600E0
1.642542000E1,-1.535791656E-1,-2.689719785E0,-8.895857415E-1,2.837171456E0
1.643535900E1,-2.733576241E-1,-2.561779198E0,-6.808272788E-1,2.664763185E0
1.644529900E1,-2.489221099E-1,-2.402257215E0,-5.826639301E-1,2.484411238E0
