"Time (s)","Linear Acceleration x (m/s^2)","Linear Acceleration y (m/s^2)","Linear Acceleration z (m/s^2)","Absolute acceleration (m/s^2)"
1.223912500E-2,-1.931489989E0,-1.389668217E1,-4.305942231E-1,1.403687431E1
2.217912500E-2,9.340193179E-1,-3.588929751E0,-9.610278994E-1,3.830976829E0
3.211912500E-2,2.451586957E0,2.201452135E0,-1.032459240E0,3.452917924E0
4.205912500E-2,3.607610435E0,6.674839911E0,-1.774957395E-1,7.589456215E0
5.199912500E-2,3.510399891E0,7.829318848E0,-1.939889807E-1,8.582468918E0
6.193812500E-2,-6.659914309E-1,1.692231572E0,6.388106489E-1,1.927503911E0
7.187812500E-2,-3.799271932E0,-8.348113056E0,2.508817458E0,9.508923380E0
8.181812500E-2,-3.044600459E0,-1.534959948E1,1.568144885E0,1.572701099E1
9.175812500E-2,-1.447122139E0,-1.405505751E1,3.050632739E0,1.445493564E1
1.016981250E-1,-3.272698295E-1,-8.098011271E0,3.337935680E0,8.765084523E0
1.116371250E-1,-4.393083286E-1,-4.174882155E0,3.303770399E0,5.342053132E0
1.215771250E-1,-2.875425307E0,-2.539657427E0,3.331516607E0,5.081036651E0
1.315171250E-1,-4.216618411E0,-2.983204402E0,1.697830281E0,5.437095456E0
1.414571250E-1,-3.707954796E0,-4.433506842E0,9.460011399E-1,5.856605659E0
1.513971250E-1,-2.984083531E0,-5.336839680E0,6.670585477E-1,6.150738118E0
1.613371250E-1,-2.232130136E0,-5.740817378E0,2.536399359E-1,6.164715916E0
1.712761250E-1,-1.685891436E0,-6.126818980E0,2.808388442E-1,6.360739832E0
1.812161250E-1,-1.319237101E0,-6.959451964E0,1.010512301E0,7.155102604E0
1.911561250E-1,-9.575754109E-1,-8.205939762E0,1.558364248E0,8.407312125E0
2.010961250E-1,-7.811114126E-1,-9.394922533E0,1.727194998E0,9.584253075E0
2.110361250E-1,-7.756208771E-1,-9.844383967E0,1.100008614E0,9.935970128E0
2.209761250E-1,-6.375105205E-1,-9.387198946E0,2.691099143E-1,9.412669327E0
2.309151250E-1,-3.442787951E-1,-8.597027273E0,-3.686143219E-1,8.611810630E0
2.408551250E-1,5.793011963E-2,-7.649006504E0,-9.838244390E-1,7.712234886E0
2.507951250E-1,4.297858456E-1,-6.836500221E0,-1.767823792E0,7.074436522E0
2.607349167E-1,7.238464138E-1,-6.009185865E0,-2.577584222E0,6.578617546E0
2.706749167E-1,9.036725610E-1,-5.231230779E0,-3.107267700E0,6.151220377E0
2.806139167E-1,9.392519912E-1,-4.642829561E0,-3.290371504E0,5.767547596E0
2.905539167E-1,8.694075850E-1,-4.051410595E0,-3.028025064E0,5.132127546E0
3.004939167E-1,4.712446511E-1,-3.108793824E0,-2.561637695E0,4.055694545E0
3.104339167E-1,-5.200801577E-1,-1.618872989E0,-2.471329496E0,2.999783760E0
3.203739167E-1,-1.453873042E0,4.444708353E-1,-1.758541337E0,2.324600778E0
3.303139167E-1,-1.887604004E0,2.948852595E0,-1.576695853E-1,3.504802448E0
3.402529167E-1,-1.536855265E0,5.450239996E0,1.117708428E0,5.772028434E0
3.501929167E-1,-9.436039276E-1,7.298993345E0,1.197706524E0,7.456553704E0
3.601329167E-1,-6.548229566E-1,8.366042374E0,6.300412872E-1,8.415248667E0
3.700729167E-1,-7.166362122E-1,9.189515694E0,4.378243053E-1,9.227808856E0
3.800129167E-1,-1.381496061E0,1.004015576E1,7.111018226E-1,1.015967150E1
3.899529167E-1,-2.024061353E0,1.118326888E1,9.583340871E-1,1.140529401E1
3.998919167E-1,-1.788781236E0,1.388310961E1,1.219478632E0,1.405089317E1
4.098319167E-1,-7.900749019E-1,1.793172173E1,2.171512052E0,1.807999799E1
4.197719167E-1,-5.985418980E-1,2.001845266E1,3.168167036E0,2.027643908E1
4.297119167E-1,-1.535184277E0,1.800754141E1,1.967800906E0,1.817967488E1
4.396519167E-1,-1.308007085E0,1.629950189E1,-1.923750322E0,1.646467308E1
4.495919167E-1,-1.770563212E-1,1.561975137E1,-5.535794701E0,1.657265835E1
4.595309167E-1,9.779937418E-1,1.459218040E1,-6.861084840E0,1.615433954E1
4.694709167E-1,2.025580167E0,1.374847630E1,-7.799993307E0,1.593623140E1
4.794109167E-1,2.171922088E0,1.254463283E1,-9.558023597E0,1.591982643E1
4.893509167E-1,2.183930807E0,1.119024929E1,-8.951222945E0,1.449536564E1
4.992909167E-1,1.945306229E0,9.943910594E0,-6.868116117E0,1.224077584E1
5.092309167E-1,1.678999762E0,8.983322405E0,-5.474719949E0,1.065324740E1
5.191699167E-1,1.599526599E0,8.259268123E0,-4.826104689E0,9.698725779E0
5.291099167E-1,1.969751829E0,7.640919220E0,-4.201881381E0,8.939763752E0
5.390499167E-1,2.542047184E0,7.170405471E0,-2.149686735E0,7.905559535E0
5.489899167E-1,3.256632193E0,6.693739282E0,4.435545766E-1,7.457113347E0
5.589299167E-1,3.759866961E0,6.552809690E0,1.484490964E0,7.699326452E0
5.688689167E-1,4.017611642E0,6.845846411E0,1.329472067E0,8.048249025E0
5.788089167E-1,3.922527145E0,7.261947141E0,-6.748574178E-1,8.281154993E0
5.887489167E-1,3.475906581E0,7.682632672E0,-2.221232242E0,8.720013991E0
5.986889167E-1,2.802309092E0,7.857500088E0,-2.944687623E0,8.846718549E0
6.086289167E-1,1.946202168E0,7.856057580E0,-2.918182780E0,8.603553587E0
6.185689167E-1,1.217583988E0,7.600012100E0,-1.625011981E0,7.866597652E0
6.285079167E-1,9.451402836E-1,7.201306837E0,5.830229491E-1,7.286427524E0
6.384479167E-1,9.054778158E-1,7.029490498E0,3.180157921E0,7.768335159E0
6.483879167E-1,5.498061230E-1,6.679982538E0,3.181522661E0,7.419335544E0
6.583279167E-1,5.551646210E-2,6.055102295E0,7.303558266E-1,6.099243028E0
6.682679167E-1,-4.696233644E-1,5.287561685E0,-2.037495039E0,5.685968758E0
6.782079167E-1,-4.566324592E-2,4.672722867E0,-2.718498026E0,5.406168295E0
6.881469167E-1,2.706410954E0,2.095852005E0,1.177932118E0,3.620052480E0
6.980869167E-1,1.023393483E1,-1.081935104E1,2.087839565E1,2.564564649E1
7.080269167E-1,5.691894894E0,-9.633028756E0,7.343432769E0,1.338353150E1
7.179669167E-1,2.004690989E0,-7.874045370E0,-1.709232937E1,1.892530316E1
7.279069167E-1,2.999559942E0,-2.247514863E1,-8.310920087E0,2.414955607E1
7.378459167E-1,-2.459565191E0,-5.381012003E1,3.929291964E1,6.667467295E1
7.477859167E-1,3.120892882E0,-7.245697027E1,1.616060245E1,7.430287736E1
7.577259167E-1,-5.444410322E0,-5.702711307E1,-1.582758714E1,5.943269928E1
7.676659167E-1,-2.346980445E1,-3.148936830E1,2.195977972E1,4.499604385E1
7.776059167E-1,-1.299415508E1,-1.673244844E1,-2.370714995E0,2.131767311E1
7.875459167E-1,1.185221696E0,-1.091776436E1,-4.741092313E0,1.196161717E1
7.974849167E-1,1.023239584E1,-6.138180120E0,1.182107498E1,1.679633869E1
8.074249167E-1,1.448001794E1,-3.953562704E0,1.148118335E1,1.889759638E1
8.173649167E-1,6.993316698E0,-5.514665202E0,6.551904541E0,1.105646706E1
8.273049167E-1,8.744714199E-1,-6.607518579E0,3.919396253E0,7.732119310E0
8.372449167E-1,2.692367112E0,-6.011770919E0,4.598163850E0,8.033264656E0
8.471849167E-1,5.421712015E0,-3.718340328E0,5.786185339E0,8.757908240E0
8.571239167E-1,5.402920818E0,-5.487910098E-1,4.758545374E0,7.220559467E0
8.670639167E-1,4.756914293E0,2.229428138E0,2.547607009E0,5.838568737E0
8.770039167E-1,5.124364142E0,3.921296598E0,1.141665933E0,6.552791465E0
8.869439167E-1,4.679495404E0,5.052918184E0,3.057383350E-1,6.893702586E0
8.968839167E-1,2.773083538E0,5.834275180E0,-6.099961549E-2,6.460068121E0
9.068229167E-1,1.050362099E0,6.348451257E0,-2.766320649E-1,6.440700211E0
9.167629167E-1,-4.143382327E-1,6.612776980E0,-5.805218026E-1,6.651127808E0
9.267029167E-1,-1.453403803E0,6.860239332E0,-9.064593440E-1,7.070851070E0
9.366429167E-1,-1.934078405E0,7.060106519E0,-1.196048839E0,7.417297093E0
9.465829167E-1,-1.765738236E0,6.891331902E0,-1.364764984E0,7.243677958E0
9.565229167E-1,-1.269543369E0,5.916584095E0,-1.336901540E0,6.197177862E0
9.664619167E-1,-6.308157510E-1,4.468107741E0,-1.375197878E0,4.717317511E0
9.764019167E-1,2.136221766E-2,3.140902639E0,-1.597510772E0,3.523885128E0
9.863419167E-1,4.531679839E-1,1.896881196E0,-1.860542798E0,2.695392179E0
9.962819167E-1,6.444245607E-1,8.719736356E-1,-2.125662280E0,2.386223201E0
1.006221917E0,8.613840356E-1,4.114890307E-1,-2.167200315E0,2.368134896E0
1.016161917E0,1.083713593E0,3.758490819E-1,-1.882995229E0,2.204851178E0
1.026100917E0,1.082613732E0,8.118157268E-1,-1.293755228E0,1.872137777E0
1.036040917E0,9.726974800E-1,1.778220726E0,-6.131752861E-1,2.117591384E0
1.045980917E0,6.695503387E-1,2.999817511E0,-3.150830626E-2,3.073791719E0
1.055920917E0,-9.481274799E-2,4.340212762E0,3.385213342E-1,4.354426825E0
1.065860917E0,-1.055199939E0,5.579382185E0,7.291445759E-1,5.724910855E0
1.075800917E0,-2.145928437E0,6.726036378E0,1.447149329E0,7.206858913E0
1.085739917E0,-3.691010442E0,7.777419546E0,2.001846026E0,8.838506683E0
1.095679917E0,-5.716214633E0,8.434345454E0,2.004750046E0,1.038423400E1
1.105619917E0,-8.041540616E0,8.546792673E0,2.005830319E0,1.190535156E1
1.115559917E0,-1.009232696E1,8.268305579E0,2.749072532E0,1.333331693E1
1.125499917E0,-1.090169738E1,7.580997539E0,5.484450300E0,1.436654881E1
1.135439917E0,-1.034552075E1,6.238728840E0,9.297110310E0,1.524427097E1
1.145378917E0,-8.913151724E0,4.001861874E0,6.698767887E0,1.184620882E1
1.155318917E0,-5.781918041E0,2.402467130E0,-2.455066343E0,6.725308565E0
1.165258917E0,-2.194318824E0,2.941015572E0,-5.777793415E0,6.844523683E0
1.175198917E0,5.822142061E-2,4.324176189E0,-3.900817895E-1,4.342125430E0
1.185138917E0,2.580603139E0,4.993127480E0,2.583018624E0,6.185694772E0
1.195077917E0,5.311561582E0,5.332541392E0,-1.948020945E0,7.774539841E0
1.205017917E0,6.380833722E0,3.473812693E0,-7.157353317E0,1.019853519E1
1.214957917E0,8.455553890E0,3.417785257E-1,-2.202548780E0,8.744393934E0
1.224897917E0,1.145917794E1,-4.588203118E0,7.651839480E0,1.452291342E1
1.234837917E0,9.970638217E0,-1.136192354E1,1.007273411E1,1.816499120E1
1.244777917E0,5.058221608E0,-1.881156981E1,7.109748210E0,2.073666521E1
1.254716917E0,3.044485561E0,-2.535556658E1,3.741899637E0,2.581037508E1
1.264657000E0,3.913267494E0,-3.073554292E1,-2.365663585E-1,3.098456430E1
1.274597000E0,4.043834943E0,-3.487938279E1,2.194417350E0,3.518152090E1
1.284537000E0,7.097777206E0,-3.736906875E1,4.703287432E0,3.832683985E1
1.294477000E0,8.833819626E0,-3.729649778E1,4.277739356E0,3.856636060E1
1.304417000E0,7.418520373E0,-3.402676520E1,6.308453963E0,3.539282110E1
1.314356000E0,4.253288054E0,-2.657008940E1,6.512832277E0,2.768532272E1
1.324296000E0,2.128126881E0,-1.758532917E1,7.245643934E0,1.913823612E1
1.334236000E0,9.715031862E-2,-9.742406187E0,9.989313054E0,1.395386297E1
1.344176000E0,-2.107822132E0,-2.905422401E0,1.234048548E1,1.285192497E1
1.354116000E0,-4.382902407E0,1.494405649E0,1.098343912E1,1.191969029E1
1.364055000E0,-6.182013187E0,2.029063354E0,4.557731524E0,7.944010434E0
1.373995000E0,-6.289413675E0,1.920699245E-1,-2.555171260E0,6.791355932E0
1.383935000E0,-5.486319655E0,-1.226492659E0,-3.669810192E0,6.713530699E0
1.393875000E0,-5.763953640E0,-6.946971667E-1,-1.290908511E0,5.947454120E0
1.403815000E0,-8.481745323E0,9.309726262E-1,-1.401674656E0,8.647046062E0
1.413755000E0,-1.087402719E1,3.553965155E0,-2.650393751E0,1.174307126E1
1.423694000E0,-1.167413679E1,5.891991291E0,-1.867066244E0,1.320935152E1
1.433634000E0,-1.006421355E1,7.246939092E0,9.462987632E-3,1.240187930E1
1.443574000E0,-5.797163486E0,8.361186846E0,-1.165581191E0,1.024085590E1
1.453514000E0,5.109935845E-1,8.856817895E0,-5.564232050E0,1.047210657E1
1.463454000E0,5.264084530E0,8.598816521E0,-1.042919675E1,1.450580492E1
1.473394000E0,8.421197990E0,8.903992061E0,-1.301505537E1,1.787706118E1
1.483333000E0,9.924122447E0,8.323836586E0,-1.256376609E1,1.804501816E1
1.493273000E0,1.039104484E1,7.592172738E0,-9.871737242E0,1.621931243E1
1.503213000E0,1.190122627E1,7.079046235E0,-3.163522300E0,1.420422317E1
1.513153000E0,1.365764332E1,5.836146873E0,3.047330232E0,1.516172988E1
1.523093000E0,1.152107189E1,3.729169371E0,-1.527939138E0,1.220558887E1
1.533033000E0,7.393288468E0,2.084541151E0,-1.038772479E1,1.291939830E1
1.542972000E0,3.571473181E0,1.391226266E0,-1.471700209E1,1.520792825E1
1.552912000E0,1.443958503E0,1.387054862E0,-1.544255735E1,1.557181797E1
1.562852000E0,4.809856007E-1,3.153758327E0,-1.456042301E1,1.490581956E1
1.572792000E0,-2.524360819E0,3.910243840E1,-1.731238699E1,4.283797182E1
1.582732000E0,5.409566910E-1,3.104211712E1,1.105916173E1,3.295771120E1
1.592672000E0,-2.601575933E0,1.099725375E1,-3.120097661E0,1.172359999E1
1.602611000E0,-7.620822340E0,1.133714070E1,-1.571137256E1,2.081958021E1
1.612551000E0,-7.940956228E0,9.911595372E0,-1.352374676E1,1.855236467E1
1.622491000E0,-4.598219691E0,1.197665535E1,-9.989839303E0,1.625979050E1
1.632431000E0,-2.916575088E0,1.348703326E1,-8.957591733E0,1.645128949E1
1.642371000E0,-2.910425863E0,1.307205519E1,-8.445017207E0,1.583248311E1
1.652310000E0,-2.501204675E0,1.242010585E1,-6.607270072E0,1.428884432E1
1.662250000E0,-2.337203579E0,1.138413360E1,-2.276004719E0,1.184234841E1
1.672190000E0,-3.077117702E0,1.023993641E1,4.776433176E0,1.171064750E1
1.682130000E0,-2.890990230E-1,9.153882762E0,9.762105457E0,1.338565840E1
1.692070000E0,4.850935475E0,7.245252171E0,2.213229597E0,8.995756735E0
1.702010000E0,7.344385865E0,5.506500735E0,-6.930499476E0,1.150188580E1
1.711949000E0,1.140159690E1,4.833989659E0,-3.458387738E0,1.285785027E1
1.721889000E0,1.615328173E1,-6.710744154E-1,9.063228700E0,1.853431860E1
1.731829000E0,1.263283925E1,-1.741815259E1,2.585889490E1,3.364020084E1
1.741769000E0,3.387704987E-1,-3.516957543E1,2.148575062E1,4.121469739E1
1.751709000E0,-1.586450062E1,-4.486304276E1,6.325219685E0,4.800399348E1
1.761649000E0,-1.770428960E1,-3.934067502E1,-4.818137273E0,4.340904316E1
1.771588000E0,-5.880526071E0,-1.905308438E1,-4.029290578E0,2.034295440E1
1.781528000E0,-1.029336096E0,-2.724759225E0,2.499760121E0,3.838312949E0
1.791468000E0,-2.338188981E-1,5.254828972E0,4.817614532E-1,5.282044387E0
1.801408000E0,1.566027462E0,1.015549092E1,-2.954355410E0,1.069180311E1
1.811348000E0,3.747771703E0,1.173675579E1,-4.140488833E0,1.299772584E1
1.821288000E0,3.860020994E0,6.170761390E0,-3.722012379E0,8.175049502E0
1.831227000E0,3.954160874E0,-7.520770633E-1,-1.480586339E0,4.288722891E0
1.841167000E0,4.675789146E0,-6.409427192E0,1.485123194E0,8.071514850E0
1.851107000E0,4.161873562E0,-1.028788007E1,2.733850476E0,1.142959345E1
1.861047000E0,3.330178472E0,-1.104593416E1,3.863583995E0,1.216675928E1
1.870987000E0,2.984636970E0,-9.369981819E0,4.221242389E0,1.070156551E1
1.880926000E0,9.550750684E-1,-6.732550761E0,3.620566696E0,7.703759558E0
1.890866000E0,-1.369806453E0,-4.476534748E0,2.390325387E0,5.256366475E0
1.900806000E0,-2.900878822E0,-3.352825030E0,1.449306659E0,4.664442455E0
1.910746000E0,-3.633992780E0,-3.178883228E0,4.910000539E-1,4.853069457E0
1.920686000E0,-3.340760470E0,-3.035284967E0,3.513591886E-2,4.513853108E0
1.930626000E0,-2.558488677E0,-2.676319721E0,-5.325948071E-1,3.740616097E0
1.940565000E0,-1.515284448E0,-2.203178818E0,-1.026141908E0,2.864096904E0
1.950505000E0,-6.020425529E-1,-1.689553548E0,-1.314645283E0,2.223811738E0
1.960445000E0,9.555782944E-2,-1.270295906E0,-1.469531593E0,1.944815182E0
1.970385000E0,6.878309275E-1,-8.601628447E-1,-1.337375749E0,1.732502640E0
1.980325000E0,1.109763158E0,-4.364706749E-1,-1.314027232E0,1.774471325E0
1.990265000E0,1.496052809E0,4.797055721E-3,-1.409722179E0,2.055605420E0
2.000204000E0,1.773491498E0,4.457449436E-1,-1.370661024E0,2.285316672E0
2.010144000E0,1.868341083E0,7.918784755E-1,-1.110908993E0,2.313414946E0
2.020084000E0,1.738240096E0,1.005860256E0,-8.663866210E-1,2.187203526E0
2.030024000E0,1.342897567E0,1.143618903E0,-8.889054179E-1,1.975193892E0
2.039964000E0,9.585499225E-1,1.158623443E0,-1.215625609E0,1.933642122E0
2.049903000E0,4.127587536E-1,1.166656348E0,-1.601054769E0,2.023569420E0
2.059843000E0,-4.442652326E-2,1.221609650E0,-1.722182180E0,2.111922185E0
2.069783000E0,-4.577437590E-1,1.300082792E0,-1.724687712E0,2.207779953E0
2.079723000E0,-7.381102578E-1,1.398504880E0,-1.789368442E0,2.387982846E0
2.089663000E0,-8.404566316E-1,1.429582247E0,-1.695884328E0,2.371939376E0
2.099603000E0,-8.182855247E-1,1.424192868E0,-1.493037400E0,2.219702053E0
2.109542000E0,-6.537175405E-1,1.317467734E0,-1.223407084E0,1.913058479E0
2.119482000E0,-3.787367293E-1,1.159471289E0,-8.053247327E-1,1.461630290E0
2.129422000E0,6.928577788E-2,9.203540826E-1,-3.885311079E-1,1.001403304E0
2.139362000E0,4.792314726E-1,5.749058443E-1,1.927885473E-1,7.728822408E-1
2.149302000E0,7.709828657E-1,-8.140552104E-2,1.258478099E0,1.478109794E0
2.159242000E0,1.174218917E0,-1.209181393E0,2.145554507E0,2.728426992E0
2.169181000E0,1.892776597E0,-2.600771940E0,2.211792936E0,3.903670827E0
2.179121000E0,2.575408473E0,-3.564815249E0,1.686259226E0,4.710000715E0
2.189061000E0,2.790390420E0,-4.115128289E0,-8.822220504E-2,4.972760067E0
2.199001000E0,2.178504883E0,-4.315680184E0,-2.178015910E0,5.302332721E0
2.208941000E0,1.397229895E0,-3.361689409E0,-2.915224088E0,4.663875915E0
2.218881000E0,1.102383753E0,-1.840370196E-1,-2.800601705E0,3.015375511E0
2.228820000E0,1.030652889E0,4.142965128E0,-2.690699778E0,5.046411669E0
2.238760000E0,6.742924306E-1,7.470186955E0,-2.430051370E0,7.884384129E0
2.248700000E0,1.522614956E-1,8.414450887E0,-1.850997511E0,8.616980857E0
2.258640375E0,3.436580401E-1,6.733276985E0,-1.508352427E0,6.908708045E0
2.268580375E0,1.033068374E0,3.801990010E0,-1.659925706E0,4.275244046E0
2.278519375E0,1.357519845E0,1.894598444E0,-1.801985564E0,2.946101724E0
2.288459375E0,1.489303953E0,1.539515163E0,-1.462821329E0,2.593834891E0
2.298399375E0,1.974241175E0,1.467812512E0,-9.615599960E-1,2.641344244E0
2.308339375E0,2.276326462E0,1.614450740E0,-7.977724689E-1,2.902508272E0
2.318279375E0,2.057709302E0,1.910744360E0,-8.440613669E-1,2.932158108E0
2.328219375E0,9.451084162E-1,1.605502161E0,-4.903820032E-1,1.926484264E0
2.338158375E0,2.812218368E-2,1.303507506E0,-1.894655746E-1,1.317505173E0
2.348098375E0,-1.799857762E-1,1.321274271E0,-9.672978687E-1,1.647369341E0
2.358038375E0,-4.509778362E-2,1.541617822E0,-2.956414799E0,3.334517624E0
2.367978375E0,3.646431123E-1,2.124113937E0,-5.323323841E0,5.743048087E0
2.377918375E0,1.122834828E0,2.854924092E0,-6.453429244E0,7.145494988E0
2.387858375E0,2.030406167E0,3.798968169E0,-6.249974790E0,7.590579242E0
2.397797375E0,2.141469058E0,4.577674622E0,-6.302178732E0,8.078270324E0
2.407737375E0,1.658384672E0,4.919215166E0,-6.308415956E0,8.169763121E0
2.417677375E0,1.049046329E0,5.085390111E0,-5.523421993E0,7.580889215E0
2.427617375E0,6.203767899E-1,5.297437048E0,-3.904424458E0,6.610010362E0
2.437557375E0,5.322775226E-1,5.460835150E0,-2.508675370E0,6.033033401E0
2.447496375E0,6.664135268E-1,4.621673166E0,-2.232480969E0,5.175706823E0
2.457436375E0,-5.368527496E-1,3.359920042E0,-2.962002983E0,4.511178918E0
2.467376375E0,-2.314004019E0,3.185467778E0,-3.692528964E0,5.397831946E0
2.477316375E0,-3.223438427E0,3.435677152E0,-4.639885196E0,6.612334491E0
2.487256375E0,-3.010420268E0,3.429041147E0,-5.845881318E0,7.415880377E0
2.497196375E0,-2.744912530E0,3.185353172E0,-6.228747643E0,7.515205708E0
2.507135375E0,-2.417422407E0,2.424966046E0,-5.697097746E0,6.646902598E0
2.517075375E0,-1.793232575E0,1.270747311E0,-4.107522231E0,4.658564229E0
2.527015375E0,-1.211784573E0,8.140055090E-1,-2.008063079E0,2.482608336E0
2.536955375E0,-1.317765357E0,1.483701736E0,-1.299624078E-1,1.988659499E0
2.546895375E0,-2.289874315E0,2.493382562E0,1.009682654E0,3.532695860E0
2.556835375E0,-3.311298105E0,3.634132821E0,1.307451453E0,5.087341722E0
2.566774375E0,-3.544694395E0,4.600593368E0,1.131549665E0,5.916985917E0
2.576714375E0,-3.207437814E0,5.524003791E0,1.085137975E0,6.479182019E0
2.586654375E0,-2.801800384E0,6.524550682E0,1.144345711E0,7.192313543E0
2.596594375E0,-2.267595692E0,7.589874197E0,1.908018973E0,8.147927157E0
2.606534375E0,-1.411655122E0,8.579969775E0,4.024601111E0,9.581548185E0
2.616474375E0,-3.537242411E-1,9.198688222E0,6.577969090E0,1.131417974E1
2.626413375E0,1.470722671E0,8.414461997E0,6.548497953E0,1.076331832E1
2.636353375E0,7.377317383E0,2.466590036E0,1.636683608E1,1.812131898E1
2.646293375E0,1.625782644E1,-8.260051650E0,2.902735839E1,3.428021162E1
2.656233375E0,5.761994823E0,-7.985327824E0,-2.188765431E0,1.008745453E1
2.666173375E0,4.776426744E-1,-6.215804247E0,-1.363165829E1,1.498954545E1
2.676112375E0,8.333793810E-1,-1.196378680E1,2.753217039E0,1.230475192E1
2.686052375E0,-3.988966717E0,-1.775978085E1,2.867048294E0,1.842665561E1
2.695992375E0,-3.973470134E0,-2.397867827E1,-2.808590171E0,2.446739985E1
2.705932375E0,-1.365579209E0,-3.114966378E1,4.106547500E0,3.144884883E1
2.715872375E0,-1.282501384E0,-3.215929316E1,1.394674135E1,3.507672363E1
2.725812375E0,-1.890396488E0,-2.542121444E1,9.509877623E0,2.720752680E1
2.735751375E0,-4.634718011E-1,-1.374433180E1,-8.463900790E0,1.614803639E1
2.745691375E0,-1.097590863E0,-8.415146706E0,-3.282008232E0,9.098954765E0
2.755631375E0,-1.599598228E0,-5.342232567E0,4.468358294E0,7.145935148E0
2.765571375E0,-1.372088914E0,-3.531123592E0,2.479563838E0,4.527659289E0
2.775511375E0,-1.006716654E0,-2.298734016E0,-3.106809863E-1,2.528671424E0
2.785450375E0,-7.536504760E-1,-1.515501818E0,-9.237498531E-1,1.928224207E0
2.795390375E0,-3.668484628E-1,-1.181346892E0,-2.175199306E-1,1.255974998E0
2.805330375E0,1.432381747E0,-3.701392758E-1,1.217507097E0,1.915996891E0
2.815270375E0,3.109031805E0,4.391773510E-1,2.452909597E0,3.984434841E0
2.825210375E0,3.598629112E0,4.774836302E-1,2.868408941E0,4.626650188E0
2.835150375E0,4.093450906E0,1.463487911E-1,2.347203048E0,4.720923685E0
2.845089375E0,3.760212239E0,-3.050697058E-1,1.754216005E0,4.160473218E0
2.855029375E0,2.036425144E0,-4.471079296E-1,3.464709163E-1,2.113521934E0
2.864969375E0,-3.272233441E-1,-3.476748580E-1,-1.591457149E0,1.661532059E0
2.874909375E0,-2.210636064E0,-2.717739058E-1,-2.960354653E0,3.704655522E0
2.884849375E0,-3.217115248E0,4.095881009E-1,-3.576086926E0,4.827627848E0
2.894789375E0,-4.255084904E0,1.513696783E0,-3.214517915E0,5.543478232E0
2.904728375E0,-5.080625215E0,2.490026261E0,-2.107314886E0,6.037694874E0
2.914668375E0,-5.605329205E0,3.346419990E0,-1.189648184E0,6.635774638E0
2.924608375E0,-5.831402442E0,4.107260860E0,-3.329463065E-1,7.140427120E0
2.934548375E0,-5.655705307E0,4.684574588E0,2.287226111E-1,7.347418296E0
2.944488375E0,-4.664000867E0,4.933901618E0,2.203102219E-1,6.792998296E0
2.954427375E0,-3.564221756E0,4.885243428E0,3.308752227E-1,6.056299075E0
2.964367375E0,-3.048440033E0,4.461716734E0,5.972948331E-1,5.436604084E0
2.974307375E0,-2.975264468E0,3.423735968E0,9.788484585E-1,4.640292118E0
2.984247375E0,-2.620442266E0,1.747291878E0,1.834097303E0,3.644675499E0
2.994187375E0,-1.406604443E0,-6.426499307E-2,3.344896790E0,3.629187318E0
3.004127375E0,-4.040918644E-1,-1.404079031E0,5.633073658E0,5.819471368E0
3.014066375E0,-5.951871311E-1,-2.063573620E0,8.811758081E0,9.069711368E0
3.024006375E0,-2.817077404E0,-1.193444197E0,1.006039999E1,1.051531655E1
3.033946375E0,-4.223912520E0,-1.477603090E-1,1.082318097E1,1.161914439E1
3.043886375E0,-4.756996154E0,7.272252274E-1,1.034820229E1,1.141241252E1
3.053826375E0,-4.792342573E0,1.735077630E0,1.166275226E1,1.272779761E1
3.063766375E0,-3.144389626E0,3.311539595E0,9.449853616E0,1.049539013E1
3.073705375E0,-4.477790438E-2,6.726676063E0,-2.721371933E0,7.256448244E0
3.083645375E0,2.889574108E0,9.936295180E0,-1.193443612E1,1.579589712E1
3.093585375E0,4.895452082E0,9.654700291E0,-9.798959287E0,1.460131131E1
3.103525375E0,4.678910390E0,7.517558173E0,-7.664726744E0,1.171127317E1
3.113465375E0,4.598699455E0,5.880851761E0,-4.496154203E0,8.714806752E0
3.123404375E0,5.250373394E0,3.068778988E0,-1.920144490E0,6.377364669E0
3.133344375E0,7.220092771E0,-4.103036247E0,1.392506075E0,8.420434623E0
3.143284375E0,7.126137371E0,-1.449851269E1,5.175629021E0,1.696395708E1
3.153224375E0,4.253154153E0,-2.021146691E1,5.804332173E0,2.145420674E1
3.163164375E0,2.748327889E0,-2.464154670E1,-7.161484082E-1,2.480467695E1
3.173104375E0,1.721407717E0,-3.403324625E1,-2.328517978E0,3.415621599E1
3.183043375E0,2.282760592E0,-4.647369339E1,4.334048628E0,4.673113685E1
3.192983375E0,7.131581129E0,-5.708772297E1,1.355448323E1,5.910661197E1
3.202923375E0,1.029730812E1,-5.105833614E1,1.865073513E1,5.532484221E1
3.212863375E0,5.878853767E0,-2.754493252E1,1.485605940E1,3.184315829E1
3.222803375E0,7.949437322E-1,-1.178979471E1,1.089485731E1,1.607261991E1
3.232742375E0,-3.575714166E0,-4.563144876E0,1.051448658E1,1.200676688E1
3.242682375E0,-7.976230726E0,1.159673018E0,3.790316044E0,8.906828493E0
3.252622375E0,-1.114960178E1,4.386229765E0,-7.530315628E0,1.415126443E1
3.262561792E0,-1.022294323E1,4.419345471E0,-8.241538196E0,1.385504004E1
3.272501792E0,-9.891269281E0,2.445479248E0,-1.883565917E0,1.036172753E1
3.282441792E0,-1.398779699E1,1.898804930E0,7.143461502E-1,1.413415067E1
3.292380792E0,-1.671905130E1,1.670038465E0,-1.241667938E0,1.684806945E1
3.302320792E0,-1.526430381E1,1.944503260E0,-2.093163455E0,1.552937207E1
3.312260792E0,-1.150701401E1,3.219110318E0,-1.624060785E0,1.205867389E1
3.322200792E0,-7.401990294E0,5.006732782E0,-3.163215614E0,9.479597380E0
3.332140792E0,-3.543661777E0,6.917152621E0,-5.095522166E0,9.293486177E0
3.342080792E0,8.035990001E-1,8.384325448E0,-7.240072707E0,1.110681491E1
3.352019792E0,6.780906065E0,9.217477664E0,-9.472732601E0,1.485514202E1
3.361959792E0,1.154475662E1,9.474714807E0,-1.141681252E1,1.879880938E1
3.371899792E0,1.549833043E1,8.001924561E0,-9.730427581E0,1.997273801E1
3.381839792E0,1.946850449E1,6.841009594E0,-6.927706261E0,2.176729642E1
3.391779792E0,2.055792146E1,5.808785997E0,-3.225648090E0,2.160497477E1
3.401718792E0,1.926475592E1,4.527446455E0,-1.511273404E0,1.984723002E1
3.411658792E0,1.563937697E1,3.225915892E0,-2.679794136E0,1.619190977E1
3.421598792E0,1.032324871E1,1.208014873E0,-2.626055301E0,1.072030458E1
3.431538792E0,4.878834879E0,-9.116931868E-1,-6.187647564E0,7.932288234E0
3.441478792E0,2.470358566E0,-1.293771307E0,-1.313345564E1,1.342624939E1
3.451418792E0,1.911325573E0,8.611038955E0,-1.703232290E1,1.918080240E1
3.461357792E0,-1.394489889E0,4.786171948E1,-1.182980019E1,4.932172915E1
3.471297792E0,6.855917655E0,1.612499992E1,1.249484730E1,2.152069791E1
3.481237792E0,8.657543177E-1,1.172077769E1,-1.281516128E1,1.738834434E1
3.491177792E0,-6.887411928E0,1.079412382E1,-1.663455670E1,2.099185624E1
3.501117792E0,-7.124135869E0,8.126433417E0,-1.333726501E1,1.716609653E1
3.511057792E0,-4.783319735E0,1.028590488E1,-1.235484975E1,1.677266524E1
3.520996792E0,-2.141451078E0,1.282240598E1,-1.099040783E1,1.702318925E1
3.530936792E0,-1.907007697E0,1.304878678E1,-1.048901610E1,1.685013275E1
3.540876792E0,-2.080010436E0,1.193246795E1,-1.014777845E1,1.580150759E1
3.550816792E0,-2.130621742E0,1.128935024E1,-7.209172511E0,1.356322772E1
3.560756792E0,-2.446093791E0,1.099215966E1,-8.965331107E-1,1.129666855E1
3.570695792E0,-1.116549949E0,1.135496418E1,7.932043317E0,1.389601405E1
3.580635792E0,3.254007378E0,1.140801363E1,1.191850830E1,1.681612854E1
3.590575792E0,5.373477749E0,1.010027683E1,5.318807452E0,1.261663854E1
3.600515792E0,6.644733183E0,8.877865532E0,-5.876194453E-1,1.110469595E1
3.610455792E0,1.580480639E1,6.627333038E0,1.568341001E1,2.323107397E1
3.620395792E0,1.743484289E1,-1.526708007E1,4.005252909E1,4.627377839E1
3.630334792E0,-2.639410853E-1,-3.671339473E1,1.326357373E1,3.903671868E1
3.640274792E0,-1.498849182E1,-4.534939077E1,-5.575046475E0,4.808641464E1
3.650214792E0,-1.190508193E1,-3.621559787E1,-8.890010199E0,3.914502249E1
3.660154792E0,-8.768281694E0,-1.887095296E1,-5.225912737E0,2.145473825E1
3.670094792E0,-4.360878869E0,-5.369384698E0,1.054436000E0,6.997098814E0
3.680033792E0,-1.927649099E0,1.480255972E0,1.917307860E-1,2.437980616E0
3.689973792E0,-6.475488742E-1,4.762154860E0,-2.043318281E0,5.222316350E0
3.699913792E0,-4.225695044E-1,5.704616096E0,-2.296972834E0,6.164194513E0
3.709853792E0,-2.354887167E-1,3.901365194E0,5.010151649E-1,3.940446867E0
3.719793792E0,-3.051089407E0,-3.525252403E0,4.872433348E0,6.743675393E0
3.729733792E0,5.744814827E-1,-1.432260271E1,5.434032683E0,1.532956910E1
3.739672792E0,4.823877484E0,-1.964827012E1,4.400381196E0,2.070477402E1
3.749612792E0,3.586815690E0,-1.597290916E1,3.783263717E0,1.680214743E1
3.759552792E0,3.383456254E0,-9.369314652E0,1.292299563E0,1.004499236E1
3.769492792E0,1.897511234E0,-4.401695065E0,1.188833667E0,4.938501171E0
3.779432792E0,1.483512432E0,-8.179903865E-1,1.202678704E-1,1.698346775E0
3.789372792E0,1.200758479E0,1.112184271E0,-9.101085913E-1,1.872717925E0
3.799311792E0,-3.552154273E-2,1.378218550E0,-1.446140977E0,1.998016986E0
3.809251792E0,-1.849105936E0,5.326509404E-1,-1.652023194E0,2.536156624E0
3.819191792E0,-3.202663270E0,-9.558805954E-1,-1.713894922E0,3.756087796E0
3.829131792E0,-3.717244267E0,-2.919616517E0,-1.490189806E0,4.956080226E0
3.839071792E0,-3.176454295E0,-4.834282020E0,-9.433435804E-1,5.860890858E0
3.849010792E0,-2.224465606E0,-6.136313104E0,-4.038543212E-1,6.539547695E0
3.858950792E0,-1.268734553E0,-6.494368524E0,-5.506106633E-1,6.640006174E0
3.868890792E0,-4.115602206E-1,-5.908391562E0,-5.820178127E-1,5.951236627E0
3.878830792E0,7.561446789E-1,-5.092080495E0,-7.216317809E-1,5.198248837E0
3.888770792E0,1.776530588E0,-4.055104866E0,-8.697405839E-1,4.511805081E0
3.898710792E0,2.591440077E0,-2.969016718E0,-8.465078419E-1,4.030781248E0
3.908649792E0,2.983490624E0,-2.056830027E0,-5.047170371E-1,3.658757350E0
3.918589792E0,2.954640169E0,-1.349942585E0,-3.744124210E-1,3.269927854E0
3.928529792E0,2.930337971E0,-1.056595961E0,-3.114700681E-1,3.130541368E0
3.938469792E0,2.329418157E0,-9.902324027E-1,-4.049652922E-1,2.563346650E0
3.948409792E0,1.284824190E0,-1.115230086E0,-5.142035598E-1,1.777334140E0
3.958348792E0,6.297208598E-1,-1.161952263E0,-8.813139778E-1,1.588519987E0
3.968288792E0,3.650736867E-1,-9.554198349E-1,-1.942537426E0,2.195349063E0
3.978228792E0,-3.310330975E-1,-6.586572683E-1,-2.993038250E0,3.082481188E0
3.988168792E0,-1.024553220E0,-1.899450463E-1,-3.210851126E0,3.375700427E0
3.998108792E0,-9.853752668E-1,4.250200725E-1,-2.834438957E0,3.030783839E0
4.008048792E0,-4.277175392E-1,1.139442821E0,-2.457298810E0,2.742187024E0
4.017987792E0,1.773286553E-1,1.766488872E0,-2.035014650E0,2.700594937E0
4.027927792E0,6.534510536E-1,2.462315136E0,-1.720849600E0,3.074299506E0
4.037867792E0,1.057419103E0,3.382406679E0,-1.628762970E0,3.900215239E0
4.047807792E0,1.502305091E0,4.416403152E0,-1.596343668E0,4.930502052E0
4.057747792E0,1.854809310E0,5.570478630E0,-1.635008381E0,6.094571531E0
4.067686792E0,1.979017912E0,7.523822880E0,-1.928249170E0,8.015146130E0
4.077626792E0,2.201943301E0,1.152352070E1,-2.242565662E0,1.194442064E1
4.087566792E0,2.475504701E0,1.381295940E1,-2.270286727E0,1.421549059E1
4.097506792E0,2.880078229E0,1.310865525E1,-2.650482629E0,1.368052453E1
4.107446792E0,3.584809803E0,1.113911422E1,-3.620548570E0,1.224904481E1
4.117386792E0,4.340626161E0,9.453136827E0,-4.896992238E0,1.149710243E1
4.127325792E0,5.103530513E0,8.285968848E0,-6.157794605E0,1.151615117E1
4.137265792E0,5.367650998E0,7.614530151E0,-7.434258739E0,1.191893240E1
4.147205792E0,5.040806846E0,6.968896971E0,-8.598320677E0,1.216167658E1
4.157145792E0,4.761903723E0,6.326276277E0,-8.987008490E0,1.197763834E1
4.167085792E0,4.292422592E0,5.632939172E0,-8.569947063E0,1.111750368E1
4.177025792E0,3.423560552E0,4.750910665E0,-8.074301981E0,9.974280499E0
4.186964792E0,2.204310400E0,3.959344431E0,-8.127294711E0,9.305284090E0
4.196904792E0,1.229999819E0,3.350402529E0,-8.337726647E0,9.069497357E0
4.206844792E0,5.762850563E-1,2.677540035E0,-7.874635938E0,8.337338680E0
4.216784792E0,1.133576310E-1,1.682234003E0,-6.047783920E0,6.278411546E0
4.226724792E0,-3.687630605E-1,3.376667637E-1,-3.262379129E0,3.300473090E0
4.236663792E0,-1.006762993E0,-1.202723143E0,-3.878197356E0,4.183363410E0
4.246603792E0,-1.542437456E0,-3.413272961E0,-5.386825188E0,6.561054124E0
4.256543792E0,-1.544240152E0,-6.369099530E0,-5.857261169E0,8.789631100E0
4.266484500E0,-1.249854479E0,-9.670006548E0,-5.085830407E0,1.099712843E1
4.276424500E0,2.119257532E-1,-1.076101454E1,-2.359253867E0,1.101863990E1
4.286364500E0,1.093904559E0,-7.339832053E0,5.670775920E-1,7.442535774E0
4.296303500E0,2.256718263E-2,-2.608532365E0,1.182106957E0,2.863970537E0
4.306243500E0,-4.681101049E-1,1.130021787E0,2.215042599E-1,1.243036784E0
4.316183500E0,-1.241860165E0,3.221693033E0,-2.270006974E-2,3.452830428E0
4.326123500E0,-2.352394206E0,4.816746220E0,5.377742708E-1,5.387393044E0
4.336063500E0,-3.093804486E0,6.737279989E0,2.376717746E0,7.785329479E0
4.346002500E0,-3.578094860E0,9.423820642E0,6.539489733E0,1.201565996E1
4.355942500E0,-3.585150695E0,1.203752604E1,9.410055127E0,1.569409048E1
4.365882500E0,-2.433141916E0,1.381961821E1,8.607776209E0,1.646195123E1
4.375822500E0,-6.825849518E-2,1.424209240E1,8.011147374E0,1.634075694E1
4.385762500E0,3.680524045E0,1.268609101E1,8.163024123E0,1.552797879E1
4.395702500E0,9.890720812E0,6.001338902E0,1.759633129E1,2.105880580E1
4.405641500E0,1.453697684E1,-4.413057375E0,3.395103908E1,3.719505109E1
4.415581500E0,1.577533175E0,-4.191229216E0,-5.423179228E-2,4.478610761E0
4.425521500E0,-3.781157843E0,-4.405988091E0,-1.615583463E1,1.716743657E1
4.435461500E0,-3.224046537E0,-8.631167411E0,-1.046580967E1,1.394362575E1
4.445401500E0,-2.201340745E-1,-1.720981045E1,3.692430146E0,1.760284282E1
4.455340500E0,1.287690496E0,-3.154682304E1,1.797081154E1,3.632919292E1
4.465280500E0,-3.025911442E-1,-4.150137557E1,1.977042781E1,4.597092071E1
4.475220500E0,-8.014565656E0,-3.449593409E1,8.388278165E0,3.639458671E1
4.485160500E0,-7.212441105E0,-1.920347476E1,-1.925790298E1,2.813644571E1
4.495100500E0,-2.417119083E0,-1.636806400E1,-1.029634801E1,1.948770808E1
4.505040500E0,-2.220886672E0,-1.203108007E1,4.397990270E0,1.300082857E1
4.514979500E0,-2.023549575E-2,-5.725597660E0,4.358246160E0,7.195636708E0
4.524919500E0,1.111791631E0,-1.250642830E0,-9.610099192E-1,1.929696396E0
4.534859500E0,1.139505533E0,2.098748716E0,-1.547108942E0,2.845481525E0
4.544799500E0,1.987427231E0,2.752325923E0,5.441828191E-2,3.395309461E0
4.554739500E0,1.264960176E0,-1.794297060E0,1.000236842E0,2.412488327E0
4.564678500E0,4.316869947E-1,-5.920844377E0,2.161613885E0,6.317857737E0
4.574618500E0,3.171722728E-1,-7.504444622E0,3.582560379E0,8.321780231E0
4.584558500E0,1.657002244E-1,-7.553020366E0,3.445381776E0,8.303386586E0
4.594498500E0,-2.488998174E-1,-6.007558000E0,2.053182533E0,6.353602345E0
4.604438500E0,-1.378999446E0,-4.025244305E0,8.808759483E-1,4.345132176E0
4.614378500E0,-2.866485499E0,-2.646264448E0,-1.384451463E-1,3.903667725E0
4.624317500E0,-3.897337340E0,-1.580819895E0,-9.021236336E-1,4.301401740E0
4.634257500E0,-4.574638748E0,-1.463183856E-1,-7.060138679E-1,4.631110485E0
4.644197500E0,-5.187938579E0,1.399965515E0,1.830272055E-1,5.376626182E0
4.654137500E0,-5.617741674E0,2.799665565E0,7.623658240E-1,6.322843541E0
4.664077500E0,-5.835313060E0,3.964736733E0,1.057781192E0,7.133646818E0
4.674017500E0,-5.961940947E0,4.884554041E0,1.436743916E0,7.840142927E0
4.683956500E0,-5.881406661E0,5.708209795E0,2.024438206E0,8.442331042E0
4.693896500E0,-5.461143883E0,6.232427881E0,2.791696980E0,8.744187889E0
4.703836500E0,-4.890499782E0,5.883063762E0,3.734002680E0,8.512943284E0
4.713776500E0,-4.106736950E0,4.182538499E0,4.787223628E0,7.568119102E0
4.723716500E0,-2.316387052E0,1.535342590E0,5.769036625E0,6.403491971E0
4.733655500E0,-1.007077792E0,-6.332423455E-1,7.227028738E0,7.324284670E0
4.743595500E0,-6.432629382E-1,-2.043820556E0,9.781201293E0,1.001313579E1
4.753535500E0,1.023516435E0,-2.429854318E0,7.827006274E0,8.259164916E0
4.763475500E0,2.780973479E0,-8.434479940E-1,4.071860647E-1,2.934453697E0
4.773415500E0,2.784390299E0,7.542984205E-1,-6.540371493E0,7.148304324E0
4.783354500E0,1.317253433E0,1.201282974E0,-1.144026103E1,1.157833363E1
4.793294500E0,-6.495968615E-1,7.776662332E-1,-1.408233477E1,1.411874263E1
4.803234500E0,-1.923565842E0,-2.720884860E-2,-1.269117341E1,1.283614928E1
4.813174500E0,-2.337365400E0,-6.760118043E-1,-7.223733248E0,7.622505560E0
4.823114500E0,-2.840286757E0,-1.586547827E0,3.042161585E0,4.454111582E0
4.833054500E0,-4.462826828E0,-2.782360146E0,5.333831288E0,7.490534526E0
4.842993500E0,-3.448825786E0,-2.104072021E0,7.117675281E-1,4.102210549E0
4.852933500E0,-1.173905287E0,2.615899857E0,1.078084479E0,3.063209400E0
4.862873500E0,-1.050494246E0,5.160205235E0,9.527222219E-1,5.351535842E0
4.872813500E0,-3.006459364E0,5.737866288E0,-6.591852719E-1,6.511254308E0
4.882753500E0,-4.821635369E0,6.886282246E0,1.614715034E0,8.560160948E0
4.892693500E0,-4.461420865E0,8.680477565E0,2.521909958E0,1.008042642E1
4.902632500E0,-1.593820886E0,9.547496855E0,-2.455282690E0,9.986159136E0
4.912572500E0,1.364435932E0,1.071800944E1,-4.229482285E0,1.160284156E1
4.922512500E0,4.171774945E0,1.080961192E1,-2.119224495E0,1.177890184E1
4.932452500E0,6.669184484E0,1.145726356E1,4.268582032E0,1.392722882E1
4.942392500E0,7.251080675E0,1.206277665E1,4.490218987E0,1.477331439E1
4.952331500E0,4.880416551E0,1.066421506E1,-2.684007640E0,1.203111988E1
4.962271500E0,6.121869897E0,1.084461102E1,7.048866416E0,1.430976579E1
4.972211500E0,1.397795145E1,1.335804602E0,2.268728327E1,2.668108549E1
4.982151500E0,8.310109663E0,-1.444574975E1,5.047070383E0,1.741294139E1
4.992091500E0,2.776712613E-1,-2.072238258E1,1.056621982E0,2.075116120E1
5.002030500E0,6.373546922E-1,-2.470926214E1,9.936892766E-1,2.473744681E1
5.011970500E0,1.220802295E0,-3.295752229E1,-8.059747092E0,3.395067241E1
5.021910500E0,-2.164140759E0,-4.638238795E1,3.532863577E-1,4.643419245E1
5.031850500E0,-2.828187114E0,-5.434652956E1,1.039312294E1,5.540361831E1
5.041790500E0,-1.260526963E0,-5.318136191E1,9.825300994E0,5.409605090E1
5.051730500E0,-2.719185366E0,-3.932753516E1,5.729084939E0,3.983555453E1
5.061669500E0,-4.060384609E0,-2.230949467E1,1.527780386E0,2.272739291E1
5.071609500E0,-6.018767697E0,-1.171146775E1,1.814324359E0,1.329194547E1
5.081549500E0,-7.537444553E0,-3.649756581E0,6.241448380E0,1.044459053E1
5.091489500E0,-8.423273166E0,-1.471627235E-1,6.156635102E0,1.043443067E1
5.101429500E0,-9.777330437E0,6.229360431E-1,3.165750382E0,1.029593198E1
5.111368500E0,-1.021428935E1,1.888744796E0,-4.966262448E-1,1.039931255E1
5.121308500E0,-9.534512528E0,4.033019933E0,-4.027387894E0,1.110819662E1
5.131248500E0,-8.293518773E0,6.373272103E0,-5.992680345E0,1.205459533E1
5.141188500E0,-7.940600132E0,8.645280835E0,-6.209783953E0,1.327988810E1
5.151128500E0,-8.050831257E0,1.016670588E1,-5.109863048E0,1.393874072E1
5.161068500E0,-6.944390121E0,1.062303195E1,-3.202670871E0,1.308932629E1
5.171007500E0,-4.398013659E0,1.053267843E1,-1.955507866E0,1.158032168E1
5.180947500E0,8.063791318E-1,1.001953965E1,-2.950490400E0,1.047601144E1
5.190887500E0,6.873534147E0,8.907238435E0,-6.180711012E0,1.283688268E1
5.200827500E0,9.717511082E0,7.080689887E0,-8.393151820E0,1.466325981E1
5.210767500E0,1.205130325E1,4.989059572E0,-8.579806638E0,1.561210131E1
5.220706500E0,1.554641793E1,3.441037295E0,-7.079277785E0,1.742549919E1
5.230646500E0,1.735055761E1,2.222037258E0,-4.563521144E0,1.807774942E1
5.240586500E0,1.741983542E1,8.761175573E-1,-2.275686631E0,1.758968441E1
5.250526500E0,1.435043429E1,-3.919090444E-1,-3.241934047E0,1.471729233E1
5.260465750E0,9.254877040E0,-9.472805107E-1,-6.013495263E0,1.107755454E1
5.270405750E0,4.977012554E0,1.412488496E-1,-1.113994920E1,1.220201104E1
5.280344750E0,2.429651420E0,4.700332834E0,-1.351883626E1,1.451741260E1
5.290284750E0,1.654816116E-1,3.389594895E1,-1.622027679E1,3.757738839E1
5.300224750E0,6.512448115E0,2.412826876E1,5.145387806E0,2.551588426E1
5.310164750E0,3.227862138E0,1.230610620E1,-7.689601969E0,1.486570961E1
5.320104750E0,-2.647224560E0,1.403853094E1,-1.602240935E1,2.146638652E1
5.330043750E0,-5.145421720E0,1.073870858E1,-1.380746769E1,1.823297537E1
5.339983750E0,-3.590483941E0,1.253037264E1,-1.270465943E1,1.820192805E1
5.349923750E0,-1.452267104E0,1.513100016E1,-1.152645249E1,1.907656553E1
5.359863750E0,-8.438780567E-1,1.521572514E1,-1.017223150E1,1.832224646E1
5.369803750E0,-1.574752239E0,1.422195225E1,-8.830472095E0,1.681430962E1
5.379743750E0,-2.273060792E0,1.339352225E1,-7.201473482E0,1.537577523E1
5.389682750E0,-2.117290236E0,1.279934924E1,-4.378435426E0,1.369222245E1
5.399622750E0,-9.695021959E-1,1.196553395E1,1.304113278E0,1.207537364E1
5.409562750E0,1.174165780E0,1.152524329E1,7.803691671E0,1.396808870E1
5.419502750E0,3.620478988E0,1.072565292E1,7.479835446E0,1.356817736E1
5.429442750E0,4.943521457E0,9.557334210E0,1.935537724E0,1.093285635E1
5.439381750E0,8.327952442E0,9.490713959E0,1.684075291E0,1.273831044E1
5.449321750E0,1.956149276E1,5.182558556E0,2.527741035E1,3.237990714E1
5.459261750E0,9.686801505E0,-2.131786303E1,4.199643827E1,4.808311798E1
5.469201750E0,-6.863355314E0,-4.283193522E1,-3.664600323E0,4.353285674E1
5.479141750E0,-8.830736389E0,-4.727869595E1,-2.126268168E1,5.258667728E1
5.489081750E0,-9.154408427E0,-3.789563390E1,7.718903536E-1,3.899330811E1
5.499020750E0,-3.904045850E0,-1.619726215E1,1.889913654E0,1.676796496E1
5.508960750E0,-4.198542913E0,-2.769479899E0,-3.619855675E0,6.196865063E0
5.518900750E0,-2.826843424E0,2.787666494E0,-3.009244977E0,4.981734995E0
5.528840750E0,-2.933156914E0,5.878623387E0,-4.420519592E0,7.918498334E0
5.538780750E0,-4.310501013E0,7.058300899E0,-4.498363574E0,9.414632515E0
5.548719750E0,-4.930307919E0,4.653863257E0,-2.842964782E0,7.351790812E0
5.558659750E0,-1.191189803E0,-6.337265534E0,1.549020982E-1,6.450105600E0
5.568599750E0,3.817351523E0,-1.969731656E1,9.663175246E0,2.226956237E1
5.578539750E0,2.445849377E0,-2.257670774E1,1.049635553E1,2.501726186E1
5.588479750E0,2.279848386E0,-1.616499955E1,4.002591022E0,1.680849946E1
5.598419750E0,2.593731600E0,-7.730216144E0,-1.065526414E0,8.223079215E0
5.608358750E0,2.146474274E0,-2.564585862E0,-2.778555948E0,4.347967986E0
5.618298750E0,2.005015802E0,4.513664567E-1,-2.881310238E0,3.539176279E0
5.628238750E0,1.531449806E0,1.754017931E0,-2.810744285E0,3.649959020E0
5.638178750E0,7.030890906E-1,1.351562263E0,-2.048937455E0,2.553272315E0
5.648118750E0,-1.039137930E-2,-1.447104013E-1,-7.164885700E-1,7.310300622E-1
5.658057750E0,-6.107100999E-1,-2.115437838E0,-4.986938202E-1,2.257595978E0
5.667997750E0,-8.074279761E-1,-4.004435819E0,-9.522588301E-1,4.194549206E0
5.677937750E0,-7.164175263E-1,-5.430360047E0,-1.049371142E0,5.577028251E0
5.687877750E0,-7.216896683E-1,-6.084650615E0,-3.323229933E-1,6.136305701E0
5.697817750E0,-5.329566036E-1,-5.822187815E0,4.587473971E-1,5.864500224E0
5.707756750E0,-1.925279076E-1,-5.000428314E0,5.889882785E-1,5.038676166E0
5.717696750E0,3.817923380E-1,-3.926046876E0,6.079724336E-1,3.991145192E0
5.727636750E0,1.206993072E0,-2.692593107E0,5.576933956E-1,3.002983822E0
5.737576750E0,2.174508165E0,-1.507123343E0,7.843688965E-1,2.759554510E0
5.747516750E0,3.224616348E0,-3.133803535E-1,1.365016122E0,3.515626097E0
5.757456750E0,3.609448800E0,7.651467597E-1,1.355508549E0,3.930772651E0
5.767395750E0,3.180973900E0,1.636197705E0,1.225576401E-3,3.577113275E0
5.777335750E0,2.393421341E0,2.287836560E0,-1.579954507E0,3.668639814E0
5.787275750E0,1.629621341E0,2.925677741E0,-2.674568480E0,4.285857267E0
5.797215750E0,9.606652258E-1,3.678396828E0,-3.356576604E0,5.071497550E0
5.807155750E0,2.895374545E-1,4.449648081E0,-3.549126000E0,5.699078465E0
5.817094750E0,-1.866052629E-1,5.244498696E0,-3.396319544E0,6.250965889E0
5.827034750E0,-4.190255070E-1,5.876361099E0,-3.135677567E0,6.673805207E0
5.836974750E0,-3.117326081E-1,6.226866009E0,-3.016790809E0,6.926186851E0
5.846914750E0,-4.162428170E-2,6.775928330E0,-3.149084063E0,7.472059137E0
5.856854750E0,2.494805190E-1,7.997618671E0,-3.351142201E0,8.674923573E0
5.866794750E0,5.060939102E-1,9.020166296E0,-3.518359120E0,9.695276270E0
5.876733750E0,9.790382007E-1,9.089028955E0,-3.657557352E0,9.846150970E0
5.886673750E0,1.709141866E0,8.419287704E0,-4.012709044E0,9.481951552E0
5.896613750E0,2.666277420E0,7.459880068E0,-4.416904843E0,9.070165065E0
5.906553750E0,3.661216539E0,6.776984337E0,-5.008387544E0,9.187816337E0
5.916493750E0,4.513043301E0,6.290804728E0,-6.306998591E0,9.985990947E0
5.926432750E0,4.909804072E0,5.888943722E0,-7.317084045E0,1.059837502E1
5.936372750E0,5.092441853E0,5.199720134E0,-7.514493062E0,1.046124560E1
5.946312750E0,5.072166048E0,4.188513769E0,-7.036173280E0,9.632146721E0
5.956252750E0,4.604451946E0,3.524331467E0,-6.135022039E0,8.441586665E0
5.966192750E0,3.386584222E0,2.783869312E0,-6.100589540E0,7.512394677E0
5.976132750E0,1.601110318E0,2.197483045E0,-6.673916051E0,7.206499944E0
5.986071750E0,-5.413644612E-2,1.781761799E0,-7.227416993E0,7.444001764E0
5.996011750E0,-1.343064213E0,1.099398749E0,-7.409190556E0,7.609770284E0
6.005951750E0,-2.100968172E0,-2.301744747E-1,-7.166645127E0,7.471803659E0
6.015891750E0,-2.193686302E0,-1.762615092E0,-6.084209735E0,6.703482651E0
6.025831750E0,-2.975945669E0,-2.726007605E0,-4.180258670E0,5.810501926E0
6.035770750E0,-3.999919722E0,-3.654975221E0,-2.892665530E0,6.142126303E0
6.045710750E0,-4.860146886E0,-4.795360029E0,-2.345185759E0,7.219169052E0
6.055650750E0,-4.748007230E0,-5.496450541E0,-3.435825964E0,8.034889001E0
6.065590750E0,-3.454733520E0,-5.227022538E0,-5.236374575E0,8.165572056E0
6.075530750E0,-1.240082173E0,-3.430365542E0,-6.402277801E0,7.368471523E0
6.085470750E0,4.080884363E-1,-1.442209893E0,-5.365280537E0,5.570703797E0
6.095409750E0,2.192771212E0,9.346025777E-1,-1.964085585E0,3.088585397E0
6.105349750E0,2.603948148E0,2.861434382E0,-3.973340911E-1,3.889245050E0
6.115289750E0,2.064910879E0,4.334131073E0,-4.078468001E-1,4.818183071E0
6.125229750E0,1.845205259E0,5.689117466E0,2.863034327E-2,5.980941371E0
6.135169750E0,2.638115768E0,7.214495232E0,1.318798560E0,7.794089164E0
6.145108750E0,4.788260924E0,9.045818616E0,4.458476207E0,1.116388316E1
6.155048750E0,7.217753300E0,1.054042015E1,5.830848126E0,1.404262117E1
6.164988750E0,8.322343208E0,1.113165317E1,6.497689158E0,1.534258985E1
6.174928750E0,8.443443722E0,1.035049323E1,4.411190944E0,1.406709129E1
6.184868750E0,9.707187822E0,7.509342835E0,3.958176742E0,1.289522735E1
6.194807750E0,1.199700366E1,1.530283579E0,1.543902914E1,1.961207499E1
6.204747750E0,1.330035739E1,-6.912046832E0,2.551214332E1,2.958961566E1
6.214687750E0,3.958739536E0,-1.160167108E1,1.391723162E1,1.854615126E1
6.224627750E0,-4.362340965E0,-1.267476613E1,4.370656291E0,1.409901952E1
6.234567750E0,-6.015350584E0,-1.615498210E1,2.820544803E-1,1.724086553E1
6.244507750E0,-5.345338608E0,-2.145263901E1,-2.507874886E0,2.225034386E1
6.254446750E0,-3.520018853E0,-2.998566558E1,1.027640433E1,3.189255648E1
6.264386750E0,-2.211585798E0,-4.148797843E1,4.309566803E1,5.986134036E1
6.274326750E0,-4.640474595E0,-2.858285306E1,5.913470453E0,2.955473949E1
6.284266750E0,-2.712551408E0,-1.050345171E1,-2.419936388E1,2.651960869E1
6.294206750E0,1.905911636E-1,-9.098174000E0,-1.148199494E1,1.465091475E1
6.304145750E0,-2.180825424E-1,-5.257935013E0,-1.243494608E0,5.407376391E0
6.314085750E0,-1.252498297E0,-3.540559244E-1,7.942852480E0,8.048789542E0
6.324025750E0,3.206506352E-1,1.859290032E0,5.418980196E0,5.738041706E0
6.333965750E0,7.960988496E-1,1.307280715E0,-1.763958782E0,2.335445745E0
6.343905750E0,2.859709819E-1,2.055237830E-2,-4.639804212E0,4.648654098E0
6.353844750E0,-2.951143096E-1,-1.591261852E0,-5.173642722E0,5.420865775E0
6.363784750E0,-8.672480620E-1,-3.779726737E0,-3.982487710E0,5.558656471E0
6.373724750E0,-1.094879436E0,-6.088251915E0,-7.631435768E-1,6.232813207E0
6.383664750E0,-9.241136961E-1,-6.922625615E0,2.263212035E0,7.341584314E0
6.393604750E0,-9.856014079E-1,-5.687302490E0,2.262877720E0,6.199793168E0
6.403544750E0,-1.445908257E0,-4.011224436E0,1.255014208E0,4.444730906E0
6.413483750E0,-1.439995553E0,-2.190155314E0,1.168029274E0,2.869609708E0
6.423423750E0,-8.324620260E-1,-1.734886426E-1,1.901925589E0,2.083365614E0
6.433363750E0,-1.127673545E-1,1.422978401E0,2.592746637E0,2.959716056E0
6.443303750E0,3.265991539E-2,2.561427780E0,2.895982071E0,3.866353722E0
6.453243750E0,-1.584448531E-1,3.685913424E0,3.116118046E0,4.829208446E0
6.463182750E0,-2.527080359E-1,4.936698341E0,2.964705566E0,5.764055079E0
6.473122750E0,-2.787976543E-1,6.218795682E0,2.533072293E0,6.720684720E0
6.483062750E0,-7.670218887E-1,7.158483583E0,2.347763504E0,7.572595543E0
6.493002750E0,-1.580850446E0,7.704095462E0,2.624810429E0,8.291067772E0
6.502942750E0,-2.497689037E0,7.468341574E0,3.091157452E0,8.459895436E0
6.512881750E0,-3.421224005E0,6.312197936E0,2.822521162E0,7.714612251E0
6.522821750E0,-4.156786777E0,4.635725194E0,1.948827860E0,6.524320226E0
6.532761750E0,-4.411078092E0,3.173554076E0,1.053896302E0,5.535318674E0
6.542701750E0,-4.158759335E0,2.430954764E0,4.398392558E-1,4.837176743E0
6.552641750E0,-3.945614291E0,2.221162514E0,3.509253252E-1,4.541429690E0
6.562581750E0,-3.874120385E0,2.000777448E0,6.807176435E-1,4.413082332E0
6.572520750E0,-3.665654868E0,1.580811709E0,1.581711595E0,4.293926273E0
6.582460750E0,-3.311762373E0,1.127559525E0,3.146534092E0,4.705298853E0
6.592400750E0,-2.345112961E0,4.240792555E-1,4.482636902E0,5.076754043E0
6.602340750E0,-2.197966463E0,-8.911834931E-1,5.862196804E0,6.323813403E0
6.612280750E0,-2.509447495E0,-2.713234947E0,7.199309428E0,8.092529076E0
6.622219750E0,-9.046573783E-1,-4.331994501E0,4.146957607E0,6.064803272E0
6.632159750E0,1.903122514E0,-6.220332915E0,-2.923457260E-1,6.511519247E0
6.642099750E0,5.120199755E0,-8.343042351E0,-3.122293290E0,1.027480008E1
6.652039750E0,6.622237775E0,-8.611343595E0,-5.890952241E0,1.235769355E1
6.661979750E0,5.586646181E0,-9.112822444E0,-5.074010845E0,1.183214835E1
6.671919750E0,3.751704540E0,-9.157318001E0,-3.527939783E0,1.050609914E1
6.681858750E0,1.433831418E0,-7.128475088E0,-2.069907909E0,7.560128859E0
6.691798750E0,1.175156810E0,-3.419920660E0,-6.628269178E-1,3.676437185E0
6.701738750E0,2.100065801E0,-4.811849177E-1,-2.416398121E0,3.237405624E0
6.711678750E0,1.888347185E0,1.626563832E0,-3.288292235E0,4.126067233E0
6.721618750E0,6.951626050E-1,3.729809057E0,-1.939843029E0,4.261187349E0
6.731557750E0,-1.284787792E0,5.281046133E0,-7.192005086E-1,5.482460880E0
6.741497750E0,-2.786498513E0,5.893760074E0,-5.132902247E-1,6.539453236E0
6.751437750E0,-3.960553342E0,6.581027184E0,-5.717612118E-1,7.702130384E0
6.761377750E0,-5.470906979E0,7.870932312E0,8.475749588E-1,9.622930009E0
6.771317750E0,-5.620888646E0,1.036887687E1,2.976119331E0,1.216409812E1
6.781256750E0,-3.784176175E0,1.363068414E1,2.922658238E0,1.444498081E1
6.791196750E0,-4.184238285E-1,1.420711787E1,-1.983053952E-1,1.421466150E1
6.801136750E0,3.360386649E0,1.174196449E1,-3.674833535E0,1.275422793E1
6.811076750E0,5.410087751E0,9.007388960E0,-5.480293515E0,1.185055789E1
6.821016750E0,5.093869743E0,9.190820208E0,-1.454927588E0,1.060827504E1
6.830956750E0,4.959107795E0,1.071520746E1,4.477347511E0,1.262755169E1
6.840895750E0,6.819091891E0,1.176806412E1,8.408983156E0,1.599057051E1
6.850835750E0,1.311447206E1,8.067224511E0,1.417240412E1,2.092669413E1
6.860775750E0,9.602645454E0,-6.856243345E0,1.122665288E1,1.628670033E1
6.870715750E0,2.528567598E0,-1.300911693E1,2.159455678E0,1.342736111E1
6.880655750E0,-6.186348313E-1,-1.798795908E1,1.964522372E0,1.810548892E1
6.890594750E0,1.402944817E0,-2.242658633E1,-1.433473569E0,2.251610257E1
6.900534750E0,2.490807156E-1,-2.995830061E1,-1.843225099E0,3.001598400E1
6.910474750E0,-1.576362124E0,-3.786532896E1,5.783030182E0,3.833681641E1
6.920414750E0,-1.231908204E0,-4.075157073E1,7.659313976E0,4.148340880E1
6.930354750E0,-1.923098650E0,-4.015022904E1,7.431046278E0,4.087737332E1
6.940293750E0,-1.570415652E0,-3.318016088E1,4.483684139E0,3.351854270E1
6.950233750E0,-3.832795773E0,-2.370224530E1,2.441736445E0,2.413397673E1
6.960173750E0,-6.855152255E0,-1.728251239E1,4.641903362E0,1.916313163E1
6.970113750E0,-9.791328671E0,-1.188437226E1,8.265624631E0,1.747652630E1
6.980053750E0,-1.153220615E1,-8.653055878E0,7.851626560E0,1.641691793E1
6.989993750E0,-1.215054921E1,-6.676687047E0,2.500354782E0,1.408778798E1
6.999932750E0,-1.113633445E1,-4.654462597E0,-2.620405136E0,1.235105219E1
7.009872750E0,-9.371666987E0,-1.595668899E0,-6.456066338E0,1.149152270E1
7.019812750E0,-6.573873115E0,2.196922882E0,-7.186475959E0,9.984373520E0
7.029752750E0,-4.040944664E0,5.669076719E0,-3.080078732E0,7.612788558E0
7.039692750E0,-4.483674783E0,7.989454789E0,6.276611781E-1,9.183065171E0
7.049631750E0,-5.748674866E0,8.653451734E0,6.161760771E-1,1.040716881E1
7.059571750E0,-5.726628524E0,8.800961198E0,1.189108048E-1,1.050073007E1
7.069511750E0,-4.261130340E0,9.062886638E0,-6.654493940E-1,1.003673099E1
7.079451750E0,-1.524985709E0,9.217158991E0,-2.254751844E0,9.610697538E0
7.089391750E0,2.350647643E0,9.312421244E0,-3.677030919E0,1.028432254E1
7.099330750E0,7.405537215E0,8.748788247E0,-3.329483530E0,1.193602689E1
7.109270750E0,1.115066130E1,7.023105338E0,-5.694199866E0,1.435566676E1
7.119210750E0,1.329537205E1,5.475204098E0,-8.167707742E0,1.653651196E1
7.129150750E0,1.553218698E1,4.826834421E0,-9.686500958E0,1.893080726E1
7.139090750E0,1.566315525E1,4.760201306E0,-9.456375015E0,1.890547480E1
7.149030750E0,1.394158060E1,4.760410051E0,-4.256305802E0,1.533444856E1
7.158969750E0,1.165858436E1,4.055015404E0,-9.562185645E-2,1.234402215E1
7.168909750E0,9.062046393E0,2.674520532E0,-3.166749671E0,9.965041314E0
7.178849750E0,6.443756779E0,1.398221290E0,-6.611453755E0,9.337469944E0
7.188789750E0,5.366768069E0,9.358942276E-1,-1.224205112E1,1.339947436E1
7.198729750E0,3.053810993E0,5.190796698E0,-1.595251174E1,1.705147392E1
7.208668750E0,-5.059671133E0,4.385196562E1,-1.567084551E1,4.684197434E1
7.218608750E0,6.830777552E0,1.499826953E1,8.304177078E0,1.845445659E1
7.228548750E0,5.963434180E-1,1.346027172E1,-9.818670251E0,1.667155739E1
7.238488750E0,-4.382546896E0,1.222672440E1,-1.536193711E1,2.011687397E1
7.248428750E0,-4.339481276E0,7.663139809E0,-1.328919622E1,1.594231933E1
7.258367750E0,-3.038576657E0,8.904784359E0,-1.202973287E1,1.527228226E1
7.268308250E0,-1.311768160E0,1.115183074E1,-1.128120624E1,1.591696198E1
7.278248250E0,-1.105019970E0,1.213099846E1,-1.088809559E1,1.633807878E1
7.288188250E0,-5.717191118E-1,1.254490297E1,-1.054451203E1,1.639781044E1
7.298128250E0,7.540225782E-2,1.259281389E1,-8.583485706E0,1.524010742E1
7.308068250E0,-8.903882718E-1,1.223450353E1,-3.569964307E0,1.277577838E1
7.318007250E0,-2.221089716E0,1.219105872E1,6.192535837E0,1.385289328E1
7.327947250E0,5.114976145E-1,1.210597004E1,9.552154162E0,1.542918629E1
7.337887250E0,3.739516896E0,1.073825250E1,2.927506750E0,1.174156502E1
7.347827250E0,5.104113480E0,8.908279240E0,-2.883544459E0,1.066415689E1
7.357767250E0,1.060740585E1,8.161958175E0,4.710213459E0,1.418875368E1
7.367706250E0,2.006324701E1,-4.100137197E0,4.028968748E1,4.519517588E1
7.377646250E0,5.739882408E0,-3.161109564E1,3.821874636E1,4.992875115E1
7.387586250E0,-5.363648579E0,-3.983664521E1,-1.530797549E1,4.301233708E1
7.397526250E0,-6.728083488E0,-3.978707953E1,-1.087083461E1,4.179059523E1
7.407466250E0,-6.330204436E0,-3.001532968E1,-1.801767463E0,3.072845375E1
7.417405250E0,-4.368023874E0,-1.291765946E1,-5.914503071E0,1.486361010E1
7.427345250E0,-4.231642832E0,-3.128588403E0,-3.024988021E0,6.070042749E0
7.437285250E0,-2.024220543E0,2.661460776E0,-1.792113125E-1,3.348575662E0
7.447225250E0,-1.415922858E0,6.343933114E0,6.243317735E-1,6.529939897E0
7.457165250E0,-1.986288632E0,6.377430058E0,-4.538427526E-1,6.694992899E0
7.467104250E0,-1.689152575E0,-2.726004097E0,2.721022854E0,4.205746085E0
7.477044250E0,1.726545519E0,-2.089020703E1,7.859518547E0,2.238646334E1
7.486984250E0,6.009217440E0,-2.972899620E1,9.064301080E0,3.165573350E1
7.496924250E0,4.975288795E0,-2.265989257E1,6.105018806E0,2.398948696E1
7.506864250E0,3.759395383E0,-9.617943524E0,-6.956338906E-1,1.034996608E1
7.516804250E0,2.705654032E0,-1.713378028E0,-1.937758496E0,3.743145201E0
7.526743250E0,2.956589338E0,2.688705878E0,-1.196288867E0,4.171530518E0
7.536683250E0,3.615897987E0,4.471278686E0,-1.069234133E0,5.848958281E0
7.546623250E0,3.389870650E0,4.306107123E0,-9.676574725E-1,5.565082440E0
7.556563250E0,2.145049016E0,2.345876023E0,-4.315022957E-1,3.207890868E0
7.566503250E0,1.395670881E0,-4.237822169E-1,-2.766148156E-1,1.484588943E0
7.576442250E0,2.167159384E-1,-3.235476090E0,-4.287815863E-1,3.270951692E0
7.586382250E0,-7.419583105E-1,-5.668468609E0,1.498115122E-2,5.716840293E0
7.596322250E0,-1.170510613E0,-7.395361891E0,8.750200349E-1,7.538377322E0
7.606262250E0,-1.168735033E0,-8.002874733E0,1.752164363E0,8.275386730E0
7.616202250E0,-2.507435176E-1,-7.432678236E0,2.094089069E0,7.726110736E0
7.626141250E0,1.015137887E0,-5.782371200E0,1.581306968E0,6.080037282E0
7.636081250E0,1.671605519E0,-3.419238875E0,2.965994292E-1,3.817516302E0
7.646021250E0,2.040056411E0,-1.095968773E0,-8.207760000E-1,2.456959697E0
7.655961250E0,2.394754360E0,1.001414033E0,-1.267716115E0,2.888733746E0
7.665901250E0,2.361124684E0,2.864021190E0,-1.548771306E0,4.021967144E0
7.675841250E0,1.867664560E0,4.377687567E0,-1.800705024E0,5.088699041E0
7.685780250E0,9.601753023E-1,5.262704587E0,-1.913543422E0,5.681517809E0
7.695720250E0,-3.751461735E-1,5.590124105E0,-2.091228027E0,5.980255582E0
7.705660250E0,-1.739227691E0,5.576225858E0,-2.360171295E0,6.299969550E0
7.715600250E0,-3.002840522E0,5.703558335E0,-2.687732316E0,6.983661925E0
7.725540250E0,-3.847232841E0,6.730002544E0,-3.145642977E0,8.365955087E0
7.735479250E0,-3.928887454E0,9.035710534E0,-3.797015784E0,1.055924005E1
7.745419250E0,-4.019998768E0,1.219696675E1,-4.390676572E0,1.357219321E1
7.755359250E0,-3.976465078E0,1.394568301E1,-4.763531295E0,1.526386515E1
7.765299250E0,-3.105697138E0,1.286838615E1,-5.881801348E0,1.448572759E1
7.775239250E0,-1.619572901E0,1.080057213E1,-8.196325185E0,1.365485705E1
7.785178250E0,-2.008775854E-1,8.907107458E0,-1.037992811E1,1.367917478E1
7.795118250E0,7.787940149E-1,7.854508653E0,-1.135132722E1,1.382578952E1
7.805058250E0,1.394625837E0,7.318545849E0,-1.131926927E1,1.355108672E1
7.814998250E0,1.727369099E0,7.056816875E0,-1.062073282E1,1.286788382E1
7.824938250E0,2.059611547E0,6.950654828E0,-9.344655190E0,1.182692618E1
7.834878250E0,2.127457083E0,6.833695312E0,-8.172805930E0,1.086371125E1
7.844817250E0,1.808966555E0,6.816498651E0,-7.258285614E0,1.012026304E1
7.854757250E0,1.511890578E0,6.896393251E0,-6.577752743E0,9.649501756E0
7.864697250E0,1.296498156E0,6.954263729E0,-6.153026201E0,9.375629201E0
7.874637250E0,1.374364066E0,6.898873640E0,-5.744672447E0,9.082103039E0
7.884577250E0,1.703563622E0,6.683471571E0,-5.172656881E0,8.621328231E0
7.894516250E0,2.041165920E0,6.540038787E0,-4.657639097E0,8.284447332E0
7.904456250E0,2.202467504E0,6.680191283E0,-4.744808803E0,8.484634893E0
7.914396250E0,2.839954051E0,6.809795988E0,-5.532388113E0,9.222037662E0
7.924336250E0,3.676278674E0,5.670827960E0,-4.608077512E0,8.179712281E0
7.934276250E0,3.501154566E0,2.725898262E0,-3.052562320E0,5.385790689E0
7.944215250E0,2.957630435E0,-1.604545557E0,-2.214109018E0,4.027955186E0
7.954155250E0,2.812847528E0,-6.419283843E0,-2.418439384E0,7.414051883E0
7.964095250E0,3.112080836E0,-1.052952094E1,-4.313536010E0,1.179671358E1
7.974035250E0,4.136822628E0,-1.257013488E1,-5.573744885E0,1.435925570E1
7.983975250E0,5.107988430E0,-1.244387946E1,-4.967976851E0,1.433954239E1
7.993914250E0,6.155465074E0,-1.010435819E1,-3.730520078E0,1.240582866E1
8.003854250E0,8.917777457E0,-5.524192071E0,-4.264503014E-1,1.049882435E1
8.013794250E0,1.181494242E1,-5.137159020E-1,3.115052683E0,1.222948575E1
8.023734250E0,1.240826290E1,2.501272210E0,8.734422222E0,1.537892982E1
8.033674250E0,1.177809093E1,-3.110340412E0,2.414745230E1,2.704620299E1
8.043613250E0,5.572122867E0,-1.261944211E1,2.146859957E1,2.551861359E1
8.053553250E0,-2.240527761E0,-1.454024777E1,5.019219511E0,1.554449531E1
8.063493250E0,-4.823960515E0,-1.362026557E1,7.223104964E-1,1.446734121E1
8.073433250E0,-5.517205233E0,-1.131516453E1,3.665185629E0,1.311129618E1
8.083373250E0,-7.768366887E0,-9.381968027E0,-6.345111912E-1,1.219719036E1
8.093313250E0,-9.181476942E0,-8.706828042E0,-2.802896737E0,1.296011588E1
8.103252250E0,-8.027889122E0,-9.457162051E0,2.331865509E0,1.262230227E1
8.113192250E0,-6.470142925E0,-1.350418782E1,1.313388716E1,1.991795246E1
8.123132250E0,-4.120017731E0,-1.586566655E1,9.459770494E0,1.892567513E1
8.133072250E0,-2.402770308E0,-1.290793554E1,-7.726868028E0,1.523458548E1
8.143012250E0,-7.386967043E0,-1.598830371E1,8.938900523E0,1.975087543E1
8.152951250E0,-6.668607364E0,-1.356059006E1,6.281828082E0,1.636524644E1
8.162891250E0,-3.733436669E0,-7.161669731E0,-5.800730288E0,9.943668064E0
8.172831250E0,-2.455239421E0,-3.225551026E0,-4.153743886E0,5.803961432E0
8.182771250E0,-1.070504149E0,-6.931114018E-1,-5.796298099E-1,1.400840199E0
8.192711250E0,2.314166426E-1,1.116607690E-1,-2.453577934E-1,3.552776894E-1
8.202650250E0,1.119074557E0,-8.932037061E-1,-1.613287144E0,2.157043378E0
8.212590250E0,2.142907180E0,-1.520032825E0,-8.258291638E-1,2.754005226E0
8.222530250E0,1.096335028E0,-1.245644045E0,4.434529082E-1,1.717623376E0
8.232470250E0,-5.133082779E-1,-5.370907313E-1,2.115409333E-2,7.432357213E-1
8.242410250E0,-1.170955001E0,3.678161770E-1,-8.360015649E-1,1.485032987E0
8.252349250E0,-1.580368051E0,1.093151584E0,-1.382301661E0,2.367129368E0
8.262289250E0,-2.039149654E0,1.524865549E0,-1.631395386E0,3.024036568E0
8.272228875E0,-2.079359933E0,2.113560882E0,-1.762688767E0,3.449340375E0
8.282168875E0,-1.992157775E0,2.964510269E0,-1.556264513E0,3.896020145E0
8.292108875E0,-1.874704316E0,3.958439282E0,-8.423557341E-1,4.460192933E0
8.302048875E0,-1.519253245E0,4.900626283E0,4.082997400E-2,5.130880575E0
8.311987875E0,-1.017076531E0,5.837401686E0,9.142507589E-1,5.995461414E0
8.321927875E0,-3.467937922E-1,6.808604910E0,1.856086342E0,7.065580179E0
8.331867875E0,8.049586239E-1,7.714680092E0,2.965611885E0,8.304161677E0
8.341807875E0,2.593262946E0,7.906952330E0,4.036315423E0,9.248608006E0
8.351747875E0,3.915315481E0,6.037316235E0,4.424531951E0,8.447210523E0
8.361686875E0,2.488023882E0,2.922326117E0,4.437294084E0,5.866841702E0
8.371626875E0,3.613886252E-1,9.210440540E-1,3.935885986E0,4.058339856E0
8.381566875E0,-8.650734825E-1,9.720937550E-2,2.832484818E0,2.963236750E0
8.391506875E0,-1.431168889E0,-2.214475054E-1,1.777147762E0,2.292495922E0
8.401446875E0,-1.542361588E0,-7.192379308E-1,1.342079834E0,2.167339556E0
8.411385875E0,-1.577214648E0,-1.485896780E0,1.479877657E0,2.624029948E0
8.421325875E0,-1.725363066E0,-2.240294604E0,1.857440557E0,3.383176473E0
8.431265875E0,-1.752458917E0,-2.757317691E0,2.528346573E0,4.131155952E0
8.441205875E0,-1.495557989E0,-2.449230237E0,2.923088593E0,4.096323886E0
8.451145875E0,-1.648021652E0,-1.074455112E0,2.737310858E0,3.370949404E0
8.461084875E0,-2.294048934E0,1.461043775E-2,2.356930768E0,3.289072305E0
8.471024875E0,-2.930233891E0,2.873590744E-1,1.937370826E0,3.524521473E0
8.480964875E0,-3.225300473E0,4.576615691E-1,1.532101479E0,3.599910025E0
8.490904875E0,-3.186194587E0,8.546728939E-1,1.062516267E0,3.465723953E0
8.500844875E0,-3.247368449E0,1.209415281E0,5.428964317E-1,3.507538126E0
8.510783875E0,-3.244257438E0,1.159528592E0,1.224968290E-1,3.447421987E0
8.520723875E0,-2.932215220E0,1.066528042E0,-2.192331648E-1,3.127847717E0
8.530663875E0,-2.521624614E0,1.127433810E0,-4.243172371E-1,2.794591707E0
8.540603875E0,-1.990928398E0,1.536167632E0,-3.775289869E-1,2.542859614E0
8.550543875E0,-1.319071040E0,2.094407743E0,-1.819997035E-2,2.475242097E0
8.560483875E0,-8.774339117E-1,2.679977739E0,7.417754388E-1,2.915887815E0
8.570422875E0,-6.276268988E-1,3.294218972E0,1.888978100E0,3.848900158E0
8.580362875E0,-6.311490422E-1,3.890689933E0,3.337554442E0,5.164793018E0
8.590302875E0,-8.324049425E-1,4.611168058E0,4.829127699E0,6.728762381E0
8.600242875E0,-1.351877574E0,5.385002611E0,5.824015655E0,8.046426812E0
8.610182875E0,-2.406209055E0,4.822506312E0,5.224492448E0,7.506112875E0
8.620121875E0,-5.684355494E0,2.880860002E0,6.587812293E0,9.165725423E0
8.630061875E0,-1.005495974E1,-2.102389777E-1,1.215382716E1,1.577535833E1
8.640001875E0,-1.350002811E1,-3.712610641E0,1.539505457E1,2.080965982E1
8.649941875E0,-8.902093470E0,-3.481497688E0,3.245176036E0,1.009451642E1
8.659881875E0,-2.837314618E-1,1.627474244E0,-1.018057431E1,1.031374177E1
8.669820875E0,2.171129644E0,5.490714422E0,-8.322225679E0,1.020397908E1
8.679760875E0,3.447041801E0,7.297809284E0,-4.275956540E0,9.133669681E0
8.689700875E0,4.392005644E0,8.388698580E0,-3.205629562E0,9.996801405E0
8.699640875E0,4.176029086E0,8.351303297E0,-3.599172903E0,1.000687420E1
8.709580875E0,4.590594922E0,7.238135524E0,-3.317977964E0,9.190927340E0
8.719519875E0,4.825521721E0,4.894983720E0,-3.028571194E0,7.511242838E0
8.729459875E0,5.235929017E0,1.690365726E-1,-4.376585075E0,6.826274456E0
8.739399875E0,5.559470662E0,-8.556039460E0,-6.657584193E0,1.218347047E1
8.749339875E0,5.628812792E0,-2.730812028E1,-4.190115906E0,2.819528397E1
8.759279875E0,3.053407535E0,-5.721437366E1,2.807233968E1,6.380332363E1
8.769218875E0,6.650235997E0,-6.663919184E1,4.938553662E0,6.715204271E1
8.779158875E0,6.368309571E0,-6.527641169E1,-2.088513165E0,6.561956398E1
8.789098875E0,6.709956535E0,-5.207969035E1,1.765877370E1,5.539990932E1
8.799038875E0,5.901622240E0,-2.854848780E1,1.683386138E1,3.366339540E1
8.808978875E0,3.703320293E0,-1.830963663E1,1.024407273E1,2.130489148E1
8.818917875E0,6.133604966E-1,-1.191963682E1,1.328336187E1,1.785781777E1
8.828857875E0,-3.295279657E0,-5.429694634E0,1.260806109E1,1.411749469E1
8.838797875E0,-7.195338584E0,-2.183583044E0,7.353458405E0,1.051733249E1
8.848737875E0,-9.141676700E0,-3.567035437E-2,-4.105076340E0,1.002113651E1
8.858677875E0,-9.020604837E0,4.521189934E0,-1.265027682E1,1.618153187E1
8.868616875E0,-9.893152084E0,7.876649719E0,-7.007793235E0,1.445770504E1
8.878556875E0,-1.388918721E1,7.165710742E0,2.166801535E0,1.577821158E1
8.888496875E0,-1.616650346E1,5.283085057E0,3.986865520E-2,1.700789262E1
8.898436875E0,-1.400249689E1,5.613299544E0,-4.137293914E0,1.564276996E1
8.908376875E0,-1.082883172E1,6.727705758E0,-5.374347814E0,1.383507266E1
8.918316875E0,-8.586026321E0,8.206523899E0,-7.182040846E0,1.387979082E1
8.928255875E0,-4.425998433E0,9.441912512E0,-7.798881751E0,1.302158710E1
8.938195875E0,1.105110164E0,1.035771337E1,-8.303326308E0,1.332098804E1
8.948135875E0,7.802604089E0,1.036566441E1,-8.781788762E0,1.566676237E1
8.958075875E0,1.222879899E1,8.495149480E0,-5.388329092E0,1.583493542E1
8.968015875E0,1.730620531E1,4.857751574E0,-2.612122555E0,1.816385633E1
8.977954875E0,2.280370133E1,1.174348944E0,9.773173651E-1,2.285482529E1
8.987894875E0,2.311420720E1,-1.987204891E0,8.566600701E-1,2.321528428E1
8.997834875E0,1.583623635E1,-2.640732982E0,-5.507676026E0,1.697334226E1
9.007774875E0,8.421965729E0,-2.539197251E0,-1.022589725E1,1.348873619E1
9.017714875E0,4.177862481E0,-1.679802146E0,-1.350399954E1,1.423496659E1
9.027653875E0,2.246342964E0,-8.040763521E-1,-1.386796532E1,1.407171126E1
9.037593875E0,1.878472992E0,9.456736958E-1,-9.886162323E0,1.010738171E1
9.047533875E0,4.893662249E0,9.631285701E0,-9.591470840E0,1.444665731E1
9.057473875E0,1.034508689E1,3.618056603E1,-1.328142644E1,3.990551929E1
9.067413875E0,7.228732617E0,3.434333579E1,-3.728574125E0,3.529336416E1
9.077352875E0,2.935697237E0,2.071576821E1,-4.451380026E0,2.139102978E1
9.087292875E0,6.244506182E-1,1.689151376E1,-1.011976327E1,1.970083207E1
9.097232875E0,-8.808663735E-1,1.549218618E1,-1.104401159E1,1.904610066E1
9.107172875E0,-1.474467813E0,1.532870738E1,-9.241042528E0,1.795940401E1
9.117112875E0,-1.676619214E0,1.484780313E1,-7.675627123E0,1.679832020E1
9.127052875E0,-6.908693600E-1,1.447328780E1,-5.789794241E0,1.560368795E1
9.136991875E0,-5.475481841E-1,1.368797867E1,-4.172486551E0,1.432027280E1
9.146931875E0,-1.868028842E0,1.292652501E1,2.852173562E0,1.336860033E1
9.156871875E0,-1.464844173E0,1.305207643E1,1.054162818E1,1.684127050E1
9.166811875E0,8.514836763E-1,1.155530032E1,3.297446051E0,1.204670662E1
9.176751875E0,1.817510653E0,9.166199922E0,-7.200204052E0,1.179684298E1
9.186690875E0,2.744114093E0,8.711099433E0,-6.266812432E0,1.107638721E1
9.196630875E0,6.219211419E0,9.162511498E0,1.251726903E0,1.114437203E1
9.206570875E0,1.364255399E1,3.811038576E0,2.119161228E1,2.548975727E1
9.216510875E0,6.052748791E0,-1.615449211E1,2.858629356E1,3.338831476E1
9.226450875E0,-1.955137591E0,-3.004676431E1,-7.321392859E0,3.098763304E1
9.236389875E0,-9.635944762E0,-3.730769637E1,-1.079065057E1,4.001441965E1
9.246329875E0,-1.170570240E1,-3.776589822E1,5.450515984E0,3.991233721E1
9.256269875E0,-6.410480275E0,-2.395576420E1,-7.221591412E0,2.582874907E1
9.266209750E0,-1.314150316E0,-1.102048825E1,-6.037705075E0,1.263455717E1
9.276149750E0,-1.862315089E0,-3.455226148E0,-1.301038812E0,4.135155041E0
9.286088750E0,-1.924360771E0,7.236654425E-1,-3.777960877E0,4.301144550E0
9.296028750E0,-1.739178574E0,1.695402517E0,-4.213213577E0,4.863157458E0
9.305968750E0,-3.416382510E0,-1.570866764E0,-3.237515014E0,4.961934634E0
9.315908750E0,-4.421307796E0,-1.310196253E1,8.893848896E-1,1.385642054E1
9.325848750E0,-2.556828945E0,-2.353962488E1,4.019607589E0,2.401683907E1
9.335787750E0,-3.890664205E-1,-2.378928228E1,3.806071367E0,2.409496842E1
9.345727750E0,9.788367641E-1,-1.556003493E1,1.207046574E0,1.563744768E1
9.355667750E0,9.473731890E-1,-7.187900341E0,-8.407226068E-1,7.298646571E0
9.365607750E0,1.492001566E0,-2.597682272E0,-8.963495082E-1,3.126893714E0
9.375547750E0,2.067291572E0,-3.235819906E-1,-1.192295219E0,2.408312197E0
9.385486750E0,2.275779309E0,3.719799793E-1,-9.260153568E-1,2.484963784E0
9.395426750E0,1.764085959E0,-4.164679348E-2,-3.739656937E-1,1.803769405E0
9.405366750E0,7.915735433E-1,-1.337250034E0,-6.442643470E-1,1.682231517E0
9.415306750E0,-4.818626100E-1,-2.883038675E0,-9.226649022E-1,3.065193974E0
9.425246750E0,-1.388740030E0,-4.126601695E0,-2.597976387E-1,4.361758273E0
9.435185750E0,-1.738419606E0,-5.093768587E0,3.780213225E-1,5.395505654E0
9.445125750E0,-1.528854520E0,-5.716701121E0,6.975085080E-1,5.958572478E0
9.455065750E0,-7.177939609E-1,-6.010871617E0,1.046072143E0,6.143294938E0
9.465005750E0,3.210881531E-1,-5.995239086E0,8.373265439E-1,6.061939050E0
9.474945750E0,1.520523992E0,-5.561054088E0,5.569344270E-1,5.792019659E0
9.484884750E0,2.906142193E0,-4.396323813E0,4.533205962E-1,5.289501402E0
9.494824750E0,3.440658395E0,-2.646805900E0,-1.812239242E-1,4.344715615E0
9.504764750E0,3.155884667E0,-7.968451005E-1,-1.344734470E0,3.521772415E0
9.514704750E0,2.946622175E0,9.608834732E-1,-2.303991247E0,3.861897844E0
9.524644750E0,2.669305693E0,2.547024334E0,-3.045819311E0,4.784301529E0
9.534583750E0,2.211055894E0,3.982657279E0,-3.677516822E0,5.854439098E0
9.544523750E0,1.685679475E0,5.105886356E0,-3.837097862E0,6.605672621E0
9.554463750E0,1.237252121E0,5.865487617E0,-3.463462536E0,6.923171999E0
9.564403750E0,9.080480325E-1,6.389147294E0,-2.998868508E0,7.116106147E0
9.574343750E0,5.891815290E-1,6.572935807E0,-2.869238661E0,7.196051034E0
9.584283750E0,5.460954434E-1,6.557064709E0,-2.941181048E0,7.207209154E0
9.594222750E0,1.059457589E0,6.572760390E0,-3.296694099E0,7.429119834E0
9.604162750E0,1.554104843E0,7.359642420E0,-3.917186590E0,8.480797675E0
9.614102750E0,2.089460121E0,9.143175341E0,-4.396982210E0,1.035842418E1
9.624042750E0,2.605101219E0,1.094048196E1,-4.642483991E0,1.216689589E1
9.633982750E0,2.944302292E0,1.108136829E1,-4.806246375E0,1.243244317E1
9.643921750E0,3.185769787E0,9.652982379E0,-5.264110842E0,1.144727308E1
9.653861750E0,3.564357704E0,8.176709531E0,-6.278272975E0,1.090779245E1
9.663801750E0,4.090525837E0,7.232742637E0,-7.440700616E0,1.115387795E1
9.673741750E0,4.307793752E0,6.756933650E0,-7.988903396E0,1.131529128E1
9.683681750E0,4.357456201E0,6.566530766E0,-7.509067431E0,1.088544186E1
9.693620750E0,4.401950589E0,6.582265039E0,-6.506223754E0,1.024862574E1
9.703560750E0,4.082603152E0,6.661109480E0,-5.799295966E0,9.729843868E0
9.713500750E0,3.289524243E0,6.744159822E0,-5.580057539E0,9.351026874E0
9.723440750E0,2.601734977E0,6.812274622E0,-5.401316342E0,9.074708185E0
9.733380750E0,2.173594538E0,6.851004240E0,-5.380140651E0,8.978122617E0
9.743319750E0,2.107985854E0,6.757890254E0,-5.418480259E0,8.914741352E0
9.753259750E0,1.746879650E0,6.257810059E0,-4.683702768E0,8.009297526E0
9.763199750E0,7.678290968E-1,5.566631747E0,-3.162684102E0,6.448218456E0
9.773139750E0,2.580939062E-2,5.469897165E0,-3.008981560E0,6.242948915E0
9.783079750E0,-1.017865028E-2,5.350979417E0,-4.105140367E0,6.744276222E0
9.793018750E0,1.376536160E-1,4.456025639E0,-5.179353697E0,6.833799656E0
9.802958750E0,-4.577242805E-1,2.303004237E0,-4.950428188E0,5.479058247E0
9.812898750E0,-1.823282732E0,-1.871318924E0,-2.974408436E0,3.958951879E0
9.822838750E0,-2.471886736E0,-6.155246388E0,-1.715599385E0,6.851318368E0
9.832778750E0,-2.414906496E0,-9.647837414E0,-2.944404033E0,1.037217698E1
9.842717750E0,-1.351032944E0,-1.223400886E1,-4.556398358E0,1.312467252E1
9.852657750E0,2.765722406E-1,-1.290506222E1,-4.706000540E0,1.373912531E1
9.862597750E0,1.443180677E0,-1.120092396E1,-3.803280491E0,1.191672818E1
9.872537750E0,3.428647630E0,-7.469311042E0,-1.444354652E0,8.344602590E0
9.882477750E0,7.364270491E0,-2.456700640E0,4.263738198E0,8.857049245E0
9.892416750E0,1.018919310E1,1.485235460E0,5.299281260E0,1.158049923E1
9.902356750E0,1.025227053E1,4.260526323E0,4.609452485E0,1.202115584E1
9.912296750E0,8.303068446E0,5.280595897E0,6.130036118E0,1.159322998E1
9.922236750E0,4.653703921E0,1.197104554E0,1.913066523E1,1.972491753E1
9.932176750E0,1.806091041E0,-1.078390054E1,2.474486466E1,2.705296293E1
9.942115750E0,-3.421037478E0,-1.423138849E1,9.928572178E-4,1.463680008E1
9.952055750E0,-6.249287742E0,-1.128741364E1,-1.117711761E1,1.707006919E1
9.961995750E0,-5.825181590E0,-1.019899655E1,-9.459665244E0,1.508103238E1
9.971935750E0,-5.210978948E0,-9.318683027E0,-4.736864483E0,1.168032705E1
9.981875750E0,-4.530103137E0,-9.769882838E0,3.324843764E0,1.127062692E1
9.991815750E0,-6.239160950E0,-1.053796432E1,9.901104298E0,1.574825983E1
1.000175475E1,-9.476941427E0,-1.267689451E1,1.564068674E1,2.225190228E1
1.001169475E1,-1.118134866E1,-1.757532926E1,1.926804440E1,2.837555799E1
1.002163475E1,-9.173328263E0,-1.363027133E1,5.725125790E-1,1.643964776E1
1.003157475E1,-7.446798093E0,-1.353227667E1,-4.441670140E0,1.607189309E1
1.004151475E1,-4.317365937E0,-8.840443352E0,-1.370583841E0,9.933357305E0
1.005145375E1,-5.437575073E-1,-3.777946844E0,-6.544345846E0,7.576081912E0
1.006139375E1,-1.671782397E0,-1.267126130E0,-6.003373733E0,6.359320812E0
1.007133375E1,-1.167701610E0,7.883134282E-1,-2.551802094E0,2.914902921E0
1.008127375E1,-4.001118109E-1,1.274021167E0,1.595904140E-1,1.344874900E0
1.009121375E1,5.444330069E-1,9.986868918E-2,8.961419320E-1,1.053304997E0
1.010115275E1,2.403903498E0,-1.962002807E0,5.527647775E-1,3.151786151E0
1.011109275E1,3.911701610E0,-3.015367597E0,6.808965683E-1,4.985726764E0
1.012103275E1,2.955969534E0,-1.923064443E0,1.097189087E0,3.693204114E0
1.013097275E1,1.867034961E0,-6.861081916E-1,3.575525594E-1,2.020991794E0
1.014091275E1,1.160070482E0,-2.831099027E-1,-1.478915205E0,1.900816910E0
1.015085175E1,8.908620425E-2,1.704188544E-1,-2.988959817E0,2.995139350E0
1.016079175E1,-7.406396171E-1,9.287775815E-1,-2.851042711E0,3.088627426E0
1.017073175E1,-8.881600441E-1,1.978369163E0,-1.566110054E0,2.674971684E0
1.018067175E1,-8.380682632E-2,3.231768370E0,6.522042811E-1,3.297987387E0
1.019061175E1,1.137654377E0,3.777962632E0,2.311922411E0,4.572990746E0
1.020055075E1,1.746017185E0,3.614750471E0,2.127778387E0,4.543394969E0
1.021049075E1,1.593317441E0,3.354275724E0,9.396147379E-1,3.830496307E0
1.022043075E1,1.162607735E0,3.222387682E0,-4.162971961E-1,3.450904588E0
1.023037075E1,8.155129212E-1,3.121068299E0,-1.229304585E0,3.452146928E0
1.024031075E1,7.020618079E-1,3.136154115E0,-1.357433453E0,3.488693021E0
1.025024975E1,5.457483380E-1,3.196416104E0,-9.616623223E-1,3.382264269E0
1.026018975E1,2.293670473E-1,3.372479276E0,-4.339499402E-1,3.408010895E0
1.027013038E1,-2.344304072E-1,3.639721005E0,4.454646427E-2,3.647534921E0
1.028007037E1,-7.135142376E-1,3.623881482E0,4.358012052E-1,3.719078146E0
1.029001037E1,-1.217941764E0,3.074961834E0,8.889276373E-1,3.424757622E0
1.029994937E1,-1.680037935E0,1.999368854E0,1.367428683E0,2.947857608E0
1.030988937E1,-2.232145339E0,6.769280630E-1,1.865864056E0,2.986997338E0
1.031982937E1,-3.040198967E0,-4.410262406E-1,3.228668761E0,4.456637283E0
1.032976937E1,-3.930210094E0,-8.961577195E-1,5.383448421E0,6.725412027E0
1.033970937E1,-4.413761672E0,-7.293138528E-1,6.479655175E0,7.873952120E0
1.034964837E1,-4.031642913E0,-4.651202774E-1,5.385424780E0,6.743387984E0
1.035958837E1,-3.393220519E0,-2.562056941E-1,3.591356345E0,4.947466751E0
1.036952837E1,-2.795601751E0,4.889149368E-2,2.372976698E0,3.667260276E0
1.037946837E1,-2.359770176E0,5.427408957E-1,1.723244619E0,2.971978295E0
1.038940837E1,-2.223769788E0,1.264227666E0,1.176077381E0,2.815418560E0
1.039934737E1,-1.901182847E0,2.128136237E0,5.491880357E-1,2.906039841E0
1.040928737E1,-1.394266380E0,2.854083847E0,4.280863523E-2,3.176728809E0
1.041922738E1,-1.086227311E0,3.417142063E0,1.821571398E-1,3.590254988E0
1.042916737E1,-1.471446849E0,4.087369802E0,1.378633702E0,4.557672499E0
1.043910738E1,-2.033240751E0,4.500670885E0,2.999694135E0,5.778258498E0
1.044904637E1,-2.198249322E0,3.950693475E0,3.636975152E0,5.802401854E0
1.045898638E1,-1.982841552E0,2.510572207E0,3.228383417E0,4.545007472E0
1.046892637E1,-1.310308841E0,1.238796371E0,1.425573980E0,2.298648925E0
1.047886638E1,-1.274391150E0,4.098319298E-1,1.399504169E0,1.936658703E0
1.048880637E1,-2.313190379E0,6.379546165E-2,3.652980151E0,4.324255263E0
1.049874537E1,-2.640560196E0,5.097842342E-1,4.467948697E0,5.214882901E0
1.050868537E1,-7.586962576E-1,2.224639269E0,1.611811746E0,2.850013507E0
1.051862537E1,7.753353868E-1,4.127442525E0,-1.065099421E0,4.332593165E0
1.052856537E1,1.330838854E0,5.410511089E0,-1.459714703E0,5.759820250E0
1.053850537E1,1.768658482E0,5.643991579E0,-1.694072860E-1,5.917051005E0
1.054844437E1,2.248318445E0,4.867481341E0,-8.989567816E-2,5.362405399E0
1.055838437E1,2.878056847E0,3.927004066E0,-1.685204388E0,5.152134119E0
1.056832437E1,3.055821266E0,2.686003295E0,-2.660132289E0,4.860962981E0
1.057826437E1,2.595771402E0,5.291712624E-1,-1.594923233E0,3.092221129E0
1.058820437E1,2.105056838E0,-3.383629916E0,2.273327133E0,4.587835214E0
1.059814337E1,2.155093947E0,-9.216792371E0,5.689579396E0,1.104377676E1
1.060808337E1,4.276839908E-1,-1.450764604E1,8.507261403E0,1.682344209E1
1.061802337E1,-1.954206275E0,-1.666576914E1,5.892359081E0,1.778445047E1
1.062796337E1,-3.980937321E0,-1.760434548E1,1.217427794E0,1.808985827E1
1.063790337E1,-5.522207526E0,-2.054099962E1,-1.071713938E0,2.129732406E1
1.064784238E1,-6.782509956E0,-2.571477273E1,1.751433461E0,2.665181977E1
1.065778237E1,-7.630051001E0,-3.054576569E1,4.633637154E0,3.182345162E1
1.066772238E1,-7.791614247E0,-3.229552392E1,5.329057621E0,3.364682709E1
1.067766237E1,-7.023144515E0,-2.968134607E1,3.865499543E0,3.074490121E1
1.068760238E1,-6.431592232E0,-2.477167766E1,3.869812449E0,2.588391085E1
1.069754137E1,-6.702724113E0,-2.006652145E1,5.237131205E0,2.179493834E1
1.070748138E1,-7.891942527E0,-1.697168260E1,6.846410083E0,1.992972900E1
1.071742137E1,-9.234709409E0,-1.479082669E1,8.519008459E0,1.940674927E1
1.072736138E1,-8.507128086E0,-1.113277233E1,9.139185201E0,1.672825616E1
1.073730137E1,-5.872751028E0,-7.385055588E0,7.124796020E0,1.182332309E1
1.074724037E1,-4.550375142E0,-4.875949863E0,1.771244413E0,6.900587494E0
1.075718037E1,-3.281781360E0,-1.200797070E0,-5.131056865E0,6.208038906E0
1.076712037E1,-7.218587990E-1,2.072738546E0,-9.521418858E0,9.771117759E0
1.077706037E1,9.618375926E-1,3.283448986E0,-6.230133433E0,7.107793708E0
1.078700037E1,-5.518806785E-2,3.458354993E0,-8.717613816E-1,3.566964100E0
1.079693937E1,-2.180956182E0,4.662928196E0,2.483885515E-1,5.153752623E0
1.080687937E1,-3.447575067E0,6.171226244E0,-1.934456574E0,7.328842298E0
1.081681937E1,-3.480538745E0,8.122142145E0,-6.372467526E0,1.089457137E1
1.082675937E1,-2.571201401E0,1.001788372E1,-9.903637311E0,1.431960554E1
1.083669937E1,-5.941534165E-1,1.151069776E1,-1.068686951E1,1.571809025E1
1.084663837E1,1.762655438E0,1.249774284E1,-1.011111406E1,1.617204866E1
1.085657837E1,4.509297282E0,1.227416052E1,-8.181703638E0,1.542494904E1
1.086651837E1,8.703692181E0,1.016599837E1,-6.243967946E0,1.476783383E1
1.087645837E1,1.183415286E1,7.932590032E0,-6.671187741E0,1.573143046E1
1.088639837E1,1.359422675E1,6.956448249E0,-6.936258398E0,1.677220480E1
1.089633738E1,1.456773670E1,5.466668333E0,-1.423761343E0,1.562467637E1
1.090627737E1,1.185447311E1,2.637204187E0,3.774271577E0,1.271725224E1
1.091621738E1,7.711980432E0,4.843207794E-1,-6.950097004E-1,7.758366277E0
1.092615737E1,4.515079594E0,3.123062199E-1,-9.930081929E0,1.091283675E1
1.093609738E1,2.249902748E0,9.243027073E-1,-1.505035185E1,1.524563835E1
1.094603637E1,1.095138103E0,1.871749864E0,-1.653542067E1,1.667701747E1
1.095597638E1,2.241890747E0,5.821064565E0,-1.502927615E1,1.627236947E1
1.096591637E1,7.827154501E-1,4.399500255E1,-1.993044271E1,4.830523201E1
1.097585638E1,2.972491719E0,3.207569434E1,5.298807635E0,3.264602942E1
1.098579637E1,1.174601398E0,1.693656422E1,-8.671999687E-1,1.699938033E1
1.099573537E1,-2.332940520E0,1.662057951E1,-9.287663548E0,1.918194383E1
1.100567537E1,-5.015079682E0,1.450225023E1,-8.698849517E0,1.763905521E1
1.101561537E1,-5.911598175E0,1.317830963E1,-6.475976692E0,1.582886956E1
1.102555537E1,-5.986455984E0,1.253299453E1,-5.599072684E0,1.497542060E1
1.103549537E1,-5.505497938E0,1.179631553E1,-4.950304812E0,1.392727846E1
1.104543437E1,-4.473272294E0,1.107668934E1,-3.058987241E0,1.233128601E1
1.105537437E1,-5.199458764E0,1.053604526E1,2.433270262E0,1.199847596E1
1.106531437E1,-6.520672224E0,1.015631304E1,1.229842062E1,1.723139607E1
1.107525437E1,-3.556073661E0,9.782206430E0,1.084571848E1,1.503219318E1
1.108519437E1,1.497285256E0,8.272343667E0,-3.089070581E0,8.956332393E0
1.109513337E1,4.848016252E0,6.826299169E0,-1.166975956E1,1.436262198E1
1.110507337E1,7.585428559E0,6.346081381E0,-1.101370197E1,1.480246960E1
1.111501337E1,1.373500900E1,4.613668327E0,4.974930945E0,1.531947602E1
1.112495337E1,2.237522673E1,-1.312970289E1,4.953452368E1,5.591698226E1
1.113489337E1,1.317010014E1,-3.125982767E1,1.674420135E1,3.782851626E1
1.114483238E1,2.359984769E0,-3.926592889E1,-1.561628631E1,4.232317448E1
1.115477237E1,-7.897566379E0,-3.926598035E1,-7.097370239E0,4.067630062E1
1.116471238E1,-1.185287682E1,-2.753334801E1,-6.549492565E0,3.068341237E1
1.117465237E1,-5.830317784E0,-1.273287342E1,-2.147102265E0,1.416787631E1
1.118459238E1,-2.124564465E0,-2.247583158E0,3.129760770E0,4.400091669E0
1.119453137E1,-1.316937099E0,2.824350756E0,1.090381173E0,3.301546852E0
1.120447138E1,1.095119611E0,4.388873291E0,-9.819708717E-1,4.628797092E0
1.121441137E1,5.178157942E0,2.762923416E0,-2.258680004E0,6.288775782E0
1.122435137E1,6.239815838E0,-3.506106865E0,-1.390320532E0,7.291164394E0
1.123429137E1,3.404034068E0,-1.410660891E1,2.078576406E0,1.465961605E1
1.124423037E1,1.952504443E0,-2.149598325E1,5.091890461E0,2.217694564E1
1.125417037E1,2.061042945E0,-2.055315481E1,6.061028448E0,2.152710237E1
1.126411037E1,4.269089862E0,-1.331191617E1,4.005592983E0,1.454224932E1
1.127405013E1,4.863466058E0,-5.418921724E0,3.148346145E0,7.932849311E0
1.128399012E1,4.073429455E0,-4.487498277E-1,2.714635940E0,4.915633451E0
1.129392913E1,3.413799795E0,2.472733705E0,1.378203932E0,4.434849162E0
1.130386912E1,2.180372045E0,3.464819675E0,9.790039945E-1,4.209209719E0
1.131380913E1,7.958614527E-1,2.363376739E0,1.158998249E0,2.749949455E0
1.132374912E1,3.784211989E-1,4.160445964E-1,1.072713227E0,1.211201625E0
1.133368913E1,3.383247216E-1,-1.423385952E0,5.658648795E-1,1.568660017E0
1.134362812E1,3.124132605E-1,-2.820957617E0,-5.355815649E-1,2.888295610E0
1.135356812E1,1.328119022E-1,-3.733459473E0,-1.827937846E0,4.159052225E0
1.136350812E1,-2.488575713E-1,-3.893093138E0,-2.601211066E0,4.688752850E0
1.137344812E1,-1.614608469E-1,-2.438258522E0,-2.667720221E0,3.617721023E0
1.138338812E1,-9.268677346E-3,1.361699581E-1,-2.910874345E0,2.914072342E0
1.139332712E1,1.902118255E-1,2.719605489E0,-3.405346475E0,4.362203476E0
1.140326712E1,3.348064519E-1,5.296489214E0,-3.581145353E0,6.402303913E0
1.141320712E1,7.766219936E-1,7.439410720E0,-3.567587999E0,8.287077755E0
1.142314712E1,1.433402817E0,8.492593077E0,-3.449395305E0,9.277774991E0
1.143308712E1,1.969177340E0,8.148085071E0,-3.571668770E0,9.111847647E0
1.144302612E1,2.069451826E0,7.126542583E0,-4.072350059E0,8.464884822E0
1.145296612E1,1.543796348E0,6.142183124E0,-4.456462426E0,7.744015628E0
1.146290612E1,7.073319764E-1,5.626483262E0,-4.737766124E0,7.389456019E0
1.147284612E1,2.156892405E-1,5.460925782E0,-5.189545394E0,7.536551841E0
1.148278613E1,9.745817453E-2,5.452077191E0,-5.681052986E0,7.874579787E0
1.149272512E1,2.873929151E-1,5.407357101E0,-6.037796291E0,8.110307612E0
1.150266513E1,7.248706998E-1,5.382349729E0,-6.355136379E0,8.359598348E0
1.151260512E1,1.157563050E0,5.307875497E0,-6.722697033E0,8.643387640E0
1.152254513E1,1.460948465E0,5.177522934E0,-7.073814731E0,8.887067514E0
1.153248512E1,1.814345993E0,5.113269051E0,-7.282299544E0,9.081258636E0
1.154242413E1,2.267979269E0,4.985112117E0,-7.621420510E0,9.385154414E0
1.155236412E1,2.695329896E0,4.894382626E0,-7.801632866E0,9.596106498E0
1.156230413E1,2.995445548E0,4.939648846E0,-7.461802633E0,9.436700869E0
1.157224412E1,3.123635811E0,5.053360233E0,-6.602643755E0,8.881917298E0
1.158218412E1,3.154660553E0,5.165740795E0,-5.462835483E0,8.153485922E0
1.159212312E1,3.253377925E0,5.416291062E0,-4.029985812E0,7.494095171E0
1.160206312E1,3.150416644E0,5.672298535E0,-2.723036050E0,7.036691057E0
1.161200312E1,2.905321536E0,5.716860166E0,-2.445453228E0,6.863208060E0
1.162194312E1,2.594071031E0,5.354342151E0,-2.777765989E0,6.566138003E0
1.163188312E1,2.219448695E0,4.728828655E0,-3.221184033E0,6.137083960E0
1.164182212E1,1.649522047E0,3.912332817E0,-3.478488711E0,5.488820890E0
1.165176212E1,9.796021646E-1,2.739840363E0,-3.208906927E0,4.331677421E0
1.166170212E1,-1.444903998E-1,1.524129385E0,-2.417001554E0,2.861073989E0
1.167164212E1,-1.181372035E0,-2.145653325E-1,-1.235728629E0,1.722992574E0
1.168158212E1,-1.603998258E0,-2.404040031E0,-8.345428307E-1,3.008102494E0
1.169152112E1,-1.538326717E0,-3.824359703E0,-9.706489080E-1,4.234894984E0
1.170146112E1,-7.087231752E-1,-5.323025048E0,-1.573861708E0,5.595884638E0
1.171140113E1,4.880434093E-1,-5.543660375E0,-1.538454332E0,5.773837412E0
1.172134112E1,1.537009339E0,-4.341318471E0,-1.901633229E0,4.982534768E0
1.173128113E1,1.564743852E0,-2.656758446E0,-2.890441834E0,4.226280014E0
1.174122012E1,1.792777369E0,-1.483188350E0,-3.221263263E0,3.973718081E0
1.175116013E1,2.138778462E0,-3.550014192E-1,-3.456433014E0,4.080113784E0
1.176110012E1,2.162777773E0,8.629046041E-1,-3.392982538E0,4.115160089E0
1.177104013E1,3.524413328E0,2.018195134E0,-2.098599612E0,4.571511920E0
1.178098012E1,7.211061746E0,2.633800523E0,2.080276777E0,7.953858697E0
1.179091913E1,1.545303790E1,1.842326090E0,1.762992471E1,2.351605390E1
1.180085912E1,2.168055412E1,-5.624819144E0,3.027678675E1,3.766123781E1
1.181079912E1,6.512287316E0,-1.182411085E1,1.125405644E1,1.757479075E1
1.182073912E1,-5.248274243E0,-1.253132691E1,-4.438158302E0,1.429250803E1
1.183067912E1,-5.725193617E0,-1.672165916E1,-2.097627220E0,1.779864509E1
1.184061812E1,-6.328542657E0,-1.921148896E1,1.672151064E0,2.029600575E1
1.185055812E1,-1.024301205E1,-1.700242375E1,1.417413460E0,1.990001935E1
1.186049812E1,-9.846884236E0,-1.250658383E1,-2.804352694E0,1.616292555E1
1.187043812E1,-5.364339720E0,-7.737778932E0,-5.193734339E0,1.075287124E1
1.188037812E1,-2.929590405E0,-3.982154419E0,-3.045013565E0,5.806217475E0
1.189031712E1,-2.699071237E0,-1.436940967E0,1.772395145E0,3.534284855E0
1.190025712E1,-6.027277735E0,-4.033574833E0,2.026959525E1,2.152798863E1
1.191019712E1,-5.603662748E0,-8.932007825E0,1.011893296E1,1.461419188E1
1.192013712E1,-4.506399110E0,-7.852508320E0,1.945171743E0,9.260303071E0
1.193007712E1,-4.770948488E0,-8.347184519E0,1.838810013E0,9.788700686E0
1.194001613E1,-4.489023816E0,-8.273824182E0,-4.345985134E0,1.036798381E1
1.194995612E1,-4.502809504E0,-6.759765456E0,-3.517812991E0,8.851255882E0
1.195989613E1,-3.294486190E0,-3.994204361E0,-1.086577706E0,5.290364717E0
1.196983612E1,-1.562697473E0,-2.275338137E0,-6.298913062E-4,2.760287562E0
1.197977613E1,6.815273367E-1,-2.188529788E0,-3.838486576E-1,2.324108848E0
1.198971512E1,1.922788747E0,-2.319058353E0,-4.932629994E-1,3.052614715E0
1.199965513E1,3.215915692E0,-2.041693924E0,7.503900685E-1,3.882488000E0
1.200959512E1,3.934436461E0,-1.525633873E0,1.609658947E0,4.516453355E0
1.201953513E1,3.831344202E0,-6.719672853E-1,1.398225383E0,4.133494000E0
1.202947412E1,3.600724170E0,2.667026156E-1,4.480931123E-1,3.638286996E0
1.203941412E1,3.162698720E0,1.016951839E0,-5.802871100E-1,3.372474962E0
1.204935412E1,2.389029497E0,1.784244527E0,-1.212609031E0,3.218914589E0
1.205929412E1,1.317581608E0,2.329617255E0,-1.394478487E0,3.017897960E0
1.206923412E1,1.898645740E-1,2.557658080E0,-1.057918602E0,2.774320670E0
1.207917312E1,-6.170939438E-1,3.065991036E0,-4.842745499E-1,3.164747669E0
1.208911312E1,-1.154159824E0,3.881445485E0,6.502746999E-2,4.049929941E0
1.209905312E1,-1.561303935E0,4.748615633E0,5.019419485E-1,5.023839779E0
1.210899312E1,-1.719822098E0,5.433822184E0,8.165537256E-1,5.757688039E0
1.211893312E1,-1.539659882E0,5.728775037E0,1.300323113E0,6.072911672E0
1.212887212E1,-1.461236587E0,5.513479972E0,1.966118077E0,6.033182747E0
1.213881212E1,-1.546248086E0,4.180348717E0,2.391966700E0,5.058428929E0
1.214875212E1,-1.850487049E0,2.163895469E0,2.647081888E0,3.887645617E0
1.215869212E1,-1.916876628E0,7.135333872E-1,2.659162821E0,3.354801456E0
1.216863212E1,-1.562238905E0,1.167285508E-1,2.357330133E0,2.830410096E0
1.217857112E1,-1.141983656E0,-1.237112957E-1,1.754262344E0,2.096870889E0
1.218851113E1,-8.199433565E-1,-1.768437749E-1,1.049429029E0,1.343459012E0
1.219845112E1,-7.117656277E-1,-9.135338902E-2,7.523700088E-1,1.039719376E0
1.220839113E1,-7.428160970E-1,-2.422033668E-1,7.923035681E-1,1.112736792E0
1.221833112E1,-6.712692008E-1,-5.914879632E-1,1.063877499E0,1.390070388E0
1.222827013E1,-3.704941287E-1,-9.367157614E-1,1.581461919E0,1.875026431E0
1.223821012E1,1.665871739E-2,-9.028270537E-1,1.737519427E0,1.958149116E0
1.224815013E1,1.143029796E-1,-4.491369134E-1,1.453630675E0,1.525723198E0
1.225809012E1,-2.734621431E-1,-1.161929458E-1,1.357646291E0,1.389779046E0
1.226803137E1,-9.539463365E-1,-8.847422004E-3,1.391271290E0,1.686928478E0
1.227797037E1,-1.708508320E0,1.929686415E-1,1.228372539E0,2.113087001E0
1.228791037E1,-2.306277070E0,4.925764632E-1,9.352995658E-1,2.536992466E0
1.229785037E1,-2.760261472E0,6.351046836E-1,7.638346446E-1,2.933572006E0
1.230779037E1,-3.147840068E0,7.878047204E-1,6.092401099E-1,3.301621856E0
1.231773037E1,-3.357779376E0,1.095735469E0,4.087496102E-1,3.555614546E0
1.232766938E1,-3.327669724E0,1.459129981E0,3.725611560E-1,3.652567304E0
1.233760937E1,-3.178670390E0,1.802824640E0,5.761472082E-1,3.699468574E0
1.234754938E1,-3.125746071E0,2.095364347E0,1.270527456E0,3.971785526E0
1.235748937E1,-3.367545103E0,2.273854113E0,2.606139100E0,4.827290498E0
1.236742938E1,-3.945568975E0,2.474214220E0,4.289532605E0,6.331614369E0
1.237736837E1,-5.127035735E0,2.878993571E0,5.735944308E0,8.214387166E0
1.238730838E1,-7.005743786E0,3.329865353E0,6.442297314E0,1.008323579E1
1.239724837E1,-7.993060182E0,3.112337236E0,6.885719159E0,1.099949010E1
1.240718838E1,-9.579822602E0,2.427557532E0,7.146132510E0,1.219562407E1
1.241712737E1,-1.180655283E1,2.190618998E0,8.523917781E0,1.472585060E1
1.242706737E1,-1.249507885E1,2.014723642E0,9.741263056E0,1.597117130E1
1.243700737E1,-1.159924331E1,1.225788070E0,6.678518980E0,1.344052148E1
1.244694737E1,-7.402271546E0,4.750704843E-1,-4.989898355E-1,7.434265724E0
1.245688737E1,-2.409260425E-1,9.343289280E-1,-8.714799551E0,8.768052642E0
1.246682737E1,3.720205590E0,2.555441401E0,-9.032175892E0,1.009704965E1
1.247676637E1,4.656314118E0,4.811651541E0,-5.607166400E0,8.733473922E0
1.248670637E1,5.910420545E0,6.391694341E0,-9.574751312E-1,8.758058358E0
1.249664637E1,6.905178693E0,6.270417826E0,2.476960657E0,9.650645915E0
1.250658637E1,6.585354708E0,3.821610927E0,-6.188966404E-1,7.639020864E0
1.251652537E1,7.346079803E0,-7.122639567E-1,-5.136456769E0,8.991962887E0
1.252646537E1,8.587355393E0,-7.457433593E0,-4.335419800E0,1.217176459E1
1.253640537E1,8.672549910E0,-1.691099785E1,7.098928522E0,2.028767499E1
1.254634537E1,6.892889015E0,-2.709127746E1,2.530204818E0,2.806868664E1
1.255628537E1,6.596179073E0,-3.633282519E1,-7.716333100E0,3.772433646E1
1.256622437E1,7.819831156E0,-4.741177390E1,1.980223315E0,4.809311123E1
1.257616438E1,1.107546377E1,-5.617414932E1,1.139195133E1,5.837788540E1
1.258610437E1,1.273378441E1,-5.253747588E1,1.340344848E1,5.569549415E1
1.259604438E1,1.127386213E1,-3.319510636E1,1.428977060E1,3.785779441E1
1.260598437E1,7.983883561E0,-1.890185550E1,9.294150449E0,2.252562475E1
1.261592338E1,6.463300513E0,-1.309140597E1,6.634754909E0,1.603680568E1
1.262586337E1,4.518582661E0,-7.868996299E0,7.759330015E0,1.193925853E1
1.263580338E1,-3.623338276E-1,-3.239194334E0,7.403716393E0,8.089417912E0
1.264574337E1,-4.675080464E0,1.088039948E0,2.056592045E0,5.222047406E0
1.265568338E1,-5.490251323E0,3.987276580E0,-5.356430776E0,8.644801026E0
1.266562237E1,-7.869849408E0,5.796096954E0,-7.193677390E0,1.213582564E1
1.267556237E1,-1.269183064E1,6.631827793E0,8.609416938E-1,1.434590274E1
1.268550237E1,-1.304555912E1,4.522945268E0,6.476601759E0,1.525090217E1
1.269544237E1,-1.205748376E1,3.612900996E0,2.968684012E0,1.293248054E1
1.270538137E1,-1.161473609E1,5.060890278E0,-6.496572340E-1,1.268608527E1
1.271532137E1,-1.019805514E1,7.161864443E0,-4.092934597E0,1.311658281E1
1.272526137E1,-8.186541624E0,8.670729087E0,-5.151206371E0,1.298983963E1
1.273520137E1,-5.582274218E0,9.832766719E0,-6.550811112E0,1.306744860E1
1.274514137E1,-2.604119764E0,1.031214017E1,-7.214395829E0,1.285181628E1
1.275508037E1,6.025244366E-1,1.064824514E1,-8.037160467E0,1.335455385E1
1.276502037E1,3.496686416E0,1.098519211E1,-8.810392172E0,1.450945457E1
1.277496037E1,6.020759844E0,1.092137794E1,-8.516147416E0,1.510135133E1
1.278490037E1,7.819874425E0,9.646746324E0,-7.662496616E0,1.459191574E1
1.279484037E1,9.695607412E0,7.331234307E0,-6.554730501E0,1.381000693E1
1.280477938E1,1.352869116E1,5.299408729E0,-4.160161790E0,1.511344314E1
1.281471937E1,1.669024324E1,2.478008478E0,-1.070601797E0,1.690712671E1
1.282465938E1,1.537555294E1,-9.830748260E-1,1.247965097E0,1.545740861E1
1.283459937E1,1.067384425E1,-3.398542655E0,-6.454758900E-1,1.122041365E1
1.284453938E1,6.308061031E0,-4.511571849E0,-5.123023961E0,9.294691443E0
1.285447837E1,2.576874662E0,-3.963586001E0,-1.112791563E1,1.209052535E1
1.286441838E1,-1.953477274E-1,-1.953350682E0,-1.492542726E1,1.505397351E1
1.287435837E1,2.486631952E0,9.970945780E0,-1.547142973E1,1.857332055E1
1.288429838E1,5.838682811E0,5.261688575E1,-1.201954117E1,5.428716471E1
1.289423837E1,7.227559665E0,2.846486794E1,1.084169676E1,3.130541030E1
1.290417737E1,3.570256668E0,1.659645273E1,-4.119021365E0,1.746869523E1
1.291411737E1,-2.425600177E0,1.310860614E1,-1.364645175E1,1.907733567E1
1.292405737E1,-5.574914913E0,9.459034329E0,-1.119102112E1,1.567775368E1
1.293399737E1,-5.237339365E0,1.027011272E1,-8.672917700E0,1.442651865E1
1.294393737E1,-3.866412586E0,1.218592252E1,-7.569297261E0,1.485732530E1
1.295387637E1,-3.293706172E0,1.277761748E1,-7.461531322E0,1.515884093E1
1.296381637E1,-3.374598599E0,1.239309171E1,-7.893406670E0,1.507589158E1
1.297375637E1,-1.825454826E0,1.213194571E1,-6.113090887E0,1.370716135E1
1.298369637E1,-5.921416819E-2,1.180249487E1,-1.083001403E0,1.185222694E1
1.299363637E1,1.773853440E0,1.106872894E1,3.821519710E0,1.184345091E1
1.300357537E1,3.651578574E0,9.838175393E0,2.691991428E0,1.083376846E1
1.301351537E1,4.539692863E0,8.324728287E0,-3.589489329E0,1.013875466E1
1.302345537E1,6.175585343E0,8.144543998E0,-6.863987982E-1,1.024414928E1
1.303339538E1,1.324724947E1,6.579333830E0,1.466987353E1,2.083224523E1
1.304333537E1,1.449023771E1,-1.033121145E1,1.887527289E1,2.594179727E1
1.305327438E1,4.641212806E0,-3.384146693E1,1.056604381E1,3.575509785E1
1.306321437E1,-1.737339684E1,-5.738717993E1,9.091744986E0,6.064472908E1
1.307315438E1,-1.833278342E1,-5.178385866E1,-4.715382398E0,5.513523190E1
1.308309437E1,-9.070026673E0,-3.048505522E1,3.114269156E0,3.195782608E1
1.309303338E1,1.946767594E0,-1.034717435E1,4.332845855E0,1.138540620E1
1.310297337E1,1.935969248E0,-1.619283464E0,-9.343195724E-1,2.691283882E0
1.311291338E1,3.140682491E0,1.626170899E0,-2.409450459E0,4.279459057E0
1.312285337E1,5.466927949E0,3.156411794E0,-4.441174881E0,7.718437079E0
1.313279337E1,3.022842093E0,3.611050352E0,-1.855937823E0,5.061794560E0
1.314273237E1,-6.398286492E-2,-6.848995721E-1,2.652469513E0,2.740214544E0
1.315267237E1,-5.345141557E-1,-9.317776709E0,4.100867515E0,1.019430147E1
1.316261237E1,-4.028088391E-2,-1.539432133E1,3.438227708E0,1.577365403E1
1.317255237E1,1.580090162E0,-1.585924631E1,4.240404299E0,1.649222262E1
1.318249237E1,2.397523894E0,-1.095117769E1,2.745869427E0,1.154193279E1
1.319243137E1,1.028937462E0,-5.911679451E0,1.471574610E-1,6.002359665E0
1.320237137E1,5.941177484E-1,-3.133015330E0,-1.243562436E-1,3.191273324E0
1.321231137E1,9.308102198E-1,-2.060673986E0,3.751380605E-1,2.292054429E0
1.322225137E1,1.302059005E0,-2.273205072E0,9.551005769E-1,2.788375166E0
1.323219137E1,1.601699279E0,-3.129525712E0,7.261206883E-1,3.589794285E0
1.324213037E1,1.818200916E0,-4.256733234E0,-5.913347661E-2,4.629160741E0
1.325207037E1,1.589847849E0,-5.609300634E0,-2.944002914E-1,5.837682872E0
1.326201038E1,9.982762711E-1,-6.555465496E0,-2.486890984E-1,6.635701142E0
1.327194912E1,3.392943361E-1,-6.809464450E0,-2.375875747E-1,6.822050616E0
1.328188912E1,-3.416196276E-1,-6.556942502E0,1.259531182E-1,6.567043714E0
1.329182812E1,-7.367031254E-1,-5.901214689E0,3.076816571E-1,5.954975592E0
1.330176812E1,-4.047065529E-1,-4.592820665E0,1.551775020E-1,4.613227624E0
1.331170812E1,1.095250735E-1,-2.622145268E0,-4.671545237E-1,2.665684695E0
1.332164812E1,2.789047314E-1,-6.943796629E-1,-8.532783329E-1,1.134916243E0
1.333158812E1,4.763568717E-1,1.220793378E0,-1.161300883E0,1.750963187E0
1.334152712E1,9.739473224E-1,3.015000976E0,-2.144680933E0,3.826024122E0
1.335146713E1,1.110244384E0,4.630881361E0,-2.860864863E0,5.555380503E0
1.336140712E1,9.974448701E-1,6.732702203E0,-2.715584943E0,7.327931278E0
1.337134713E1,1.265995279E0,1.105077214E1,-2.223300841E0,1.134307611E1
1.338128612E1,1.590143280E0,1.673924759E1,-1.930000411E0,1.692500715E1
1.339122613E1,7.728525129E-1,1.823129330E1,-2.776765530E0,1.845772963E1
1.340116612E1,-3.104694633E-1,1.600983550E1,-4.388357567E0,1.660327998E1
1.341110613E1,-5.366331866E-1,1.394386920E1,-5.869905188E0,1.513853528E1
1.342104612E1,1.482956216E-1,1.241917731E1,-7.391340176E0,1.445302274E1
1.343098513E1,1.186293344E0,1.076953511E1,-8.924527482E0,1.403700000E1
1.344092512E1,1.596814807E0,9.304955519E0,-9.717968334E0,1.354883476E1
1.345086512E1,1.730082207E0,8.453583963E0,-9.809151569E0,1.306429182E1
1.346080512E1,1.982967414E0,8.200707673E0,-9.625650154E0,1.279987918E1
1.347074512E1,2.085626394E0,7.998034408E0,-9.302447648E0,1.244403167E1
1.348068412E1,1.975239733E0,7.839692978E0,-8.388034337E0,1.164995614E1
1.349062412E1,1.761244504E0,7.887748904E0,-7.085282875E0,1.074801370E1
1.350056412E1,1.519839283E0,8.056415933E0,-6.264068334E0,1.031766937E1
1.351050412E1,1.462551187E0,8.174976416E0,-5.965300757E0,1.022517034E1
1.352044412E1,1.767158525E0,7.996981909E0,-5.914333502E0,1.010217351E1
1.353038312E1,1.802956056E0,7.699220054E0,-5.298006567E0,9.518272614E0
1.354032312E1,1.262126176E0,7.899241022E0,-4.063828327E0,8.972495298E0
1.355026312E1,1.036114188E0,8.398948165E0,-3.887289484E0,9.312726906E0
1.356020312E1,1.217290238E0,8.848198514E0,-4.303644276E0,9.914321284E0
1.357014312E1,1.817215953E0,9.220407704E0,-5.528504977E0,1.090332790E1
1.358008213E1,2.479880757E0,8.880034849E0,-6.182387409E0,1.110075410E1
1.359002212E1,2.242173168E0,6.774230298E0,-6.431004002E0,9.606005888E0
1.359996213E1,1.179526362E0,3.534641277E0,-6.500861272E0,7.493074714E0
1.360990212E1,3.060167721E-2,-1.093883071E0,-5.485111620E0,5.593207141E0
1.361984213E1,-2.946458928E-1,-6.997248366E0,-4.714532797E0,8.442459381E0
1.362978112E1,6.200976585E-1,-1.213311866E1,-4.950253941E0,1.311876913E1
1.363972113E1,2.788047148E0,-1.563981434E1,-6.056738931E0,1.700179655E1
1.364966112E1,1.380240400E1,-2.122387488E1,8.697381281E0,2.676945391E1
1.365960113E1,2.168775789E1,-2.642055037E1,2.161753517E1,4.044406200E1
1.366954112E1,6.736973010E0,-2.389252773E1,3.318340491E0,2.504498094E1
1.367948012E1,4.600992733E0,-2.734667449E1,5.245644751E0,2.822280157E1
1.368942012E1,-6.268777974E-1,-2.853273774E1,2.052309076E1,3.515262939E1
1.369936012E1,-8.749229711E0,-1.844993239E1,2.279212852E1,3.060114619E1
1.370930012E1,-4.969602377E0,-9.456068621E0,6.938410174E0,1.273796362E1
1.371923912E1,-2.073148436E0,-7.602149257E0,-3.979260632E0,8.827521336E0
1.372917912E1,-2.796012810E0,-6.705606791E0,-3.124742104E0,7.908657489E0
1.373911912E1,-6.082944397E0,-7.283065529E0,6.469393896E0,1.148469910E1
1.374905912E1,-5.849483787E0,-7.989180554E0,6.731010604E0,1.197288479E1
1.375899912E1,-4.343073513E0,-5.801690986E0,1.757922117E0,7.457358513E0
1.376893812E1,-3.538364784E0,-2.939523947E0,7.397639966E-1,4.659192758E0
1.377887812E1,-2.162067337E0,-3.400781554E-1,-2.811263518E0,3.562778535E0
1.378881812E1,-2.417084438E0,-1.081559479E-2,-4.364728968E0,4.989315897E0
1.379875812E1,-3.173358194E0,-7.404539680E-1,-4.124471555E0,5.256399900E0
1.380869812E1,-4.003748771E0,-1.741783801E0,-2.174234515E0,4.877613224E0
1.381863712E1,-4.028996463E0,-2.729657437E0,-2.479342228E-1,4.872916335E0
1.382857713E1,-1.945545964E0,-3.624308329E0,6.091395378E-2,4.113936129E0
1.383851712E1,2.752886488E-1,-3.909967618E0,-2.657840911E-1,3.928647579E0
1.384845713E1,1.123400400E0,-2.711103637E0,3.170002185E-2,2.934811115E0
1.385839712E1,9.733415508E-1,-1.190186128E0,1.745253539E-1,1.547383564E0
1.386833613E1,1.123069886E0,-7.192092794E-1,-7.685393143E-1,1.539220788E0
1.387827612E1,1.121857101E0,-8.267255419E-1,-2.134482220E0,2.549127855E0
1.388821613E1,6.012887006E-1,-3.942338973E-1,-3.103816089E0,3.186007342E0
1.389815612E1,3.372369933E-1,2.849710715E-1,-3.328449742E0,3.357605544E0
1.390809512E1,4.923620531E-1,1.054556453E0,-2.746978644E0,2.983354048E0
1.391803512E1,8.957323346E-1,1.990870510E0,-1.948648351E0,2.926283001E0
1.392797512E1,1.483070821E0,3.034479221E0,-8.071695292E-1,3.472619451E0
1.393791512E1,2.492977350E0,4.124416006E0,5.331011760E-1,4.848705015E0
1.394785512E1,3.195655382E0,4.926903085E0,1.358053257E0,6.027511591E0
1.395779412E1,3.307483089E0,5.389496196E0,1.637001697E0,6.531913057E0
1.396773412E1,2.894651830E0,5.342587493E0,1.470499892E0,6.251769371E0
1.397767412E1,1.789574849E0,4.116219379E0,1.223597703E0,4.652207160E0
1.398761412E1,5.917495530E-1,2.469507211E0,1.075028139E0,2.757592954E0
1.399755412E1,-2.697405731E-1,1.372524531E0,1.155002847E0,1.814005276E0
1.400749312E1,-9.652415492E-1,7.015232062E-1,1.310431194E0,1.772302449E0
1.401743312E1,-1.521938725E0,1.504272240E-1,1.742745084E0,2.318638881E0
1.402737312E1,-1.972272272E0,-3.156438106E-1,2.459248856E0,3.168184632E0
1.403731312E1,-2.255246519E0,-5.764027315E-1,3.140472869E0,3.909085163E0
1.404725312E1,-2.342572346E0,-6.583426881E-1,3.529043738E0,4.286631544E0
1.405719213E1,-2.283738247E0,-5.617882007E-1,3.501147841E0,4.217712955E0
1.406713212E1,-2.117108388E0,-4.451233846E-1,3.340072253E0,3.979493109E0
1.407707213E1,-2.064640152E0,-3.560767221E-1,3.300046892E0,3.908943474E0
1.408701212E1,-2.196674960E0,-1.542822933E-1,3.433984383E0,4.079391211E0
1.409695113E1,-2.431677480E0,2.309059614E-1,3.494214213E0,4.263320994E0
1.410689112E1,-2.871768459E0,6.699178362E-1,3.372136045E0,4.479636759E0
1.411683113E1,-3.382145601E0,9.573739743E-1,3.074834365E0,4.670126354E0
1.412677112E1,-3.852596785E0,1.010425762E0,2.775134157E0,4.854362141E0
1.413671113E1,-4.101862418E0,9.470723498E-1,2.658733635E0,4.979064759E0
1.414665012E1,-4.141589279E0,8.298187190E-1,2.716403553E0,5.021972633E0
1.415659012E1,-4.129587868E0,7.082492584E-1,2.871222621E0,5.079274782E0
1.416653012E1,-4.156627148E0,5.959856415E-1,2.981770080E0,5.150116595E0
1.417647012E1,-4.110371871E0,4.875004953E-1,2.870743150E0,5.037259164E0
1.418641012E1,-4.045376853E0,4.399556154E-1,2.632386081E0,4.846451414E0
1.419634912E1,-3.925838423E0,3.731909376E-1,2.445836513E0,4.640430481E0
1.420628912E1,-3.709786436E0,4.138653392E-1,2.381211916E0,4.427637080E0
1.421622912E1,-3.344114433E0,5.365703291E-1,2.374971768E0,4.136604883E0
1.422616912E1,-2.923714246E0,5.396974200E-1,2.241497376E0,3.723397478E0
1.423610912E1,-2.296482545E0,4.018218291E-1,1.814317342E0,2.954156442E0
1.424604812E1,-1.598982954E0,-1.634238303E-2,1.191929183E0,1.994419399E0
1.425598812E1,-7.054500501E-1,-7.684644699E-1,6.081525278E-1,1.207496133E0
1.426592812E1,4.142070358E-1,-1.991026046E0,-2.202821370E-1,2.045550392E0
1.427586825E1,1.360383811E0,-3.509463751E0,-7.600725460E-1,3.839881536E0
1.428580725E1,1.699095326E0,-5.125818345E0,2.266731620E-1,5.404842214E0
1.429574725E1,1.835330335E0,-7.958481503E0,5.300208628E0,9.736430391E0
1.430568725E1,2.675327156E0,-1.133974505E1,1.288529279E1,1.737175764E1
1.431562725E1,4.624286579E0,-9.883459740E0,7.055355071E0,1.299403086E1
1.432556725E1,4.115083265E0,-6.176485230E0,-2.309201263E0,7.772727356E0
1.433550625E1,3.461872094E0,-3.417605163E0,-7.823407313E0,9.212507011E0
1.434544625E1,2.697105988E0,-1.605498068E0,-9.474169847E0,9.980576088E0
1.435538625E1,1.943571506E0,-1.693429667E-1,-7.857890097E0,8.096455028E0
1.436532625E1,6.198443279E-1,9.328215158E-1,-3.192145883E0,3.382921564E0
1.437526625E1,-5.291518204E-1,1.010629830E0,1.296861269E0,1.727201046E0
1.438520525E1,4.932974249E-2,-2.247704780E-1,1.455400920E0,1.473481262E0
1.439514525E1,1.298309624E0,-1.203012580E0,-1.095238456E0,2.081440468E0
1.440508525E1,1.550783917E0,-9.253674853E-1,-2.963594595E0,3.470465194E0
1.441502525E1,1.238174227E0,6.787389457E-1,-3.384247967E0,3.667000992E0
1.442496525E1,-4.776510067E-2,2.563622825E0,-3.108019652E0,4.029172329E0
1.443490425E1,-1.378294564E0,4.395596420E0,-3.147116183E0,5.579005651E0
1.444484425E1,-1.674746351E0,6.586641095E0,-3.875998219E0,7.823808436E0
1.445478425E1,-9.576154643E-1,9.717746724E0,-4.842648801E0,1.089967321E1
1.446472425E1,2.161308149E-1,1.405281101E1,-4.380142229E0,1.472120429E1
1.447466325E1,1.203920361E0,2.055049783E1,-1.330275475E0,2.062866981E1
1.448460325E1,3.221460899E0,2.408196583E1,2.630257110E0,2.443843573E1
1.449454325E1,3.071028704E0,1.656511634E1,-1.043123977E0,1.687964467E1
1.450448325E1,1.288733346E0,1.043972875E1,-5.614524536E0,1.192357563E1
1.451442325E1,1.458844053E0,9.556999165E0,-2.428472329E0,9.968045789E0
1.452436225E1,4.643299677E0,8.352014903E0,7.146300910E0,1.193256056E1
1.453430225E1,9.201712402E0,-2.169159132E0,1.478084199E1,1.754565622E1
1.454424225E1,1.008871689E1,-1.587336617E1,6.161673648E0,1.979172009E1
1.455418225E1,8.451583630E0,-2.172629104E1,3.203613442E0,2.353134351E1
1.456412225E1,7.254380844E0,-2.391766608E1,-4.682583026E0,2.542847569E1
1.457406125E1,5.804195348E0,-3.452415509E1,-8.233946171E0,3.596392411E1
1.458400125E1,4.251704044E0,-4.816567646E1,-9.829448716E-1,4.836295645E1
1.459394125E1,4.863549088E0,-5.855195932E1,6.944725751E0,5.916261713E1
1.460388125E1,6.553714839E0,-5.348397170E1,1.276631013E1,5.537567228E1
1.461382125E1,1.984378347E0,-3.178369375E1,1.013313468E1,3.341887736E1
1.462376025E1,-9.755265091E-1,-1.619834272E1,6.349284486E0,1.742559532E1
1.463370025E1,-3.628063411E0,-7.617592923E0,9.445271153E0,1.266505875E1
1.464364025E1,-7.120984805E0,-2.485870060E0,1.136356076E1,1.363885947E1
1.465358025E1,-1.014396840E1,-1.883444880E0,8.757277819E0,1.353282581E1
1.466351925E1,-1.179679149E1,-1.862582014E0,5.363528126E-1,1.195496448E1
1.467345925E1,-1.194287131E1,8.694423759E-1,-6.858486337E0,1.379952681E1
1.468339925E1,-1.049192451E1,4.391254862E0,-6.981746812E0,1.334572545E1
1.469333925E1,-6.823660905E0,6.544611309E0,-2.427781481E0,9.761578164E0
1.470327925E1,-5.168232293E0,7.154624421E0,-1.024319916E0,8.885297234E0
1.471321825E1,-5.745663550E0,7.081604977E0,-8.068859392E-1,9.154935477E0
1.472315825E1,-4.719657882E0,7.266520833E0,-1.035389791E0,8.726369666E0
1.473309825E1,-2.790195123E0,8.069433589E0,-2.761380336E0,8.973637425E0
1.474303825E1,-1.506171855E-1,8.787143058E0,-3.950487068E0,9.635502931E0
1.475297825E1,3.042158369E0,9.333843103E0,-5.736723157E0,1.137037146E1
1.476291725E1,7.363727869E0,9.241420258E0,-6.898168466E0,1.368258253E1
1.477285725E1,1.013339196E1,7.910189933E0,-7.610460489E0,1.493907113E1
1.478279725E1,1.295558100E1,6.544889052E0,-8.136426308E0,1.663983428E1
1.479273725E1,1.577888452E1,5.470735656E0,-7.925448827E0,1.848553176E1
1.480267625E1,1.683931684E1,4.547393062E0,-5.793604286E0,1.837953280E1
1.481261625E1,1.587757031E1,3.054342213E0,6.476557320E-1,1.618164711E1
1.482255625E1,1.162418052E1,7.165996671E-1,3.555674297E-1,1.165167439E1
1.483249625E1,6.639881748E0,-6.724613750E-1,-8.152285126E0,1.053565312E1
1.484243625E1,2.273649314E0,-9.833180702E-1,-1.535552271E1,1.555405007E1
1.485237525E1,-8.592446856E-1,-2.640883255E-1,-1.645108510E1,1.647562579E1
1.486231525E1,-4.686703559E0,8.662442413E0,-1.057301720E1,1.444962946E1
1.487225525E1,-7.113649473E0,4.124856068E1,-7.227360275E0,4.247684667E1
1.488219525E1,2.335735196E0,1.494789226E1,1.460966007E0,1.519965669E1
1.489213525E1,3.647261428E-1,5.096077067E0,-1.287402988E1,1.385076431E1
1.490207425E1,-4.167056826E0,7.879954566E0,-1.785655577E1,1.995782129E1
1.491201425E1,-1.630770027E0,1.014191603E1,-1.616633740E1,1.915380736E1
1.492195425E1,2.302064444E0,1.340558388E1,-1.437092059E1,1.978718117E1
1.493189425E1,3.405328057E0,1.484952806E1,-1.348600064E1,2.034642367E1
1.494183425E1,2.703441738E0,1.468151650E1,-1.213745846E1,1.923989142E1
1.495177325E1,1.593334398E0,1.384774799E1,-9.200877419E0,1.670194552E1
1.496171325E1,7.007555399E-2,1.378968046E1,-3.313475608E0,1.418235941E1
1.497165325E1,-2.678392559E0,1.421171378E1,5.733387321E0,1.555693817E1
1.498159325E1,-2.001808020E0,1.338983733E1,8.321715217E0,1.589169353E1
1.499153225E1,1.197851389E0,1.058754870E1,3.945722757E0,1.136220769E1
1.500147225E1,4.647044234E0,8.873988828E0,5.994583029E0,1.167380501E1
1.501141225E1,1.255281192E1,6.276931039E0,1.428337959E1,2.002468184E1
1.502135225E1,9.875461918E0,-1.330584091E1,2.730090248E1,3.193602083E1
1.503129225E1,-2.182858574E0,-3.697882090E1,1.553097661E1,4.016726653E1
1.504123125E1,-6.655532990E0,-4.271012602E1,-1.269399528E1,4.505095449E1
1.505117125E1,-1.145036151E1,-3.667566615E1,-6.689336913E0,3.899951916E1
1.506111125E1,-1.287939528E1,-2.299212903E1,4.359540149E0,2.671184027E1
1.507105125E1,-6.140789148E0,-7.576508632E0,2.220508795E0,1.000217145E1
1.508099125E1,-2.979796060E0,-2.342914993E-1,-2.256479112E0,3.745100139E0
1.509093025E1,-2.362655485E0,2.824505707E0,-3.829609918E0,5.312803926E0
1.510087025E1,-3.040674346E0,3.906411341E0,-2.363466786E0,5.485592520E0
1.511081025E1,-3.292163676E0,1.525001205E0,-8.896532768E-1,3.735699840E0
1.512075025E1,-6.931204650E-1,-8.666446002E0,2.656083677E0,9.090791097E0
1.513068925E1,6.252359869E0,-2.028243574E1,5.041267607E0,2.181475607E1
1.514062925E1,4.285905578E0,-1.917070930E1,3.999087371E0,2.004688958E1
1.515056925E1,3.872985148E0,-1.289052838E1,1.808311667E0,1.358071158E1
1.516050925E1,3.476298344E0,-7.660583407E0,9.153903812E-1,8.462099495E0
1.517044925E1,2.993767982E0,-4.173152549E0,7.962299734E-1,5.197290746E0
1.518038825E1,3.877109774E0,-2.748869634E0,4.235816574E-1,4.771549631E0
1.519032825E1,3.201865417E0,-3.080196846E0,-3.547002876E-1,4.457058117E0
1.520026825E1,1.068617398E0,-3.569693581E0,-5.224013561E-1,3.762653131E0
1.521020825E1,-7.388192327E-1,-4.149324560E0,-2.931630206E-1,4.224771322E0
1.522014825E1,-1.684999151E0,-4.723563822E0,-3.480543423E-1,5.027168104E0
1.523008725E1,-2.279009749E0,-5.275190147E0,-2.409941626E-1,5.751486304E0
1.524002725E1,-2.063223080E0,-5.664466190E0,3.008456773E-1,6.036023096E0
1.524996725E1,-1.299765581E0,-5.725087783E0,5.993974918E-1,5.901296301E0
1.525990725E1,-1.196458729E-1,-4.863466642E0,3.569076115E-1,4.878012501E0
1.526984563E1,1.112984463E0,-3.373524173E0,-2.354165035E-1,3.560171442E0
1.527978562E1,2.357363316E0,-1.783119523E0,-7.188911909E-1,3.041953580E0
1.528972562E1,3.201185386E0,-2.839904934E-1,-1.070365570E0,3.387317660E0
1.529966562E1,3.577839337E0,1.114320259E0,-1.562075475E0,4.059892086E0
1.530960562E1,3.737470663E0,2.474541664E0,-2.283487401E0,5.030542527E0
1.531954462E1,3.691470618E0,3.704463131E0,-2.825911378E0,5.944390425E0
1.532948462E1,3.416605874E0,4.734385849E0,-3.095252257E0,6.608191250E0
1.533942462E1,3.099561655E0,5.627022960E0,-3.291972472E0,7.218569983E0
1.534936462E1,2.635436866E0,6.287982277E0,-3.460515540E0,7.645875776E0
1.535930462E1,1.940350859E0,6.788975807E0,-3.539152404E0,7.898148752E0
1.536924362E1,1.133268454E0,7.208731631E0,-3.666893601E0,8.166775239E0
1.537918362E1,4.501071127E-1,7.568247101E0,-3.743908448E0,8.455637827E0
1.538912362E1,-2.932305560E-2,8.314434848E0,-3.761063594E0,9.125584148E0
1.539906362E1,-6.390433681E-1,8.851314495E0,-3.564595978E0,9.563497750E0
1.540900262E1,-1.168107553E0,8.552629364E0,-3.121900942E0,9.179227080E0
1.541894263E1,-1.318261493E0,8.006196536E0,-3.160713590E0,8.707876133E0
1.542888262E1,-7.905931114E-1,7.673301685E0,-4.158979483E0,8.763658286E0
1.543882263E1,5.555848897E-2,7.784230383E0,-5.668797222E0,9.629776288E0
1.544876262E1,9.529132797E-1,7.953403780E0,-7.140944275E0,1.073115840E1
1.545870163E1,1.382123467E0,7.624369846E0,-8.424231525E0,1.144591445E1
1.546864162E1,1.290922252E0,6.867121505E0,-9.293182735E0,1.162699804E1
1.547858163E1,1.403256912E0,6.819205912E0,-9.044748575E0,1.141394656E1
1.548852162E1,1.442653551E0,7.097881286E0,-8.228878389E0,1.096246357E1
1.549846163E1,1.325322298E0,7.442810292E0,-7.049562820E0,1.033674224E1
1.550840062E1,1.035556802E0,7.773040566E0,-5.737969199E0,9.716832203E0
1.551834062E1,7.010794757E-1,7.979945462E0,-4.410568215E0,9.144624322E0
1.552828062E1,6.077609836E-1,8.051796632E0,-3.429210132E0,8.772701098E0
1.553822062E1,6.126216278E-1,7.955673670E0,-3.362012175E0,8.658589646E0
1.554816062E1,5.760078983E-1,7.734424970E0,-3.844629661E0,8.656459550E0
1.555809962E1,4.922349858E-1,7.425646960E0,-4.161076002E0,8.526258355E0
1.556803962E1,2.952172936E-1,6.941194033E0,-3.673851787E0,7.859040324E0
1.557797962E1,-4.376952646E-1,6.383371414E0,-1.738055909E0,6.630222175E0
1.558791962E1,-1.425026242E0,5.770679693E0,-4.195979494E-1,5.958817529E0
1.559785862E1,-1.850565401E0,6.027026305E0,-1.887845202E0,6.581306701E0
1.560779862E1,-1.556229137E0,6.253766710E0,-4.646062487E0,7.944642460E0
1.561773862E1,-5.976795068E-1,4.968052865E0,-6.825471203E0,8.463204311E0
1.562767862E1,-1.982815678E-1,1.990324380E0,-8.582645461E0,8.812633535E0
1.563761862E1,-2.689495544E-1,-3.054534586E0,-7.688062981E0,8.277005969E0
1.564755763E1,1.150333553E0,-9.056431312E0,-3.799828879E0,9.888423277E0
1.565749762E1,3.801947325E0,-1.377092844E1,1.482865584E-1,1.428689128E1
1.566743763E1,4.887799246E0,-1.472532267E1,9.759084785E-1,1.554599970E1
1.567737762E1,5.280248573E0,-1.231410519E1,1.554287861E0,1.348829204E1
1.568731763E1,7.372512726E0,-8.099610484E0,2.193584121E0,1.117002440E1
1.569725662E1,1.070867728E1,-4.406472241E0,1.565977030E0,1.168524929E1
1.570719663E1,1.635910256E1,-4.053105703E0,8.256567879E0,1.876749358E1
1.571713662E1,1.907473311E1,-7.927425771E0,2.215052291E1,3.028754179E1
1.572707663E1,1.350741899E1,-1.259954988E1,1.986644845E1,2.712701235E1
1.573701562E1,6.081142870E0,-1.558817407E1,8.102278569E0,1.859081460E1
1.574695562E1,-6.563438174E-1,-1.797760600E1,3.980251150E0,1.842464393E1
1.575689562E1,-6.982423920E0,-1.871614910E1,-2.436157617E0,2.012419799E1
1.576683562E1,-9.563593655E0,-1.686250923E1,-8.515566788E0,2.117360193E1
1.577677562E1,-9.857318008E0,-1.934559952E1,2.978357061E0,2.191550935E1
1.578671462E1,-8.201164341E0,-1.931983085E1,4.986499661E0,2.157267112E1
1.579665462E1,-5.119620296E0,-1.355953171E1,-1.345282938E0,1.455613955E1
1.580659462E1,-4.267489187E0,-7.430019507E0,-3.710923719E-1,8.576384051E0
1.581653462E1,-1.048294231E0,-2.258384135E0,-6.165498896E0,6.649255322E0
1.582647362E1,-1.779479485E0,5.734609973E-1,-6.461094359E0,6.726153809E0
1.583641362E1,-2.523605943E0,3.642822953E0,-2.681533098E0,5.179707113E0
1.584635362E1,-2.677061440E0,5.569843038E0,6.004608080E-2,6.180082115E0
1.585629362E1,-3.692366119E0,5.314975187E0,1.019274938E-1,6.472473870E0
1.586623362E1,-4.965056752E0,1.659159721E0,-1.411924240E0,5.422004204E0
1.587617263E1,-4.824518047E0,-3.328522248E0,-2.898562447E0,6.538860680E0
1.588611262E1,-3.305067896E0,-5.342288116E0,-3.309577854E0,7.100480384E0
1.589605263E1,-1.963959577E0,-5.355915052E0,-2.604643382E0,6.271134699E0
1.590599262E1,-1.712529304E0,-4.099948917E0,-1.008249940E0,4.556194210E0
1.591593263E1,-2.028486818E0,-2.159342242E0,1.467361692E0,3.306156080E0
1.592587162E1,-5.758639106E-1,3.339660609E-1,2.788073460E0,2.866444870E0
1.593581163E1,1.547190219E0,2.014033086E0,2.083594487E0,3.285040765E0
1.594575162E1,2.364766768E0,2.847973507E0,8.445507789E-1,3.796885695E0
1.595569163E1,2.545466928E0,3.314390697E0,-4.188741006E-1,4.200005129E0
1.596563062E1,2.473439464E0,3.536481396E0,-1.239462953E0,4.490085952E0
1.597557062E1,2.404172470E0,3.528349088E0,-1.598497782E0,4.559000736E0
1.598551062E1,2.265978352E0,3.253803018E0,-1.554964676E0,4.259085244E0
1.599545062E1,2.189068024E0,2.795943228E0,-1.534018781E0,3.868143091E0
1.600539062E1,2.108277338E0,2.163156381E0,-1.417872612E0,3.336831073E0
1.601532962E1,1.711815067E0,1.545576972E0,-7.772879183E-1,2.433782140E0
1.602526962E1,1.025333531E0,1.190870837E0,5.974994856E-1,1.681216177E0
1.603520962E1,4.785595179E-2,1.036752266E0,2.449538970E0,2.660335809E0
1.604514962E1,-9.369029454E-1,1.070120571E0,3.631957072E0,3.900520137E0
1.605508962E1,-1.743072528E0,1.117326313E0,3.685336304E0,4.227105818E0
1.606502862E1,-2.181780347E0,9.364111215E-1,3.333008232E0,4.092184642E0
1.607496862E1,-2.430350162E0,6.233459330E-1,2.946341801E0,3.869895615E0
1.608490862E1,-2.618947718E0,3.882241291E-1,2.495702153E0,3.638424708E0
1.609484862E1,-2.827900308E0,1.517089337E-1,2.108384927E0,3.530626397E0
1.610478763E1,-3.201635329E0,-5.672851682E-2,1.975134484E0,3.762292271E0
1.611472762E1,-3.500428634E0,-8.655925691E-2,1.913294331E0,3.990136379E0
1.612466763E1,-3.545190531E0,-3.417346716E-2,1.495511942E0,3.847869501E0
1.613460762E1,-3.663828490E0,-7.519636273E-2,1.137608550E0,3.837114399E0
1.614454763E1,-3.942688637E0,-2.247348100E-1,9.647952604E-1,4.065234226E0
1.615448662E1,-4.280415627E0,-5.614870691E-1,1.097712997E0,4.454458384E0
1.616442663E1,-4.688444275E0,-7.628067040E-1,1.400659579E0,4.952295533E0
1.617436662E1,-4.926261646E0,-7.496393591E-1,1.381815757E0,5.171018058E0
1.618430663E1,-4.956697572E0,-5.920966583E-1,9.868918884E-1,5.088554301E0
1.619424662E1,-4.908860332E0,-4.467044717E-1,5.279111874E-1,4.957332434E0
1.620418562E1,-4.886457602E0,-3.478713244E-1,5.164494753E-1,4.925972231E0
1.621412562E1,-4.886432167E0,-2.904598528E-1,1.152986727E0,5.029012292E0
1.622406562E1,-4.748629666E0,-4.236448073E-1,1.951079038E0,5.151278292E0
1.623400562E1,-4.350307103E0,-5.001217103E-1,2.423335258E0,5.004782452E0
1.624394462E1,-3.931295922E0,-4.350176418E-1,2.753005954E0,4.819063162E0
1.625388462E1,-3.611455564E0,-2.760809648E-1,3.034848765E0,4.725371839E0
1.626382462E1,-3.508411252E0,5.153911293E-2,2.962347969E0,4.592070479E0
1.627376487E1,-3.564912897E0,3.277475470E-1,2.470214725E0,4.349480797E0
1.628370488E1,-3.267845398E0,7.065009409E-1,1.688452517E0,3.745507847E0
1.629364387E1,-2.364023587E0,9.252680826E-1,1.142647095E0,2.783948802E0
1.630358388E1,-1.625411638E0,6.803171092E-1,8.727442255E-1,1.966335894E0
1.631352387E1,-5.850918402E-1,-2.540281910E-1,7.347985411E-1,9.730322087E-1
1.632346388E1,1.533750540E0,-2.910342833E0,3.318151041E0,4.672538117E0
1.633340287E1,3.722949980E0,-5.932302580E0,6.025501351E0,9.239006277E0
1.634334287E1,6.319164893E0,-7.976162313E0,4.753851230E0,1.123165668E1
1.635328287E1,8.540573575E0,-7.937926785E0,-1.792561899E0,1.179683673E1
1.636322287E1,7.390325684E0,-6.314132779E0,-6.673015580E0,1.179043355E1
1.637316287E1,5.111375138E0,-4.581871169E0,-6.587366150E0,9.513836870E0
1.638310187E1,2.983575116E0,-2.863881442E0,-5.279320620E0,6.706322658E0
1.639304187E1,1.754033280E0,-7.245197207E-1,-2.964349471E0,3.519791096E0
1.640298187E1,9.693765539E-1,1.627199425E0,-1.658714455E0,2.517697860E0
1.641292187E1,6.434219094E-1,3.431360738E0,-1.868440340E0,3.959709278E0
1.642286187E1,7.953664859E-1,4.736395537E0,-1.769247004E0,5.118230699E0
1.643280087E1,2.683215635E-1,5.434115714E0,-1.336436686E0,5.602470265E0
1.644274087E1,-1.122573312E0,6.378750944E0,-3.801623390E0,7.510058245E0
1.645268087E1,-1.668342773E0,7.685691935E0,-7.570385427E0,1.091622479E1
1.646262087E1,-1.117574819E0,9.906922277E0,-7.696768316E0,1.259509131E1
1.647255988E1,-7.602354641E-1,1.294646285E1,-4.188502367E0,1.362836785E1
1.648249987E1,-3.100749224E-2,1.620253868E1,-1.083918831E-1,1.620293090E1
1.649243988E1,4.353564148E-1,1.662534500E1,1.157013119E0,1.667124203E1
1.650237987E1,6.319112268E-1,1.407703135E1,1.091745914E0,1.413343669E1
1.651231988E1,1.190713547E0,1.269013144E1,5.890608425E0,1.404124290E1
1.652225887E1,5.649254658E0,1.196838271E1,1.308429108E1,1.861061353E1
1.653219888E1,1.387715481E1,-6.047032553E-1,1.735815665E1,2.223165972E1
