"Time (s)","Linear Acceleration x (m/s^2)","Linear Acceleration y (m/s^2)","Linear Acceleration z (m/s^2)","Absolute acceleration (m/s^2)"
7.503208326E-3,3.523789897E1,1.820297173E1,-1.164020423E0,3.967886903E1
1.744220834E-2,3.043130060E1,1.930684652E1,-2.896608893E0,3.615534154E1
2.738220833E-2,2.444615614E1,1.926949918E1,-4.129102550E0,3.140028084E1
3.732120834E-2,1.827254424E1,1.811213406E1,-4.245596627E0,2.607604962E1
4.726020833E-2,1.221184440E1,1.589906468E1,-3.457427040E0,2.034362807E1
5.719920833E-2,6.559538081E0,1.308250651E1,-3.141270429E0,1.496820284E1
6.713820832E-2,1.821573737E0,1.026104603E1,-4.500391388E0,1.135168354E1
7.707720833E-2,-4.455941439E0,6.727081275E0,-1.031585315E1,1.309678826E1
8.701620833E-2,-8.343808921E0,5.247896513E0,-1.149300057E1,1.514095860E1
9.695520833E-2,-1.373307474E1,2.718119127E-1,-1.667062817E1,2.160048766E1
1.068952083E-1,-2.079389169E1,-3.365366723E0,-1.769862949E1,2.751278086E1
1.168342083E-1,-1.810008412E1,-1.537848999E0,-1.534481880E1,2.377901362E1
1.267732083E-1,-7.924644835E0,1.765322645E0,-3.498811294E0,8.840703607E0
1.367122083E-1,-8.806258775E0,-1.706629756E0,2.795913992E0,9.395739129E0
1.466512083E-1,-1.637858431E1,-5.249206290E0,4.923640924E0,1.789006514E1
1.565902083E-1,-1.839549481E1,-4.980172974E0,4.794749579E0,1.965161509E1
1.665292083E-1,-1.636475447E1,-4.620247907E0,9.618108416E-1,1.703164583E1
1.764682083E-1,-3.834144434E0,-2.809071397E0,5.233938625E0,7.070053690E0
1.864082083E-1,3.089744765E0,-4.295060563E0,5.606351298E0,7.708777000E0
1.963472083E-1,3.152852009E0,-4.748648085E0,3.653250877E0,6.770256745E0
2.062862083E-1,4.193379822E0,-6.677510920E0,3.689262124E0,8.705414489E0
2.162252083E-1,3.176840211E0,-8.415503971E0,2.193749013E0,9.258809618E0
2.261642083E-1,8.587075896E0,-4.867308848E0,2.673127726E-2,9.870627256E0
2.361032083E-1,1.291576380E1,-4.221038321E0,-2.686214379E0,1.385098793E1
2.460422083E-1,1.576008923E1,-6.384765390E0,-4.008986707E0,1.747047841E1
2.559812083E-1,2.358719315E1,-6.683834683E0,-4.843488461E0,2.498977205E1
2.659212083E-1,2.259704670E1,-3.945072547E0,-7.701965321E0,2.419732189E1
2.758602083E-1,2.431536329E1,-3.026051629E0,-7.162132831E0,2.552822021E1
2.857992083E-1,2.426247405E1,-6.074463011E0,-4.712556438E0,2.545142307E1
2.957382083E-1,2.145304597E1,-6.655921245E0,-1.115922250E0,2.248954761E1
3.056772083E-1,1.847522393E1,-5.657982797E0,1.468841622E0,1.937792983E1
3.156162083E-1,1.725263312E1,-3.907243108E0,1.442079208E0,1.774822500E1
3.255552083E-1,1.450555274E1,-4.030501244E0,9.022671828E-1,1.508211147E1
3.354942083E-1,9.160065608E0,-3.638717038E0,9.899569988E-1,9.905911290E0
3.454332083E-1,5.484695299E0,-3.701279614E0,9.355733617E-1,6.682563192E0
3.553732083E-1,6.076952171E0,-2.063276874E0,1.768645764E0,6.656918730E0
3.653122917E-1,5.085879523E0,2.239763092E0,3.945949044E0,6.815660136E0
3.752512917E-1,-2.601172475E0,-3.073721932E0,4.465273011E-1,4.051327114E0
3.851902917E-1,-6.252234154E0,-3.881586403E0,-1.830278925E0,7.583341339E0
3.951292917E-1,-6.428655760E0,-1.547652149E0,1.635063783E0,6.811481163E0
4.050682917E-1,-9.327977761E0,-3.399369451E0,2.619989984E0,1.026797104E1
4.150072917E-1,-1.499031264E1,-4.232286610E0,2.379886937E0,1.575708047E1
4.249462917E-1,-1.744113215E1,-2.552233034E0,4.770257932E0,1.826095137E1
4.348862917E-1,-1.699463058E1,-2.406426572E0,4.381238289E0,1.771450271E1
4.448252917E-1,-1.638310187E1,-1.892327970E0,1.519209538E0,1.656185163E1
4.547642917E-1,-1.797671021E1,-2.448771231E0,-4.306591272E-1,1.814783893E1
4.647032917E-1,-1.917424687E1,-2.656281897E0,-1.058838515E0,1.938630227E1
4.746422917E-1,-1.990499095E1,-2.690059508E0,-5.164262326E-1,2.009258025E1
4.845812917E-1,-1.907973131E1,-2.620083539E0,1.066907819E-1,1.925908532E1
4.945202917E-1,-1.814356635E1,-1.690972521E0,6.389242311E-1,1.823339278E1
5.044592917E-1,-1.719888318E1,-1.045234821E0,1.084660842E0,1.726472089E1
5.143992917E-1,-1.536618102E1,2.435920805E-2,1.294724404E0,1.542064926E1
5.243382917E-1,-1.330655427E1,1.006126158E0,1.593279580E0,1.343931606E1
5.342772917E-1,-1.206971496E1,1.274222458E0,1.796188342E0,1.226898344E1
5.442162917E-1,-1.212875898E1,5.027331938E0,3.209329680E0,1.351594087E1
5.541552917E-1,-8.769889094E0,5.500443020E0,2.493643348E0,1.064819634E1
5.640942917E-1,-6.520203277E0,3.973395290E0,9.411960442E-1,7.693293891E0
5.740332917E-1,-9.537385265E0,1.030617952E0,5.379610893E-1,9.607980703E0
5.839722917E-1,-7.896591064E0,-3.359030095E0,7.115993621E0,1.114794146E1
5.939122917E-1,-7.096853346E0,-2.129302610E0,9.859967966E0,1.233362174E1
6.038512917E-1,-7.188457580E0,-1.525757688E0,6.584945987E0,9.867288004E0
6.137902917E-1,-7.800306133E0,-3.164464287E0,3.086689302E0,8.965838546E0
6.237292917E-1,-7.910554799E0,-5.963271773E0,3.152170808E0,1.039584861E1
6.336682917E-1,-9.695598056E0,-6.562157049E0,3.431786123E0,1.220015093E1
6.436072917E-1,-3.779512728E0,-1.237507761E1,-7.053635990E0,1.473706358E1
6.535462917E-1,-2.002278428E0,-1.285311556E1,-4.863390044E0,1.388755778E1
6.634852917E-1,-6.435032734E0,-8.187642070E0,-2.067319639E-1,1.041584692E1
6.734242917E-1,-2.941438910E0,-9.646752756E0,3.355372077E0,1.062875455E1
6.833642917E-1,2.545017219E1,-1.974009713E1,-6.860321778E0,3.293093855E1
6.933032917E-1,3.814074919E1,-2.113001070E1,5.263653298E-1,4.360586154E1
7.032422917E-1,1.383722066E1,-3.942156540E0,9.771549879E0,1.739231040E1
7.131812917E-1,1.363224067E1,1.168985177E1,6.704657203E0,1.916880404E1
7.231202917E-1,4.656886735E1,3.680731037E1,-7.793681238E0,5.986801291E1
7.330592917E-1,6.408760258E1,4.110399412E1,-2.150683802E1,7.911575835E1
7.429982917E-1,3.115143198E1,3.000243306E1,-2.408987594E1,4.950636148E1
7.529382917E-1,1.620409638E1,2.278443827E1,-2.397299945E1,3.682944568E1
7.628772917E-1,1.252482247E1,1.914362968E1,-1.579823061E1,2.780168746E1
7.728162917E-1,8.285163687E0,1.501047852E1,-1.156218249E1,2.067951805E1
7.827552917E-1,7.949925857E0,8.742423552E0,-9.711207783E0,1.529505957E1
7.926942917E-1,6.023191116E0,5.742888461E0,-6.504524553E0,1.056259621E1
8.026332917E-1,5.189795655E-1,4.046521738E0,-1.932697585E0,4.514310348E0
8.125722917E-1,-2.215440429E0,1.765716455E0,1.358140673E0,3.141731526E0
8.225112917E-1,-3.646587390E0,-3.177651805E-1,1.098633495E0,3.821723415E0
8.324502917E-1,-4.433809728E0,-1.580874566E0,2.197654953E0,5.194951433E0
8.423902917E-1,-3.941498728E0,-3.690563130E0,4.330141518E0,6.921401159E0
8.523292917E-1,-2.793040085E0,-7.144737364E0,5.821334707E0,9.629967948E0
8.622682917E-1,-5.739580107E0,-7.663816332E0,5.407162973E0,1.099610258E1
8.722072917E-1,-6.811139678E0,-8.086278248E0,5.451649175E0,1.189537718E1
8.821462917E-1,-6.879786574E0,-9.426914404E0,6.006876215E0,1.312557581E1
8.920852917E-1,-1.064770720E1,-1.055948207E1,8.513996226E0,1.724425881E1
9.020242917E-1,-1.640027748E1,-8.693496391E0,1.226484941E1,2.224797770E1
9.119632917E-1,-1.762732153E1,-5.247556790E0,9.023063006E0,2.048597039E1
9.219032917E-1,-1.843378121E1,-2.342647190E0,8.662198584E0,2.050185284E1
9.318422917E-1,-1.618944793E1,-1.413690684E0,6.703494776E0,1.757935118E1
9.417812917E-1,-1.496985440E1,-1.834793707E0,3.901286842E0,1.557828770E1
9.517202917E-1,-1.505302052E1,-3.159302657E0,2.370367378E0,1.556255961E1
9.616592917E-1,-1.387570353E1,-3.324684135E0,7.920543306E-1,1.429041718E1
9.715982917E-1,-1.073289996E1,-3.730010201E0,-3.566048427E0,1.190902259E1
9.815372917E-1,-7.513850453E0,-4.582158267E0,-6.145221337E0,1.073395865E1
9.914762917E-1,-5.744574798E0,-4.712499136E0,-6.509858383E0,9.878564870E0
1.001416292E0,-4.504211374E0,-4.745120167E0,-6.812238954E0,9.445140818E0
1.011355292E0,-3.676005317E0,-4.442373560E0,-7.104225515E0,9.149738691E0
1.021294292E0,-3.904582917E0,-4.484602152E0,-5.950813111E0,8.412466992E0
1.031233292E0,-1.757331548E0,-4.928388863E0,-3.566339618E0,6.332140967E0
1.041172292E0,-3.094808453E-1,-5.629788108E0,3.776519246E-1,5.650921474E0
1.051111292E0,-1.798259134E0,-7.533248591E0,1.858718905E0,7.964823050E0
1.061050292E0,-2.834748859E0,-1.015402561E1,3.021145231E0,1.096664742E1
1.070989292E0,-3.305523979E0,-1.052924729E1,4.077417841E0,1.176507006E1
1.080929292E0,-4.867272595E0,-1.010783845E1,3.594114185E0,1.178033945E1
1.090868292E0,1.207788586E0,-1.054650125E1,9.252071546E0,1.408148677E1
1.100807292E0,2.150921667E-1,-9.996480571E0,1.004696894E1,1.417453609E1
1.110746292E0,-8.758464219E0,-7.221948677E0,8.157690877E0,1.397909720E1
1.120685292E0,-8.355615619E0,-4.898566893E0,1.765841585E0,9.845327139E0
1.130624292E0,-6.096728624E0,-2.586584256E0,-1.809753006E0,6.865546152E0
1.140563292E0,-3.878862185E0,5.683218795E-1,-5.217331655E-1,3.954840971E0
1.150502292E0,3.181431445E0,1.136486352E1,-3.466740485E0,1.230040318E1
1.160442292E0,1.719847972E1,2.261700909E1,-7.821952525E0,2.947031975E1
1.170381292E0,2.999295823E1,2.930526953E1,-8.827001773E0,4.285198159E1
1.180320292E0,4.300686988E1,3.501597843E1,-1.217450525E1,5.677964583E1
1.190259292E0,4.355535274E1,3.353605516E1,-9.504047949E0,5.578586448E1
1.200198292E0,3.018109590E1,1.998379037E1,-6.484507195E0,3.677362181E1
1.210137292E0,1.948192385E1,1.192288787E1,-4.619157986E0,2.330315928E1
1.220076292E0,1.418847928E1,1.159166883E1,-1.889425119E0,1.841873117E1
1.230015292E0,1.144464059E1,9.763939143E0,-3.774649599E0,1.551007045E1
1.239955292E0,7.786513136E0,7.090804401E0,-7.768130075E0,1.308637225E1
1.249894292E0,2.789201973E0,4.436712871E0,-5.198346623E0,7.381522631E0
1.259833292E0,-6.988013273E-1,2.210279092E0,-2.474670595E0,3.390818708E0
1.269772292E0,-2.330314243E0,-2.593684530E-1,-1.482601582E0,2.774120386E0
1.279711292E0,-4.557637383E0,-1.953008620E0,-2.617501701E-1,4.965361451E0
1.289650292E0,-6.826403834E0,-2.364871872E0,1.030576144E0,7.297567778E0
1.299589292E0,-8.567371364E0,-2.623723431E0,6.049608251E-1,8.980520828E0
1.309528292E0,-1.063454745E1,-5.015835727E0,2.772102083E0,1.208042870E1
1.319468292E0,-9.070118474E0,-7.990751701E0,2.373560250E0,1.231880474E1
1.329407292E0,-7.717162820E0,-1.059487293E1,2.722921445E0,1.338731622E1
1.339346292E0,-8.138448275E0,-1.174159729E1,3.032921523E0,1.460472732E1
1.349285292E0,-6.845294434E0,-1.224343808E1,2.952889513E0,1.433455225E1
1.359224292E0,-7.290150601E0,-1.225275620E1,4.246281628E0,1.487639869E1
1.369163292E0,-8.512702821E0,-1.105408635E1,4.246469909E0,1.458394463E1
1.379102292E0,-8.892353178E0,-9.966620010E0,4.210957137E0,1.400498552E1
1.389041292E0,-7.737590067E0,-8.630700218E0,3.978984351E0,1.225526837E1
1.398980292E0,-5.953102881E0,-6.822587357E0,3.508539014E0,9.710663116E0
1.408920292E0,-5.941732385E0,-5.205198390E0,4.141160970E0,8.918939859E0
1.418859292E0,-5.781099431E0,-4.963766856E0,4.395109639E0,8.796424317E0
1.428798292E0,-6.219755795E0,-5.303950261E0,4.166476783E0,9.174790423E0
1.438737292E0,-6.588046766E0,-4.722667444E0,4.374188009E0,9.210834311E0
1.448676292E0,-6.886036078E0,-4.506843206E0,3.870375244E0,9.094445177E0
1.458615292E0,-7.877970021E0,-3.748056462E0,3.149315028E0,9.275156281E0
1.468554292E0,-7.579253899E0,-3.893284927E0,2.391996521E0,8.850107601E0
1.478493292E0,-6.089875102E0,-6.573962578E0,2.690023548E0,9.356270059E0
1.488433292E0,-7.193610731E0,-7.739395688E0,3.542378605E0,1.114426880E1
1.498372292E0,-7.297201173E0,-7.706527904E0,4.391498983E0,1.148586003E1
1.508311292E0,-8.123608042E0,-6.658022735E0,2.790645943E0,1.086784151E1
1.518250292E0,-9.732374704E0,-4.024803425E0,1.333979686E0,1.061591549E1
1.528189292E0,-9.732277640E0,-2.094199582E0,1.124010557E0,1.001829824E1
1.538128292E0,-8.167325335E0,-2.046830703E0,1.110310239E0,8.492791524E0
1.548067292E0,-6.288691544E0,-3.436769997E0,1.318530465E0,7.286806703E0
1.558006292E0,-3.891592158E0,-5.259953472E0,1.441761997E0,6.700020724E0
1.567945292E0,-1.353015881E0,-5.295686392E0,2.417247429E0,5.976456431E0
1.577885292E0,1.043598770E0,-3.073454422E0,2.619311122E0,4.170852579E0
1.587824292E0,5.641129367E0,9.260305595E-1,3.047600665E0,6.478251535E0
1.597763292E0,1.291698820E1,8.001857318E0,3.029960785E0,1.549383642E1
1.607702292E0,2.222163207E1,1.692786239E1,1.102730785E0,2.795656402E1
1.617641292E0,3.169363260E1,2.357815101E1,-4.169098674E0,3.972149212E1
1.627580292E0,3.194222580E1,2.399965340E1,-1.037278749E1,4.127812826E1
1.637519292E0,2.160812115E1,2.286746405E1,-1.303174449E1,3.405375422E1
1.647459292E0,2.094444814E1,2.153172377E1,-1.322615271E1,3.282097122E1
1.657398292E0,2.041031902E1,1.901970613E1,-1.015055236E1,2.968777623E1
1.667337292E0,1.539989489E1,1.423650831E1,-1.195819219E1,2.414194052E1
1.677276292E0,1.333477176E1,9.584019148E0,-9.397932680E0,1.892064216E1
1.687215292E0,8.436238198E0,7.908352153E0,-5.401066082E0,1.276258843E1
1.697154292E0,7.380533937E0,4.266173564E0,-6.071063440E0,1.046567386E1
1.707093292E0,3.574294755E0,2.001297265E-1,-2.014235692E0,4.107649002E0
1.717032292E0,-7.995962155E-1,-1.826966624E0,-1.614942199E0,2.566164347E0
1.726972292E0,-2.471805167E0,-2.929912879E0,-1.940290341E-1,3.838210199E0
1.736911292E0,-4.345628453E0,-4.183019725E0,1.375280032E0,6.186560906E0
1.746850292E0,-4.738483577E0,-5.459179804E0,2.183269925E0,7.551326924E0
1.756789292E0,-6.746112792E0,-6.329387580E0,4.402489994E0,1.024466218E1
1.766728292E0,-9.381911309E0,-5.392109901E0,2.218744398E0,1.104617290E1
1.776667292E0,-4.774111247E0,-7.518796613E0,2.151658708E0,9.162645683E0
1.786606292E0,-8.582777023E-2,-1.929297575E0,-2.090236047E0,2.845811355E0
1.796545292E0,6.605044037E0,-6.320337844E0,-2.878305061E0,9.584253608E0
1.806484292E0,2.716946760E0,-8.969148170E0,1.688796625E0,9.522575945E0
1.816424292E0,1.326586466E0,-6.800973709E0,9.702955023E0,1.192310409E1
1.826363292E0,-9.940977631E0,-7.288561327E0,9.892314763E0,1.580519072E1
1.836302292E0,-2.128430469E1,-9.254526207E0,8.637833236E0,2.476449160E1
1.846241292E0,-2.424807821E1,-1.151019723E1,7.417704102E0,2.784737458E1
1.856180292E0,-1.997972305E1,-9.576949865E0,6.236157820E0,2.301731883E1
1.866119292E0,-1.732563327E1,-5.765961574E0,5.286023283E0,1.900962712E1
1.876058292E0,-1.566712317E1,-2.936532219E0,2.040989335E0,1.607008424E1
1.885997292E0,-1.275026771E1,-9.399966341E-1,1.069065734E0,1.282949032E1
1.895937292E0,-1.020933442E1,1.178181794E-1,2.082551051E0,1.042024037E1
1.905876292E0,-9.165290095E0,-1.347448747E0,2.355740275E0,9.558643884E0
1.915815292E0,-9.441286275E0,-2.689515132E0,2.049370441E0,1.002852419E1
1.925754292E0,-9.535985441E0,-3.998495925E0,2.393394298E0,1.061373281E1
1.935693292E0,-9.870880040E0,-5.239220999E0,2.621063825E0,1.147840080E1
1.945632292E0,-9.575489815E0,-5.805153122E0,2.742780051E0,1.152877489E1
1.955571292E0,-8.557284917E0,-6.746747800E0,2.621376067E0,1.120791432E1
1.965510292E0,-9.265738243E0,-6.905433047E0,2.191271109E0,1.176182723E1
1.975449292E0,-9.465187354E0,-6.334490445E0,8.899029529E-1,1.142398652E1
1.985389292E0,-8.659411216E0,-5.927962192E0,6.665743983E-1,1.051524892E1
1.995328292E0,-7.671702472E0,-5.837667149E0,1.087424529E0,9.701333345E0
2.005267292E0,-7.270002265E0,-5.500196852E0,9.574052569E-1,9.166336409E0
2.015206292E0,-7.513689655E0,-5.048460267E0,7.482003593E-1,9.083076961E0
2.025145292E0,-6.199846610E0,-4.883218537E0,5.087264729E-1,7.908395785E0
2.035084292E0,-3.578970188E0,-4.524694170E0,-1.050417209E-1,5.770001621E0
2.045023292E0,-4.995393276E-1,-2.903702735E0,-1.172151561E0,3.170957015E0
2.054962292E0,1.379672636E1,5.513953012E0,-4.890447450E0,1.564192483E1
2.064902292E0,4.895201002E1,2.301678323E1,-1.034224514E1,5.507298457E1
2.074841292E0,7.429938114E1,4.857154339E1,-3.483047200E0,8.883537856E1
2.084780292E0,4.988290079E1,4.300163545E1,5.310409681E0,6.607302697E1
2.094719292E0,2.062420783E1,2.053936006E1,-1.296149955E0,2.913594455E1
2.104658292E0,1.391255502E1,1.568653827E1,-2.319255989E0,2.109515628E1
2.114597292E0,1.555663185E1,1.489086086E1,-3.772863275E0,2.186277724E1
2.124536292E0,1.371609091E1,1.127803938E1,-3.329180059E0,1.806678616E1
2.134475292E0,1.183584037E1,9.553351087E0,-3.574779489E0,1.562474584E1
2.144415292E0,8.977088689E0,7.939793801E0,-2.397133884E0,1.222189420E1
2.154354292E0,5.045208045E0,5.242214189E0,-1.498897480E0,7.428433716E0
2.164293292E0,1.521067783E0,2.713822592E0,-3.554697446E-1,3.131267954E0
2.174232292E0,-1.349121051E0,5.997407234E-1,6.979014409E-1,1.633059388E0
2.184171292E0,-2.835890821E0,-8.083027196E-1,8.789838624E-1,3.077050969E0
2.194110292E0,-3.998490955E0,-1.488052064E0,7.174966300E-1,4.326318328E0
2.204049292E0,-5.665547340E0,-1.849028753E0,9.893582439E-1,6.041205486E0
2.213988292E0,-6.911514736E0,-3.051231494E0,1.536987412E0,7.709823596E0
2.223927292E0,-8.162358125E0,-4.191180099E0,1.677310063E0,9.327563981E0
2.233867292E0,-9.069141405E0,-5.040964721E0,1.175567504E0,1.044234696E1
2.243806292E0,-9.892312424E0,-5.901923372E0,5.527723789E-1,1.153239359E1
2.253745292E0,-9.562385035E0,-6.580826624E0,1.541454867E-1,1.160905885E1
2.263684292E0,-9.175928519E0,-6.930031698E0,-1.231926386E-1,1.149948607E1
2.273623292E0,-8.887254406E0,-7.266441895E0,-6.969296793E-2,1.147995321E1
2.283562292E0,-8.886139927E0,-7.689428306E0,2.736765897E-1,1.175439022E1
2.293501292E0,-8.578625500E0,-8.112747424E0,3.678050673E-1,1.181290679E1
2.303440292E0,-8.180859300E0,-8.362358043E0,4.954041767E-1,1.170901004E1
2.313380292E0,-7.900332112E0,-8.549830887E0,5.559415698E-1,1.165435226E1
2.323319292E0,-7.792414731E0,-8.926106815E0,5.421550047E-1,1.186132549E1
2.333258292E0,-8.020692369E0,-9.220793036E0,5.179059802E-1,1.223203813E1
2.343197292E0,-7.857512367E0,-9.208279994E0,2.047063057E-1,1.210680906E1
2.353136292E0,-7.558295140E0,-9.046971102E0,-3.008801758E-2,1.178882593E1
2.363075292E0,-7.402189100E0,-9.022086521E0,-3.274914390E-1,1.167466057E1
2.373014292E0,-7.244477414E0,-8.923369149E0,-7.517367554E-1,1.151842342E1
2.382953292E0,-7.303613230E0,-8.905141039E0,-1.323949372E0,1.159297827E1
2.392892292E0,-7.478057308E0,-8.968767516E0,-1.662659279E0,1.179510779E1
2.402832292E0,-7.488654217E0,-8.891266766E0,-1.577479527E0,1.173128332E1
2.412771292E0,-7.504487307E0,-8.757471946E0,-1.380113048E0,1.161530700E1
2.422710292E0,-7.464239752E0,-8.598147014E0,-1.304975157E0,1.146062683E1
2.432649292E0,-7.450105278E0,-8.305281617E0,-1.524970214E0,1.126087499E1
2.442588292E0,-7.331077017E0,-7.920488049E0,-1.624402701E0,1.091409663E1
2.452527292E0,-6.822497894E0,-7.588709432E0,-1.481212576E0,1.031159440E1
2.462466292E0,-6.122011984E0,-7.435745686E0,-1.157935810E0,9.701039118E0
2.472405292E0,-5.808515856E0,-7.321102837E0,-7.826462337E-1,9.378162843E0
2.482345292E0,-5.757528720E0,-7.324808217E0,-4.271227312E-1,9.326542028E0
2.492284292E0,-5.725665488E0,-7.300235294E0,3.710054677E-2,9.277826096E0
2.502223292E0,-5.796883990E0,-7.250535130E0,6.892083123E-1,9.308551539E0
2.512162292E0,-5.760141841E0,-6.851541014E0,1.152236529E0,9.024992926E0
2.522101292E0,-5.865054923E0,-4.341176968E0,8.095171863E-1,7.341662263E0
2.532040292E0,1.228451477E0,1.270094528E1,-2.851160459E-1,1.276340061E1
2.541979292E0,5.644780837E1,8.512781642E1,1.356926499E1,1.030399202E2
2.551918292E0,7.390131673E1,5.458329034E1,2.373542708E1,9.488999261E1
2.561857292E0,4.024974865E1,1.958230651E1,3.491195880E0,4.489651928E1
2.571797292E0,1.385811627E1,8.781009328E0,-4.895785958E0,1.712081282E1
2.581736292E0,1.568405671E1,1.122872864E1,-9.071192608E0,2.131573403E1
2.591675292E0,1.536864504E1,1.263878938E1,-1.203741143E1,2.325582768E1
2.601614292E0,1.379475935E1,1.123185691E1,-1.094919665E1,2.088863094E1
2.611553292E0,1.069466034E1,8.436723517E0,-7.753271130E0,1.567377672E1
2.621492292E0,7.691298831E0,5.522274769E0,-4.113230867E0,1.032328748E1
2.631431292E0,4.593352177E0,3.064052099E0,-1.602751046E0,5.749444356E0
2.641370292E0,1.657196810E0,3.026197225E-1,1.562492967E-1,1.691831495E0
2.651310292E0,-1.330835053E0,-2.053384262E0,1.380873771E0,2.809683477E0
2.661249292E0,-3.714604542E0,-3.631941869E0,1.928569597E0,5.541540339E0
2.671188292E0,-5.967002297E0,-4.893963380E0,1.902618484E0,7.948330081E0
2.681127292E0,-6.967193093E0,-5.799455595E0,1.349379498E0,9.164948981E0
2.691066292E0,-7.863749592E0,-6.409261715E0,9.097308612E-1,1.018551931E1
2.701005292E0,-8.548519356E0,-6.889771864E0,9.718528497E-1,1.102227914E1
2.710944292E0,-8.607552261E0,-7.249767390E0,9.512636340E-1,1.129398006E1
2.720883292E0,-8.364278854E0,-7.247484637E0,6.125332618E-1,1.108433089E1
2.730823292E0,-8.219748546E0,-7.057552455E0,7.331332541E-1,1.085867382E1
2.740762292E0,-7.978478395E0,-7.135186522E0,3.555253297E-1,1.070950057E1
2.750701292E0,-7.905168344E0,-7.398115929E0,4.170947198E-1,1.083502533E1
2.760640292E0,-7.802124617E0,-7.611396044E0,3.957570605E-1,1.090702168E1
2.770579292E0,-7.703189728E0,-7.728721595E0,1.576011364E-1,1.091316213E1
2.780518292E0,-7.532313037E0,-7.857884250E0,-1.221647437E-1,1.088563314E1
2.790457292E0,-7.450071949E0,-8.008906721E0,-2.215083164E-1,1.094053129E1
2.800396292E0,-7.482996451E0,-8.059980980E0,-3.462779582E-1,1.100356477E1
2.810335292E0,-7.691758422E0,-8.092918346E0,-5.904109061E-2,1.116521208E1
2.820275292E0,-7.797386034E0,-7.981930591E0,2.656337446E-1,1.116158619E1
2.830214292E0,-7.865289749E0,-7.920795028E0,6.076601557E-1,1.117904413E1
2.840153292E0,-7.664069517E0,-8.047087285E0,1.638448298E-1,1.111397411E1
2.850092292E0,-7.454301240E0,-8.166959299E0,1.204971178E-1,1.105804462E1
2.860031292E0,-7.328416534E0,-8.277886242E0,3.470866646E-1,1.106117348E1
2.869970292E0,-7.201809112E0,-8.256794751E0,1.049586904E-1,1.095681205E1
2.879909292E0,-7.014647925E0,-8.256001868E0,-3.549066577E-1,1.083941009E1
2.889848292E0,-6.868565183E0,-8.304258939E0,-4.493941909E-1,1.078609565E1
2.899787292E0,-6.877626028E0,-8.143543539E0,-4.483849980E-1,1.066864988E1
2.909727292E0,-6.976128223E0,-7.907583829E0,-6.637297279E-1,1.056583097E1
2.919666292E0,-6.765888076E0,-7.502663561E0,-4.623019926E-1,1.011340324E1
2.929605292E0,-6.035163290E0,-7.167052678E0,-1.360390170E-1,9.370610793E0
2.939544292E0,-5.516119990E0,-7.096703657E0,1.199526690E-1,8.989169660E0
2.949483292E0,-5.172931700E0,-6.924793763E0,6.642032792E-1,8.669092053E0
2.959422292E0,-4.901175336E0,-6.718832023E0,1.619227915E0,8.472669147E0
2.969361292E0,-5.005504282E0,-5.162955181E0,1.265614040E0,7.301572311E0
2.979300292E0,8.605744302E0,2.253038376E1,2.714478650E0,2.427025797E1
2.989240292E0,3.637780665E1,6.118815077E1,1.828627467E1,7.349641116E1
2.999179292E0,3.146508832E1,4.588715685E1,1.666189945E1,5.808013293E1
3.009118292E0,2.140176355E1,3.055457628E1,6.834489949E0,3.792529324E1
3.019057292E0,1.381565145E1,1.822136122E1,-8.180145063E-2,2.286693948E1
3.028996292E0,1.599537183E1,1.474117798E1,-7.010565984E0,2.285393366E1
3.038935292E0,3.348358459E1,1.314908173E1,-1.228556142E1,3.801294262E1
3.048874292E0,3.197527894E1,1.283408404E1,-1.343070235E1,3.697993973E1
3.058813292E0,5.406109890E0,7.391340761E0,-1.396884734E1,1.670289311E1
3.068753292E0,4.517386905E0,4.322448921E0,-1.004867282E1,1.183495562E1
3.078692292E0,1.699746999E0,2.051971575E0,-6.326214881E0,6.864453505E0
3.088631292E0,3.902098435E-1,5.236181617E-1,-2.981089464E0,3.051775565E0
3.098570292E0,-4.338277334E-1,-8.128939533E-1,-1.161486239E0,1.482583342E0
3.108509292E0,-2.824090555E0,-2.296163580E0,-2.329694073E-1,3.647208438E0
3.118448292E0,-5.050748867E0,-3.857722746E0,3.768343377E-1,6.366639068E0
3.128387292E0,-6.015855199E0,-5.410291234E0,6.412816823E-1,8.116218775E0
3.138326292E0,-6.809025909E0,-6.695423865E0,7.049403191E-1,9.575409935E0
3.148265292E0,-7.656727168E0,-7.490613618E0,6.073701704E-1,1.072863746E1
3.158205292E0,-7.642793253E0,-7.868446076E0,1.948397505E-1,1.097099334E1
3.168144292E0,-7.583377356E0,-7.883689182E0,3.335789752E-1,1.094401399E1
3.178083292E0,-7.496302375E0,-8.171327169E0,1.121676641E0,1.114555048E1
3.188022292E0,-7.491618755E0,-8.527028500E0,1.845678298E0,1.149961282E1
3.197961292E0,-7.545924186E0,-8.889661120E0,1.981203309E0,1.182760387E1
3.207900292E0,-7.558103936E0,-9.224109576E0,2.185054203E0,1.212367908E1
3.217839292E0,-7.582754627E0,-9.441275166E0,2.405561476E0,1.234595361E1
3.227778292E0,-7.547441538E0,-9.600921695E0,2.164249225E0,1.240264270E1
3.237717292E0,-7.287411180E0,-9.542372355E0,1.511108805E0,1.210151568E1
3.247657292E0,-6.962940413E0,-9.395449952E0,1.028334468E0,1.173944167E1
3.257596292E0,-6.955662968E0,-9.314088285E0,7.993915629E-1,1.165214636E1
3.267535292E0,-6.854999642E0,-9.264791579E0,1.887726796E-1,1.152662215E1
3.277474292E0,-6.905741780E0,-9.144610248E0,-1.399244553E-1,1.146004995E1
3.287413292E0,-6.819853783E0,-9.074788646E0,-5.384110326E-1,1.136450971E1
3.297352292E0,-6.617308572E0,-9.025525854E0,-7.435319424E-1,1.121613701E1
3.307291292E0,-6.489983112E0,-8.953725554E0,-9.379389989E-1,1.109814451E1
3.317230292E0,-6.377976773E0,-8.895841627E0,-1.150321566E0,1.100626302E1
3.327169292E0,-6.302287490E0,-8.864614572E0,-1.266178297E0,1.095004231E1
3.337109292E0,-6.114149233E0,-8.845271983E0,-1.183911481E0,1.081773099E1
3.347048292E0,-5.834167591E0,-8.837267729E0,-1.086937163E0,1.064501032E1
3.356987292E0,-5.396822172E0,-8.689339020E0,-9.450749409E-1,1.027246167E1
3.366926417E0,-5.021975888E0,-8.300296866E0,-5.871575153E-1,9.719049533E0
3.376865417E0,-4.764401945E0,-8.124901446E0,-1.427410591E-1,9.419868599E0
3.386804417E0,-4.567283535E0,-8.008468180E0,3.022063243E-1,9.224259869E0
3.396743417E0,-4.288234524E0,-7.857445709E0,7.552550250E-1,8.983252115E0
3.406682417E0,-3.914095168E0,-7.656764590E0,1.181587797E0,8.679996238E0
3.416621417E0,-3.800701869E0,-4.283804088E0,9.362573397E-1,5.802834649E0
3.426561417E0,-4.827945977E0,-1.030556556E0,9.062500137E-1,5.019202950E0
3.436500417E0,-1.428841404E0,4.592254654E0,1.521080647E0,5.044212218E0
3.446439417E0,4.280286286E1,6.868792990E1,1.720299026E1,8.274091888E1
3.456378417E0,5.122172138E1,5.897685076E1,2.344590337E1,8.155761185E1
3.466317417E0,3.226076340E1,3.626890343E1,9.220065057E-1,4.854935949E1
3.476256417E0,2.303030199E1,1.941168242E1,-1.171119995E1,3.231656585E1
3.486195417E0,1.716582770E1,1.610521528E1,-1.589636093E1,2.840313170E1
3.496134417E0,1.094669638E1,1.355753664E1,-1.709095059E1,2.440773553E1
3.506074417E0,8.841904571E0,1.073209188E1,-1.388227814E1,1.964878416E1
3.516013417E0,7.223888199E0,8.602516054E0,-8.522924924E0,1.410064156E1
3.525952417E0,5.546376992E0,6.390778082E0,-4.544439633E0,9.605012952E0
3.535891417E0,3.408227983E0,4.903382660E0,-1.785719780E0,6.232814343E0
3.545830417E0,6.644881117E-1,2.503263772E0,9.338001570E-2,2.591639209E0
3.555769417E0,-1.341809108E0,-7.373625451E-1,8.560639465E-1,1.754138160E0
3.565708417E0,-3.450450143E0,-3.856144583E0,1.252190588E0,5.323855604E0
3.575647417E0,-5.069982698E0,-6.290886589E0,1.497461404E0,8.217199601E0
3.585586417E0,-6.262983091E0,-7.641704502E0,2.258808643E0,1.013522675E1
3.595526417E0,-6.739729387E0,-8.272492771E0,2.159968479E0,1.088685229E1
3.605465417E0,-6.551747836E0,-8.480239665E0,1.392460029E0,1.080642445E1
3.615404417E0,-6.453867785E0,-8.555311482E0,8.939047873E-1,1.075382861E1
3.625343417E0,-6.631323763E0,-8.591278875E0,7.177989310E-1,1.087656944E1
3.635282417E0,-6.627963953E0,-8.630154088E0,2.742970159E-1,1.088506796E1
3.645221417E0,-6.453047420E0,-8.685949974E0,-2.041788503E-1,1.082262616E1
3.655160417E0,-6.493915365E0,-8.683394741E0,3.447057880E-2,1.084313005E1
3.665099417E0,-6.370008772E0,-8.906626232E0,-8.467937708E-3,1.095011755E1
3.675039417E0,-6.336101353E0,-9.145189122E0,2.274186820E-1,1.112799999E1
3.684978417E0,-6.285685490E0,-9.154343523E0,1.780126333E-2,1.110460104E1
3.694917417E0,-6.184918084E0,-9.168268082E0,-1.756870495E-1,1.106079641E1
3.704856417E0,-6.171582924E0,-9.177679176E0,-1.208392896E-2,1.105976387E1
3.714795417E0,-6.130054829E0,-9.122876147E0,-4.537428383E-1,1.100046926E1
3.724734417E0,-6.033406786E0,-9.079503840E0,-8.443398406E-1,1.093399731E1
3.734673417E0,-5.987327219E0,-9.110409883E0,-1.268591004E0,1.097528945E1
3.744612417E0,-5.947931603E0,-9.103511923E0,-1.559485305E0,1.098561851E1
3.754551417E0,-5.985663101E0,-9.150792509E0,-1.686814273E0,1.106392827E1
3.764491417E0,-6.040740364E0,-9.221226314E0,-1.947071357E0,1.119431310E1
3.774430417E0,-6.028845958E0,-9.281660796E0,-1.987698834E0,1.124487249E1
3.784369417E0,-5.989830412E0,-9.262538062E0,-1.869188783E0,1.118778559E1
3.794308417E0,-5.933844491E0,-9.233118382E0,-1.856061199E0,1.113130490E1
3.804247417E0,-5.924400069E0,-9.190396285E0,-1.924383575E0,1.110248406E1
3.814186417E0,-5.889410915E0,-9.097484028E0,-1.893882598E0,1.100164387E1
3.824125417E0,-5.940538384E0,-8.929968317E0,-1.846613853E0,1.088321245E1
3.834064417E0,-5.550440807E0,-8.275396498E0,-1.489320910E0,1.007510085E1
3.844003417E0,-4.627646681E0,-7.997579495E0,-1.122665405E0,9.307887472E0
3.853943417E0,-4.542429068E0,-7.992364363E0,-7.690866137E-1,9.225131119E0
3.863882417E0,-4.631884743E0,-7.896481721E0,-4.721277268E-1,9.166879754E0
3.873821417E0,-4.574194359E0,-6.215758638E0,-8.391059247E-1,7.762925237E0
3.883760417E0,6.117082196E-1,1.279255010E1,-8.204655860E-1,1.283342077E1
3.893699417E0,-2.878524039E0,6.851963768E0,-9.823754990E-1,7.496690586E0
3.903638417E0,3.933441148E1,6.611577716E1,1.746393746E1,7.888904251E1
3.913577417E0,6.453717862E1,7.569780124E1,3.501381964E1,1.054569680E2
3.923516417E0,4.047153588E1,3.548294409E1,6.902211816E0,5.426439962E1
3.933455417E0,2.562994366E1,1.197436675E1,-7.433712609E0,2.924960777E1
3.943395417E0,1.410622767E1,6.767272696E0,-1.052086355E1,1.885391759E1
3.953334417E0,1.193599499E1,7.484394520E0,-1.119481012E1,1.799466341E1
3.963273417E0,9.307371004E0,7.736850395E0,-1.042282796E1,1.597251864E1
3.973212417E0,6.388231035E0,6.548815457E0,-9.286726239E0,1.303609466E1
3.983151417E0,3.831833029E0,4.452077599E0,-7.211798496E0,9.301288989E0
3.993090417E0,1.784042214E0,2.008847775E0,-3.784706225E0,4.641365878E0
4.003029417E0,5.039060283E-1,-2.517752588E-2,-1.362970181E0,1.453355740E0
4.012968417E0,-2.162557626E0,-1.828884510E0,2.651688727E-1,2.844606927E0
4.022908417E0,-3.848846088E0,-3.333490627E0,1.138465167E0,5.217459047E0
4.032847417E0,-4.638962213E0,-4.796787919E0,1.545848867E0,6.849729445E0
4.042786417E0,-5.895079206E0,-6.166544963E0,1.879352413E0,8.735571024E0
4.052725417E0,-6.546473063E0,-7.279903355E0,1.454387305E0,9.897906084E0
4.062664417E0,-6.511459935E0,-7.760556176E0,1.566135197E0,1.025076203E1
4.072603417E0,-6.394205135E0,-8.128623199E0,1.622829216E0,1.046871287E1
4.082542417E0,-6.235209401E0,-8.337951180E0,1.102244589E0,1.046968048E1
4.092481417E0,-6.203441479E0,-8.540068960E0,6.091594549E-1,1.057291536E1
4.102420417E0,-6.160207166E0,-8.729126984E0,3.060789718E-1,1.068828773E1
4.112360417E0,-6.098018519E0,-8.928628135E0,1.932878629E-1,1.081404598E1
4.122299417E0,-6.071091506E0,-9.064081224E0,3.454301119E-1,1.091490002E1
4.132238417E0,-6.035744503E0,-9.212021043E0,4.072661350E-1,1.102077171E1
4.142177417E0,-5.957703470E0,-9.381826524E0,4.201813919E-1,1.112157597E1
4.152116417E0,-5.894513780E0,-9.424442201E0,4.560892528E-1,1.112535037E1
4.162055417E0,-5.754849526E0,-9.425152638E0,1.814226929E-1,1.104466883E1
4.171994417E0,-5.658579213E0,-9.441685055E0,1.546915984E-1,1.100858142E1
4.181933417E0,-5.559367751E0,-9.512379647E0,-6.029100604E-3,1.101780253E1
4.191872417E0,-5.503770670E0,-9.545625161E0,-1.358992686E-1,1.101947911E1
4.201812417E0,-5.440387437E0,-9.587518707E0,-2.561589529E-1,1.102651114E1
4.211751417E0,-5.345549108E0,-9.651443392E0,-3.223172379E-1,1.103762398E1
4.221690417E0,-5.173704118E0,-9.686019148E0,-3.720103848E-1,1.098747346E1
4.231629417E0,-5.043262092E0,-9.771950998E0,-3.424795703E-1,1.100194579E1
4.241568417E0,-4.801413651E0,-9.863277490E0,-2.831853684E-1,1.097351402E1
4.251507417E0,-4.580455850E0,-9.957075015E0,-9.430564821E-2,1.096051149E1
4.261446417E0,-4.240791970E0,-1.005233434E1,-1.765859127E-2,1.091027287E1
4.271385417E0,-3.940767242E0,-1.011880081E1,5.127310116E-2,1.085920832E1
4.281324417E0,-3.615999143E0,-1.008876951E1,2.101255417E-1,1.071927576E1
4.291264417E0,-3.274527889E0,-9.836077412E0,4.758908486E-1,1.037773693E1
4.301203417E0,-2.142328014E0,-9.152808044E0,4.447310364E-1,9.410698704E0
4.311142417E0,-1.887083602E0,-8.857404370E0,8.531912094E-1,9.096297705E0
4.321081417E0,-2.249609803E0,-8.771258512E0,1.071297616E0,9.118300210E0
4.331020417E0,7.371973613E-1,-2.152488720E-1,7.513771516E-1,1.074411304E0
4.340959417E0,1.808223257E1,4.333211540E1,3.599273475E0,4.709133816E1
4.350898417E0,2.018429139E1,5.524473205E1,6.575024432E0,5.918291126E1
4.360837458E0,1.648469139E1,4.254337747E1,1.198765981E1,4.717401832E1
4.370776458E0,1.303733560E1,2.728044892E1,1.154766034E1,3.236577625E1
4.380716458E0,9.169635161E0,2.351089166E1,6.186219674E0,2.598294728E1
4.390655458E0,7.262394453E0,2.345018119E1,1.038898194E-1,2.454921922E1
4.400594458E0,7.370472633E0,2.103956597E1,-4.189365124E0,2.268342970E1
4.410533458E0,6.849408535E0,1.667264546E1,-9.370955966E0,2.031517462E1
4.420472458E0,4.973428795E0,1.281126821E1,-1.117805083E1,1.771475112E1
4.430411458E0,1.985868802E0,9.453805749E0,-9.201583178E0,1.334118627E1
4.440350458E0,1.498196106E0,6.669237109E0,-5.813180180E0,8.973091942E0
4.450289458E0,6.931815684E-1,3.786810638E0,-3.382199103E0,5.124422530E0
4.460228458E0,-2.400132921E-1,1.093663800E0,-1.547183787E0,1.909838883E0
4.470168458E0,-8.514566329E-1,-1.495861605E0,-4.847809553E-1,1.788181455E0
4.480107458E0,-1.207381620E0,-3.707793705E0,2.819866526E-1,3.909606247E0
4.490046458E0,-1.765527882E0,-6.068178424E0,9.862101030E-1,6.396287083E0
4.499985458E0,-2.538692052E0,-7.870059907E0,1.892731428E0,8.483232434E0
4.509924458E0,-2.765011457E0,-8.492663244E0,3.012031175E0,9.425653778E0
4.519863458E0,-3.322232398E0,-9.024192688E0,3.396697859E0,1.019857040E1
4.529802458E0,-4.031631511E0,-9.856928583E0,4.515485975E0,1.156731202E1
4.539741458E0,-4.360671293E0,-1.020555946E1,3.832408980E0,1.174122041E1
4.549680458E0,-4.537561845E0,-1.013499994E1,3.435612248E0,1.162373102E1
4.559620458E0,-4.544847476E0,-9.920645692E0,1.384455775E0,1.099961669E1
4.569559458E0,-4.446518944E0,-9.909451783E0,6.989752455E-3,1.086134495E1
4.579498458E0,-4.367094459E0,-9.955396864E0,-8.595465481E-2,1.087146857E1
4.589437458E0,-4.320360003E0,-1.008564944E1,-1.865998542E-1,1.097363453E1
4.599376458E0,-4.427511984E0,-1.030158945E1,8.415078878E-2,1.121305886E1
4.609315458E0,-4.471149462E0,-1.042699937E1,3.404324967E-1,1.135030341E1
4.619254458E0,-4.619935081E0,-1.047867823E1,3.326176929E-1,1.145675050E1
4.629193458E0,-4.619010636E0,-1.050447380E1,1.711848213E-1,1.147643383E1
4.639132458E0,-4.763770154E0,-1.049026975E1,-1.776855547E-2,1.152126647E1
4.649072458E0,-4.736785838E0,-1.043407567E1,-2.612331301E-1,1.146190725E1
4.659011458E0,-4.637604782E0,-1.047085114E1,-1.625098374E-1,1.145305685E1
4.668950458E0,-4.525437936E0,-1.056093452E1,-1.342235297E-1,1.149047181E1
4.678889458E0,-4.068211692E0,-1.049127781E1,-4.994949619E-1,1.126351418E1
4.688828458E0,-3.574126063E0,-1.031631976E1,-8.267198409E-1,1.094916874E1
4.698767458E0,-3.545055168E0,-1.031797101E1,-1.066685990E0,1.096201446E1
4.708706458E0,-3.412052062E0,-1.042598429E1,-1.583350570E0,1.108378305E1
4.718645458E0,-3.172215356E0,-1.051796333E1,-1.887318660E0,1.114685940E1
4.728584458E0,-3.531658905E0,-1.061961717E1,-2.239098848E0,1.141325752E1
4.738524458E0,-3.973017560E0,-1.033101030E1,-4.469450846E-2,1.106872350E1
4.748463458E0,-3.476458265E0,-9.326422402E0,4.159779382E-1,9.961975433E0
4.758402458E0,-3.033714990E0,-8.659990675E0,9.687440313E-2,9.176505315E0
4.768341458E0,-3.252920673E0,-8.661266538E0,3.141059929E-1,9.257304873E0
4.778280458E0,-3.352282701E0,-8.533154043E0,3.726681966E-1,9.175587110E0
4.788219458E0,-3.072188500E0,-8.371414796E0,-1.198403805E0,8.997505184E0
4.798158458E0,-2.825665502E0,-7.452886214E0,-1.017212552E0,8.035211249E0
4.808097458E0,2.018398032E1,5.292200749E1,1.944299777E0,5.667373501E1
4.818036458E0,2.969745164E1,9.232744160E1,1.018654198E1,9.751954032E1
4.827976458E0,5.610864179E0,3.464773248E1,5.919844503E0,3.559482718E1
4.837915458E0,4.931790773E0,2.060414954E1,-4.718664440E0,2.170528352E1
4.847854458E0,1.105780868E1,2.625062093E1,1.156818334E0,2.850804203E1
4.857793458E0,1.731998135E1,3.385906003E1,5.512097690E0,3.842916759E1
4.867732458E0,1.340696616E1,2.678260996E1,4.068951073E0,3.022600372E1
4.877671458E0,7.037584798E0,1.563576456E1,3.128950930E0,1.742971793E1
4.887610458E0,3.969528818E0,9.833157313E0,3.205262357E0,1.107798937E1
4.897549458E0,2.259628422E0,6.175333328E0,3.792823330E0,7.591190364E0
4.907488458E0,1.110309654E0,3.230888364E0,3.533888741E0,4.915261619E0
4.917428458E0,2.942836395E-1,3.107754189E-1,2.867824219E0,2.899586173E0
4.927367458E0,-2.331819901E-1,-2.180364736E0,2.128326856E0,3.055836944E0
4.937306458E0,-1.051852992E0,-4.244873911E0,1.270361980E0,4.554027756E0
4.947245458E0,-2.268328494E0,-6.151357405E0,6.569335822E-1,6.589087480E0
4.957184458E0,-2.661536790E0,-7.201188723E0,-1.031075350E-1,7.677989859E0
4.967123458E0,-3.182074931E0,-7.919619153E0,-6.559629444E-1,8.560155126E0
4.977062458E0,-3.567581567E0,-8.496839325E0,-8.650891238E-1,9.255933013E0
4.987001458E0,-3.933918106E0,-8.931520752E0,-1.281102730E0,9.843220957E0
4.996940458E0,-4.003186269E0,-9.302793803E0,-1.645098336E0,1.026030318E1
5.006880458E0,-4.068544106E0,-9.616618545E0,-1.765878423E0,1.059012417E1
5.016819458E0,-4.359880165E0,-9.894291122E0,-1.989193383E0,1.099374559E1
5.026758458E0,-4.940518327E0,-1.017564511E1,-2.631675060E0,1.161370691E1
5.036697458E0,-5.052235229E0,-1.031500764E1,-2.579085202E0,1.177183690E1
5.046636458E0,-4.910179464E0,-1.029543584E1,-2.334215651E0,1.164278422E1
5.056575458E0,-4.791504082E0,-1.023277006E1,-1.801946973E0,1.144181399E1
5.066514458E0,-4.698761980E0,-1.018714775E1,-1.080074871E0,1.127044387E1
5.076453458E0,-4.589317598E0,-1.015173467E1,-6.737454236E-1,1.116124929E1
5.086392458E0,-4.340985764E0,-1.004379273E1,-7.382876477E-1,1.096663114E1
5.096332458E0,-4.213080845E0,-9.959606860E0,-8.642471979E-1,1.084853641E1
5.106271458E0,-4.092925534E0,-9.890965226E0,-1.020455564E0,1.075288622E1
5.116210458E0,-4.122662719E0,-9.901213056E0,-1.044788167E0,1.077598952E1
5.126149458E0,-4.205852810E0,-9.911301842E0,-1.133039462E0,1.082621266E1
5.136088458E0,-4.319374455E0,-9.917709221E0,-1.212849351E0,1.088526322E1
5.146027458E0,-4.430508098E0,-9.891100881E0,-1.137377073E0,1.089756419E1
5.155966458E0,-4.566238345E0,-9.878569129E0,-9.083007053E-1,1.092069919E1
5.165905458E0,-4.658479926E0,-9.893839717E0,-7.467917651E-1,1.096116771E1
5.175844458E0,-4.652692937E0,-9.908026232E0,-7.346055830E-1,1.097069646E1
5.185784458E0,-4.586511519E0,-9.938501920E0,-5.378818595E-1,1.095897920E1
5.195723458E0,-4.436855250E0,-1.000688511E1,-2.133415468E-1,1.094846787E1
5.205662458E0,-4.352119448E0,-9.952760940E0,1.757053220E-1,1.086412750E1
5.215601458E0,-4.327285738E0,-8.993779566E0,6.933534765E-1,1.000470948E1
5.225540458E0,-4.001998699E0,-8.286930131E0,1.177102983E0,9.277649272E0
5.235479458E0,-3.425302730E0,-8.172127068E0,1.911299261E0,9.064735212E0
5.245418458E0,-2.873943623E0,-7.978919275E0,2.644267623E0,8.883403403E0
5.255357458E0,-2.452668692E0,-7.793978861E0,3.034138913E0,8.715944535E0
5.265296458E0,1.043735829E1,2.267134844E1,2.855942677E0,2.512140316E1
5.275236458E0,2.941953115E1,7.483100531E1,7.045918250E0,8.071451624E1
5.285175458E0,2.294572786E1,5.801881956E1,1.195785422E1,6.352700314E1
5.295114458E0,1.394803242E1,2.650242776E1,7.042435648E0,3.076560068E1
5.305053458E0,9.935989956E0,1.412140704E1,-3.276452208E0,1.757478797E1
5.314992458E0,1.394940067E1,1.606084427E1,-1.276239601E1,2.480756436E1
5.324931458E0,1.527561233E1,1.724132928E1,-1.702778078E1,2.864529779E1
5.334870458E0,9.452295413E0,1.452005032E1,-1.466453736E1,2.269859921E1
5.344809458E0,5.710270354E0,1.141468881E1,-1.080057680E1,1.671989137E1
5.354748458E0,5.785480165E0,9.940687609E0,-9.152463058E0,1.469886495E1
5.364688583E0,4.556491329E0,7.427589405E0,-5.690233115E0,1.040718264E1
5.374627583E0,3.496607186E0,4.624837094E0,-2.755858226E0,6.419512016E0
5.384566583E0,1.987283828E0,1.858308869E0,-4.162702990E-1,2.752433438E0
5.394505583E0,4.917841655E-1,-8.337240744E-1,8.986854708E-1,1.320826663E0
5.404444583E0,-7.302774739E-1,-3.217840303E0,1.824841161E0,3.770655999E0
5.414383583E0,-1.629343598E0,-5.252164396E0,2.089132823E0,5.882556193E0
5.424322583E0,-2.358399297E0,-6.724532474E0,2.305465915E0,7.489763502E0
5.434261583E0,-3.170872250E0,-8.035533772E0,2.254672322E0,8.927921432E0
5.444200583E0,-3.729282222E0,-8.993909959E0,1.743159066E0,9.891236817E0
5.454140583E0,-3.978541717E0,-9.214979734E0,1.154409939E0,1.010333153E1
5.464079583E0,-3.994532682E0,-9.130565820E0,5.165394859E-1,9.979495808E0
5.474018583E0,-4.023979552E0,-9.188870746E0,-1.106936761E-1,1.003194947E1
5.483957583E0,-4.052032154E0,-9.276346847E0,-4.349135613E-1,1.013206421E1
5.493896583E0,-3.941444934E0,-9.310377642E0,-3.475432956E-1,1.011626939E1
5.503835583E0,-4.216754651E0,-9.465068656E0,7.216861600E-1,1.038698105E1
5.513774583E0,-5.232002612E0,-9.734798959E0,3.086012487E0,1.147447756E1
5.523713583E0,-5.957114071E0,-9.869021795E0,3.871911015E0,1.216044794E1
5.533652583E0,-5.944830240E0,-9.869095470E0,2.720071512E0,1.183802522E1
5.543592583E0,-5.512657853E0,-9.782555509E0,1.478519349E0,1.132580277E1
5.553531583E0,-5.201034003E0,-9.796174843E0,6.631029063E-1,1.111105313E1
5.563470583E0,-5.099797066E0,-9.794614221E0,2.956176817E-1,1.104670936E1
5.573409583E0,-5.022117391E0,-9.822665069E0,-1.611492777E-3,1.103206303E1
5.583348583E0,-5.117442209E0,-9.949116955E0,1.622637427E-1,1.118925701E1
5.593287583E0,-5.301934726E0,-1.010302269E1,8.067672408E-1,1.143820146E1
5.603226583E0,-5.290089437E0,-1.021089446E1,1.230416726E0,1.156552365E1
5.613165583E0,-5.146167240E0,-1.033910753E1,1.172544494E0,1.160840395E1
5.623104583E0,-4.748912379E0,-1.036570066E1,1.027138274E0,1.144792261E1
5.633044583E0,-4.331417381E0,-1.036369390E1,8.903496802E-1,1.126765505E1
5.642983583E0,-4.066243519E0,-1.033752878E1,9.339336562E-1,1.114769347E1
5.652922583E0,-3.746124542E0,-1.023768173E1,9.596964884E-1,1.094370109E1
5.662861583E0,-3.479808428E0,-9.369651452E0,8.909507740E-1,1.003460155E1
5.672800583E0,-3.546259987E0,-8.534505919E0,8.888235569E-1,9.284597918E0
5.682739583E0,-3.510680557E0,-8.540519781E0,8.977405608E-1,9.277461625E0
5.692678583E0,-3.380736422E0,-8.458081056E0,7.988677255E-1,9.143670136E0
5.702617583E0,-3.310510777E0,-8.379827769E0,7.741478904E-1,9.043246099E0
5.712556583E0,-3.393410262E0,-8.300642436E0,5.152964044E-1,8.982284144E0
5.722496583E0,-3.432858794E0,-8.257796963E0,2.553782400E-1,8.946560693E0
5.732435583E0,1.424766246E1,3.687930129E1,-7.710629725E-1,3.954330900E1
5.742374583E0,3.196037790E1,1.010635186E2,8.418701813E0,1.063304993E2
5.752313583E0,1.340569615E1,5.676403047E1,1.061764315E1,5.928408041E1
5.762252583E0,2.604032640E0,1.492217387E1,-9.105949335E-1,1.517502692E1
5.772191583E0,3.720107064E0,1.209602743E1,-1.172208980E1,1.724994103E1
5.782130583E0,4.252572063E0,1.406483055E1,-1.438724485E1,2.056445093E1
5.792069583E0,6.125422080E0,1.558957857E1,-1.090488061E1,1.998680006E1
5.802008583E0,5.729000155E0,1.352074363E1,-1.143697840E1,1.861280274E1
5.811948583E0,5.019116600E0,1.266856574E1,-1.167742175E1,1.794564761E1
5.821887583E0,3.134149397E0,9.169431093E0,-7.116692948E0,1.202283983E1
5.831826583E0,2.061094401E0,5.256254523E0,-2.819250230E0,6.310665068E0
5.841765583E0,1.178874397E0,2.880913212E0,2.860197696E-1,3.125893966E0
5.851704583E0,5.931061801E-1,1.863960203E0,1.979286884E0,2.782750285E0
5.861643583E0,6.575310946E-2,8.744265425E-1,2.460235866E0,2.611839537E0
5.871582583E0,-5.859965506E-1,-1.202743024E0,2.310468793E0,2.669878046E0
5.881521583E0,-1.995598861E0,-4.867477832E0,1.881665718E0,5.587076260E0
5.891460583E0,-2.995796089E0,-7.134276111E0,1.429796401E0,7.868736085E0
5.901400583E0,-3.134558118E0,-8.026567651E0,1.220499994E0,8.702922675E0
5.911339583E0,-3.333679784E0,-8.752799436E0,9.851495643E-1,9.417825574E0
5.921278583E0,-3.505863328E0,-9.287598644E0,6.461081202E-1,9.948267284E0
5.931217583E0,-3.644217221E0,-9.697382627E0,2.818660538E-1,1.036334876E1
5.941156583E0,-3.635525920E0,-9.893362584E0,1.333411483E-1,1.054103656E1
5.951095583E0,-3.629828686E0,-9.999462651E0,1.450053202E-1,1.063888792E1
5.961034583E0,-3.538208371E0,-9.988030175E0,2.331096308E-1,1.059877377E1
5.970973583E0,-3.414570750E0,-9.971385491E0,3.407043191E-1,1.054532605E1
5.980912583E0,-3.386255024E0,-9.949605782E0,3.522584172E-1,1.051596236E1
5.990851583E0,-3.382684714E0,-9.930990586E0,9.042964590E-1,1.053018908E1
6.000791583E0,-3.666194274E0,-1.011237940E1,2.241851717E0,1.098758830E1
6.010730583E0,-4.377826439E0,-1.040876190E1,4.419667068E0,1.212605235E1
6.020669583E0,-4.702723176E0,-1.057854165E1,5.252910501E0,1.271275806E1
6.030608583E0,-4.333857716E0,-1.047822682E1,4.470206891E0,1.218844985E1
6.040547583E0,-3.873270493E0,-1.030063753E1,2.952417058E0,1.139395121E1
6.050486583E0,-3.684969976E0,-1.029836647E1,1.934266101E0,1.110750832E1
6.060425583E0,-3.479239201E0,-1.035780926E1,1.103718161E0,1.098214514E1
6.070364583E0,-3.337759387E0,-1.036930606E1,4.328005238E-1,1.090185590E1
6.080303583E0,-3.203641801E0,-1.036144857E1,3.824524156E-1,1.085215219E1
6.090243583E0,-3.149193406E0,-1.037458259E1,8.755282310E-1,1.087731275E1
6.100182583E0,-3.170186372E0,-1.043524979E1,1.299559905E0,1.098332262E1
6.110121583E0,-3.106956921E0,-1.042872897E1,1.261903982E0,1.095463240E1
6.120060583E0,-3.002908057E0,-1.037723371E1,1.157238895E0,1.086478892E1
6.129999583E0,-2.667074688E0,-1.020823281E1,1.073043594E0,1.060531598E1
6.139938583E0,-2.372224746E0,-9.142344452E0,1.104842215E0,9.509499915E0
6.149877583E0,-2.724128018E0,-8.552883718E0,1.395722190E0,9.084092348E0
6.159816583E0,-2.737620468E0,-8.440407847E0,1.348660144E0,8.975184379E0
6.169755583E0,-2.695790364E0,-8.255805402E0,1.444413124E0,8.804086426E0
6.179695583E0,-2.657295805E0,-8.185504913E0,1.269669085E0,8.699182218E0
6.189634583E0,-2.556496531E0,-7.433148353E0,1.535743124E0,8.009112054E0
6.199573583E0,1.389248153E1,3.952887584E1,6.778396440E0,4.244384203E1
6.209512583E0,1.723379456E1,7.353282520E1,1.665325843E1,7.733958284E1
6.219451583E0,1.244677734E1,3.511700662E1,-3.496588767E0,3.742128476E1
6.229390583E0,2.846961822E1,6.541282489E1,-2.523023034E1,7.566981793E1
6.239329583E0,7.557385898E0,2.633843207E1,-2.024617599E1,3.406955720E1
6.249268583E0,1.447471218E0,7.866148705E0,-1.792970093E1,1.963276964E1
6.259207583E0,3.249795044E0,1.073803265E1,-1.538603232E1,1.904196690E1
6.269147583E0,4.653339054E0,1.370473445E1,-9.539231815E0,1.733407783E1
6.279086583E0,4.473156227E0,1.266868268E1,-4.432239751E0,1.414741661E1
6.289025583E0,2.854950989E0,9.032982223E0,-1.931762908E0,9.668361853E0
6.298964583E0,1.774856238E0,5.707436208E0,-7.021871576E-1,6.018140040E0
6.308903583E0,6.951433092E-1,2.228055212E0,2.261798032E-1,2.344911843E0
6.318842583E0,-2.187072077E-1,-8.400566089E-1,9.691702934E-1,1.301083781E0
6.328781583E0,-8.832789347E-1,-3.380434998E0,1.264428810E0,3.715683338E0
6.338720583E0,-1.472321592E0,-5.420780554E0,1.215151985E0,5.747102490E0
6.348659583E0,-2.040725918E0,-7.240370915E0,1.080893043E0,7.599727826E0
6.358599583E0,-2.415718675E0,-8.689248388E0,8.308953376E-1,9.056992952E0
6.368538042E0,-2.463906748E0,-9.291754845E0,5.212267967E-1,9.627004827E0
6.378477042E0,-2.518754216E0,-9.642193682E0,4.570908809E-1,9.976219418E0
6.388416042E0,-2.554240383E0,-9.842809896E0,3.343074652E-1,1.017432121E1
6.398355042E0,-2.595136394E0,-9.973357172E0,2.514828980E-1,1.030853190E1
6.408294042E0,-2.586670210E0,-1.009732282E1,3.329825592E-1,1.042869447E1
6.418233042E0,-2.633252639E0,-1.025297804E1,5.990495825E-1,1.060266186E1
6.428172042E0,-2.780411854E0,-1.044238456E1,1.216564672E0,1.087447079E1
6.438111042E0,-3.015403265E0,-1.065892450E1,2.006330549E0,1.125747265E1
6.448051042E0,-3.191807914E0,-1.083436552E1,2.848852344E0,1.164847946E1
6.457990042E0,-3.146901882E0,-1.093323375E1,3.078325152E0,1.178620709E1
6.467929042E0,-2.992022004E0,-1.089524556E1,2.687469192E0,1.161383064E1
6.477868042E0,-2.928324190E0,-1.088200279E1,2.105965934E0,1.146421213E1
6.487807042E0,-2.833518898E0,-1.089639863E1,1.582899749E0,1.136951644E1
6.497746042E0,-2.734374971E0,-1.084578864E1,1.185462089E0,1.124781126E1
6.507685042E0,-2.582850517E0,-1.082259742E1,9.196418186E-1,1.116447369E1
6.517624042E0,-2.391830314E0,-1.078727556E1,7.096624573E-1,1.107202723E1
6.527563042E0,-2.193635723E0,-1.079806718E1,6.572959634E-1,1.103822135E1
6.537503042E0,-2.071827258E0,-1.079888462E1,7.807541478E-1,1.102351823E1
6.547442042E0,-1.999953575E0,-1.080677251E1,9.242693782E-1,1.102907160E1
6.557381042E0,-1.930766250E0,-1.080853369E1,1.070353948E0,1.103167786E1
6.567320042E0,-1.830601545E0,-1.071470226E1,1.094714472E0,1.092494147E1
6.577259042E0,-1.676081563E0,-1.055361614E1,1.053574778E0,1.073769449E1
6.587198042E0,-1.513323584E0,-9.515322551E0,1.202363028E0,9.709644090E0
6.597137042E0,-1.934399125E0,-8.745655893E0,1.434303288E0,9.071142315E0
6.607076042E0,-2.114763070E0,-8.696590737E0,1.517656663E0,9.077785800E0
6.617015042E0,-2.132810355E0,-8.474585992E0,1.405586443E0,8.851167211E0
6.626954042E0,-2.079219308E0,-8.154642139E0,1.367077850E0,8.525857329E0
6.636894042E0,-2.029563875E0,-7.981520117E0,1.151430198E0,8.315622911E0
6.646833042E0,-2.463274957E0,-6.650445328E0,1.684898579E0,7.289377874E0
6.656772042E0,2.422169031E0,8.327367720E0,1.842927914E0,8.866134403E0
6.666711042E0,3.382360720E1,9.380556158E1,-3.436079733E-1,9.971779106E1
6.676650042E0,1.809281135E1,7.702629799E1,-8.948062818E-1,7.912775166E1
6.686589042E0,5.677147046E0,2.653843258E1,-1.057809142E1,2.912755431E1
6.696528042E0,1.810694992E0,1.018187356E1,-1.726892580E1,2.012870994E1
6.706467042E0,3.566811488E0,1.434156173E1,-2.122300482E1,2.586152490E1
6.716407042E0,6.148311591E0,1.677126928E1,-1.803730373E1,2.538545912E1
6.726346042E0,5.817694230E0,1.563755614E1,-1.001529925E1,1.945982907E1
6.736285042E0,5.346292289E0,1.437923417E1,-4.509525908E0,1.599002940E1
6.746224042E0,4.258214918E0,1.156883194E1,-1.957182508E0,1.248202028E1
6.756163042E0,2.811732464E0,7.858381264E0,-1.527620173E-1,8.347654268E0
6.766102042E0,1.509303185E0,4.353092424E0,8.739154959E-1,4.689470978E0
6.776041042E0,3.467334563E-1,9.891553456E-1,1.266891657E0,1.644283083E0
6.785980042E0,-4.976164708E-1,-1.818686382E0,1.423656532E0,2.362634171E0
6.795919042E0,-1.103134828E0,-4.303165973E0,1.126395929E0,4.582893369E0
6.805858042E0,-1.398584110E0,-6.335346478E0,8.255801455E-1,6.540201456E0
6.815798042E0,-1.543785385E0,-7.782367460E0,7.713788684E-1,7.971420322E0
6.825737042E0,-1.593094370E0,-8.811474491E0,7.273480920E-1,8.983822551E0
6.835676042E0,-1.371813218E0,-9.613016075E0,4.485165969E-1,9.720757003E0
6.845615042E0,-1.354384276E0,-1.009199952E1,2.603905463E-1,1.018580455E1
6.855554042E0,-1.399812610E0,-1.025564671E1,4.428424223E-1,1.036020628E1
6.865493042E0,-1.418911663E0,-1.041319643E1,6.243680263E-1,1.052795353E1
6.875432042E0,-1.523484583E0,-1.062407626E1,9.381530070E-1,1.077367777E1
6.885371042E0,-1.824381277E0,-1.097076820E1,1.780882963E0,1.126311085E1
6.895310042E0,-2.008694578E0,-1.115952568E1,2.311180984E0,1.157201040E1
6.905250042E0,-1.996937727E0,-1.117323857E1,2.158242381E0,1.155365875E1
6.915189042E0,-1.896723322E0,-1.121375276E1,2.009893842E0,1.154926333E1
6.925128042E0,-1.755965053E0,-1.106321502E1,1.799446703E0,1.134531393E1
6.935067042E0,-1.711856290E0,-1.097792753E1,1.600009872E0,1.122521164E1
6.945006042E0,-1.551394659E0,-1.096280546E1,1.476234841E0,1.117001335E1
6.954945042E0,-1.469348283E0,-1.098491963E1,1.270266670E0,1.115531358E1
6.964884042E0,-1.403715334E0,-1.092726609E1,1.198566942E0,1.108206315E1
6.974823042E0,-1.358818950E0,-1.085900686E1,1.086452429E0,1.099749052E1
6.984762042E0,-1.269269720E0,-1.080343492E1,9.776942182E-1,1.092159044E1
6.994702042E0,-1.154770054E0,-1.076874924E1,9.014102733E-1,1.086793424E1
7.004641042E0,-1.029768717E0,-1.072851338E1,7.472297215E-1,1.080369266E1
7.014580042E0,-9.530688887E-1,-1.071555010E1,6.260029078E-1,1.077604909E1
7.024519042E0,-9.031062582E-1,-1.069500766E1,5.661589944E-1,1.074799171E1
7.034458042E0,-7.699972444E-1,-1.057750319E1,4.801838378E-1,1.061635747E1
7.044397042E0,-6.826620620E-1,-1.049783020E1,5.396231238E-1,1.053383403E1
7.054336042E0,-5.284629453E-1,-1.024262847E1,7.021430111E-1,1.028025855E1
7.064275042E0,-4.854301424E-1,-9.521175613E0,8.821097839E-1,9.574264732E0
7.074214042E0,-7.674871809E-1,-9.325326049E0,9.600730491E-1,9.405981222E0
7.084153042E0,-9.278681201E-1,-9.302863970E0,1.004497855E0,9.402831128E0
7.094093042E0,-8.980688819E-1,-9.206908237E0,9.190817285E-1,9.296149645E0
7.104032042E0,-7.035095785E-1,-8.669157940E0,7.113593924E-1,8.726697961E0
7.113971042E0,-1.798053896E-1,-7.705666024E0,4.761200595E-1,7.722454866E0
7.123910042E0,4.450326943E0,2.646048101E0,-1.050997252E0,5.283140702E0
7.133849042E0,2.895147323E1,7.178074679E1,-6.123882508E-1,7.740179863E1
7.143788042E0,1.444752614E1,6.839420789E1,1.159692898E1,7.085892637E1
7.153727042E0,-7.173773468E-2,4.665522839E1,8.816942807E0,4.748109058E1
7.163666042E0,-3.953436404E0,2.675830426E1,8.070876682E-1,2.706081848E1
7.173606042E0,-1.151781031E0,1.860638751E1,-7.097880117E0,1.994753513E1
7.183545042E0,-1.695829364E0,1.936856739E1,-1.132181398E1,2.249890468E1
7.193484042E0,-2.984224741E0,1.870310747E1,-1.122866666E1,2.201805580E1
7.203423042E0,-3.889780106E0,1.526610943E1,-9.289409527E0,1.828872920E1
7.213362042E0,-4.363869427E0,1.185847611E1,-7.123102666E0,1.450535776E1
7.223301042E0,-4.195316712E0,9.510289267E0,-5.588144238E0,1.180142535E1
7.233240042E0,-3.599172611E0,6.552752388E0,-3.499281410E0,8.254548911E0
7.243179042E0,-2.448331812E0,3.521641163E0,-1.468712983E0,4.533586105E0
7.253118042E0,-1.304560297E0,5.259359980E-1,-4.347942781E-1,1.472254159E0
7.263057042E0,-6.171820175E-1,-2.107075151E0,-3.038096537E-2,2.195814732E0
7.272997042E0,-2.889348990E-1,-3.950923271E0,2.652033895E-1,3.970341409E0
7.282936042E0,-1.509748158E-1,-5.966141002E0,1.162197261E0,6.080159071E0
7.292875042E0,-4.502501502E-1,-7.846431894E0,1.066709890E0,7.931398909E0
7.302814042E0,-4.452715384E-1,-8.957485898E0,9.586065674E-1,9.019631196E0
7.312753042E0,-3.318921997E-1,-9.770772784E0,1.101788507E0,9.838297167E0
7.322692042E0,1.539405236E-1,-1.017436340E1,7.166476142E-1,1.020073292E1
7.332631042E0,4.568468327E-1,-1.039243647E1,4.094711566E-1,1.041052888E1
7.342570042E0,5.499658616E-1,-1.046878123E1,4.037017089E-1,1.049098746E1
7.352509042E0,6.719068397E-1,-1.056703433E1,5.932292640E-1,1.060497970E1
7.362449042E0,7.736165247E-1,-1.070313062E1,9.777877736E-1,1.077550725E1
7.372387917E0,5.298944168E-1,-1.081910780E1,1.017682157E0,1.087977751E1
7.382326917E0,5.955667616E-1,-1.087496976E1,9.545895302E-1,1.093301917E1
7.392265917E0,5.956571011E-1,-1.096228038E1,8.032109642E-1,1.100779480E1
7.402204917E0,6.852627573E-1,-1.097679200E1,5.642703438E-1,1.101262679E1
7.412143917E0,7.038422851E-1,-1.093384420E1,4.195119953E-1,1.096450333E1
7.422082917E0,7.540172426E-1,-1.087318285E1,5.971901679E-1,1.091564397E1
7.432021917E0,7.567326895E-1,-1.073978915E1,8.175658786E-1,1.079741308E1
7.441960917E0,6.920910627E-1,-1.066571896E1,8.747481394E-1,1.072388620E1
7.451900917E0,6.956976253E-1,-1.058030283E1,7.804442453E-1,1.063183411E1
7.461839917E0,6.589654166E-1,-1.053870808E1,8.291223156E-1,1.059179150E1
7.471778917E0,5.336680636E-1,-1.055029142E1,7.065412867E-1,1.058738169E1
7.481717917E0,4.366910784E-1,-1.060516286E1,7.110003734E-1,1.063793682E1
7.491656917E0,3.600834901E-1,-1.058765512E1,6.810041571E-1,1.061564260E1
7.501595917E0,3.227993408E-1,-1.060023482E1,6.136617744E-1,1.062288843E1
7.511534917E0,3.295563832E-1,-1.060802331E1,6.252182114E-1,1.063154099E1
7.521473917E0,3.361438563E-1,-1.058878714E1,7.863054943E-1,1.062326137E1
7.531412917E0,4.847520116E-1,-1.050464337E1,1.104991611E0,1.057371852E1
7.541351917E0,9.536010584E-1,-9.804451577E0,1.719359729E0,9.999641173E0
7.551291917E0,8.190747526E-1,-9.052928245E0,2.279887855E0,9.371461033E0
7.561230917E0,5.310350624E-1,-8.686082121E0,2.484046898E0,9.049890046E0
7.571169917E0,4.887564772E-1,-7.929543048E0,1.843023663E0,8.155566937E0
7.581108917E0,7.898728806E-1,-6.291977679E0,-3.192731774E-1,6.349395061E0
7.591047917E0,1.386342087E1,2.718321908E1,-3.885685301E0,3.076069551E1
7.600986917E0,3.130988919E1,1.136617984E2,1.368349035E1,1.186867789E2
7.610925917E0,-6.780787951E0,8.548909950E1,2.946966283E1,9.067980065E1
7.620864917E0,-7.370176179E0,2.802807625E1,6.303356946E-2,2.898096839E1
7.630803917E0,-3.342105037E0,1.060933894E1,-6.689523439E0,1.297988685E1
7.640743917E0,-2.858458734E0,1.147310718E1,-3.756252505E0,1.240614394E1
7.650682917E0,-3.965610599E0,1.487671878E1,-8.592864640E0,1.763179378E1
7.660621917E0,-5.331229277E0,1.245567563E1,-1.511477413E1,2.029833141E1
7.670560917E0,-5.195447574E0,5.993123564E0,-1.536549806E1,1.729186908E1
7.680499917E0,-3.874620615E0,1.556556289E0,-1.137741281E1,1.211945026E1
7.690438917E0,-2.020709144E0,-9.099653345E-1,-6.092674749E0,6.483208153E0
7.700377917E0,-6.459746575E-1,-2.664756852E0,-2.309670063E0,3.585078540E0
7.710316917E0,2.430634922E-1,-4.704538736E0,-6.315706265E-1,4.752961818E0
7.720255917E0,6.313767182E-1,-6.931331534E0,-5.044736467E-2,6.960211084E0
7.730195917E0,7.113404620E-1,-8.446693019E0,4.392725875E-1,8.487967284E0
7.740134917E0,7.049819074E-1,-9.456045817E0,1.362029364E0,9.579609907E0
7.750073917E0,1.416364762E0,-1.014477181E1,4.761253805E0,1.129566386E1
7.760012917E0,1.798722818E0,-1.046270948E1,5.416429056E0,1.191811215E1
7.769951917E0,1.199550152E0,-1.042502885E1,2.626605524E0,1.081754148E1
7.779890917E0,7.710632649E-1,-1.049904408E1,1.350564144E0,1.061359923E1
7.789829917E0,4.763548983E-1,-1.050747927E1,1.063637032E-1,1.051880924E1
7.799768917E0,4.113385015E-1,-1.058925141E1,-2.681936922E-1,1.060063077E1
7.809707917E0,4.133124849E-1,-1.068983989E1,-1.124162292E-1,1.069841771E1
7.819647917E0,4.070346218E-1,-1.079562070E1,2.026247334E-1,1.080519136E1
7.829586917E0,2.886425382E-1,-1.090128223E1,4.463764429E-1,1.091423477E1
7.839525917E0,1.004127726E-1,-1.094922472E1,4.476850498E-1,1.095883327E1
7.849464917E0,2.820258290E-2,-1.093984111E1,3.788118660E-1,1.094643400E1
7.859403917E0,-2.506438226E-2,-1.097340296E1,2.319853391E-1,1.097588347E1
7.869342917E0,-6.280494332E-3,-1.099574751E1,2.899786270E-1,1.099957228E1
7.879281917E0,-7.594509870E-2,-1.089847790E1,9.345253944E-2,1.089914316E1
7.889220917E0,-7.960048556E-2,-1.075407974E1,-3.821342540E-1,1.076116137E1
7.899159917E0,-9.367530009E-2,-1.074720225E1,-6.003172588E-1,1.076436306E1
7.909098917E0,-9.090781292E-2,-1.077317207E1,-7.132421958E-1,1.079713921E1
7.919038917E0,-5.943310987E-2,-1.078000045E1,-8.122004735E-1,1.081071744E1
7.928977917E0,-5.506176800E-2,-1.077866963E1,-7.623015046E-1,1.080573247E1
7.938916917E0,-5.581923824E-2,-1.079552481E1,-6.369372010E-1,1.081444223E1
7.948855917E0,7.886256695E-2,-1.071814276E1,-5.078926599E-1,1.073045938E1
7.958794917E0,2.483960980E-1,-1.063133733E1,-3.377538872E-1,1.063960111E1
7.968733917E0,3.375889957E-1,-9.986136847E0,-2.089724708E-1,9.994026463E0
7.978672917E0,-2.542891961E-2,-9.336759109E0,-2.391254107E-1,9.339855366E0
7.988611917E0,-2.442182807E-2,-9.292904407E0,-2.688140086E-1,9.296823636E0
7.998550917E0,-9.135952860E-2,-9.296545469E0,-6.634005296E-1,9.320633266E0
8.008490917E0,-1.403554316E-1,-8.957194122E0,-4.735320818E-1,8.970800344E0
8.018429917E0,3.580800148E-2,-7.865725366E0,-1.977913884E-1,7.868293283E0
8.028368917E0,5.635166962E0,6.142326965E0,-2.558470259E0,8.719464278E0
8.038307917E0,2.888800053E1,8.434839661E1,-1.147162900E0,8.916548978E1
8.048246917E0,-3.314346258E0,8.325709099E1,1.636782075E1,8.491544999E1
8.058185917E0,-1.180280126E1,4.366506054E1,1.319892223E1,4.711852266E1
8.068124917E0,-5.456765488E0,1.750668061E1,-2.729855658E0,1.853947862E1
8.078063917E0,-6.458262552E0,1.643506841E1,-5.843999684E0,1.860034842E1
8.088002917E0,-7.846645317E0,1.810519926E1,-6.443404777E0,2.075778283E1
8.097942917E0,-6.433884341E0,1.697977163E1,-7.590156033E0,1.968039586E1
8.107881917E0,-4.730695378E0,1.266441889E1,-6.099534702E0,1.483142974E1
8.117820917E0,-3.549172193E0,8.635025988E0,-3.881516236E0,1.011071043E1
8.127759917E0,-2.421057475E0,5.338579811E0,-2.804247444E0,6.498134919E0
8.137698917E0,-1.282025421E0,2.481809753E0,-1.760250478E0,3.301734480E0
8.147637917E0,-4.902717832E-1,3.989555240E-3,-8.773758781E-1,1.005072519E0
8.157576917E0,-1.913080323E-1,-2.275577288E0,-1.948537838E-1,2.291902867E0
8.167515917E0,-1.730056626E-1,-4.152145257E0,5.838269413E-2,4.156158050E0
8.177454917E0,-1.247532330E-1,-5.983587924E0,1.129898228E-1,5.985954771E0
8.187393917E0,-4.069866747E-2,-7.557146747E0,5.171452940E-1,7.574929873E0
8.197333917E0,-1.359016440E-1,-9.189197606E0,1.567221025E0,9.322875288E0
8.207272917E0,-4.056759482E-1,-1.027637392E1,3.344283417E0,1.081446557E1
8.217211917E0,-6.414049854E-1,-1.080292972E1,3.578505335E0,1.139826265E1
8.227150917E0,-2.372077981E-1,-1.088429022E1,2.262419883E0,1.111946873E1
8.237089917E0,2.424127702E-1,-1.092412262E1,1.594698261E0,1.104256680E1
8.247028917E0,5.220760316E-1,-1.098413260E1,1.463893708E0,1.109354394E1
8.256967917E0,4.184505064E-1,-1.102889420E1,1.056328159E0,1.108726465E1
8.266906917E0,6.654461780E-1,-1.101066960E1,4.828174603E-1,1.104132131E1
8.276845917E0,6.826861086E-1,-1.090770949E1,-5.633114004E-1,1.094356004E1
8.286784917E0,7.539274147E-1,-1.085884899E1,-5.173066771E-1,1.089727553E1
8.296724917E0,8.336612168E-1,-1.078819591E1,-1.484374166E-2,1.082036886E1
8.306663917E0,9.071588903E-1,-1.067840508E1,1.492326744E-1,1.071790757E1
8.316602917E0,9.711910180E-1,-1.059870051E1,-1.735944954E-1,1.064451970E1
8.326541917E0,1.053135287E0,-1.060676967E1,-6.024935925E-1,1.067593815E1
8.336480917E0,1.091866074E0,-1.066097804E1,-6.928868687E-1,1.073912084E1
8.346419917E0,1.058443682E0,-1.062229520E1,-7.419596261E-1,1.070065243E1
8.356358917E0,1.100274955E0,-1.066161188E1,-9.480663764E-1,1.076008377E1
8.366298792E0,1.138823893E0,-1.072721764E1,-1.038891177E0,1.083740804E1
8.376237792E0,1.187665174E0,-1.072457703E1,-9.430184752E-1,1.083126885E1
8.386177792E0,1.226222006E0,-1.064815860E1,-8.313746631E-1,1.075072490E1
8.396116792E0,1.218096716E0,-1.056753953E1,-7.920832012E-1,1.066696054E1
8.406055792E0,1.219151846E0,-1.050052693E1,-7.718313698E-1,1.059920378E1
8.415994792E0,1.336057202E0,-1.040456126E1,-6.151482097E-1,1.050801366E1
8.425933792E0,1.361635262E0,-1.013561741E1,-7.219188792E-1,1.025211967E1
8.435872792E0,9.979955316E-1,-9.477266532E0,-6.720749471E-1,9.553337675E0
8.445811792E0,7.803895739E-1,-9.137794733E0,-4.328132415E-1,9.181265042E0
8.455750792E0,7.390580184E-1,-8.989216983E0,-5.045276604E-1,9.033646932E0
8.465689792E0,8.092613706E-1,-8.570600781E0,2.949826741E-1,8.613774811E0
8.475629792E0,9.106848344E-1,-7.796151102E0,1.649176769E0,8.020542555E0
8.485568792E0,6.633022964E-1,-6.470289690E0,8.050194349E-1,6.553829026E0
8.495507792E0,-6.847171390E-1,3.930920764E1,-8.304706836E-1,3.932394086E1
8.505446792E0,-8.581966015E0,1.034574809E2,1.699274660E1,1.051943627E2
8.515385792E0,-6.972674273E0,6.102060699E1,1.803998994E1,6.401229493E1
8.525324792E0,-3.628297300E0,2.991828928E1,1.883647778E0,3.019630282E1
8.535263792E0,-9.293982634E-1,1.439399722E1,6.194534415E-1,1.443726635E1
8.545202792E0,7.798101148E-1,1.217331593E1,-6.986060303E-1,1.221825580E1
8.555141792E0,1.359691940E0,1.311849963E1,-2.619108224E0,1.344632004E1
8.565081792E0,-3.909503934E-1,1.299487779E1,-2.024472120E0,1.315743814E1
8.575020792E0,-2.324659985E0,1.181969270E1,1.123600887E0,1.209841554E1
8.584959792E0,-2.539499260E0,9.338722020E0,2.169535108E0,9.918047592E0
8.594898792E0,-1.501238997E0,5.917585139E0,1.036994267E0,6.192486537E0
8.604837792E0,-8.287158611E-1,2.604755648E0,-1.333148358E-1,2.736657599E0
8.614776792E0,-4.814538165E-1,-4.430756897E-1,-8.839260022E-1,1.099744980E0
8.624715792E0,-1.808396890E-1,-3.076396741E0,-1.367591382E0,3.371531712E0
8.634654792E0,4.870879012E-1,-5.474876654E0,-1.488374100E0,5.694452253E0
8.644593792E0,9.119828432E-1,-7.445285418E0,-1.469486424E0,7.643518693E0
8.654532792E0,1.169381150E0,-8.696315918E0,-1.644424152E0,8.927345272E0
8.664472792E0,1.235082512E0,-9.527455523E0,-1.356018426E0,9.702402977E0
8.674411792E0,1.261224828E0,-9.894137925E0,-1.295795029E0,1.005801860E1
8.684350792E0,1.205013936E0,-1.009561310E1,-1.348488674E0,1.025630948E1
8.694289792E0,1.086150640E0,-1.015263631E1,-1.391115607E0,1.030489932E1
8.704228792E0,9.235809416E-1,-1.023303436E1,-1.480202762E0,1.038070297E1
8.714167792E0,8.627945302E-1,-1.032523092E1,-1.487850043E0,1.046749758E1
8.724106792E0,8.806066840E-1,-1.045415383E1,-1.301316993E0,1.057157635E1
8.734045792E0,9.985017543E-1,-1.051936432E1,-9.469611065E-1,1.060899462E1
8.743984792E0,1.063894456E0,-1.059723637E1,-6.516593206E-1,1.067042408E1
8.753924792E0,1.020787905E0,-1.062835525E1,-7.210646740E-1,1.070158295E1
8.763863792E0,8.710953838E-1,-1.062857745E1,-1.047833982E0,1.071556913E1
8.773802792E0,6.907337777E-1,-1.058383572E1,-1.460105443E0,1.070638126E1
8.783741792E0,5.520394670E-1,-1.057569523E1,-1.650250318E0,1.071790107E1
8.793680792E0,4.952109262E-1,-1.054277657E1,-1.585442119E0,1.067281586E1
8.803619792E0,4.458428479E-1,-1.051528414E1,-1.494796243E0,1.063035240E1
8.813558792E0,4.129739311E-1,-1.047144522E1,-1.380173859E0,1.057008005E1
8.823497792E0,3.764536840E-1,-1.041588849E1,-1.301389060E0,1.050362146E1
8.833436792E0,3.738575202E-1,-1.035221815E1,-1.226865127E0,1.043136560E1
8.843375792E0,3.661503053E-1,-1.030598188E1,-1.151626664E0,1.037658771E1
8.853315792E0,3.735239366E-1,-1.030311324E1,-1.010228053E0,1.035925785E1
8.863254792E0,4.602396065E-1,-1.027513899E1,-7.397195578E-1,1.031200692E1
8.873193792E0,5.403789130E-1,-1.021379351E1,-5.638797498E-1,1.024361009E1
8.883132792E0,6.377090335E-1,-9.836003737E0,-3.985011222E-1,9.864707065E0
8.893071792E0,4.621627557E-1,-9.359600673E0,-5.755816363E-2,9.371180935E0
8.903010792E0,1.263217669E-1,-9.081752679E0,2.860118028E-1,9.087133303E0
8.912949792E0,-2.057848977E-1,-8.677167456E0,3.504948970E-1,8.686681136E0
8.922888792E0,-1.954966852E-1,-7.852392545E0,2.599157524E-1,7.859124877E0
8.932827792E0,4.461330526E0,5.130519506E0,-1.404735088E0,6.942548605E0
8.942767792E0,2.866456439E1,8.802383474E1,5.041104469E0,9.271065456E1
8.952706792E0,2.095554382E0,7.891073865E1,1.912573486E1,8.122247076E1
8.962645792E0,-8.413221803E0,4.460738846E1,2.110423851E1,5.005986705E1
8.972584792E0,-5.030240343E0,1.988110858E1,3.908515170E0,2.087674034E1
8.982523792E0,-4.346251767E0,1.396948234E1,-1.253571554E0,1.468358890E1
8.992462792E0,-3.892137996E0,1.481987332E1,-2.370060691E0,1.550466288E1
9.002401792E0,-3.506230241E0,1.368131284E1,-3.958291347E0,1.466765292E1
9.012340792E0,-3.841895795E0,1.061135155E1,-3.866302950E0,1.192934380E1
9.022279792E0,-3.457462416E0,6.193180200E0,-3.186917303E0,7.775986705E0
9.032219792E0,-2.475227543E0,2.293008422E0,-3.045193659E0,4.545090036E0
9.042158792E0,-1.578107079E0,-7.082451653E-1,-2.961224134E0,3.429414168E0
9.052097792E0,-6.783837274E-1,-3.132697241E0,-1.928754954E0,3.740867835E0
9.062036792E0,-1.435678554E-1,-4.958520734E0,-9.294792473E-1,5.046926914E0
9.071975792E0,2.161049044E-1,-6.780067574E0,-5.081674790E-1,6.802518050E0
9.081914792E0,3.965748301E-1,-8.219997638E0,-3.734452915E-1,8.238027321E0
9.091853792E0,5.704666382E-1,-9.226656039E0,-5.544142771E-1,9.260884895E0
9.101792792E0,6.101698172E-1,-9.954415702E0,-8.212151259E-1,1.000685232E1
9.111731792E0,4.308544242E-1,-1.039677979E1,-1.185265111E0,1.047298997E1
9.121670792E0,3.111668900E-1,-1.051125657E1,-1.264235852E0,1.059158307E1
9.131610792E0,3.383591105E-1,-1.057121626E1,-9.116529141E-1,1.061584717E1
9.141549792E0,3.928426255E-1,-1.071018353E1,-4.573208226E-1,1.072713843E1
9.151488792E0,3.865846064E-1,-1.082844229E1,-1.569352482E-1,1.083647723E1
9.161427792E0,4.374521666E-1,-1.087729578E1,1.806976017E-1,1.088758833E1
9.171366792E0,4.240178962E-1,-1.093844245E1,6.782721917E-1,1.096765096E1
9.181305792E0,4.417779367E-1,-1.092244447E1,7.496293458E-1,1.095704820E1
9.191244792E0,4.136650355E-1,-1.091635986E1,6.628942338E-1,1.094428893E1
9.201183792E0,3.341456069E-1,-1.085307311E1,2.702009317E-1,1.086157713E1
9.211122792E0,1.796513155E-1,-1.085983950E1,1.038769555E-1,1.086182209E1
9.221061792E0,1.280706691E-1,-1.086034236E1,8.756863251E-3,1.086110101E1
9.231001792E0,1.516896470E-1,-1.079610719E1,-1.923927639E-1,1.079888676E1
9.240940792E0,1.051399541E-1,-1.074978321E1,-4.327360582E-1,1.075900339E1
9.250879792E0,1.561075017E-1,-1.070204186E1,-7.761694191E-1,1.073128644E1
9.260818792E0,1.792045882E-1,-1.065868008E1,-1.085017523E0,1.071526194E1
9.270757792E0,2.001966771E-1,-1.064834337E1,-1.403869700E0,1.074235288E1
9.280696792E0,2.410026410E-1,-1.061570656E1,-1.730130885E0,1.075846926E1
9.290635792E0,2.197377795E-1,-1.062792256E1,-1.780522774E0,1.077827834E1
9.300574792E0,2.374086499E-1,-1.062567255E1,-1.672922458E0,1.075917978E1
9.310513792E0,3.438902476E-1,-1.050955737E1,-1.600429702E0,1.063627904E1
9.320452792E0,5.159042224E-1,-1.018933110E1,-1.501643332E0,1.031230130E1
9.330392792E0,2.424550894E-1,-9.478190392E0,-1.372763683E0,9.580154368E0
9.340331792E0,-1.031767514E-1,-9.305990476E0,-9.716563833E-1,9.357148086E0
9.350270792E0,-7.772205840E-2,-9.124875895E0,-6.256718823E-1,9.146631408E0
9.360209792E0,-2.830313673E-2,-8.753413394E0,-5.940957483E-1,8.773596576E0
9.370147833E0,7.964258552E-2,-7.728487122E0,-4.870537680E-1,7.744228658E0
9.380086833E0,1.100842076E1,4.992791031E1,-3.504165004E0,5.124705580E1
9.390025833E0,4.629803719E0,1.083690953E2,8.608262697E0,1.088089982E2
9.399964833E0,-4.781326711E-1,7.424057686E1,1.728902619E1,7.622861858E1
9.409903833E0,-2.773106343E0,3.029140479E1,-1.093879490E0,3.043773802E1
9.419843833E0,-5.232417179E0,1.312404980E1,-6.722953872E-1,1.414464047E1
9.429782833E0,-4.025951234E0,1.485878888E1,-1.489507290E-1,1.539526150E1
9.439721833E0,-2.979606318E0,1.561473446E1,-1.057347913E0,1.593160289E1
9.449660833E0,-1.686111292E0,1.245974062E1,-2.752128872E0,1.287098756E1
9.459599833E0,-9.271459159E-1,8.109467136E0,-3.135679906E0,8.743886164E0
9.469538833E0,-2.878636891E-1,4.474138559E0,-2.291671164E0,5.035130393E0
9.479477833E0,-6.685735613E-2,1.127730263E0,-1.346375198E0,1.757547049E0
9.489416833E0,-4.344715118E-2,-2.002204168E0,-7.066734338E-1,2.123698785E0
9.499355833E0,-1.318073597E-1,-4.577564694E0,-4.836501404E-1,4.604930962E0
9.509294833E0,-3.414390948E-1,-6.329022714E0,-1.005873485E-1,6.339024135E0
9.519234833E0,-4.365072200E-1,-7.650500468E0,-1.123566607E-1,7.663766697E0
9.529173833E0,-5.105607444E-1,-8.804691136E0,-6.975604020E-2,8.819757604E0
9.539112833E0,-4.467948112E-1,-9.828345054E0,3.550202765E-2,9.838559473E0
9.549051833E0,-1.879409131E-1,-1.021044306E1,-2.518021560E-1,1.021527648E1
9.558990833E0,-1.197208634E-1,-1.026408190E1,-2.982934407E-1,1.026911337E1
9.568929833E0,-1.709769711E-1,-1.035643751E1,-1.811273720E-1,1.035943232E1
9.578868833E0,-1.752118170E-1,-1.035893661E1,-4.179321142E-1,1.036884439E1
9.588807833E0,-7.910464168E-2,-1.034138677E1,-5.776534510E-1,1.035780968E1
9.598746833E0,6.745055616E-2,-1.041780169E1,-5.021729136E-1,1.043011598E1
9.608686833E0,1.773036584E-1,-1.051103204E1,-4.888950928E-1,1.052388947E1
9.618625833E0,1.216396272E-1,-1.053949512E1,-4.301679611E-1,1.054897142E1
9.628564833E0,1.036731800E-1,-1.051430297E1,-4.369916618E-1,1.052389077E1
9.638503833E0,4.185494523E-2,-1.059637917E1,-2.176649415E-1,1.059869715E1
9.648442833E0,-7.951218347E-2,-1.078907767E1,7.684761643E-2,1.078964433E1
9.658381833E0,-4.365107283E-1,-1.124840336E1,4.959292567E-1,1.126778885E1
9.668320833E0,-5.750046623E-1,-1.151893765E1,7.189175034E-1,1.155566516E1
9.678259833E0,-5.359905776E-1,-1.157120240E1,7.331168818E-1,1.160678557E1
9.688198833E0,-4.981052980E-1,-1.166319899E1,8.649049366E-1,1.170582676E1
9.698137833E0,-3.559843361E-1,-1.177945684E1,1.219074297E0,1.184772005E1
9.708077833E0,-2.181522704E-1,-1.198918711E1,1.669857202E0,1.210688321E1
9.718016833E0,-6.031256765E-2,-1.214943707E1,1.721765274E0,1.227097936E1
9.727955833E0,1.033477825E-1,-1.233503939E1,1.605696874E0,1.243953938E1
9.737894833E0,2.321344614E-1,-1.227299107E1,1.404756138E0,1.235530397E1
9.747833833E0,2.585460421E-1,-1.211867487E1,1.389279728E0,1.220078787E1
9.757772833E0,3.758934476E-1,-1.206795144E1,1.338560979E0,1.214777730E1
9.767711833E0,7.152673790E-1,-1.159765521E1,1.153429946E0,1.167679812E1
9.777650833E0,7.172902232E-1,-9.634794030E0,1.149836247E0,9.729639493E0
9.787589833E0,-2.131369674E-1,-8.749522072E0,1.920412731E0,8.960331965E0
9.797528833E0,2.709192621E-1,-8.454617751E0,3.621315140E0,9.201515196E0
9.807468833E0,1.015875659E0,-8.076820377E0,4.924958886E0,9.514318198E0
9.817407833E0,6.367883894E-1,-7.494775082E0,2.900441158E0,8.061619682E0
9.827346833E0,-6.166833231E-1,-5.796215653E0,-1.260024687E0,5.963562394E0
9.837285833E0,1.032733240E1,7.315294330E1,4.394394232E0,7.400890222E1
9.847224833E0,4.536815741E0,1.622185648E2,3.916000775E1,1.669399642E2
9.857163833E0,-2.061711867E0,5.853851541E1,1.133923517E1,5.966227197E1
9.867102833E0,-2.057044912E0,1.048544930E1,-5.288488469E0,1.192242388E1
9.877041833E0,-3.815823645E0,7.739006263E0,-3.833946798E0,9.442027117E0
9.886980833E0,-1.953837170E0,1.016795953E1,-5.982438362E0,1.195802866E1
9.896920833E0,1.671163470E-2,1.284640296E1,-1.078242939E1,1.677173609E1
9.906859833E0,-2.547552922E-1,9.732075326E0,-1.435857478E1,1.734782004E1
9.916798833E0,-1.594459695E-1,3.444640349E0,-1.394927320E1,1.436917509E1
9.926737833E0,4.634137675E-1,-8.885078073E-1,-1.177119940E1,1.181377729E1
9.936676833E0,7.951748434E-1,-3.409492151E0,-8.410245570E0,9.109839203E0
9.946615833E0,1.713447610E-1,-5.007994026E0,-5.888671242E0,7.732128568E0
9.956554833E0,-7.199939758E-2,-6.689888890E0,-3.857852554E0,7.722876641E0
9.966493833E0,-4.344335049E-2,-7.960333316E0,-2.535709387E0,8.354556596E0
9.976432833E0,-4.307088286E-2,-8.811525947E0,-1.628042593E0,8.960768231E0
9.986371833E0,-1.467271060E-2,-9.385795614E0,-8.291848809E-1,9.422362876E0
9.996311833E0,-2.048864365E-2,-9.838542598E0,-3.920499623E-1,9.846372094E0
1.000625083E1,-3.259121060E-2,-9.942812487E0,-1.354628105E-2,9.942875129E0
1.001618983E1,-1.888033774E-1,-1.010162988E1,7.354241201E-1,1.013012446E1
1.002612883E1,-4.904471996E-1,-1.042147609E1,2.034284917E0,1.062948810E1
1.003606783E1,-9.131248775E-1,-1.088178527E1,3.880383046E0,1.158897840E1
1.004600683E1,-6.642852134E-1,-1.097976005E1,4.304432480E0,1.181205082E1
1.005594583E1,-3.698463303E-1,-1.093187252E1,3.953846878E0,1.163080085E1
1.006588483E1,-2.672434831E-1,-1.090234642E1,3.282087754E0,1.138879610E1
1.007582383E1,-5.309666499E-1,-1.124151300E1,2.543295565E0,1.153784609E1
1.008576383E1,-8.135061568E-1,-1.155011150E1,1.631688917E0,1.169312946E1
1.009570283E1,-8.619099927E-1,-1.150725492E1,1.579575022E0,1.164709671E1
1.010564183E1,-7.651224938E-1,-1.146818265E1,1.876459211E0,1.164584582E1
1.011558083E1,-7.989574803E-1,-1.129257322E1,1.977683870E0,1.149224854E1
1.012551983E1,-8.108620459E-1,-1.116515772E1,2.117865018E0,1.139313812E1
1.013545883E1,-8.208653893E-1,-1.110259602E1,2.270748657E0,1.136211942E1
1.014539783E1,-8.907640285E-1,-1.104001795E1,2.373230467E0,1.132729799E1
1.015533683E1,-7.123302495E-1,-1.094522990E1,2.148974544E0,1.117692102E1
1.016527583E1,-5.321600667E-1,-1.089787681E1,1.762547264E0,1.105230683E1
1.017521483E1,-4.641068088E-1,-1.088206594E1,1.342794363E0,1.097441802E1
1.018515483E1,-3.901686937E-1,-1.083098817E1,1.041939915E0,1.088798306E1
1.019509383E1,-2.306642521E-1,-1.071387546E1,7.766575885E-1,1.074446510E1
1.020503283E1,-1.948954453E-1,-1.058965604E1,5.967130351E-1,1.060824518E1
1.021497183E1,3.186769076E-2,-1.029867052E1,6.312735879E-1,1.031804906E1
1.022491083E1,2.234938847E-1,-9.273006917E0,8.585934520E-1,9.315352356E0
1.023484983E1,-3.248076401E-1,-8.938528056E0,1.098280177E0,9.011603806E0
1.024478883E1,-6.610137693E-1,-9.045625657E0,6.824115819E-1,9.095381702E0
1.025472783E1,-9.520525695E-1,-9.054896418E0,3.050036323E-1,9.109916599E0
1.026466683E1,-1.385658840E0,-9.008153191E0,2.812627216E-2,9.114146445E0
1.027460583E1,-1.337518567E0,-8.572062001E0,3.863185215E-1,8.684379360E0
1.028454583E1,1.986362775E1,6.515627246E1,1.057611623E0,6.812504745E1
1.029448483E1,1.383872223E1,1.393008568E2,6.366498688E0,1.401312643E2
1.030442383E1,2.587936425E0,7.252368466E1,4.057448430E0,7.268318333E1
1.031436283E1,-2.333304801E0,1.171075790E1,-3.041401155E0,1.232218661E1
1.032430183E1,-5.634017984E0,5.418765603E0,-6.118566220E0,9.926833931E0
1.033424083E1,-5.156199893E0,1.074812377E1,-9.318763719E0,1.513102505E1
1.034417983E1,-5.176100307E0,1.257814907E1,-1.095945735E1,1.746744268E1
1.035411883E1,-4.877467508E0,8.385628792E0,-9.098587983E0,1.330010386E1
1.036405783E1,-3.628299931E0,3.446294526E0,-4.900005308E0,7.003681773E0
1.037399792E1,-2.316014585E0,2.087993932E-1,-1.974031699E0,3.050298656E0
1.038393792E1,-1.660657777E0,-2.605637993E0,-8.017947686E-1,3.192179264E0
1.039387692E1,-9.562244117E-1,-5.389813700E0,-8.554366133E-1,5.540417732E0
1.040381592E1,-4.375234661E-1,-7.070498775E0,-8.938615910E-1,7.140193853E0
1.041375492E1,-4.303052793E-2,-8.127229223E0,-8.583058421E-1,8.172539103E0
1.042369392E1,1.254774472E-1,-9.209589186E0,-4.450959027E-1,9.221192326E0
1.043363292E1,1.809838960E-1,-9.844723105E0,2.401112330E-1,9.849313763E0
1.044357192E1,2.405059018E-1,-1.005126430E1,7.362020190E-1,1.008105900E1
1.045351092E1,2.647133929E-1,-1.010528790E1,5.070097303E-1,1.012146114E1
1.046344992E1,2.859560715E-1,-1.008328249E1,-3.673944466E-2,1.008740335E1
1.047338892E1,3.391759300E-1,-1.012515089E1,-1.997339431E-1,1.013279895E1
1.048332892E1,3.957634924E-1,-1.017399268E1,-2.571006104E-2,1.018171974E1
1.049326792E1,4.888138530E-1,-1.035363669E1,5.245453839E-1,1.037843339E1
1.050320692E1,5.346889874E-1,-1.046159266E1,6.069661278E-1,1.049281760E1
1.051314592E1,5.133317399E-1,-1.040408647E1,8.310062885E-3,1.041674583E1
1.052308492E1,5.340197736E-1,-1.039462099E1,-2.179923856E-1,1.041061206E1
1.053302392E1,5.679450265E-1,-1.035766425E1,-3.008450925E-1,1.037758537E1
1.054296292E1,5.564964706E-1,-1.025042047E1,-4.201493418E-1,1.027410987E1
1.055290192E1,5.189342496E-1,-1.019017193E1,-5.850846773E-1,1.022013800E1
1.056284092E1,5.166026358E-1,-1.019819314E1,-5.520279553E-1,1.022617995E1
1.057277992E1,4.868204641E-1,-1.027671774E1,-4.200230420E-1,1.029681217E1
1.058271992E1,5.453809136E-1,-1.052223764E1,-8.151537560E-2,1.053667738E1
1.059265892E1,7.630660281E-1,-1.056475743E1,2.044935036E-1,1.059425254E1
1.060259792E1,9.063131636E-1,-1.061006516E1,6.627327776E-1,1.066930649E1
1.061253692E1,1.032369485E0,-1.077765104E1,9.229531699E-1,1.086625010E1
1.062247592E1,1.016063355E0,-1.085881273E1,6.399795073E-1,1.092500675E1
1.063241492E1,1.102440179E0,-1.092890214E1,6.418512011E-1,1.100310180E1
1.064235392E1,1.102870241E0,-1.096416786E1,5.946828818E-1,1.103553114E1
1.065229292E1,1.099181525E0,-1.100998665E1,5.506884313E-1,1.107841431E1
1.066223192E1,1.162040555E0,-1.113691683E1,4.782770973E-1,1.120758689E1
1.067217092E1,1.822227455E0,-1.047023719E1,4.957971096E-1,1.063918204E1
1.068211092E1,2.476701918E0,-8.556919466E0,9.447743940E-1,8.958098113E0
1.069204992E1,2.028113181E0,-7.970497531E0,1.981782768E0,8.459878067E0
1.070198892E1,1.692853716E0,-7.420831193E0,3.684887238E0,8.456529031E0
1.071192792E1,1.549312173E0,-6.725144092E0,3.055756069E0,7.547554334E0
1.072186692E1,1.522875449E0,-5.790449713E0,7.890899384E-1,6.039132425E0
1.073180592E1,2.594299365E0,-3.041532133E0,5.262715916E-1,4.032154349E0
1.074174492E1,3.936733365E1,1.013490405E2,2.456671404E1,1.114672077E2
1.075168392E1,1.619534543E1,1.356081389E2,3.144287826E1,1.401446080E2
1.076162292E1,-5.954150117E0,5.748610079E1,7.364206318E-1,5.779832180E1
1.077156292E1,-7.330430900E0,1.226922547E1,-2.996496878E0,1.460301696E1
1.078150192E1,-6.868683296E0,7.112507511E0,-1.518531260E0,1.000362487E1
1.079144092E1,-7.290844665E0,7.397508404E0,-3.136414901E0,1.084973018E1
1.080137992E1,-8.197754245E0,8.366678551E0,-9.043622986E0,1.479836482E1
1.081131892E1,-5.054816190E0,5.782892187E0,-1.523381760E1,1.706054534E1
1.082125792E1,-6.177495629E-2,9.456731111E-1,-1.641217188E1,1.643951033E1
1.083119692E1,1.438895253E0,-3.215316644E0,-1.504883391E1,1.545561655E1
1.084113592E1,3.002543776E-1,-5.768300461E0,-1.160813576E1,1.296581115E1
1.085107492E1,-9.710599673E-1,-6.885166597E0,-6.843825613E0,9.756353087E0
1.086101392E1,-8.293870483E-1,-7.045389077E0,-3.453157403E0,7.889847031E0
1.087095392E1,-3.829780072E-3,-7.882260708E0,-2.143848875E0,8.168606768E0
1.088089292E1,5.884867336E-1,-8.762052070E0,-1.475114515E0,8.904820939E0
1.089083192E1,1.010209561E0,-9.495946632E0,-1.072061262E0,9.609518258E0
1.090077092E1,1.245800896E0,-9.804944497E0,-6.199639034E-1,9.903197045E0
1.091070992E1,1.391378732E0,-9.881198037E0,-4.138980836E-1,9.987257934E0
1.092064892E1,1.427315573E0,-9.878514165E0,-2.081977147E-1,9.983266907E0
1.093058792E1,1.162376624E0,-1.015303509E1,8.927084470E-1,1.025827322E1
1.094052692E1,9.892046084E-1,-1.045562032E1,1.737790738E0,1.064511337E1
1.095046592E1,9.496115032E-1,-1.067676786E1,1.768095102E0,1.086376059E1
1.096040492E1,8.238997288E-1,-1.080622054E1,1.753610380E0,1.097854100E1
1.097034492E1,1.041431792E0,-1.092299879E1,2.086589431E0,1.116916909E1
1.098028392E1,1.054269939E0,-1.120257288E1,2.595384316E0,1.154751679E1
1.099022292E1,9.619149220E-1,-1.160575009E1,2.759044958E0,1.196791731E1
1.100016192E1,1.154702300E0,-1.168438345E1,3.120380082E0,1.214886521E1
1.101010092E1,1.399807055E0,-1.138776005E1,3.093843663E0,1.188328268E1
1.102003992E1,1.273420950E0,-1.107219517E1,2.451601868E0,1.141163698E1
1.102997892E1,1.130239011E0,-1.095124786E1,1.768132524E0,1.115049606E1
1.103991792E1,9.970754723E-1,-1.095231907E1,1.304137251E0,1.107466597E1
1.104985692E1,8.557268545E-1,-1.099297008E1,1.144495400E0,1.108546478E1
1.105979592E1,7.463225260E-1,-1.091347017E1,1.266320969E0,1.101201150E1
1.106973592E1,6.862523255E-1,-1.080380096E1,1.765549225E0,1.096860162E1
1.107967492E1,8.363766637E-1,-1.077495781E1,2.337960062E0,1.105736402E1
1.108961392E1,1.007643072E0,-1.072491968E1,2.620124470E0,1.108622113E1
1.109955292E1,9.286369559E-1,-1.065223060E1,2.155433378E0,1.090771637E1
1.110949192E1,7.773113072E-1,-1.058458884E1,1.574409592E0,1.072923573E1
1.111943092E1,7.477670807E-1,-1.049280042E1,1.327682819E0,1.060286555E1
1.112936992E1,8.022558215E-1,-1.032406498E1,1.194179192E0,1.042381869E1
1.113930892E1,1.039478530E0,-9.414023048E0,1.333745213E0,9.564686187E0
1.114924792E1,6.817920694E-1,-8.771405277E0,1.723539319E0,8.965097810E0
1.115918692E1,6.206654962E-1,-8.470264315E0,2.046208559E0,8.735992943E0
1.116912692E1,3.836717428E-1,-8.046417194E0,1.626646863E0,8.218151476E0
1.117906592E1,8.630497612E-2,-7.079892912E0,5.229480708E-1,7.099704704E0
1.118900492E1,1.083576769E0,-3.240936220E0,-3.398162001E-1,3.434134715E0
1.119894392E1,3.387673734E1,1.235658030E2,1.893650142E1,1.295173042E2
1.120888292E1,8.322529149E0,1.281448932E2,2.712959543E1,1.312493546E2
1.121882192E1,-3.815492401E-1,3.490446735E1,6.330499721E-1,3.491229258E1
1.122876092E1,-3.019780198E0,7.439021881E0,-3.168907878E0,8.631343819E0
1.123869992E1,-5.603729407E0,8.109261314E0,-3.010769931E0,1.030663077E1
1.124863892E1,-4.941145148E0,1.106394943E1,-6.895658841E0,1.394187947E1
1.125857892E1,-3.756792495E0,1.299146068E1,-1.088553802E1,1.736048612E1
1.126851792E1,-2.222039012E0,9.332750843E0,-1.232680534E1,1.562010965E1
1.127845692E1,-6.396634653E-1,3.798600964E0,-1.086992010E1,1.153228953E1
1.128839592E1,-4.980444869E-1,-7.087445176E-1,-8.408713599E0,8.453214270E0
1.129833492E1,-1.144969427E-1,-3.140204481E0,-6.014085832E0,6.785515612E0
1.130827392E1,2.717379454E-1,-4.864381732E0,-3.871787639E0,6.223085301E0
1.131821292E1,2.683807848E-1,-6.501842435E0,-2.315248307E0,6.906978936E0
1.132815192E1,3.575127983E-1,-7.992035165E0,-1.393729459E0,8.120524816E0
1.133809092E1,3.143115225E-1,-9.047835320E0,-8.363880658E-1,9.091845836E0
1.134802992E1,1.554046664E-1,-9.746332008E0,-4.180630553E-1,9.756531911E0
1.135796992E1,1.454208380E-1,-9.981836804E0,-3.229042983E-1,9.988116959E0
1.136790842E1,1.537396717E-1,-9.994750965E0,-2.704348934E-1,9.999590880E0
1.137784742E1,1.196778681E-1,-1.001629912E1,-4.236909638E-1,1.002597052E1
1.138778642E1,1.284995989E-1,-1.003302099E1,-1.688424816E-1,1.003526433E1
1.139772542E1,1.646833388E-1,-1.010886990E1,4.884061925E-1,1.012200138E1
1.140766442E1,5.359674811E-2,-1.027204464E1,1.117565464E0,1.033279857E1
1.141760342E1,5.301935384E-2,-1.061190587E1,3.008029926E0,1.103012245E1
1.142754242E1,1.985243917E-1,-1.074743497E1,3.314526937E0,1.124868255E1
1.143748142E1,3.289172825E-1,-1.059708200E1,2.198872343E0,1.082780556E1
1.144742042E1,2.125386876E-1,-1.051454271E1,1.278289050E0,1.059409288E1
1.145736042E1,1.192294141E-1,-1.051123085E1,9.752570987E-1,1.055705053E1
1.146729942E1,6.159515897E-2,-1.059771701E1,7.664927888E-1,1.062557815E1
1.147723842E1,-9.953656733E-2,-1.092435534E1,4.477552529E-1,1.093398061E1
1.148717742E1,-1.912106761E-1,-1.107694194E1,3.896853117E-1,1.108544356E1
1.149711642E1,-1.543509981E-1,-1.100140410E1,6.901503718E-1,1.102411103E1
1.150705542E1,-9.551982254E-2,-1.086542593E1,1.014985421E0,1.091314804E1
1.151699442E1,8.414691500E-2,-1.074589130E1,1.118433264E0,1.080426553E1
1.152693342E1,2.613597223E-1,-1.063060994E1,1.248450708E0,1.070685788E1
1.153687242E1,2.182706400E-1,-1.063180394E1,1.286633027E0,1.071159753E1
1.154681142E1,1.199342868E-1,-1.066575755E1,1.397070558E0,1.075753571E1
1.155675042E1,2.508796846E-1,-1.070368142E1,1.496939832E0,1.081076156E1
1.156669042E1,2.519861240E-1,-1.072185106E1,1.600167747E0,1.084352913E1
1.157662942E1,3.796754267E-1,-1.068951011E1,1.487833378E0,1.079923275E1
1.158656842E1,8.483850174E-1,-9.749072598E0,1.308929629E0,9.873067934E0
1.159650742E1,3.508441950E-1,-8.779659206E0,1.391077162E0,8.896100443E0
1.160644642E1,-5.810575537E-2,-8.862477999E0,1.404234567E0,8.973225021E0
1.161638542E1,6.318574324E-3,-8.815738866E0,1.469951423E0,8.937452034E0
1.162632442E1,-3.087095976E-2,-8.719728754E0,1.527896161E0,8.852631769E0
1.163626342E1,-4.130042636E-1,-8.426758107E0,8.941328287E-1,8.484120357E0
1.164620242E1,-5.715434030E-3,-5.881373332E0,-7.989670551E-1,5.935396642E0
1.165614242E1,2.358497121E1,6.336365647E1,4.101593739E0,6.773497545E1
1.166608142E1,2.084301766E1,1.393586740E2,2.305871010E1,1.427829665E2
1.167602042E1,-2.786661358E0,6.438773314E1,1.080286891E1,6.534713183E1
1.168595942E1,-3.235253311E0,1.252375827E1,-5.322580441E-1,1.294583655E1
1.169589842E1,-6.548453515E0,7.017793728E0,-1.360754671E0,9.694499756E0
1.170583742E1,-8.160028009E0,1.169479383E1,-7.407871424E0,1.606956188E1
1.171577642E1,-4.653208077E0,1.505498752E1,-1.338458653E1,2.067491599E1
1.172571542E1,-6.867584020E-1,1.303583169E1,-1.506772510E1,1.993591946E1
1.173565442E1,7.946483016E-2,7.018248056E0,-1.305338153E1,1.482069127E1
1.174559342E1,9.139220723E-1,2.575623066E0,-9.104971973E0,9.506292777E0
1.175553342E1,8.847413233E-1,3.062245309E-1,-5.312448020E0,5.394315956E0
1.176547242E1,6.621243748E-1,-1.638365852E0,-3.210371654E0,3.664578763E0
1.177541142E1,7.738704401E-1,-3.503090871E0,-1.841606297E0,4.032621339E0
1.178535042E1,4.490030122E-1,-5.711968385E0,-1.275096470E0,5.869757878E0
1.179528942E1,-1.529887430E-3,-7.401225479E0,-7.698116684E-1,7.441152527E0
1.180522842E1,-2.447594405E-1,-8.939275914E0,-4.586392236E-1,8.954379431E0
1.181516742E1,-3.585843006E-1,-9.798702010E0,-3.689745104E-1,9.812200873E0
1.182510642E1,-3.846658060E-1,-1.000496488E1,-3.679489088E-1,1.001911555E1
1.183504542E1,-3.757756993E-1,-1.004342319E1,-3.331673312E-1,1.005597122E1
1.184498442E1,-3.845093930E-1,-1.005995093E1,-5.365522027E-2,1.006743955E1
1.185492442E1,-5.388697466E-1,-1.031134495E1,1.977208491E0,1.051301901E1
1.186486342E1,-9.726278982E-1,-1.064758791E1,3.794867517E0,1.134540228E1
1.187480242E1,-6.809576717E-1,-1.071896605E1,3.498811294E0,1.129608857E1
1.188474142E1,-4.527879149E-1,-1.063302250E1,2.328312156E0,1.089436652E1
1.189468042E1,-4.557068449E-1,-1.060816365E1,1.768656435E0,1.076424406E1
1.190461942E1,-6.402885327E-1,-1.075430896E1,1.382471230E0,1.086169219E1
1.191455842E1,-8.088947502E-1,-1.092232519E1,8.814408624E-1,1.098764926E1
1.192449742E1,-7.361241779E-1,-1.105617263E1,6.898861507E-1,1.110210678E1
1.193443642E1,-6.430794087E-1,-1.106596555E1,8.761935711E-1,1.111921130E1
1.194437542E1,-7.939355260E-1,-1.093647311E1,1.681149344E0,1.109337824E1
1.195431542E1,-7.464899757E-1,-1.087875992E1,2.182522359E0,1.112061458E1
1.196425442E1,-4.312534967E-1,-1.091687792E1,2.401422232E0,1.118619828E1
1.197419342E1,-6.577352355E-1,-1.101867795E1,2.549818718E0,1.132896530E1
1.198413242E1,-7.787277952E-1,-1.107428029E1,2.393419733E0,1.135669666E1
1.199407142E1,-4.620145288E-1,-1.104463725E1,2.127219393E0,1.125711027E1
1.200401042E1,-3.589217580E-1,-1.102535313E1,2.017361906E0,1.121414221E1
1.201394942E1,-5.055109428E-1,-1.100510773E1,1.800799749E0,1.116292153E1
1.202388842E1,-6.038182792E-1,-1.096069345E1,1.630138235E0,1.109769111E1
1.203382742E1,-3.507852843E-1,-1.089382703E1,1.719669632E0,1.103430022E1
1.204376642E1,-1.875018603E-1,-1.078895956E1,1.831628609E0,1.094493804E1
1.205370642E1,2.031039859E-1,-9.947570951E0,2.029339342E0,1.015448853E1
1.206364542E1,-1.340716117E-1,-8.837258958E0,2.481263623E0,9.179966790E0
1.207358442E1,-5.557136015E-1,-8.785561386E0,2.825700878E0,9.245511988E0
1.208352342E1,-7.837137891E-1,-8.515657420E0,1.851036687E0,8.749683732E0
1.209346242E1,-8.921050143E-1,-7.835184774E0,9.464490366E-1,7.942401248E0
1.210340142E1,-8.403545246E-1,-6.781323556E0,-9.924163377E-1,6.904884871E0
1.211334042E1,4.002139032E0,8.584931722E0,-1.736804312E0,9.629883630E0
1.212327942E1,3.030229699E1,1.633104317E2,1.663768145E1,1.669291429E2
1.213321842E1,-2.876618432E0,1.021057263E2,1.137201349E1,1.027773174E2
1.214315842E1,-2.503252370E0,1.705608832E1,-8.000745177E-2,1.723899134E1
1.215309742E1,-4.531788305E0,4.512639551E0,-1.662664980E0,6.607985759E0
1.216303642E1,-6.656336982E0,7.218739141E0,-9.798186285E0,1.387160666E1
1.217297542E1,-4.412168013E0,8.954673387E0,-1.549391695E1,1.843135547E1
1.218291442E1,-2.215414993E0,7.415848196E0,-1.693907033E1,1.862350590E1
1.219285342E1,-1.001821292E0,2.530711187E0,-1.317664668E1,1.345481931E1
1.220279242E1,8.018429350E-2,-9.903961247E-1,-8.031799740E0,8.093029165E0
1.221273142E1,1.900140069E-1,-3.246481719E0,-4.730508560E0,5.740510440E0
1.222267042E1,3.265172929E-2,-4.564538267E0,-3.169932311E0,5.557386668E0
1.223260942E1,1.419735937E-1,-6.059790593E0,-2.143149548E0,6.429176348E0
1.224254942E1,7.608397007E-2,-7.733546133E0,-1.041033597E0,7.803670644E0
1.225248842E1,-4.245840529E-2,-9.105490621E0,-3.263319361E-1,9.111435380E0
1.226242742E1,-2.175418759E-1,-9.830451221E0,-2.704009795E-1,9.836575236E0
1.227236642E1,-3.775839508E-1,-9.924531752E0,-2.339915371E-1,9.934467886E0
1.228230542E1,-4.167983391E-1,-9.959032663E0,-1.643044392E-1,9.969104693E0
1.229224442E1,-5.324878396E-1,-1.007252127E1,2.142864021E-1,1.008886251E1
1.230218342E1,-8.545300025E-1,-1.027543135E1,1.227952124E0,1.038376509E1
1.231212242E1,-1.141368309E0,-1.063673080E1,2.707044500E0,1.103498318E1
1.232206142E1,-9.376682729E-1,-1.077225991E1,3.186273524E0,1.127267246E1
1.233200042E1,-6.240894064E-1,-1.072058105E1,2.532263038E0,1.103325435E1
1.234194042E1,-4.544243313E-1,-1.064549461E1,2.106732504E0,1.086146302E1
1.235187942E1,-3.453318787E-1,-1.062574272E1,1.733330482E0,1.077172674E1
1.236181842E1,-4.175814640E-2,-1.064821824E1,1.368290563E0,1.073585183E1
1.237175783E1,1.059073281E-2,-1.059384966E1,9.197962582E-1,1.063370998E1
1.238169683E1,-2.347335488E-1,-1.069341371E1,5.729710007E-1,1.071132543E1
1.239163583E1,-2.921567148E-1,-1.082227465E1,8.914407706E-1,1.086285648E1
1.240157483E1,-2.787987872E-1,-1.094402304E1,1.371871397E0,1.103319537E1
1.241151383E1,-2.011299659E-1,-1.100205081E1,1.515628703E0,1.110777680E1
1.242145283E1,-1.598789558E-1,-1.093569660E1,1.543332810E0,1.104522058E1
1.243139183E1,-2.435564125E-1,-1.095626243E1,1.757330378E0,1.109897365E1
1.244133083E1,-1.515619128E-1,-1.093307588E1,1.839842777E0,1.108783751E1
1.245127083E1,-2.882165685E-1,-1.093444296E1,1.682887137E0,1.106694270E1
1.246120983E1,-2.723375043E-1,-1.096358431E1,1.518578038E0,1.107160458E1
1.247114883E1,-1.582385194E-1,-1.099413952E1,1.526497507E0,1.110073592E1
1.248108783E1,-6.533276774E-2,-1.096814397E1,1.666257656E0,1.109418159E1
1.249102683E1,6.558326977E-1,-1.023871785E1,1.605995082E0,1.038463673E1
1.250096583E1,4.145708057E-1,-8.606996775E0,2.138371203E0,8.878338462E0
1.251090483E1,-2.346666712E-1,-8.456507571E0,3.001682189E0,8.976507378E0
1.252084383E1,-2.584823806E-1,-8.257610437E0,2.912608044E0,8.760035896E0
1.253078283E1,-2.878049976E-1,-7.985683919E0,1.590161991E0,8.147551444E0
1.254072183E1,-5.191570285E-1,-7.666484417E0,-1.889586210E-1,7.686365376E0
1.255066183E1,-1.334170159E-1,-5.725838565E0,-2.350500001E0,6.190951270E0
1.256060083E1,2.420153905E1,8.431635386E1,7.829854453E0,8.806968061E1
1.257053983E1,9.921839694E0,1.286524689E2,3.103394505E1,1.327140023E2
1.258047883E1,9.566009724E-1,5.153307392E1,1.201930495E1,5.292481917E1
1.259041783E1,1.238453139E0,1.122803867E1,-2.439598703E0,1.155656785E1
1.260035683E1,-2.731271269E0,5.713210918E0,-1.937818723E0,6.622368394E0
1.261029583E1,-4.975778207E0,9.837672533E0,-6.030635791E0,1.256609477E1
1.262023483E1,-3.756018324E0,1.479240193E1,-1.223451523E1,1.956032186E1
1.263017383E1,-1.777344228E0,1.312954853E1,-1.466632076E1,1.976474036E1
1.264011383E1,-1.884766058E0,6.395045380E0,-1.370182254E1,1.523774555E1
1.265005283E1,-1.561986305E0,1.329536971E0,-1.075931417E1,1.095309597E1
1.265999183E1,-3.150494412E-1,-1.006784116E0,-7.216314300E0,7.293014636E0
1.266993083E1,1.399919724E-1,-2.187990090E0,-4.671010802E0,5.159965145E0
1.267986983E1,2.236536781E-1,-3.738351839E0,-3.008469636E0,4.803767791E0
1.268980883E1,5.521718699E-1,-5.397633766E0,-1.489469429E0,5.626532078E0
1.269974783E1,5.043173799E-1,-6.804360416E0,-7.278742683E-1,6.861738675E0
1.270968683E1,2.132947508E-1,-8.352790244E0,-7.270287609E-1,8.387083542E0
1.271962583E1,1.090833072E-1,-9.317306592E0,-7.793695271E-1,9.350482242E0
1.272956483E1,1.719284227E-2,-9.806100492E0,-7.816025788E-1,9.837215309E0
1.273950483E1,-1.161453276E-1,-9.938526478E0,-7.870301105E-1,9.970316679E0
1.274944383E1,-1.540346455E-1,-1.006179865E1,-4.897685572E-1,1.007488918E1
1.275938283E1,-4.908445179E-3,-1.029795365E1,1.068823074E0,1.035327274E1
1.276932183E1,6.392145088E-2,-1.057029942E1,1.944657626E0,1.074788393E1
1.277926083E1,-8.575544748E-3,-1.068573749E1,1.974348618E0,1.086660534E1
1.278919983E1,-1.922561583E-1,-1.081472122E1,2.148813161E0,1.102780828E1
1.279913883E1,-2.968477166E-1,-1.094489427E1,2.389947510E0,1.120672469E1
1.280907783E1,-4.456364778E-1,-1.106845646E1,2.315955820E0,1.131693296E1
1.281901683E1,-4.993618646E-1,-1.109026775E1,1.963072847E0,1.127373301E1
1.282895583E1,-7.345985663E-1,-1.101932816E1,1.360599135E0,1.112728440E1
1.283889583E1,-8.288483736E-1,-1.091840405E1,9.335290289E-1,1.098954107E1
1.284883483E1,-8.817039871E-1,-1.085919397E1,7.373888576E-1,1.091985522E1
1.285877383E1,-1.072025594E0,-1.083984787E1,7.835842001E-1,1.092087657E1
1.286871283E1,-1.129787095E0,-1.079572478E1,9.361959440E-1,1.089497845E1
1.287865183E1,-1.053235567E0,-1.075967436E1,7.964387190E-1,1.084039723E1
1.288859083E1,-9.829444331E-1,-1.061557090E1,4.559635377E-1,1.067072763E1
1.289852983E1,-8.784342972E-1,-1.050224835E1,2.571075540E-2,1.053895290E1
1.290846883E1,-7.113427278E-1,-1.054238949E1,-3.089002168E-1,1.057087527E1
1.291840783E1,-6.620949195E-1,-1.054123174E1,-3.812712415E-1,1.056888376E1
1.292834683E1,-5.736954707E-1,-1.054379516E1,-3.477274829E-1,1.056511511E1
1.293828683E1,-2.640052950E-1,-1.053359645E1,-2.179958940E-1,1.053915913E1
1.294822583E1,-5.645172425E-2,-1.048913305E1,1.510095702E-1,1.049037191E1
1.295816483E1,3.326531417E-1,-9.915640476E0,5.466807862E-1,9.936269121E0
1.296810383E1,-1.455283537E-1,-8.993588362E0,1.556925248E0,9.128517204E0
1.297804283E1,-3.810551503E-1,-8.745459427E0,2.085808243E0,8.998825459E0
1.298798183E1,-3.377749372E-1,-8.555538354E0,2.475649127E0,8.912921352E0
1.299792083E1,-5.561245877E-1,-7.723768419E0,1.479270131E0,7.883788002E0
1.300785983E1,-1.203795376E0,-6.435794041E0,-1.472159917E0,6.710873495E0
1.301779883E1,2.281446138E-1,-1.140815747E0,-3.571434882E0,3.756149311E0
1.302773783E1,3.922369562E1,1.213408953E2,1.488429794E1,1.283886813E2
1.303767783E1,1.489549653E1,1.282593489E2,3.161761879E1,1.329361133E2
1.304761683E1,3.640886355E0,3.901916236E1,8.809927318E0,4.016672633E1
1.305755583E1,-1.184153848E0,5.408480351E0,-2.526771333E0,6.085922561E0
1.306749483E1,-4.224832579E0,6.155128275E0,-6.109279672E0,9.646663284E0
1.307743383E1,-4.117401394E0,1.064913392E1,-9.435356029E0,1.481158300E1
1.308737283E1,-3.211007831E0,1.041274268E1,-9.936463580E0,1.474683322E1
1.309731183E1,-3.571046627E0,5.714411936E0,-8.429864148E0,1.079210301E1
1.310725083E1,-3.268738268E0,1.440116590E0,-6.298316646E0,7.240675261E0
1.311718983E1,-2.457121639E0,-1.720456667E0,-4.703503779E0,5.578563049E0
1.312712883E1,-1.222696647E0,-4.141210964E0,-3.543468819E0,5.585766430E0
1.313706883E1,-4.024910429E-1,-6.186066477E0,-2.513037393E0,6.689153492E0
1.314700783E1,-2.211355929E-1,-7.882807422E0,-1.741309007E0,8.075872143E0
1.315694683E1,-1.942132579E-1,-9.185391068E0,-1.266015159E0,9.274261278E0
1.316688583E1,-3.879788749E-1,-9.814572523E0,-8.813554931E-1,9.861701117E0
1.317682483E1,-4.472330965E-1,-1.004419970E1,-5.866838908E-1,1.007125429E1
1.318676383E1,-4.626045129E-1,-1.012096195E1,-4.826595855E-1,1.014301897E1
1.319670283E1,-4.592876798E-1,-1.017575036E1,-4.171292549E-1,1.019464748E1
1.320664183E1,-4.697819701E-1,-1.020790069E1,-3.786259246E-1,1.022571705E1
1.321658083E1,-3.947998713E-1,-1.025872118E1,-3.440010158E-1,1.027207690E1
1.322651983E1,-2.490282003E-1,-1.018285589E1,-2.472009454E-1,1.018889972E1
1.323645983E1,-2.453868102E-2,-1.015463021E1,8.975512572E-3,1.015466383E1
1.324639883E1,2.006416868E-1,-1.018736760E1,5.453376808E-1,1.020392615E1
1.325633783E1,1.242264172E-1,-1.038055727E1,1.297958499E0,1.046212683E1
1.326627683E1,-2.727252477E-1,-1.058298554E1,1.807141054E0,1.073963317E1
1.327621583E1,-6.083195024E-1,-1.084977878E1,1.333873267E0,1.094837751E1
1.328615483E1,-7.280809674E-1,-1.083506719E1,8.101083398E-1,1.088967669E1
1.329609383E1,-3.435447137E-1,-1.051573320E1,5.307196051E-1,1.053472026E1
1.330603283E1,-2.371322959E-1,-1.056774652E1,1.388608468E-1,1.057131878E1
1.331597183E1,-1.247360203E-1,-1.075705481E1,1.611960411E-1,1.075898561E1
1.332591083E1,7.706666775E-2,-1.086124751E1,6.832389629E-1,1.088298913E1
1.333584983E1,3.203235566E-1,-1.094786115E1,1.385440446E0,1.103982410E1
1.334578983E1,4.967311292E-1,-1.101623849E1,2.006090813E0,1.120841883E1
1.335572883E1,4.392959764E-1,-1.121154017E1,2.094173269E0,1.141390273E1
1.336566783E1,3.159105898E-1,-1.141648391E1,1.507377112E0,1.151989974E1
1.337560642E1,3.845943238E-1,-1.133662147E1,1.224622135E0,1.140905774E1
1.338554542E1,2.561747038E-1,-1.128924967E1,1.528738160E0,1.139516669E1
1.339548442E1,1.524373506E-1,-1.125481892E1,1.924653132E0,1.141921520E1
1.340542342E1,6.450532825E-1,-1.037953518E1,2.518161893E0,1.070009269E1
1.341536242E1,8.562865792E-1,-8.044515679E0,3.490724595E0,8.810937375E0
1.342530142E1,4.485790890E-1,-7.607115297E0,4.285397455E0,8.742657359E0
1.343524042E1,-1.753191134E-1,-7.131427932E0,5.599504209E0,9.068762237E0
1.344518042E1,-2.590088493E-1,-6.403071268E0,4.503242490E0,7.832343211E0
1.345511942E1,2.934313347E-1,-5.684040329E0,8.405501139E-1,5.753341716E0
1.346505842E1,1.655577248E1,3.868872217E1,1.861362870E0,4.212333673E1
1.347499742E1,2.307449525E1,1.421217220E2,2.817225222E1,1.467129578E2
1.348493642E1,-1.227378513E1,7.583761518E1,1.777053388E1,7.885291086E1
1.349487542E1,-8.733941581E0,1.637561860E1,-2.206729832E0,1.868989772E1
1.350481442E1,-8.754781643E0,7.956856561E0,-2.174053398E0,1.202847771E1
1.351475342E1,-1.013800073E1,1.291428211E1,-1.365488811E1,2.135447753E1
1.352469242E1,-5.537324917E0,1.512842621E1,-2.307161842E1,2.813948868E1
1.353463242E1,-2.774519322E0,8.164515163E0,-2.869842912E1,2.996593231E1
1.354457142E1,-2.242856269E0,5.339770889E-1,-2.410498047E1,2.421498749E1
1.355451042E1,-7.972848111E-1,-1.213466817E-1,-1.059529042E1,1.062593841E1
1.356444942E1,-4.094854823E-1,-8.465166128E-1,-4.571633863E0,4.667344525E0
1.357438842E1,-4.398620600E-1,-2.903773486E0,-2.365790470E0,3.771252264E0
1.358432742E1,5.748374319E-1,-4.937192430E0,-7.340337253E-1,5.024451480E0
1.359426642E1,1.021923434E0,-7.025566431E0,1.677273810E-1,7.101481793E0
1.360420542E1,1.210720672E0,-8.330980130E0,6.183705372E-1,8.441176256E0
1.361414442E1,9.031527436E-1,-9.218464674E0,1.176557438E0,9.337026466E0
1.362408342E1,4.779747963E-1,-9.937822473E0,1.442483543E0,1.005333448E1
1.363402342E1,3.309961139E-1,-1.031928781E1,2.084918881E0,1.053300270E1
1.364396242E1,7.734964375E-1,-1.078274513E1,4.017744082E0,1.153291624E1
1.365390142E1,5.881741999E-1,-1.111843379E1,3.475514817E0,1.166382107E1
1.366384042E1,8.787959475E-2,-1.135087698E1,2.636573857E0,1.165339662E1
1.367377942E1,-4.178303361E-1,-1.146576073E1,2.172337679E0,1.167721295E1
1.368371842E1,-6.615872350E-1,-1.153646760E1,1.839168009E0,1.170086840E1
1.369365742E1,-7.667675348E-1,-1.156693745E1,2.011619355E0,1.176556785E1
1.370359642E1,-7.852802581E-1,-1.140975026E1,2.509226178E0,1.170876945E1
1.371353542E1,-8.459005355E-1,-1.129224812E1,2.378661361E0,1.157101746E1
1.372347442E1,-8.279053639E-1,-1.117935476E1,1.862971439E0,1.136371694E1
1.373341342E1,-6.951032558E-1,-1.107663321E1,9.815989888E-1,1.114174620E1
1.374335342E1,-5.081098840E-1,-1.104431331E1,4.279577136E-1,1.106427494E1
1.375329242E1,-3.770846716E-1,-1.101532632E1,2.546262880E-1,1.102471956E1
1.376323142E1,-2.521588361E-1,-1.087293493E1,-7.881286561E-2,1.087614405E1
1.377317042E1,-1.487488539E-1,-1.077940521E1,-4.550947145E-1,1.079003309E1
1.378310942E1,1.458544090E-2,-1.074001017E1,-7.399774931E-1,1.076548178E1
1.379304842E1,1.610425517E-1,-1.071848657E1,-7.766108838E-1,1.074779110E1
1.380298742E1,3.571391612E-1,-1.073895885E1,-8.500283774E-1,1.077846620E1
1.381292642E1,3.000067480E-1,-1.080619949E1,-8.890697978E-1,1.084686114E1
1.382286542E1,-5.257611662E-2,-1.110978225E1,-9.824497586E-1,1.115326111E1
1.383280442E1,-5.577293560E-2,-1.115450760E1,-1.129912444E0,1.121172835E1
1.384274442E1,2.307583192E-1,-1.098923839E1,-1.252104049E0,1.106274714E1
1.385268342E1,-1.220077094E-1,-1.099554870E1,-1.026565320E0,1.104403973E1
1.386262242E1,-6.816460352E-1,-1.037295589E1,-2.389599162E-1,1.039807468E1
1.387256142E1,-3.206232995E-1,-8.599264417E0,5.308471475E-1,8.621597677E0
1.388250042E1,-7.471586779E-2,-8.315857476E0,1.214420498E0,8.404396776E0
1.389243942E1,1.099523588E-1,-7.948412597E0,1.733343346E0,8.135959162E0
1.390237842E1,-7.598807573E-2,-7.469919153E0,2.643848963E0,7.924355095E0
1.391231742E1,-2.418102877E-1,-6.276895956E0,2.032348173E0,6.602146178E0
1.392225642E1,1.440087705E1,3.235495502E1,7.818510854E-1,3.542371615E1
1.393219542E1,2.859337571E1,1.535535712E2,1.900590553E1,1.573451773E2
1.394213542E1,-2.068227127E0,9.214422260E1,7.596085110E0,9.247992123E1
1.395207442E1,-3.787754671E0,1.659750874E1,-6.205051217E0,1.811979698E1
1.396201342E1,-5.783976846E0,7.189723502E0,-8.562652076E0,1.258830897E1
1.397195242E1,-5.156537862E0,9.956065786E0,-1.000696229E1,1.502838724E1
1.398189142E1,-4.765990926E0,9.416845499E0,-9.094732329E0,1.393218593E1
1.399183042E1,-3.925833453E0,8.205218800E0,-7.453168634E0,1.175957085E1
1.400176942E1,-1.751515907E0,5.941784425E0,-5.553913468E0,8.319769525E0
1.401170842E1,2.246380751E-1,1.400996379E0,-4.274186003E0,4.503545171E0
1.402164742E1,3.322937572E-1,-2.503991750E0,-3.347892904E0,4.193898034E0
1.403158642E1,2.523082325E-1,-4.971779296E0,-2.324551227E0,5.494159373E0
1.404152642E1,7.299225479E-3,-6.889478334E0,-1.535796919E0,7.058586060E0
1.405146542E1,-1.852228532E-1,-8.548570227E0,-1.302908751E0,8.649273475E0
1.406140442E1,-3.001688803E-1,-9.411832681E0,-4.376688424E-1,9.426783639E0
1.407134342E1,-5.557711235E-1,-1.001037940E1,7.346628126E-1,1.005267660E1
1.408128242E1,-3.100740454E-1,-1.036689350E1,1.353635101E0,1.045949113E1
1.409122142E1,4.104186248E-2,-1.050515910E1,1.970620433E0,1.068847028E1
1.410116042E1,3.591445735E-2,-1.054325254E1,1.550387476E0,1.065669579E1
1.411109942E1,-1.589627336E-1,-1.057446380E1,4.275676312E-1,1.058429818E1
1.412103842E1,-1.945944964E-1,-1.055633978E1,5.354697369E-2,1.055826898E1
1.413097742E1,-2.371490701E-1,-1.054112532E1,-2.713623349E-1,1.054728402E1
1.414091742E1,-2.175041979E-1,-1.046864908E1,-4.253201808E-1,1.047954288E1
1.415085642E1,-3.146111923E-1,-1.048689707E1,-3.953917191E-1,1.049906305E1
1.416079542E1,-3.364455361E-1,-1.050010242E1,-5.253722533E-1,1.051861980E1
1.417073442E1,-3.793425009E-1,-1.047401098E1,-8.849024141E-1,1.051816804E1
1.418067342E1,-3.520936354E-1,-1.050621393E1,-1.092060567E0,1.056868475E1
1.419061242E1,-2.510824368E-1,-1.052216514E1,-8.933294944E-1,1.056300332E1
1.420055142E1,-1.488295089E-1,-1.057440416E1,-3.019262793E-1,1.057976054E1
1.421049042E1,-3.664979953E-2,-1.064976308E1,3.722103230E-1,1.065632851E1
1.422042942E1,6.864484996E-2,-1.075935393E1,7.420631218E-1,1.078513175E1
1.423036842E1,3.238366368E-1,-1.086339227E1,1.381898788E0,1.095572024E1
1.424030842E1,4.595001895E-1,-1.112106737E1,2.378260826E0,1.138180146E1
1.425024742E1,3.919873605E-1,-1.125197250E1,2.472590448E0,1.152710903E1
1.426018642E1,2.596645780E-1,-1.135294456E1,1.916332544E0,1.151647108E1
1.427012542E1,4.617224604E-2,-1.138103692E1,1.517486363E0,1.148185081E1
1.428006442E1,1.294146333E-1,-1.147178337E1,1.067310984E0,1.152205340E1
1.429000342E1,3.810010636E-1,-1.150910264E1,1.183620874E0,1.157607721E1
1.429994242E1,6.013069001E-1,-1.144639242E1,1.454520621E0,1.155409449E1
1.430988142E1,6.973775303E-1,-1.071066768E1,1.889733560E0,1.089843248E1
1.431982042E1,3.697989678E-1,-8.529769675E0,2.983121957E0,9.043933800E0
1.432975942E1,-8.333214205E-2,-8.291247715E0,2.839842954E0,8.764498897E0
1.433969842E1,-8.920015186E-2,-8.118253747E0,9.840969193E-1,8.178168946E0
1.434963842E1,-6.769796647E-3,-7.751704077E0,4.638818371E-1,7.765574562E0
1.435957742E1,2.867549839E-1,-7.433462348E0,9.675300032E-1,7.501646833E0
1.436951642E1,1.331596946E0,-5.229247404E0,2.604174892E-2,5.396189119E0
1.437945471E1,3.722563187E1,1.019975107E2,1.813969433E1,1.100830976E2
1.438939371E1,1.765331240E1,1.452326465E2,2.575843974E1,1.485518707E2
1.439933271E1,-7.116418129E0,5.076677526E1,2.014131904E-2,5.126313766E1
1.440927171E1,-5.529587297E0,9.252621185E0,-4.209759042E0,1.157192316E1
1.441921071E1,-6.927684626E0,9.020659801E0,-4.127707404E0,1.209971429E1
1.442914971E1,-8.589725270E0,1.194597384E1,-9.116261777E0,1.730883878E1
1.443908971E1,-7.618573501E0,1.262226748E1,-1.725918200E1,2.269897932E1
1.444902871E1,-9.666156448E-1,7.014741481E0,-2.526463302E1,2.623819021E1
1.445896771E1,8.112046927E-1,5.583389282E-1,-2.238926472E1,2.241091186E1
1.446890671E1,-4.470247529E-1,-1.860740726E0,-1.088083335E1,1.104783787E1
1.447884571E1,-7.971362919E-1,-3.679119544E0,-5.380613106E0,6.566760562E0
1.448878471E1,-1.904457872E-1,-5.594006072E0,-3.304056913E0,6.499689655E0
1.449872371E1,4.888074942E-1,-7.588238146E0,-1.959532358E0,7.852391864E0
1.450866271E1,8.712618101E-1,-9.332509938E0,-1.514525918E0,9.494663113E0
1.451860171E1,8.208045052E-1,-1.002481267E1,-6.539900938E-1,1.007959782E1
1.452854071E1,7.735728899E-1,-1.046879409E1,1.701736221E0,1.063437685E1
1.453848071E1,5.892636824E-1,-1.117207614E1,5.544004776E0,1.248593232E1
1.454841971E1,1.050724261E0,-1.151945572E1,7.396747681E0,1.373003123E1
1.455835871E1,1.128169389E0,-1.146346746E1,5.036812028E0,1.257192617E1
1.456829771E1,8.550430226E-1,-1.154855263E1,3.233949966E0,1.202325242E1
1.457823671E1,6.094153071E-1,-1.193730359E1,2.831986635E0,1.228375970E1
1.458817571E1,4.006481467E-1,-1.223546131E1,2.396972501E0,1.247447432E1
1.459811471E1,2.996941412E-1,-1.242924856E1,1.322028562E0,1.250295148E1
1.460805371E1,2.882835922E-1,-1.236257276E1,6.623316586E-1,1.238365842E1
1.461799271E1,3.470360497E-1,-1.223293999E1,5.340074944E-1,1.224950688E1
1.462793171E1,8.468281232E-1,-1.201606676E1,2.149504302E0,1.223614919E1
1.463787071E1,1.383475489E0,-1.189639647E1,4.084854330E0,1.265402262E1
1.464781071E1,1.371156575E0,-1.165183785E1,4.146792716E0,1.244352383E1
1.465774971E1,1.359718544E0,-1.146030996E1,3.692867517E0,1.211712876E1
1.466768871E1,1.175062012E0,-1.133841072E1,2.819343785E0,1.174261588E1
1.467762771E1,9.730877817E-1,-1.121445442E1,2.045654243E0,1.144096102E1
1.468756671E1,8.433094150E-1,-1.112586910E1,1.587882746E0,1.127020433E1
1.469750571E1,8.112672579E-1,-1.100147193E1,1.507340859E0,1.113384999E1
1.470744471E1,7.268308327E-1,-1.089816917E1,1.382968243E0,1.100958562E1
1.471738371E1,7.304391494E-1,-1.086802093E1,1.411724850E0,1.098364180E1
1.472732271E1,7.191499302E-1,-1.076799846E1,1.318547130E0,1.087223684E1
1.473726171E1,6.016226863E-1,-1.072603650E1,1.114420831E0,1.080054363E1
1.474720171E1,5.622688053E-1,-1.069064213E1,8.449179840E-1,1.073870857E1
1.475714071E1,5.962744939E-1,-1.063581747E1,5.948875344E-1,1.066911654E1
1.476707971E1,7.298172981E-1,-1.032082679E1,1.800790393E-1,1.034816541E1
1.477701871E1,7.307420352E-1,-9.273225018E0,3.081464376E-3,9.301972676E0
1.478695771E1,2.884492877E-1,-8.835970817E0,2.608056986E-1,8.844523892E0
1.479689671E1,7.806730907E-2,-8.576628676E0,-7.739210916E-1,8.611829527E0
1.480683571E1,-6.633103363E-2,-8.070877851E0,-2.004654152E0,8.316375855E0
1.481677471E1,3.376357734E-2,-7.265730874E0,-2.113808219E0,7.567045018E0
1.482671371E1,6.083464215E0,6.877426053E0,1.237629851E0,9.264947578E0
1.483665271E1,4.792256794E1,1.450916865E2,3.624844285E1,1.570417767E2
1.484659271E1,5.478424745E0,1.162332542E2,2.432561696E1,1.188777446E2
1.485653171E1,-5.331584203E0,3.089611916E1,-2.140449669E-1,3.135349716E1
1.486647071E1,-4.725921712E0,8.680186374E0,-1.285995095E0,9.966632074E0
1.487640971E1,-6.414442933E0,7.825911675E0,-9.514565921E-1,1.016342665E1
1.488634871E1,-6.995821645E0,7.055505930E0,-4.245154577E0,1.080476848E1
1.489628771E1,-7.467117752E0,6.928410265E0,-9.206977819E0,1.373059201E1
1.490622671E1,-6.463158426E0,4.472831706E0,-1.053065062E1,1.314051912E1
1.491616571E1,-4.579328799E0,4.497245586E-1,-9.269250666E0,1.034850290E1
1.492610471E1,-2.877445813E0,-3.255640798E0,-7.557467759E0,8.717465821E0
1.493604371E1,-1.217646115E0,-5.506302515E0,-5.696702474E0,8.015887257E0
1.494598371E1,-2.338846792E-1,-6.601091904E0,-4.059941683E0,7.753208551E0
1.495592271E1,4.799143177E-1,-8.058160742E0,-2.873028826E0,8.568463510E0
1.496586171E1,1.245612616E0,-9.434690031E0,-2.084597284E0,9.742200604E0
1.497580071E1,1.589534146E0,-1.002615402E1,-1.618546715E0,1.027959516E1
1.498573971E1,1.670671134E0,-1.008141021E1,-1.358442682E0,1.030879917E1
1.499567871E1,1.705429761E0,-9.966824663E0,-1.170029679E0,1.017914800E1
1.500561771E1,1.701711078E0,-9.963207575E0,-7.622535574E-1,1.013619042E1
1.501555671E1,1.717175648E0,-1.008747143E1,-2.178212084E-2,1.023260703E1
1.502549571E1,1.837018426E0,-1.010825945E1,3.792830785E-1,1.028082689E1
1.503543471E1,1.879261051E0,-1.010752504E1,1.105350338E-1,1.028133759E1
1.504537471E1,1.925433589E0,-1.010601763E1,-9.478237170E-1,1.033137245E1
1.505531371E1,1.969839830E0,-1.036877630E1,-1.887574768E0,1.072169434E1
1.506525271E1,1.829761593E0,-1.065582547E1,-1.632822692E0,1.093438402E1
1.507519171E1,1.645983605E0,-1.067645913E1,-6.477925569E-1,1.082199966E1
1.508513071E1,1.260768599E0,-1.113764657E1,3.281216227E-2,1.120882622E1
1.509506971E1,1.123304360E0,-1.111896705E1,2.209930305E-1,1.117774928E1
1.510500871E1,1.813790508E0,-1.102265873E1,1.011495729E0,1.121659329E1
1.511494771E1,4.050845462E0,-1.087257240E1,3.130501612E0,1.201757962E1
1.512488671E1,3.451460834E0,-1.070555487E1,1.221824242E0,1.131434229E1
1.513482571E1,2.441912447E0,-1.066990089E1,-7.764903581E-1,1.097327019E1
1.514476571E1,1.957055477E0,-1.064153488E1,-1.688871177E0,1.095100984E1
1.515470471E1,1.868204989E0,-1.059419933E1,-2.258658954E0,1.099221495E1
1.516464371E1,2.042286832E0,-1.050314181E1,-2.876895590E0,1.107986695E1
1.517458271E1,1.950782877E0,-1.038660446E1,-2.771142848E0,1.092549032E1
1.518452171E1,1.840112334E0,-1.014238848E1,-2.320144765E0,1.056584730E1
1.519446071E1,1.242676291E0,-9.587051514E0,-1.193538337E0,9.740653719E0
1.520439971E1,4.947963586E-1,-9.389864107E0,8.842042565E-2,9.403307373E0
1.521433871E1,1.754860332E-1,-9.275066307E0,1.060343442E0,9.337129032E0
1.522427771E1,-2.663363058E-1,-9.019204429E0,2.020198975E0,9.246522993E0
1.523421671E1,-4.004240522E-1,-8.383836036E0,2.263606868E0,8.693271084E0
1.524415571E1,3.934904239E-1,-7.315138092E0,2.466647923E0,7.729840360E0
1.525409571E1,9.651668510E-1,-6.318091344E0,2.048078499E0,6.711516283E0
1.526403471E1,1.482714258E1,2.764852647E1,3.381903234E0,3.155507000E1
1.527397371E1,2.130536870E1,1.105864530E2,1.835526480E1,1.141060826E2
1.528391271E1,-1.792910802E1,8.388220980E1,3.012262141E1,9.091232235E1
1.529385171E1,-1.032636528E1,3.246883072E1,5.152988602E0,3.445884617E1
1.530379071E1,-6.000305699E0,1.585443522E1,-5.415609276E-1,1.696054459E1
1.531372971E1,-6.707443401E0,1.601452965E1,-1.407269272E0,1.741939619E1
1.532366871E1,-5.024315944E0,1.613073487E1,-1.162045350E1,2.050559187E1
1.533360771E1,-1.272166430E0,1.294073725E1,-1.708566237E1,2.147093260E1
1.534354771E1,1.333992550E-1,7.712396754E0,-1.448227263E1,1.640838443E1
1.535348671E1,1.414411061E0,2.882115984E0,-1.005044335E1,1.055076124E1
1.536342571E1,1.638736566E0,-7.703227150E-1,-5.920102950E0,6.190837872E0
1.537336579E1,1.370678273E0,-2.955005620E0,-2.682445849E0,4.219755073E0
1.538330479E1,1.103505541E0,-4.778780833E0,-1.117060922E0,5.030138749E0
1.539324379E1,8.666301575E-1,-6.550823391E0,-6.495959113E-1,6.639752238E0
1.540318279E1,5.491274805E-1,-7.771465327E0,-5.748772661E-1,7.812022669E0
1.541312179E1,1.998256348E-1,-8.956398901E0,-6.286921153E-1,8.980660629E0
1.542306079E1,-1.501156040E-1,-9.857596335E0,-6.785606056E-1,9.882063788E0
1.543299979E1,-3.153043798E-1,-1.009745146E1,-7.692041427E-1,1.013161477E1
1.544293979E1,-4.313247596E-1,-1.017327932E1,-7.856762608E-1,1.021268527E1
1.545287879E1,-5.516918866E-1,-1.018595959E1,-6.916379035E-1,1.022430926E1
1.546281779E1,-6.760495189E-1,-1.022305667E1,-4.518991381E-1,1.025534707E1
1.547275679E1,-7.999237327E-1,-1.029129368E1,-9.204577245E-2,1.032274556E1
1.548269579E1,-9.564873172E-1,-1.035247426E1,3.252852480E-1,1.040165380E1
1.549263479E1,-1.220116271E0,-1.049466685E1,9.980653328E-1,1.061239136E1
1.550257379E1,-1.323948495E0,-1.056371779E1,1.219664208E0,1.071599524E1
1.551251279E1,-1.422750360E0,-1.067477513E1,1.245665095E0,1.084097432E1
1.552245179E1,-1.718162512E0,-1.088790731E1,1.607214226E0,1.113919860E1
1.553239079E1,-1.852138595E0,-1.123555819E1,1.416361692E0,1.147494077E1
1.554232979E1,-2.058505546E0,-1.130780405E1,8.706445634E-1,1.152657362E1
1.555226979E1,-1.984357297E0,-1.112212572E1,1.040973955E0,1.134561506E1
1.556220879E1,-2.197420626E0,-1.108099289E1,1.173005839E0,1.135750869E1
1.557214779E1,-2.269920107E0,-1.095228164E1,9.813282627E-1,1.122800141E1
1.558208679E1,-2.084895785E0,-1.083909592E1,5.996956998E-1,1.105406829E1
1.559202579E1,-2.049815707E0,-1.082257520E1,3.358207977E-1,1.102010227E1
1.560196479E1,-2.015212615E0,-1.079415188E1,3.420375939E-1,1.098598136E1
1.561190379E1,-2.011251565E0,-1.077067882E1,3.794632459E-1,1.096342316E1
1.562184279E1,-2.016883019E0,-1.079744503E1,4.503034329E-1,1.099342574E1
1.563178179E1,-2.047564382E0,-1.074957271E1,3.964949425E-1,1.095002473E1
1.564172079E1,-2.045761540E0,-1.064222251E1,4.171216536E-1,1.084509247E1
1.565166079E1,-2.196640169E0,-1.039269258E1,3.372416711E-1,1.062765351E1
1.566159979E1,-2.346542020E0,-9.628083181E0,-2.448112249E-1,9.912929826E0
1.567153879E1,-2.509805052E0,-8.971083598E0,-2.900241622E-1,9.320063108E0
1.568147779E1,-2.557111658E0,-8.793542250E0,-5.402733707E-1,9.173717930E0
1.569141679E1,-2.633297370E0,-8.599228165E0,-1.373554226E0,9.097671750E0
1.570135579E1,-2.654126614E0,-8.351884511E0,-1.785312814E0,8.943472748E0
1.571129479E1,-2.776755005E0,-8.009331229E0,-1.916612041E0,8.690981349E0
1.572123379E1,-2.424775427E0,-6.742694510E0,-1.967362365E0,7.430610998E0
1.573117279E1,3.354650765E1,8.126595034E1,6.291758409E0,8.814254979E1
1.574111179E1,3.141403512E1,1.403191330E2,3.025367388E1,1.469407550E2
1.575105179E1,9.192664274E-1,5.835154952E1,1.838151762E1,6.118519896E1
1.576099079E1,2.269802285E0,9.955738342E0,-7.218710489E0,1.250513932E1
1.577092979E1,-2.086006609E-1,6.141696051E0,-1.045236459E1,1.212501011E1
1.578086879E1,-7.773938991E-1,7.361869624E0,-1.122448824E1,1.344583958E1
1.579080779E1,3.962339374E-1,9.544514775E0,-9.278723155E0,1.331726199E1
1.580074679E1,6.447164098E-1,9.833333899E0,-6.098205045E0,1.158871087E1
1.581068579E1,6.233731225E-1,7.095300325E0,-3.749123579E0,8.049087424E0
1.582062479E1,3.993896797E-1,3.212021738E0,-3.382779731E0,4.681858015E0
1.583056379E1,-2.020511216E-1,9.299528718E-2,-2.500118555E0,2.509993141E0
1.584050279E1,-1.645732175E0,-2.327118739E0,-6.873652699E-1,2.931959589E0
1.585044279E1,-3.766839473E0,-4.868419819E0,2.532279410E0,6.656052145E0
1.586038179E1,-3.634534232E0,-7.040663357E0,3.712080299E0,8.749875413E0
1.587032079E1,-2.336831842E0,-8.703243699E0,3.346114181E0,9.612685059E0
1.588025979E1,-7.601830584E-1,-9.620915079E0,6.455191594E-1,9.672465054E0
1.589019879E1,-6.672035587E-1,-1.034378881E1,-2.259429909E-2,1.036530935E1
1.590013779E1,-6.543560565E-1,-1.057794290E1,-3.574461401E-1,1.060418906E1
1.591007679E1,-3.565737355E-1,-1.062801611E1,-8.751936972E-1,1.066995011E1
1.592001579E1,-1.007030869E-1,-1.062969310E1,-1.317407507E0,1.071149284E1
1.592995479E1,-4.292263767E-2,-1.064232776E1,-1.468423546E0,1.074324207E1
1.593989379E1,-5.883846631E-2,-1.066574937E1,-1.259089717E0,1.073997106E1
1.594983379E1,-2.292342424E-2,-1.070717104E1,-8.941281509E-1,1.074446380E1
1.595977279E1,-1.444165787E-1,-1.084714871E1,-4.880401933E-1,1.085908258E1
1.596971179E1,6.390652221E-2,-1.062775533E1,-1.984591039E-1,1.062980025E1
1.597965079E1,1.775556734E-1,-1.074591937E1,6.274003923E-1,1.076568346E1
1.598958979E1,4.432002354E-1,-1.077555189E1,8.756953883E-1,1.082015653E1
1.599952879E1,5.855433914E-1,-1.071865030E1,5.489003527E-1,1.074865651E1
1.600946779E1,6.816944209E-1,-1.063280264E1,4.852037456E-1,1.066567495E1
1.601940679E1,7.669719681E-1,-1.055945868E1,4.178876388E-1,1.059551998E1
1.602934579E1,7.821036851E-1,-1.045354222E1,1.846433393E-1,1.048438478E1
1.603928479E1,8.717338997E-1,-1.033799188E1,-1.902274851E-1,1.037642436E1
1.604922379E1,9.195436585E-1,-1.027493551E1,-3.063450019E-1,1.032054783E1
1.605916379E1,9.283796784E-1,-1.020579686E1,-5.016501725E-1,1.026020620E1
1.606910279E1,9.094466134E-1,-1.013261077E1,-5.484010005E-1,1.018811257E1
1.607904179E1,9.053560475E-1,-1.005366985E1,-4.050494921E-1,1.010247554E1
1.608898079E1,8.532216880E-1,-9.998974993E0,-3.959143871E-1,1.004311886E1
1.609891979E1,9.795510746E-1,-9.922151935E0,-5.868908823E-1,9.987645380E0
1.610885879E1,9.304809485E-1,-9.820426755E0,-6.917256117E-1,9.888632907E0
1.611879779E1,8.215329221E-1,-9.647956697E0,-5.495359451E-1,9.698452172E0
1.612873679E1,6.972658485E-1,-9.459809670E0,-5.959271693E-1,9.504173180E0
1.613867579E1,6.130690129E-1,-9.228868040E0,-4.845868278E-1,9.261894154E0
1.614861479E1,4.842301476E-1,-9.172080467E0,-2.444124448E-1,9.188105157E0
1.615855479E1,5.224768583E-1,-8.944212134E0,-4.520967740E-1,8.970858613E0
1.616849379E1,5.404799529E0,2.121623023E0,-1.367645615E0,5.965198800E0
1.617843279E1,2.992992524E1,9.367811099E1,2.369501917E-1,9.834350537E1
1.618837179E1,-8.607670959E0,9.460409477E1,1.522531224E1,9.620726002E1
1.619831079E1,-9.712357346E0,4.434692073E1,2.551830862E1,5.207843448E1
1.620824979E1,-7.564349931E-1,1.815861475E1,3.822487425E0,1.857199218E1
1.621818879E1,-4.987682553E0,1.442845603E1,-2.313107057E0,1.544045935E1
1.622812779E1,-5.399230641E0,1.489750797E1,-5.781671873E0,1.686757733E1
1.623806679E1,-4.576060790E0,1.468197843E1,-7.703358128E0,1.720007411E1
1.624800579E1,-4.164903882E0,1.114717636E1,-7.392529500E0,1.400912051E1
1.625794579E1,-3.324224544E0,6.658498113E0,-5.608810637E0,9.319056964E0
1.626788479E1,-2.605043916E0,2.282305679E0,-3.591177421E0,4.989161080E0
1.627782379E1,-1.391886855E0,-1.060754501E0,-2.672896761E0,3.194828043E0
1.628776279E1,-1.943000525E-1,-3.365091319E0,-2.200627677E0,4.025463237E0
1.629770179E1,2.112121005E-1,-5.213286844E0,-1.517951217E0,5.433888678E0
1.630764079E1,3.859967785E-1,-6.675983627E0,-1.076242021E0,6.773185941E0
1.631757979E1,7.187226449E-1,-7.784880593E0,-9.855341649E-1,7.879860766E0
1.632751879E1,9.505885729E-1,-8.826097208E0,-7.754062843E-1,8.910940774E0
1.633745779E1,9.262144545E-1,-9.589916650E0,-4.597572112E-1,9.645504200E0
1.634739679E1,7.862737732E-1,-1.006935793E1,-1.185160629E-1,1.010070500E1
1.635733679E1,7.292056793E-1,-1.038686759E1,1.281926018E-1,1.041322200E1
1.636727579E1,9.948300683E-1,-1.039906020E1,4.784191847E-2,1.044664677E1
1.637721458E1,1.105634513E0,-1.036635087E1,1.617164433E-1,1.042639968E1
1.638715358E1,1.206731702E0,-1.037979012E1,1.505704808E-1,1.045078541E1
