"Time (s)","Linear Acceleration x (m/s^2)","Linear Acceleration y (m/s^2)","Linear Acceleration z (m/s^2)","Absolute acceleration (m/s^2)"
-1.813666669E-3,1.337574116E0,1.163515808E0,1.400700327E-1,1.778340002E0
8.125333334E-3,1.337442115E0,1.102832819E0,9.271754444E-2,1.735968946E0
1.806533333E-2,1.306576564E0,9.785414797E-1,3.145566305E-2,1.632689561E0
2.800433333E-2,1.269253494E0,8.829775107E-1,-6.044677952E-2,1.547355011E0
3.794333333E-2,1.252592145E0,8.437497103E-1,-1.868641301E-1,1.521781475E0
4.788233333E-2,1.228542839E0,8.175033134E-1,-2.696326371E-1,1.500110308E0
5.782233333E-2,1.167797139E0,7.867960757E-1,-2.947195494E-1,1.438630542E0
6.776133333E-2,1.130114319E0,6.992919087E-1,-1.861045768E-1,1.341939813E0
7.770033334E-2,1.148935045E0,4.974816924E-1,7.118966784E-3,1.252034525E0
8.763933333E-2,1.163933153E0,2.517922157E-1,2.778959223E-1,1.222851523E0
9.757933333E-2,1.219288744E0,-1.107521117E-2,5.296483952E-1,1.329404048E0
1.075183333E-1,1.298923874E0,-2.275514138E-1,7.354510903E-1,1.509924231E0
1.174573333E-1,1.312020906E0,-3.287865973E-1,8.039629161E-1,1.573485257E0
1.273973333E-1,1.276061115E0,-3.688142967E-1,6.987001705E-1,1.500845722E0
1.373363333E-1,1.278819100E0,-4.435253406E-1,4.439287984E-1,1.424487907E0
1.472753333E-1,1.328871704E0,-5.509930712E-1,1.067023118E-1,1.442525131E0
1.572143333E-1,1.354342468E0,-6.880646700E-1,-2.969437937E-1,1.547854040E0
1.671543333E-1,1.291172512E0,-7.969310546E-1,-6.565692276E-1,1.653272123E0
1.770933333E-1,1.153193133E0,-9.238372689E-1,-9.518998110E-1,1.757681129E0
1.870323333E-1,9.721431640E-1,-1.089977131E0,-1.166806036E0,1.869371232E0
1.969723333E-1,7.632420292E-1,-1.198862227E0,-1.403221829E0,1.997208185E0
2.069113333E-1,6.102398376E-1,-1.258607907E0,-1.758275873E0,2.246780044E0
2.168503333E-1,6.369398323E-1,-1.309276954E0,-2.075999538E0,2.535679904E0
2.267893333E-1,7.853985912E-1,-1.324057546E0,-2.253366054E0,2.729036076E0
2.367293333E-1,1.020151874E0,-1.316490664E0,-2.401919246E0,2.922853670E0
2.466683333E-1,1.196413120E0,-1.188845361E0,-2.598978015E0,3.098297011E0
2.566073333E-1,1.211516040E0,-9.309948456E-1,-2.734457417E0,3.132376076E0
2.665463333E-1,1.240469259E0,-6.173753411E-1,-2.681486320E0,3.018324897E0
2.764863333E-1,1.260840081E0,-2.091350234E-1,-2.286647236E0,2.619582171E0
2.864253333E-1,1.194906951E0,2.258405185E-1,-1.685201465E0,2.078150750E0
2.963643333E-1,1.123517564E0,6.525562835E-1,-1.168184810E0,1.747219840E0
3.063043333E-1,7.071692777E-1,1.208923531E0,-1.058450114E0,1.755534429E0
3.162433333E-1,-1.895334023E-1,1.893365850E0,-7.812593472E-1,2.056969451E0
3.261823333E-1,-1.133559645E0,2.687824118E0,3.765840769E-1,2.941287392E0
3.361213333E-1,-1.990102186E0,3.439519358E0,1.833710217E0,4.376447565E0
3.460613333E-1,-2.992798514E0,4.002516763E0,2.861780537E0,5.759059925E0
3.560003333E-1,-4.014211194E0,4.321458988E0,3.616333312E0,6.918581207E0
3.659393333E-1,-4.721374332E0,4.360655213E0,4.083715292E0,7.614684502E0
3.758793333E-1,-4.739918484E0,3.968059705E0,3.531181480E0,7.119098799E0
3.858183333E-1,-4.021712002E0,3.307186342E0,2.216664251E0,5.659085556E0
3.957573333E-1,-3.198072328E0,2.969568111E0,1.109309341E0,4.502951099E0
4.056963333E-1,-2.819631760E0,2.946892024E0,5.470445926E-1,4.115064234E0
4.156363333E-1,-2.909389737E0,3.015012086E0,4.530118632E-1,4.214269363E0
4.255753333E-1,-2.997823026E0,3.054946230E0,7.005092990E-1,4.337090343E0
4.355143333E-1,-2.750233497E0,3.230515312E0,1.034438011E0,4.366929753E0
4.454533333E-1,-2.431016599E0,3.506341923E0,1.266134004E0,4.450547236E0
4.553933333E-1,-2.100706363E0,3.691555402E0,1.257488165E0,4.429652921E0
4.653323333E-1,-1.774817939E0,3.642341142E0,9.945669436E-1,4.172024822E0
4.752713333E-1,-1.305720093E0,3.426784122E0,7.792315328E-1,3.748994020E0
4.852113333E-1,-8.117456333E-1,3.027809887E0,7.980280653E-1,3.234719845E0
4.951503333E-1,-4.421540223E-1,2.488801269E0,9.130636279E-1,2.687622951E0
5.050893333E-1,-2.870395971E-1,1.824347656E0,9.620296005E-1,2.082339322E0
5.150283333E-1,-1.699770972E-1,1.317264251E0,8.710293102E-1,1.588322819E0
5.249683333E-1,-6.084444501E-2,9.839729583E-1,9.554666857E-1,1.372887984E0
5.349073333E-1,2.662503335E-1,5.384320825E-1,6.568107176E-1,8.900554288E-1
5.448463333E-1,8.274640453E-1,5.471882880E-2,2.037169933E-1,8.539271104E-1
5.547863333E-1,1.154674964E0,-3.359003198E-1,-1.492538340E-1,1.211767306E0
5.647253333E-1,8.812233460E-1,-7.695602381E-1,-5.121506023E-1,1.277135774E0
5.746643333E-1,4.561915791E-1,-1.146920241E0,-3.408189976E-1,1.280505519E0
5.846033333E-1,4.300377144E-1,-1.367805244E0,-2.099724908E-1,1.449107335E0
5.945433333E-1,7.157842728E-1,-1.466301591E0,-7.133603096E-5,1.631682410E0
6.044823333E-1,4.663483389E-1,-8.177208298E-1,9.773761296E-1,1.356986451E0
6.144213333E-1,-7.992360270E-1,-4.287102503E-1,1.892978765E0,2.099032946E0
6.243603333E-1,-1.797999371E0,-1.247028666E0,1.947940399E0,2.929565502E0
6.343003333E-1,-1.540510506E0,-2.606383513E0,1.319268822E0,3.302556262E0
6.442393333E-1,-9.691876888E-2,-3.744845756E0,3.664075828E-1,3.763976289E0
6.541783333E-1,1.892565951E0,-4.281727742E0,2.607412331E-2,4.681418396E0
6.641183333E-1,3.521305532E0,-4.253143044E0,8.210062341E-1,5.582371327E0
6.740573333E-1,3.838276369E0,-4.044119117E0,1.282837014E0,5.721270464E0
6.839963333E-1,3.772730543E0,-3.647961486E0,1.446145070E0,5.443569997E0
6.939353333E-1,3.467445075E0,-3.351663188E0,1.339749280E0,5.005172286E0
7.038753333E-1,2.970554536E0,-3.173748204E0,1.373803464E0,4.558970045E0
7.138143333E-1,2.419093834E0,-2.866121510E0,1.494833957E0,4.037473969E0
7.237533333E-1,2.001373718E0,-2.650137643E0,1.524591315E0,3.654190056E0
7.336933333E-1,1.970447502E0,-2.677282172E0,1.455120692E0,3.628757283E0
7.436323333E-1,2.163214122E0,-2.821436504E0,1.393110824E0,3.818475749E0
7.535714583E-1,2.155591253E0,-3.011972119E0,1.374777464E0,3.950767364E0
7.635104583E-1,2.053314388E0,-3.150104987E0,1.327350844E0,3.987621054E0
7.734504583E-1,1.915919877E0,-3.261759324E0,1.349199257E0,4.016237231E0
7.833894583E-1,1.820233993E0,-3.177184612E0,1.364861609E0,3.907761644E0
7.933284583E-1,1.702732587E0,-2.889817936E0,1.321912641E0,3.605246038E0
8.032684583E-1,1.542199620E0,-2.526914005E0,1.290865241E0,3.229552156E0
8.132074583E-1,1.429729304E0,-2.229158581E0,1.243088812E0,2.925498873E0
8.231464583E-1,1.371832514E0,-2.024637011E0,1.209265008E0,2.728259763E0
8.330854583E-1,1.279759332E0,-1.879161794E0,1.281350652E0,2.609768666E0
8.430254583E-1,1.110735477E0,-1.763861718E0,1.382990463E0,2.501520354E0
8.529644583E-1,9.304187487E-1,-1.786015649E0,1.435127746E0,2.472877391E0
8.629034583E-1,7.698721871E-1,-1.916051878E0,1.546547610E0,2.579877418E0
8.728424583E-1,6.686305717E-1,-2.075192038E0,1.678291225E0,2.751390607E0
8.827824583E-1,6.430456410E-1,-2.290921551E0,1.991732390E0,3.103035153E0
8.927214583E-1,6.462605864E-1,-2.316449325E0,2.334463427E0,3.351613002E0
9.026604583E-1,7.135159917E-1,-2.109970107E0,2.557388524E0,3.391358870E0
9.126004583E-1,8.067935532E-1,-1.881332865E0,2.753525187E0,3.431068367E0
9.225394583E-1,9.315305237E-1,-1.902992122E0,2.663083963E0,3.403108039E0
9.324784583E-1,1.117788974E0,-2.186645815E0,2.521759100E0,3.519963220E0
9.424174583E-1,1.452436820E0,-2.664596053E0,2.422840583E0,3.883271988E0
9.523574583E-1,1.843501234E0,-3.290801275E0,2.256449876E0,4.395388023E0
9.622964583E-1,2.147047740E0,-4.113128541E0,2.110001682E0,5.097033205E0
9.722354583E-1,2.287704851E0,-5.225078339E0,1.802024741E0,5.981833356E0
9.821754583E-1,2.338487773E0,-6.756617315E0,1.525950208E0,7.310877283E0
9.921144583E-1,2.230991245E0,-8.430246556E0,1.499721352E0,8.848476878E0
1.002053458E0,2.064624804E0,-9.955144265E0,1.240885581E0,1.024242988E1
1.011992458E0,1.837450974E0,-1.107519713E1,6.718181813E-1,1.124666872E1
1.021932458E0,1.484464359E0,-1.192227040E1,-2.498860234E-1,1.201693010E1
1.031871458E0,1.108268099E0,-1.210200095E1,-1.168409927E0,1.220867998E1
1.041810458E0,7.946664280E-1,-1.154387603E1,-1.951267903E0,1.173456496E1
1.051749458E0,4.067556366E-1,-1.046316790E1,-2.614497110E0,1.079254038E1
1.061689458E0,6.552294843E-2,-9.451613043E0,-3.643226411E0,1.012967823E1
1.071628458E0,-2.302911267E-1,-8.646225160E0,-4.988752009E0,9.984883080E0
1.081567458E0,-8.501346505E-1,-7.485033036E0,-5.717339637E0,9.457083113E0
1.091507458E0,-1.731380289E0,-5.538760993E0,-5.609523413E0,8.071078241E0
1.101446458E0,-2.610667476E0,-3.011250572E0,-4.938718554E0,6.346192215E0
1.111385458E0,-3.698621762E0,-1.354641992E-1,-3.761448340E0,5.276992241E0
1.121324458E0,-4.648370090E0,2.689623306E0,-2.926240243E0,6.115905492E0
1.131264458E0,-5.191126481E0,4.350371715E0,-2.509386392E0,7.222918265E0
1.141203458E0,-4.538512018E0,4.388345287E0,-2.605315812E0,6.829592680E0
1.151142458E0,-3.692668712E0,4.980180575E0,-3.070271198E0,6.918422219E0
1.161082458E0,-3.102342006E0,6.615405888E0,-3.566396921E0,8.130640072E0
1.171021458E0,-2.164508549E0,8.659767897E0,-3.384566056E0,9.546306336E0
1.180960458E0,-1.295198905E0,1.078555648E1,-2.691584462E0,1.119153232E1
1.190899458E0,-7.831646624E-1,1.279613093E1,-1.496374845E0,1.290710856E1
1.200839458E0,-6.820256656E-1,1.431545975E1,-8.070327044E-3,1.433169955E1
1.210778458E0,-1.064147933E0,1.535257338E1,1.441201833E0,1.545674555E1
1.220717458E0,-1.600586992E0,1.584867922E1,3.489805412E0,1.630709213E1
1.230657458E0,-2.756151464E0,1.546467620E1,4.866220096E0,1.644483745E1
1.240596458E0,-3.467590963E0,1.444712268E1,4.680623624E0,1.557728405E1
1.250535458E0,-3.109825857E0,1.371401281E1,5.909861552E0,1.525357754E1
1.260474458E0,-3.021755387E0,1.349147480E1,6.793579320E0,1.540466221E1
1.270414458E0,-2.724121001E0,1.338764462E1,6.548925970E0,1.515052128E1
1.280353458E0,-2.246415469E0,1.301754628E1,4.917012520E0,1.409538597E1
1.290292458E0,-1.174373576E0,1.212317956E1,2.974255239E0,1.253781601E1
1.300231458E0,2.383072939E-1,1.096666112E1,2.086974177E0,1.116601575E1
1.310171458E0,1.371513548E0,9.499639149E0,1.533247533E0,9.719827229E0
1.320110458E0,2.159664570E0,8.103762007E0,3.897346111E-1,8.395653804E0
1.330049458E0,2.820739223E0,6.773701125E0,-1.185666815E0,7.432725106E0
1.339989458E0,3.349036327E0,5.454640025E0,-3.594053081E0,7.340732911E0
1.349928458E0,3.615591592E0,4.216614318E0,-6.548779789E0,8.587133142E0
1.359867458E0,3.618174600E0,3.807151347E0,-8.179899187E0,9.720922771E0
1.369806458E0,2.923924453E0,4.673957214E0,-7.337495506E0,9.177911012E0
1.379746458E0,1.634840566E0,6.390030223E0,-5.936911941E0,8.874238746E0
1.389685458E0,1.472623089E-1,8.105110960E0,-3.909176197E0,8.999787131E0
1.399624458E0,-1.118697339E0,9.574170683E0,-6.577801859E-1,9.661723592E0
1.409564458E0,-2.446071863E0,1.044711730E1,3.209967027E0,1.119952747E1
1.419503458E0,-4.739870537E0,1.000281077E1,6.064744939E0,1.262155803E1
1.429442458E0,-7.706282321E0,7.250516419E0,5.518675808E0,1.193367329E1
1.439381458E0,-9.688708282E0,3.205829537E0,2.405573756E0,1.048499863E1
1.449321458E0,-1.135632775E1,-1.348237537E0,1.511107635E0,1.153548312E1
1.459260458E0,-1.171659927E1,-5.451896512E0,8.095082693E-1,1.294824998E1
1.469199458E0,-5.734035192E0,-6.062599010E0,-2.222903230E0,8.635714511E0
1.479138458E0,8.525162946E-1,-4.656940062E0,-3.012578183E0,5.611550773E0
1.489078458E0,3.670499871E0,-5.242272661E0,-3.442338885E0,7.266614684E0
1.499017458E0,8.021979926E0,-6.663591623E0,-5.035486465E0,1.158066229E1
1.508956458E0,1.225299009E1,-7.814247649E0,-3.712756237E0,1.499942637E1
1.518896458E0,1.639715390E1,-7.988702837E0,-1.106747018E0,1.827322954E1
1.528835458E0,1.708992850E1,-6.203890545E0,4.432213584E-1,1.818654335E1
1.538774458E0,8.564562947E0,-3.509526901E0,2.155502375E0,9.503405075E0
1.548713458E0,-3.172292539E0,-2.446651030E0,3.684753921E0,5.443064640E0
1.558653458E0,-1.112437339E1,-4.644754465E0,5.827022878E0,1.338953408E1
1.568592458E0,-1.228676127E1,-7.343007091E0,5.969793173E0,1.550879383E1
1.578531458E0,-5.684367188E0,-4.849156752E0,3.077498356E0,8.080677426E0
1.588470458E0,8.278922807E-1,-3.722910511E-1,1.002916621E0,1.352718746E0
1.598410458E0,3.367140768E0,3.707649279E-1,-1.098364231E0,3.561110440E0
1.608349458E0,3.977346253E0,-1.449049382E0,-2.956140565E0,5.163118667E0
1.618288458E0,2.387505567E0,-3.881492262E0,-4.095689220E0,6.127057630E0
1.628228458E0,3.798131286E-1,-5.967805120E0,-3.795731735E0,7.082833851E0
1.638167458E0,-9.944453947E-1,-7.092572014E0,-1.600678939E0,7.338642415E0
1.648106458E0,-2.225454955E0,-6.692167550E0,8.423930101E-1,7.102632066E0
1.658045458E0,-1.946229942E0,-5.604755593E0,8.853294070E-1,5.998741902E0
1.667985458E0,-3.149097658E-1,-5.458796811E0,-3.174124472E-1,5.477077820E0
1.677924458E0,2.468927606E-1,-5.429785851E0,-2.279944865E-1,5.440175724E0
1.687863458E0,-2.271037363E-1,-4.614648905E0,-1.702099626E-1,4.623368043E0
1.697803458E0,-4.382466204E-1,-4.018101346E0,-4.402204943E-1,4.065832340E0
1.707742458E0,3.123414494E-2,-3.209723783E0,1.903020188E-2,3.209932161E0
1.717681458E0,-9.714761429E-2,-2.326992440E0,4.045210500E-1,2.363888481E0
1.727620458E0,-7.391115204E-1,-1.897609760E0,6.619423802E-1,2.141349190E0
1.737560458E0,-1.022462913E0,-1.875472786E0,7.449646564E-1,2.262255715E0
1.747499458E0,-5.332708184E-1,-1.714846264E0,6.900733347E-1,1.923870235E0
1.757438208E0,3.680741854E-1,-2.069734831E0,6.278833723E-1,2.193973201E0
1.767378208E0,8.818389116E-1,-3.057337157E0,1.061278996E0,3.354290307E0
1.777317208E0,-3.835458449E-1,-4.991862143E0,1.588763191E0,5.252614924E0
1.787256208E0,-8.126222771E-1,-4.622413423E0,2.215893734E0,5.190110390E0
1.797195208E0,5.300259791E-2,-1.561210088E0,1.897067284E0,2.457447964E0
1.807135208E0,1.094259632E0,4.280968773E-1,1.721990099E0,2.084687262E0
1.817074208E0,1.871338512E0,-2.307837546E-2,1.409458323E0,2.342864316E0
1.827013208E0,2.329885642E0,-4.987727576E-1,1.323687855E0,2.725672560E0
1.836952208E0,2.305346340E0,-1.145863649E0,1.970615901E0,3.242059882E0
1.846892208E0,1.741480916E0,-1.334368526E0,2.623104211E0,3.419644842E0
1.856831208E0,1.083715348E0,-1.134739906E0,2.205670316E0,2.706853367E0
1.866770208E0,9.312554122E-1,-5.378344971E-1,2.187312544E0,2.437383588E0
1.876710208E0,8.711450851E-1,-1.981913745E-1,2.117462729E0,2.298221484E0
1.886649208E0,7.738603536E-1,-4.169158316E-1,1.942620602E0,2.132241417E0
1.896588208E0,8.009809823E-1,-5.610701627E-1,1.858198357E0,2.099826515E0
1.906527208E0,1.054022894E0,-3.353553593E-1,1.757299973E0,2.076422566E0
1.916467208E0,1.177559431E0,-5.329509026E-1,1.805441415E0,2.220428243E0
1.926406208E0,1.109876814E0,-9.105330992E-1,1.868521031E0,2.356325086E0
1.936345208E0,1.058235740E0,-1.055483821E0,2.024427827E0,2.516389677E0
1.946284208E0,8.122801419E-1,-8.743306482E-1,2.108191530E0,2.422545075E0
1.956224208E0,9.524682335E-1,-1.488041539E0,1.927788701E0,2.614924977E0
1.966163208E0,1.157700752E0,-2.704774026E0,1.756798428E0,3.426720631E0
1.976102208E0,1.124562534E0,-3.677270654E0,1.771698303E0,4.233895988E0
1.986042208E0,1.186587971E0,-4.153692430E0,2.007618105E0,4.763578726E0
1.995981208E0,1.381209986E0,-4.391032668E0,2.036952417E0,5.033694872E0
2.005920208E0,1.204114927E0,-4.767679310E0,1.967886275E0,5.296530482E0
2.015859208E0,9.056317437E-1,-5.107033580E0,1.683458995E0,5.453072073E0
2.025799208E0,5.861998875E-1,-5.807937566E0,1.316624565E0,5.984084669E0
2.035738208E0,2.169221990E-1,-7.058986777E0,1.104709775E0,7.148197902E0
2.045677208E0,1.039039258E-1,-8.700088542E0,8.423042786E-1,8.741385082E0
2.055616208E0,1.359188202E-1,-1.041950207E1,4.521710336E-1,1.043019443E1
2.065556208E0,2.574798024E-1,-1.172451406E1,4.427511692E-3,1.172734179E1
2.075495208E0,1.001151493E0,-1.287832524E1,-3.497441876E-1,1.292191497E1
2.085434208E0,1.702622221E0,-1.368959250E1,-8.749247253E-1,1.382278404E1
2.095374208E0,1.864749869E0,-1.330086259E1,-7.811096585E-1,1.345363780E1
2.105313208E0,9.723462816E-1,-1.187094354E1,-1.143042952E0,1.196542122E1
2.115252208E0,-5.542132790E-1,-1.001890932E1,-2.451666772E0,1.032939332E1
2.125191208E0,-1.886479292E0,-8.753145007E0,-4.094465398E0,9.845862000E0
2.135131208E0,-2.539582875E0,-7.541045269E0,-5.609225205E0,9.735515000E0
2.145070208E0,-2.629277701E0,-6.033084605E0,-6.210323651E0,9.048719851E0
2.155009208E0,-2.851030139E0,-3.891103916E0,-5.715597167E0,7.479111813E0
2.164949208E0,-2.930597003E0,-2.040809825E0,-5.048029912E0,6.183519186E0
2.174888208E0,-2.643782597E0,-4.529142147E-1,-3.211238211E0,4.184109052E0
2.184827208E0,-2.999635955E0,2.737541238E0,-1.124634748E0,4.213876032E0
2.194766208E0,-3.223324114E0,4.964953841E0,-2.148663910E-1,5.923407174E0
2.204706208E0,-3.043812839E0,6.467757846E0,-2.812101424E-1,7.153724016E0
2.214645208E0,-1.960846374E0,7.335721461E0,-5.124815547E-1,7.610543029E0
2.224584208E0,-8.417663348E-1,8.737113111E0,9.403265633E-2,8.778072580E0
2.234523208E0,-4.643627706E-1,1.070664713E1,1.080738603E0,1.077106873E1
2.244463208E0,-3.704604889E-2,1.265293262E1,1.667205928E0,1.276235292E1
2.254402208E0,4.378621660E-1,1.441201600E1,1.933446175E0,1.454771949E1
2.264341208E0,1.147809748E0,1.581618975E1,2.142912151E0,1.600191857E1
2.274281208E0,1.827693286E0,1.651130441E1,2.296148962E0,1.677009052E1
2.284220208E0,2.499951324E0,1.668167707E1,2.269579068E0,1.701996168E1
2.294159208E0,3.510052274E0,1.629410608E1,1.741256382E0,1.675858984E1
2.304098208E0,4.286122802E0,1.551456230E1,9.229118009E-1,1.612216667E1
2.314038208E0,4.360447052E0,1.456064403E1,7.284234680E-2,1.519970918E1
2.323977208E0,3.321634228E0,1.333396485E1,-5.772464848E-1,1.375358448E1
2.333916208E0,1.673592403E0,1.149708076E1,-5.985350275E-1,1.163365900E1
2.343855208E0,4.648965118E-1,9.466157407E0,-1.434964097E-1,9.478652649E0
2.353795208E0,-3.562496535E-1,7.977077987E0,-5.200513601E-2,7.985198280E0
2.363734208E0,-1.036266362E0,6.943650448E0,5.195251107E-2,7.020742737E0
2.373673208E0,-1.406609852E0,6.239742163E0,3.098427880E-1,6.403821991E0
2.383613208E0,-1.762276099E0,6.005805005E0,6.251012671E-1,6.290155992E0
2.393552208E0,-1.843359293E0,6.045466084E0,8.735588157E-1,6.380340011E0
2.403491208E0,-1.273235886E0,6.689123490E0,8.536771131E-1,6.862526306E0
2.413430208E0,-2.984051956E-1,7.799068862E0,3.535869777E-1,7.812780845E0
2.423370208E0,6.375551055E-1,8.595695277E0,-4.989323866E-1,8.633735422E0
2.433309208E0,1.120165867E0,8.954258235E0,-1.310053464E0,9.118648594E0
2.443248208E0,1.075296088E0,9.142536825E0,-1.756800621E0,9.371690866E0
2.453188208E0,8.475816831E-1,9.215908856E0,-1.709634640E0,9.411387855E0
2.463127208E0,6.231921512E-1,9.291854247E0,-1.406620231E0,9.418359957E0
2.473066208E0,4.789762782E-1,9.478896736E0,-9.279519546E-1,9.536246454E0
2.483005208E0,5.428395675E-1,9.646163941E0,-5.233268972E-1,9.675589109E0
2.492945208E0,6.485100102E-1,9.723927816E0,-4.651565301E-1,9.756623802E0
2.502884208E0,7.992170236E-1,9.721788905E0,-7.023920294E-1,9.779840588E0
2.512823208E0,1.210990521E0,9.450884480E0,-1.245775023E0,9.609249237E0
2.522762208E0,1.359555846E0,9.087626207E0,-1.840857854E0,9.371344611E0
2.532702208E0,4.384087345E-1,7.730983298E0,-2.142164876E0,8.034250142E0
2.542641208E0,-2.514713205E0,2.900739951E0,-2.559249108E0,4.613873726E0
2.552580208E0,-6.547256005E0,-3.884828684E0,-5.393199822E0,9.329794179E0
2.562520208E0,-9.410245162E0,-1.194548385E1,-6.932954721E0,1.671266464E1
2.572459208E0,-8.646509335E0,-1.788713437E1,-6.370950758E-1,1.987756499E1
2.582398208E0,-8.503287635E0,-1.992543048E1,1.939751812E0,2.175066246E1
2.592337208E0,-6.350363882E0,-1.969734931E1,1.832848923E0,2.077671837E1
2.602277208E0,-4.888842389E-1,-1.476426513E1,-1.647248942E0,1.486391475E1
2.612216208E0,6.142356201E0,-8.311485513E0,-3.994342355E0,1.107989630E1
2.622155208E0,8.407963986E0,-8.097335917E0,-4.300027773E0,1.243989334E1
2.632094208E0,5.200306025E0,-9.641600774E0,-3.729334263E0,1.157201721E1
2.642034208E0,6.809725821E-2,-7.796745179E0,-1.184438900E0,7.886492765E0
2.651973208E0,-4.240045865E0,-6.492561150E0,-8.475772977E-2,7.754903165E0
2.661912208E0,-5.457067205E0,-7.724349048E0,7.198998356E-1,9.484904135E0
2.671852208E0,-5.396946133E0,-9.581580859E0,1.066613631E-1,1.099750408E1
2.681791208E0,-4.034815612E0,-9.536237456E0,-9.187016594E-1,1.039536313E1
2.691730208E0,-5.664104247E-1,-6.363758683E0,-1.977622620E-1,6.391975849E0
2.701669208E0,2.364751712E0,-4.944690315E0,-5.543090272E-1,5.509017287E0
2.711609208E0,3.593785279E0,-5.109510460E0,-5.766442215E-1,6.273349052E0
2.721548208E0,2.462658952E0,-4.999085208E0,6.721269874E-1,5.613136086E0
2.731487208E0,1.115775046E0,-4.248330200E0,1.650707570E0,4.692344715E0
2.741426208E0,-5.267727345E-2,-3.403033317E0,1.636063803E0,3.776256800E0
2.751366208E0,-6.145850497E-1,-2.822924620E0,1.520525161E0,3.264753430E0
2.761305500E0,6.255031170E-1,-2.543668032E0,1.736196348E0,3.142591123E0
2.771244500E0,1.862450598E0,-2.485448475E0,2.425907009E0,3.940964498E0
2.781184500E0,2.226351041E0,-2.126182682E0,3.032601095E0,4.321337890E0
2.791123500E0,2.099017395E0,-1.700975499E0,3.242544204E0,4.220578703E0
2.801062500E0,1.716203987E0,-1.506862557E0,3.296061430E0,4.009989008E0
2.811001500E0,1.447042032E0,-1.238567744E0,3.042555395E0,3.589585496E0
2.820941500E0,1.751620134E0,-9.445855290E-1,2.579135488E0,3.257660937E0
2.830880500E0,2.551822559E0,-8.078641784E-1,2.288279925E0,3.521458209E0
2.840819500E0,3.080440090E0,-8.940626621E-1,1.976059221E0,3.767395551E0
2.850758500E0,2.714703183E0,-8.107515335E-1,2.252973852E0,3.619782121E0
2.860698500E0,1.943200646E0,-5.619934380E-1,2.808416801E0,3.461079355E0
2.870637500E0,1.280569610E0,-3.612766510E-1,2.726726520E0,3.034042989E0
2.880576500E0,8.158548371E-1,-1.809052509E-1,2.552085392E0,2.685420949E0
2.890516500E0,7.887192249E-1,2.856832623E-2,2.486374090E0,2.608629962E0
2.900455500E0,1.041452404E0,2.463320857E-1,2.445134847E0,2.669079809E0
2.910394500E0,1.349038020E0,2.785151607E-1,2.406674494E0,2.773004939E0
2.920333500E0,1.626784272E0,7.301418185E-2,2.360425211E0,2.867641071E0
2.930273500E0,1.703434253E0,1.746446371E-2,2.383734697E0,2.929877876E0
2.940212500E0,1.510417956E0,2.056231856E-1,2.328687694E0,2.783240858E0
2.950151500E0,1.296473306E0,2.345271420E-1,2.207817852E0,2.571051474E0
2.960090500E0,1.247429638E0,1.801398504E-1,2.176883012E0,2.515422572E0
2.970030500E0,1.254112129E0,1.071876490E-1,2.034038165E0,2.391986137E0
2.979969500E0,1.262133924E0,2.284097850E-2,1.958234569E0,2.329846857E0
2.989908500E0,1.334685299E0,8.154526949E-2,2.050724072E0,2.448163331E0
2.999848500E0,1.305452729E0,2.974273950E-1,2.074744287E0,2.469257731E0
3.009787500E0,1.219816309E0,5.314990389E-1,2.073586539E0,2.463778437E0
3.019726500E0,1.213313182E0,6.348649478E-1,2.032560281E0,2.450812860E0
3.029665500E0,1.311375812E0,5.091211599E-1,1.968661323E0,2.419615317E0
3.039605500E0,1.421085804E0,3.319189507E-1,1.965159572E0,2.447755542E0
3.049544500E0,1.346452235E0,2.794378513E-1,1.938105236E0,2.376398755E0
3.059483500E0,1.272251654E0,1.266711563E-1,1.959679123E0,2.339874381E0
3.069423500E0,1.184972751E0,-2.407883406E-3,2.088854788E0,2.401557941E0
3.079362500E0,1.145452005E0,4.002068281E-2,2.197242286E0,2.478212181E0
3.089301500E0,1.042816852E0,9.233689070E-2,2.190819558E0,2.428102844E0
3.099240500E0,9.425113754E-1,1.095715588E-1,2.499399347E0,2.673449217E0
3.109180500E0,9.576227733E-1,-4.730865240E-2,2.804001861E0,2.963394324E0
3.119119500E0,6.925290191E-1,-2.669464445E-1,2.574788668E0,2.679625633E0
3.129058500E0,6.322958274E-1,-1.022082186E0,2.576390805E0,2.842927996E0
3.138997500E0,6.743738531E-1,-2.337166010E0,2.635071123E0,3.586185282E0
3.148937500E0,7.852089952E-1,-3.745146303E0,2.498181957E0,4.569856353E0
3.158876500E0,9.941048674E-1,-4.737034053E0,2.419194260E0,5.411121600E0
3.168815500E0,1.000715291E0,-5.644651145E0,2.184724420E0,6.134862544E0
3.178754500E0,7.464844939E-1,-6.575888650E0,1.833361723E0,6.867369646E0
3.188694500E0,3.918353695E-1,-7.604912066E0,1.605719093E0,7.782451818E0
3.198633500E0,7.702478707E-2,-8.749119199E0,1.638157107E0,8.901493037E0
3.208572500E0,1.268059346E-1,-1.003547916E1,1.313525541E0,1.012187093E1
3.218512500E0,3.629277585E-1,-1.161588683E1,8.953929037E-1,1.165599725E1
3.228451500E0,8.544879757E-1,-1.336132163E1,2.833578247E-1,1.339161518E1
3.238390500E0,1.603143248E0,-1.452590689E1,-5.493102791E-1,1.462442413E1
3.248329500E0,2.283476876E0,-1.493990029E1,-1.325940934E0,1.517145367E1
3.258269500E0,2.625464147E0,-1.493426825E1,-2.493542191E0,1.536695099E1
3.268208500E0,1.989708669E0,-1.438129706E1,-3.345351119E0,1.489872545E1
3.278147500E0,4.530875116E-1,-1.284490607E1,-3.482004642E0,1.331620278E1
3.288086500E0,-1.088118886E0,-1.122786793E1,-3.828946844E0,1.191259229E1
3.298026500E0,-1.997092094E0,-9.561112681E0,-4.940220119E0,1.094573101E1
3.307965500E0,-2.398685589E0,-7.141516133E0,-5.849108396E0,9.537662935E0
3.317904500E0,-2.619754341E0,-4.475392787E0,-5.801249521E0,7.781179178E0
3.327844500E0,-2.834115314E0,-1.828133143E0,-5.102375103E0,6.116249839E0
3.337783500E0,-3.210996721E0,9.857247841E-1,-3.817479284E0,5.084810850E0
3.347722500E0,-3.645569390E0,3.659308008E0,-2.804265570E0,5.877466858E0
3.357661500E0,-3.757444167E0,5.927212579E0,-2.355338572E0,7.402557356E0
3.367601500E0,-3.036890320E0,7.192142496E0,-2.234494166E0,8.120503720E0
3.377540500E0,-2.188200005E0,8.569619619E0,-1.989706914E0,9.065623711E0
3.387479500E0,-2.053891801E0,1.039107758E1,-1.205159020E0,1.066045839E1
3.397418500E0,-1.730254700E0,1.249896140E1,-6.085267496E-1,1.263281925E1
3.407358500E0,-1.047012667E0,1.450864708E1,-4.293704375E-1,1.455271228E1
3.417297500E0,2.533963993E-2,1.596276658E1,-5.346074188E-1,1.597173642E1
3.427236500E0,6.458632681E-1,1.659709008E1,-8.595757842E-1,1.663187930E1
3.437176500E0,1.204755928E-1,1.636173848E1,-1.073765141E0,1.639737699E1
3.447115500E0,-9.667610212E-1,1.521870255E1,-1.111719418E0,1.528984807E1
3.457054500E0,-1.980854230E0,1.347969617E1,-1.497059115E0,1.370646484E1
3.466993500E0,-2.842150850E0,1.169079668E1,-1.965233978E0,1.219076261E1
3.476933500E0,-3.554490235E0,1.007375971E1,-1.534453229E0,1.079210741E1
3.486872500E0,-3.434180265E0,8.664545656E0,-3.153198749E-1,9.325629853E0
3.496811500E0,-2.385490909E0,7.662914107E0,1.115363402E0,8.102768354E0
3.506750500E0,-1.281355476E0,7.167476016E0,2.171161804E0,7.597929183E0
3.516690500E0,-3.160445642E-1,7.123419585E0,2.553605375E0,7.573895376E0
3.526629500E0,5.364014176E-1,7.366131075E0,2.316235317E0,7.740320377E0
3.536568500E0,1.417370190E0,7.562611554E0,1.517539573E0,7.842509683E0
3.546508500E0,2.231630784E0,7.861757446E0,1.015075724E-2,8.172362519E0
3.556447500E0,2.490717109E0,8.563605173E0,-1.661351842E0,9.071884876E0
3.566386500E0,2.290367966E0,9.262022338E0,-2.389724293E0,9.835732073E0
3.576325500E0,2.382845190E0,9.547769920E0,-2.541314528E0,1.016347092E1
3.586265500E0,2.512418465E0,9.576765677E0,-2.422451159E0,1.019288757E1
3.596204500E0,2.425440694E0,9.563536937E0,-2.326182600E0,1.013682035E1
3.606143500E0,2.047320554E0,9.551582304E0,-2.263723227E0,1.002739691E1
3.616082500E0,1.571417133E0,9.575993845E0,-2.251567451E0,9.961855545E0
3.626022500E0,1.228276937E0,9.552006227E0,-2.214656317E0,9.882013449E0
3.635961500E0,8.113426870E-1,9.391970859E0,-2.213185158E0,9.683262989E0
3.645900500E0,9.975613028E-2,9.065968121E0,-2.510264643E0,9.407611696E0
3.655840500E0,-9.584640415E-1,8.809541402E0,-2.948822190E0,9.339283984E0
3.665779500E0,-1.677831050E0,8.442428060E0,-3.183203151E0,9.177281236E0
3.675718500E0,-2.437194328E0,7.903275016E0,-3.043969252E0,8.812912174E0
3.685657500E0,-3.733884858E0,7.359935950E0,-2.581021800E0,8.647093550E0
3.695597500E0,-4.801797228E0,6.412802789E0,-1.955832825E0,8.246610108E0
3.705536500E0,-5.341802212E0,4.856903728E0,-1.351782703E-1,7.220985934E0
3.715475500E0,-6.824518692E0,2.845724668E0,2.627746900E0,7.847117817E0
3.725414500E0,-8.877548613E0,-5.114758337E-1,2.844237721E0,9.336067969E0
3.735354500E0,-1.005040710E1,-6.186457656E0,2.381325352E0,1.203966992E1
3.745293500E0,-8.358000113E0,-1.428766443E1,1.238276188E-1,1.655321280E1
3.755232000E0,-5.326291303E0,-2.555786855E1,-6.157297592E0,2.682324248E1
3.765172000E0,-2.228928201E0,-2.738754418E1,-7.648379098E0,2.852268221E1
3.775111000E0,2.755428163E0,-1.502288865E1,-5.687505974E0,1.629807633E1
3.785050000E0,9.435563021E0,-6.787146213E0,-1.647598021E0,1.173924114E1
3.794989000E0,1.242855976E1,-7.173050167E0,1.085672411E0,1.439098436E1
3.804929000E0,1.154996649E1,-7.723591248E0,6.810333931E-1,1.391112483E1
3.814868000E0,5.618580165E0,-9.458902767E0,-5.317294192E-1,1.101462758E1
3.824807000E0,8.172691324E-1,-1.133134494E1,-1.116224697E0,1.141548355E1
3.834746000E0,-2.875927291E0,-1.216079470E1,-3.526677954E-1,1.250121035E1
3.844686000E0,-4.230234237E0,-1.100517088E1,-1.861157230E-1,1.179166260E1
3.854625000E0,-3.523703476E0,-6.802179989E0,4.377190554E-1,7.673182962E0
3.864564000E0,-2.418238094E0,-3.018927382E0,2.144175149E0,4.422588053E0
3.874504000E0,-3.163751511E-1,-1.639576226E0,2.270677321E0,2.818559727E0
3.884443000E0,1.688736399E0,-2.291956508E0,9.363673405E-1,2.996944954E0
3.894382000E0,2.740800476E0,-3.280512514E0,1.229834343E0,4.448172896E0
3.904321000E0,2.729202816E0,-3.892944619E0,2.269813102E0,5.268360024E0
3.914261000E0,1.947982207E0,-3.526508385E0,2.328022134E0,4.653018711E0
3.924200000E0,6.140918371E-1,-2.455075114E0,1.876855652E0,3.150728446E0
3.934139000E0,-5.943262748E-1,-1.294090565E0,1.500756017E0,2.068855417E0
3.944078000E0,-1.270070204E0,-8.301280367E-1,1.555667073E0,2.173083275E0
3.954018000E0,-1.198613866E0,-7.259949732E-1,2.293391707E0,2.687636401E0
3.963957000E0,-7.371318725E-1,-1.919161427E-1,3.094414351E0,3.186784489E0
3.973896000E0,1.965108117E-1,3.407038075E-1,3.011984982E0,3.037556439E0
3.983836000E0,1.401747454E0,-8.498343229E-3,2.613661250E0,2.965837702E0
3.993775000E0,2.141277854E0,-7.874696749E-1,2.157164154E0,3.139830652E0
4.003714000E0,2.757776697E0,-1.560894338E0,1.882633871E0,3.685923729E0
4.013653000E0,2.767056813E0,-1.964395487E0,1.915076562E0,3.896533238E0
4.023593000E0,2.255233801E0,-1.803342703E0,2.031626919E0,3.530670240E0
4.033532000E0,2.047473751E0,-3.595745265E-2,1.861665756E0,2.767533393E0
4.043471000E0,1.410061902E0,3.453371412E-1,2.006255558E0,2.476407412E0
4.053410000E0,1.189199410E-1,2.263848943E-1,2.366342447E0,2.380119461E0
4.063350000E0,-8.580197670E-1,4.631930351E-2,1.968466465E0,2.147836964E0
4.073289000E0,-8.832491139E-1,7.502913237E-2,2.081408944E0,2.262304480E0
4.083228000E0,-3.626589328E-1,-2.685041428E-1,1.850473161E0,1.904696012E0
4.093167000E0,1.951178587E-1,-8.835774350E-1,1.623534536E0,1.858667386E0
4.103107000E0,9.722124535E-1,-1.060815897E0,1.704062244E0,2.230326333E0
4.113046000E0,1.212865577E0,-5.718307936E-1,1.606853599E0,2.092847786E0
4.122985000E0,1.231947819E0,-4.319320661E-1,1.498102112E0,1.987101074E0
4.132925000E0,1.214703649E0,-4.850329703E-1,1.665448840E0,2.117659504E0
4.142864000E0,1.093307413E0,-4.095682204E-2,1.582193259E0,1.923625242E0
4.152803000E0,6.712853537E-1,1.618965375E-1,1.404848378E0,1.565386048E0
4.162742000E0,5.968050557E-1,3.489618301E-3,1.194950001E0,1.335699800E0
4.172682000E0,6.020486925E-1,-3.266108483E-1,1.115039759E0,1.308606487E0
4.182621000E0,6.553076908E-1,-5.952196562E-1,1.149377825E0,1.450787370E0
4.192560000E0,7.718841409E-1,-6.527164972E-1,1.129003933E0,1.515418699E0
4.202499000E0,8.663284412E-1,-5.657824337E-1,1.160063027E0,1.554471279E0
4.212439000E0,8.427305406E-1,-4.467459869E-1,1.203083332E0,1.535313077E0
4.222378000E0,7.277180015E-1,-3.021203703E-1,1.183262294E0,1.421604679E0
4.232317000E0,6.230562034E-1,-1.594161487E-1,1.180005541E0,1.343884525E0
4.242257000E0,5.799049214E-1,-9.321163416E-2,1.118290665E0,1.263151668E0
4.252196000E0,6.320845968E-1,-8.320821762E-2,1.155259101E0,1.319499199E0
4.262135000E0,7.310535456E-1,-6.202843308E-2,1.202085650E0,1.408295681E0
4.272074000E0,7.799038164E-1,-1.143440562E-1,1.133533186E0,1.380659991E0
4.282014000E0,8.761852388E-1,-2.205265689E-1,1.127329144E0,1.444715730E0
4.291953000E0,9.273264487E-1,-3.182803202E-1,1.332521829E0,1.654343111E0
4.301892000E0,9.285431081E-1,-3.682898015E-1,1.555894822E0,1.848956024E0
4.311831000E0,9.388119882E-1,-3.528771257E-1,1.737294163E0,2.006011272E0
4.321771000E0,9.496150115E-1,-2.566606075E-1,1.933416793E0,2.169272650E0
4.331710000E0,1.062507350E0,-1.189616024E-1,2.232882088E0,2.475648633E0
4.341649000E0,1.126382919E0,-1.099902195E-1,2.336173153E0,2.595870052E0
4.351589000E0,1.150938155E0,-2.229017079E-1,2.398862321E0,2.669997050E0
4.361528000E0,1.234302054E0,-5.580950993E-1,2.452515203E0,2.801749903E0
4.371467000E0,1.399230666E0,-1.084986532E0,2.208074691E0,2.830306710E0
4.381406000E0,1.495593511E0,-1.759420758E0,2.028774501E0,3.073806651E0
4.391346000E0,1.556829061E0,-2.770503162E0,1.918339309E0,3.712065490E0
4.401285000E0,1.521662591E0,-4.184811897E0,1.872867851E0,4.830708192E0
4.411224000E0,1.508015189E0,-6.027747851E0,1.790485260E0,6.466350705E0
4.421163000E0,1.559554010E0,-8.306444044E0,1.765345157E0,8.633983141E0
4.431103000E0,1.731898206E0,-1.081124680E1,1.771084199E0,1.109140514E1
4.441042000E0,1.900255917E0,-1.306551684E1,1.570804784E0,1.329609456E1
4.450981000E0,2.040548016E0,-1.446272305E1,7.948763430E-1,1.462757747E1
4.460920000E0,2.222142507E0,-1.469041831E1,-1.942857999E-2,1.485754639E1
4.470860000E0,2.395866208E0,-1.409826610E1,-4.418922498E-1,1.430722023E1
4.480799000E0,2.731898675E0,-1.332974666E1,-7.009916943E-1,1.362485985E1
4.490738000E0,2.814925629E0,-1.256731301E1,-8.593384603E-1,1.290734772E1
4.500678000E0,2.459557589E0,-1.181273334E1,-9.144863286E-1,1.210067675E1
4.510617000E0,1.683054806E0,-1.097806787E1,-1.546076324E0,1.121342943E1
4.520556000E0,6.238688202E-1,-9.399443600E0,-2.447090741E0,9.732779942E0
4.530495000E0,-2.427578290E-1,-7.297036867E0,-3.135143132E0,7.945741051E0
4.540435000E0,-9.134529063E-1,-4.914329233E0,-3.684086754E0,6.209470447E0
4.550374000E0,-1.583530225E0,-2.574443098E0,-3.979507384E0,4.997179631E0
4.560313000E0,-2.355737206E0,-6.662668347E-2,-4.035238951E0,4.673017257E0
4.570252000E0,-3.252772738E0,3.186984546E0,-3.897770326E0,5.994165037E0
4.580192000E0,-3.560783886E0,6.137687784E0,-3.784807382E0,8.042086803E0
4.590131000E0,-2.860801713E0,7.751074916E0,-3.746955432E0,9.072101400E0
4.600070000E0,-2.279665953E0,8.494870568E0,-3.413061876E0,9.434441912E0
4.610009000E0,-1.886310308E0,9.603033709E0,-2.964160606E0,1.022558903E1
4.619949000E0,-1.455915182E0,1.091682647E1,-2.646152766E0,1.132691104E1
4.629888000E0,-9.905404779E-1,1.235374229E1,-2.189554220E0,1.258531949E1
4.639827000E0,-5.898115665E-1,1.359828004E1,-1.628795714E0,1.370817542E1
4.649767000E0,-6.624667293E-1,1.403573831E1,-7.309873259E-1,1.407036441E1
4.659706000E0,-1.616204028E0,1.392081714E1,2.126469342E-1,1.401593678E1
4.669645000E0,-2.820630757E0,1.377797901E1,8.982141852E-1,1.409238987E1
4.679584000E0,-4.067540140E0,1.389042097E1,1.614121542E0,1.456344966E1
4.689524000E0,-5.332154306E0,1.405859859E1,2.512050383E0,1.524422713E1
4.699463000E0,-6.465170453E0,1.414937427E1,2.862470509E0,1.581761545E1
4.709402000E0,-7.089209281E0,1.410984592E1,1.603010663E0,1.587180782E1
4.719341000E0,-6.653301693E0,1.389584368E1,1.331164252E0,1.546392231E1
4.729281000E0,-4.426700391E0,1.279911067E1,1.589650944E0,1.363597817E1
4.739220000E0,-2.036401463E0,1.118119312E1,1.929253721E0,1.152770708E1
4.749159000E0,-1.100656486E-1,9.747164651E0,2.232312570E0,1.000012763E1
4.759099583E0,1.005938316E0,8.583887994E0,2.017336178E0,8.874947338E0
4.769038583E0,1.673724404E0,7.400809742E0,1.524603594E0,7.739363949E0
4.778977583E0,1.886851321E0,6.297286951E0,1.249337731E0,6.691552557E0
4.788916583E0,1.948548802E0,5.553276122E0,6.782829543E-2,5.885602670E0
4.798856583E0,2.480952551E0,5.161814974E0,-2.858828278E0,6.400965436E0
4.808795583E0,2.600556178E0,5.596951899E0,-6.471074971E0,8.942235418E0
4.818734583E0,1.402115097E0,7.036086742E0,-7.062366468E0,1.006724707E1
4.828673583E0,1.269686334E-1,8.339003679E0,-5.187144527E0,9.821485211E0
4.838613583E0,-7.140198755E-1,9.129737855E0,-3.666869627E0,9.864475178E0
4.848552583E0,-1.256126787E0,9.639052557E0,-1.751075027E0,9.877016374E0
4.858491583E0,-2.029626440E0,9.917478840E0,4.769188622E-1,1.013425980E1
4.868431583E0,-3.081334714E0,9.930387154E0,2.085054098E0,1.060446431E1
4.878370583E0,-3.827167244E0,9.881165292E0,2.535725759E0,1.089562030E1
4.888309583E0,-4.334720765E0,9.899336100E0,2.026545542E0,1.099516012E1
4.898248583E0,-5.052805917E0,9.579923759E0,1.592865744E0,1.094728314E1
4.908188583E0,-6.522482522E0,7.682159048E0,2.003024533E0,1.027474833E1
4.918127583E0,-8.637063743E0,3.974214485E0,2.753674875E0,9.898281477E0
4.928066583E0,-9.661263206E0,-3.503593147E-1,2.959493358E0,1.011045792E1
4.938005583E0,-9.686569371E0,-5.527906807E0,2.011676658E0,1.133288237E1
4.947945583E0,-6.992820854E0,-1.222273192E1,-1.024200633E0,1.411891306E1
4.957884583E0,9.179581860E-1,-2.032675529E1,-1.273506729E1,2.400419894E1
4.967823583E0,4.947475344E0,-2.849392626E1,-1.767296607E1,3.389269945E1
4.977762583E0,4.712628944E0,-3.083168986E1,-1.000719501E1,3.275585326E1
4.987702583E0,7.834470829E0,-1.939368235E1,-1.985751712E0,2.101040357E1
4.997641583E0,1.046537113E1,-5.793230649E0,3.884715248E0,1.257682499E1
5.007580583E0,8.239972896E0,-3.643610573E-1,8.125441729E0,1.157811365E1
5.017520583E0,2.898563032E0,-2.568073726E-1,7.246479501E0,7.808910477E0
5.027459583E0,-8.300160626E-1,-3.056291090E0,1.826518142E0,3.655955472E0
5.037398583E0,-1.065823014E0,-4.768557562E0,-5.503246614E-1,4.917110650E0
5.047337583E0,1.622054167E-1,-4.033629212E0,-4.738970212E-1,4.064609896E0
5.057277583E0,1.243874531E0,-3.183410727E0,-2.147355231E-1,3.424534867E0
5.067216583E0,8.239732575E-1,-2.248584201E0,-1.692655642E-2,2.394858941E0
5.077155583E0,8.346374094E-2,-1.926704335E0,-2.353352273E-1,1.942817145E0
5.087094583E0,1.698497741E-1,-2.383302881E0,-1.787687953E0,2.984092790E0
5.097034583E0,5.390970571E-1,-3.310705197E0,-2.587256101E0,4.236187988E0
5.106973583E0,1.517927828E0,-3.567454682E0,-4.084864855E-1,3.898422631E0
5.116912583E0,2.522786748E0,-3.680810559E0,1.418729814E0,4.682479432E0
5.126851583E0,2.458998303E0,-5.066805906E0,1.157659822E0,5.749727907E0
5.136791583E0,1.505484514E0,-6.120483522E0,6.432194495E-1,6.335655722E0
5.146730583E0,5.297314256E-2,-5.488279642E0,1.121160332E0,5.601876478E0
5.156669583E0,-1.060122417E0,-3.475931139E0,1.379579197E0,3.887054873E0
5.166609583E0,-1.327236238E0,-1.456198187E0,1.185784856E0,2.299598860E0
5.176548583E0,-8.202433187E-1,-3.047861159E-1,9.438224673E-1,1.287048767E0
5.186487583E0,-9.420624554E-2,1.346759945E-1,7.069166780E-1,7.257710588E-1
5.196426583E0,7.094540772E-1,3.795743430E-1,1.344853753E0,1.567173694E0
5.206366583E0,1.546233760E0,4.624480999E-1,1.703927758E0,2.346927116E0
5.216305583E0,2.243794601E0,3.135890990E-1,1.754108562E0,2.865283438E0
5.226244583E0,2.303914357E0,-1.102697164E-1,1.927307622E0,3.005777011E0
5.236183583E0,2.124491960E0,-1.042099544E0,2.003988154E0,3.100871824E0
5.246123583E0,1.789691209E0,-1.582553594E0,2.223681056E0,3.263775106E0
5.256062583E0,1.180718316E0,-1.523709555E0,2.288356962E0,2.992050156E0
5.266001583E0,6.325851184E-1,-1.047233400E0,2.076591861E0,2.410206523E0
5.275941583E0,3.991307943E-1,-5.165132099E-1,1.678935589E0,1.801365037E0
5.285880583E0,2.224624358E-1,-1.671999621E-1,1.457594210E0,1.483922587E0
5.295819583E0,2.114492051E-1,-2.935185313E-2,1.514872219E0,1.529839906E0
5.305758583E0,5.351717482E-1,-1.605563557E-1,1.660209296E0,1.751708323E0
5.315698583E0,9.484664722E-1,-2.953031015E-1,1.803527914E0,2.059005951E0
5.325637583E0,1.200511872E0,-3.927223921E-1,1.799529734E0,2.198582929E0
5.335576583E0,1.220445908E0,-5.778674591E-1,1.712024982E0,2.180469801E0
5.345515583E0,1.222779239E0,-6.311221451E-1,1.690468783E0,2.179722215E0
5.355455583E0,1.247164175E0,-6.402876556E-1,1.551572707E0,2.091115641E0
5.365394583E0,1.213322391E0,-5.087820214E-1,1.469331765E0,1.972294655E0
5.375333583E0,9.180200203E-1,-3.776991409E-1,1.392376560E0,1.710008737E0
5.385272583E0,5.333466129E-1,-4.249832350E-1,1.322719703E0,1.488172292E0
5.395212583E0,3.317846109E-1,-5.046287441E-1,1.344749672E0,1.474138012E0
5.405151583E0,3.595629783E-1,-5.557796019E-1,1.263562106E0,1.426452137E0
5.415090583E0,5.156529383E-1,-7.400534338E-1,1.153660472E0,1.464414396E0
5.425030583E0,7.287827794E-1,-8.639126641E-1,1.143146009E0,1.607560956E0
5.434969583E0,8.870480499E-1,-9.253400034E-1,1.118491809E0,1.701214946E0
5.444908583E0,9.366704455E-1,-8.789248055E-1,1.020099249E0,1.640263032E0
5.454847583E0,8.838088386E-1,-8.651861876E-1,9.035747664E-1,1.531702504E0
5.464787583E0,8.001995020E-1,-8.996128392E-1,8.247147576E-1,1.459375529E0
5.474726583E0,6.840669286E-1,-9.471331608E-1,7.529940529E-1,1.389967205E0
5.484665583E0,5.357964501E-1,-9.967964870E-1,7.046434267E-1,1.333117936E0
5.494604583E0,3.916909432E-1,-1.027195576E0,8.082033169E-1,1.364457822E0
5.504544583E0,3.997710644E-1,-1.025595194E0,8.844896007E-1,1.412085075E0
5.514483583E0,4.351632375E-1,-9.378606462E-1,9.004663865E-1,1.371054101E0
5.524422583E0,5.087086388E-1,-8.569421983E-1,8.627157390E-1,1.318109577E0
5.534362583E0,6.195806184E-1,-7.540405583E-1,1.007931340E0,1.402990696E0
5.544301583E0,7.052756569E-1,-6.266478556E-1,1.150673641E0,1.488002391E0
5.554240583E0,8.043371379E-1,-5.779709548E-1,1.151716858E0,1.519032711E0
5.564179583E0,8.558424832E-1,-6.033952332E-1,1.310544630E0,1.677521801E0
5.574119583E0,8.427771722E-1,-5.931093961E-1,1.494596268E0,1.815453145E0
5.584058583E0,7.898613323E-1,-5.442091316E-1,1.544634401E0,1.818224391E0
5.593997583E0,6.476533931E-1,-5.024354535E-1,1.772926072E0,1.953244265E0
5.603936583E0,4.509790787E-1,-5.268259442E-1,2.032500493E0,2.147553482E0
5.613876583E0,3.135519692E-1,-5.833351904E-1,2.057878432E0,2.161818314E0
5.623815583E0,1.449673864E-1,-7.475250059E-1,2.169287771E0,2.299047327E0
5.633754583E0,6.380832553E-2,-9.939260888E-1,2.262660788E0,2.472163914E0
5.643694583E0,7.031232968E-2,-1.372012315E0,2.017720925E0,2.441016048E0
5.653633583E0,5.909810096E-2,-1.930781014E0,1.885912989E0,2.699643627E0
5.663572583E0,-6.712676659E-2,-2.729199015E0,2.282278197E0,3.558346110E0
5.673511583E0,-2.569902442E-1,-3.928341324E0,2.443970082E0,4.633670176E0
5.683451583E0,-4.891134498E-1,-5.443532070E0,2.283137153E0,5.923173864E0
5.693390583E0,-7.160949062E-1,-7.136610319E0,2.111642411E0,7.476833048E0
5.703329583E0,-1.001243294E0,-8.757441541E0,2.103427657E0,9.061990862E0
5.713268583E0,-1.350372355E0,-1.020127462E1,2.062719342E0,1.049496644E1
5.723208583E0,-1.504053408E0,-1.150170942E1,1.814796814E0,1.174074034E1
5.733147583E0,-1.382500028E0,-1.250278080E1,1.372508744E0,1.265364036E1
5.743086583E0,-9.329719354E-1,-1.307738201E1,8.339654913E-1,1.313711746E1
5.753025583E0,-2.849422739E-1,-1.341093525E1,1.981568760E-1,1.341542555E1
5.762965458E0,8.967596903E-2,-1.364540042E1,-1.544161946E-1,1.364656875E1
5.772904458E0,1.602828522E-1,-1.391057398E1,-5.572730539E-1,1.392265465E1
5.782843458E0,-5.816927075E-2,-1.401589052E1,-1.552752090E0,1.410175911E1
5.792782458E0,-5.454105882E-1,-1.333354385E1,-2.838025054E0,1.364313932E1
5.802722458E0,-8.028763573E-1,-1.193270534E1,-4.057382941E0,1.262918935E1
5.812661458E0,-6.507160185E-1,-9.952578506E0,-5.016205271E0,1.116420913E1
5.822600458E0,-3.856993014E-1,-7.531571610E0,-5.332958883E0,9.236546179E0
5.832540458E0,-4.467185050E-1,-4.946692402E0,-4.822830248E0,6.923078415E0
5.842479458E0,-1.535876441E0,-1.758920236E0,-3.860403695E0,4.511699627E0
5.852418458E0,-2.882048741E0,2.141915785E0,-2.646117682E0,4.460487301E0
5.862357458E0,-3.315018103E0,5.711391850E0,-1.684190481E0,6.815118448E0
5.872297458E0,-2.457198822E0,7.845553642E0,-1.302180188E0,8.323833927E0
5.882236458E0,-1.555553783E0,8.393688594E0,-1.131887634E0,8.611325415E0
5.892175458E0,-1.557667844E0,9.194889870E0,-9.758160925E-1,9.376808939E0
5.902114458E0,-1.246500662E0,1.059602717E1,-9.574546659E-1,1.071196878E1
5.912054458E0,-7.549747972E-1,1.193417650E1,-9.547075709E-1,1.199608362E1
5.921993458E0,-2.137075460E-1,1.308874782E1,-8.256818140E-1,1.311650643E1
5.931932458E0,-1.062398154E-1,1.387129005E1,-2.743983554E-1,1.387441058E1
5.941872458E0,-8.017319110E-1,1.405010609E1,6.957400907E-1,1.409014938E1
5.951811458E0,-1.762868715E0,1.419980300E1,1.938821082E0,1.443956850E1
5.961750458E0,-2.655121810E0,1.479310711E1,3.134685295E0,1.535291313E1
5.971689458E0,-3.891030825E0,1.530013789E1,4.423431505E0,1.639515436E1
5.981629458E0,-4.779389529E0,1.545487860E1,4.536217278E0,1.680098521E1
5.991568458E0,-5.228404820E0,1.536180262E1,3.320466539E0,1.656341435E1
6.001507458E0,-5.149628792E0,1.526685670E1,2.629793426E0,1.632517699E1
6.011446458E0,-4.224153425E0,1.452949007E1,1.990025003E0,1.526138111E1
6.021386458E0,-2.392393401E0,1.253263902E1,1.380382605E0,1.283339562E1
6.031325458E0,-9.992583109E-1,1.062000543E1,1.263275739E0,1.074145698E1
6.041264458E0,-3.861662015E-2,9.016867297E0,1.390905254E0,9.123596030E0
6.051203458E0,6.614026822E-1,7.720099876E0,1.541067599E0,7.900144616E0
6.061143458E0,1.088195923E0,6.627863381E0,1.349331551E0,6.850798420E0
6.071082458E0,1.542487011E0,5.759028531E0,7.926134706E-1,6.014475198E0
6.081021458E0,2.031420805E0,5.353208376E0,-4.738595259E-1,5.745263549E0
6.090961458E0,2.562324743E0,5.691771517E0,-2.750396926E0,6.821030300E0
6.100900458E0,2.879386211E0,6.530029523E0,-4.778413628E0,8.588677857E0
6.110839458E0,2.110268169E0,7.460124482E0,-4.915633746E0,9.179877132E0
6.120778458E0,1.054234271E0,8.354040964E0,-4.069666772E0,9.352197493E0
6.130718458E0,-3.345922977E-3,9.142485369E0,-3.080482775E0,9.647508697E0
6.140657458E0,-1.118900237E0,9.778329141E0,-1.753168330E0,9.997062455E0
6.150596458E0,-2.041356101E0,1.023105800E1,-2.497368463E-1,1.043571037E1
6.160535458E0,-2.970768544E0,1.032292477E1,1.099922148E0,1.079805864E1
6.170475458E0,-3.739180974E0,1.005799211E1,1.775887394E0,1.087650935E1
6.180414458E0,-4.589402675E0,9.751510887E0,1.870704674E0,1.093865245E1
6.190353458E0,-5.615557739E0,9.709868771E0,1.786992134E0,1.135822967E1
6.200293458E0,-6.395986197E0,9.996395202E0,1.837742604E0,1.200890729E1
6.210232458E0,-7.143690712E0,9.998771510E0,1.719511757E0,1.240824199E1
6.220171458E0,-8.168329301E0,8.750803197E0,1.727651081E0,1.209474838E1
6.230110458E0,-8.960890732E0,5.702423390E0,2.465644541E0,1.090387996E1
6.240050458E0,-8.250282707E0,1.510598928E0,2.939147387E0,8.887500280E0
6.249989458E0,-7.228318049E0,-3.750418738E0,1.879145422E0,8.357356642E0
6.259928458E0,-5.096940701E0,-1.276251763E1,-3.452277982E0,1.416964657E1
6.269867458E0,1.207691230E-1,-2.537729249E1,-1.054017339E1,2.747938890E1
6.279807458E0,5.441439936E0,-3.781961776E1,-1.051085428E1,3.962840918E1
6.289746458E0,1.377018117E1,-3.833190870E1,-6.158337811E0,4.119318194E1
6.299685458E0,1.676605005E1,-2.144585156E1,-1.715145641E0,2.727575312E1
6.309624458E0,8.769014935E0,-8.807938095E0,5.107619471E0,1.343737970E1
6.319564458E0,2.842180963E0,-4.656113266E0,8.794229298E0,1.034871259E1
6.329503458E0,-5.003270938E-1,-6.206823508E0,4.445242789E0,7.650827976E0
6.339442458E0,-3.340164931E-1,-8.803024680E0,-2.425606316E0,9.137197411E0
6.349381458E0,1.712795791E0,-6.856891217E0,-2.833047904E0,7.614248946E0
6.359321458E0,3.054702401E0,-4.360837061E0,-1.211771490E-1,5.325672778E0
6.369260458E0,3.855250543E0,-3.539468738E0,1.468148727E0,5.435646823E0
6.379199458E0,3.947896167E0,-2.181348238E0,2.994876029E0,5.414189387E0
6.389139458E0,1.542433801E0,-3.227475929E-1,3.198983617E0,3.566057237E0
6.399078458E0,-1.395103555E0,-5.142626166E-2,1.201055517E0,1.841600647E0
6.409017458E0,-2.016399600E0,-1.655242086E0,-2.082778398E-1,2.617073436E0
6.418956458E0,-1.580657781E0,-3.411480204E0,3.818173349E-1,3.779214294E0
6.428896458E0,-4.350939479E-1,-4.665501555E0,1.542959758E0,4.933248050E0
6.438835458E0,1.280511138E0,-4.633410866E0,2.097368188E0,5.244726718E0
6.448774458E0,1.745954766E0,-3.384518108E0,2.056321903E0,4.328022717E0
6.458713458E0,4.828599988E-1,-1.802149286E0,1.704063413E0,2.526801920E0
6.468653458E0,-5.483609471E-1,-6.536058587E-1,1.479380790E0,1.707766924E0
6.478592458E0,-8.481642120E-1,-1.382316864E-1,1.498755977E0,1.727645800E0
6.488531458E0,-1.239613373E0,3.862606341E-1,1.839035861E0,2.251197790E0
6.498470458E0,-1.101300410E0,9.956048244E-1,2.331455619E0,2.764014628E0
6.508410458E0,7.096663311E-2,7.390991682E-1,2.020819803E0,2.152908850E0
6.518349458E0,2.051407757E0,-5.169236845E-1,1.406189876E0,2.540246809E0
6.528288458E0,3.475583814E0,-1.600530274E0,1.349832072E0,4.057514834E0
6.538228458E0,4.071270078E0,-2.404518333E0,1.518750970E0,4.966241333E0
6.548167458E0,3.501140532E0,-2.679970722E0,2.026326857E0,4.852445634E0
6.558106458E0,1.904455387E0,-2.181074588E0,2.335132349E0,3.719795662E0
6.568045458E0,7.014794983E-1,-8.620719606E-1,2.259036830E0,2.517635588E0
6.577985458E0,-7.819598436E-2,5.694170630E-1,1.919045652E0,2.003268983E0
6.587924458E0,-5.212830761E-1,1.421122495E0,1.413839203E0,2.071295846E0
6.597863458E0,-5.030206136E-1,1.295117337E0,1.163572380E0,1.812252559E0
6.607802458E0,5.018402070E-2,1.019489531E0,1.814688348E0,2.082059351E0
6.617742458E0,5.880889767E-1,7.419216192E-1,1.799850161E0,2.033656052E0
6.627681458E0,1.085854551E0,5.170458913E-1,1.818463018E0,2.180189053E0
6.637620458E0,1.361768724E0,1.986591518E-2,1.804435694E0,2.260707165E0
6.647559458E0,1.445679485E0,-3.740165645E-1,1.617433551E0,2.201356140E0
6.657499458E0,1.354080074E0,-5.571221226E-1,1.470885808E0,2.075433200E0
6.667438458E0,9.621966116E-1,-5.227720696E-1,1.342374680E0,1.732363338E0
6.677377458E0,5.667995569E-1,-4.749365830E-1,1.240910139E0,1.444536074E0
6.687317458E0,2.397606924E-1,-3.695042682E-1,1.213879923E0,1.291326086E0
6.697256458E0,8.519203171E-2,-2.761733508E-1,1.157540684E0,1.193075789E0
6.707195458E0,1.680077550E-1,-3.335333669E-1,1.101776812E0,1.163350014E0
6.717134458E0,3.885014333E-1,-4.883822554E-1,1.071950311E0,1.240374162E0
6.727074458E0,5.562606816E-1,-6.184693551E-1,1.065000311E0,1.351353377E0
6.737013458E0,6.920526172E-1,-6.996801639E-1,9.373368819E-1,1.359076741E0
6.746952458E0,7.648561531E-1,-7.342512417E-1,8.319842353E-1,1.347711983E0
6.756891708E0,7.093831797E-1,-6.529995024E-1,7.874306448E-1,1.244861384E0
6.766831708E0,5.971892908E-1,-4.914175451E-1,6.903597021E-1,1.036688367E0
6.776770708E0,5.172055203E-1,-3.483443642E-1,6.933710182E-1,9.325281310E-1
6.786709708E0,4.702149564E-1,-1.768291569E-1,8.057442704E-1,9.495232937E-1
6.796648708E0,4.472277975E-1,1.260718167E-2,8.332703304E-1,9.457859628E-1
6.806588708E0,5.349788631E-1,1.505868530E-1,8.541868441E-1,1.019075046E0
6.816527708E0,7.038996609E-1,1.808754301E-1,9.353859584E-1,1.184541069E0
6.826466708E0,9.192526133E-1,1.539302909E-1,9.602462728E-1,1.338205069E0
6.836406708E0,1.103341527E0,8.448934257E-2,9.329094433E-1,1.447349648E0
6.846345708E0,1.237205636E0,2.116048872E-2,9.690426779E-1,1.571677213E0
6.856284708E0,1.270938954E0,2.815025032E-2,1.009919247E0,1.623580964E0
6.866223708E0,1.208986242E0,6.363057017E-2,9.655260162E-1,1.548527388E0
6.876163708E0,1.145875782E0,1.401571745E-1,1.024813494E0,1.543670314E0
6.886102708E0,1.111633756E0,2.269111437E-1,1.017995787E0,1.524314172E0
6.896041708E0,1.128286918E0,2.721300012E-1,9.072541268E-1,1.473158565E0
6.905980708E0,1.111525875E0,3.598452526E-1,9.340261884E-1,1.495788520E0
6.915920708E0,1.141768405E0,3.904969418E-1,1.148136973E0,1.665635453E0
6.925859708E0,1.315855656E0,3.692885059E-1,1.123795087E0,1.769396933E0
6.935798708E0,1.464562629E0,3.471374989E-1,9.952545762E-1,1.804433376E0
6.945737708E0,1.623264833E0,2.438803482E-1,1.028543944E0,1.937103247E0
6.955677708E0,1.753723085E0,1.624561161E-1,1.079279138E0,2.065618577E0
6.965616708E0,1.618172347E0,8.660954297E-2,1.163245155E0,1.994773733E0
6.975555708E0,1.451586488E0,2.989096642E-3,1.149539208E0,1.851635131E0
6.985495708E0,1.296807767E0,-1.752773058E-1,1.181039329E0,1.762749674E0
6.995434708E0,1.207561860E0,-3.974182910E-1,1.252606909E0,1.784704741E0
7.005373708E0,1.115899446E0,-6.199451923E-1,1.366558617E0,1.870039056E0
7.015312708E0,9.403506830E-1,-7.579406512E-1,1.553988776E0,1.968150034E0
7.025252708E0,7.519710825E-1,-9.418361682E-1,1.637180622E0,2.032947679E0
7.035191708E0,6.143951614E-1,-1.332648275E0,1.618252015E0,2.184530252E0
7.045130708E0,6.476403831E-1,-1.980844290E0,1.502893467E0,2.569410621E0
7.055069708E0,9.366746847E-1,-3.028682876E0,1.318029066E0,3.433289975E0
7.065009708E0,1.288273755E0,-4.407009600E0,1.281381058E0,4.766898394E0
7.074948708E0,1.602324346E0,-6.002708319E0,1.448735971E0,6.379560047E0
7.084887708E0,1.862214224E0,-7.669202787E0,1.512022725E0,8.035591200E0
7.094826708E0,1.830756350E0,-9.337833828E0,1.547365050E0,9.640598944E0
7.104766708E0,1.699632978E0,-1.081829854E1,1.601473430E0,1.106747726E1
7.114705708E0,1.387344738E0,-1.176870264E1,1.409857249E0,1.193376658E1
7.124644708E0,9.375560063E-1,-1.215959134E1,8.140593034E-1,1.222282150E1
7.134583708E0,4.079581895E-1,-1.219374610E1,1.989643764E-1,1.220219081E1
7.144523708E0,-2.820745070E-1,-1.202428443E1,-3.961904488E-1,1.203411605E1
7.154462708E0,-8.420065092E-1,-1.193159437E1,-1.031219703E0,1.200563756E1
7.164401708E0,-1.353894425E0,-1.215022644E1,-1.675062393E0,1.233964614E1
7.174341708E0,-1.796121684E0,-1.259413419E1,-2.687456328E0,1.300233405E1
7.184280708E0,-2.420465444E0,-1.276733691E1,-3.893886021E0,1.356561436E1
7.194219708E0,-3.173257622E0,-1.184659925E1,-4.535969356E0,1.307618047E1
7.204158708E0,-3.597419031E0,-9.746551863E0,-4.501563170E0,1.132257779E1
7.214098708E0,-3.409288083E0,-7.302900454E0,-4.528364468E0,9.244548936E0
7.224037708E0,-2.698920963E0,-4.619543025E0,-4.617316990E0,7.067104663E0
7.233976708E0,-2.331206382E0,-1.380213035E0,-3.968674248E0,4.805193701E0
7.243915708E0,-2.214658510E0,1.983971381E0,-2.610750214E0,3.956876474E0
7.253855708E0,-1.537170868E0,4.501001253E0,-1.656778150E0,5.036548460E0
7.263794708E0,-1.432772487E-1,5.583930734E0,-1.104949511E0,5.694007748E0
7.273733708E0,7.534760097E-1,6.473720251E0,-8.111082137E-1,6.567699485E0
7.283672708E0,9.627266617E-1,7.638057008E0,-4.660686227E-1,7.712585653E0
7.293612708E0,1.226167554E0,9.026981810E0,-3.883603692E-1,9.118152842E0
7.303551708E0,1.374778487E0,1.045495023E1,-3.787789755E-1,1.055175216E1
7.313490708E0,1.363006726E0,1.179437776E1,2.202108192E-1,1.187491587E1
7.323429708E0,1.188530489E0,1.316786650E1,8.171577430E-1,1.324662446E1
7.333369708E0,7.777745529E-1,1.445010593E1,1.284826091E0,1.452794799E1
7.343308708E0,4.780959798E-1,1.549960395E1,2.350451907E0,1.568409776E1
7.353247708E0,-5.689691663E-1,1.598900772E1,3.822393869E0,1.644940086E1
7.363187708E0,-1.362179930E0,1.622232215E1,4.234296298E0,1.682107414E1
7.373126708E0,-1.447444906E0,1.618669974E1,3.876999847E0,1.670734788E1
7.383065708E0,-2.080558028E0,1.575381166E1,3.717365012E0,1.631962334E1
7.393004708E0,-2.400976675E0,1.478469413E1,3.471700386E0,1.537545359E1
7.402944708E0,-2.653363552E0,1.391868875E1,3.199754280E0,1.452613721E1
7.412883708E0,-2.835099108E0,1.297817113E1,2.974244714E0,1.361311296E1
7.422822708E0,-2.604311845E0,1.185413280E1,2.775785537E0,1.245021646E1
7.432761708E0,-2.158964512E0,1.055751273E1,2.627387881E0,1.109168021E1
7.442701708E0,-1.739022161E0,9.275812996E0,2.433503566E0,9.746119454E0
7.452640708E0,-1.262820241E0,8.078692070E0,1.745973916E0,8.361124652E0
7.462579708E0,-7.744774541E-1,7.110945720E0,3.966856349E-1,7.163987985E0
7.472519708E0,-4.774712048E-1,6.293966317E0,-1.817936769E0,6.568628841E0
7.482458708E0,1.626154527E-2,5.573445507E0,-4.344460180E0,7.066674856E0
7.492397708E0,4.510832322E-1,5.639455310E0,-4.780195860E0,7.406564975E0
7.502336708E0,6.312738072E-1,6.571107967E0,-4.257992724E0,7.855473797E0
7.512276708E0,7.302192210E-1,7.719130408E0,-3.451226653E0,8.486999456E0
7.522215708E0,7.731257240E-1,8.671726037E0,-2.404517895E0,9.032068542E0
7.532154708E0,4.501815185E-1,9.347781111E0,-1.296388521E0,9.447978530E0
7.542093708E0,-1.404422262E-1,9.830507355E0,-1.850316310E-1,9.833251526E0
7.552033708E0,-7.998618253E-1,1.018098011E1,6.965999968E-1,1.023608257E1
7.561972708E0,-1.841050520E0,1.030582518E1,5.162448227E-1,1.048169873E1
7.571911708E0,-3.181033249E0,1.013540691E1,-1.547158644E-2,1.062288497E1
7.581850708E0,-4.623755944E0,9.727957132E0,-2.029662108E-1,1.077281135E1
7.591790708E0,-6.357728450E0,8.483067963E0,-2.025754707E-1,1.060302739E1
7.601729708E0,-7.328190247E0,5.487844024E0,-3.857617935E-1,9.163384554E0
7.611668708E0,-7.308996761E0,2.915877807E-1,-2.050147244E0,7.596680908E0
7.621607708E0,-6.660438804E0,-5.649492055E0,-5.487193229E0,1.031443140E1
7.631547708E0,-3.126915514E0,-1.121302536E1,-5.670150268E0,1.294836447E1
7.641486708E0,1.177060152E0,-1.437224674E1,-4.207732397E0,1.502171625E1
7.651425708E0,2.287995604E0,-1.669246051E1,-5.023344794E-2,1.684861077E1
7.661364708E0,2.906159735E0,-2.110271356E1,7.551749182E-1,2.131526620E1
7.671304708E0,6.024207947E0,-2.425880434E1,-6.342504054E-1,2.500365859E1
7.681243708E0,9.785640500E0,-1.974618291E1,-2.164021769E0,2.214392670E1
7.691182708E0,9.043016630E0,-1.175081834E1,-1.705281973E0,1.492534315E1
7.701122708E0,5.344610045E0,-8.706934462E0,-4.115913570E-1,1.022472355E1
7.711061708E0,1.449092359E0,-7.788467860E0,-1.032276807E0,7.989098552E0
7.721000708E0,-1.579303127E0,-7.149139148E0,-1.830997109E0,7.546982135E0
7.730939708E0,-3.515404522E0,-5.795490013E0,-9.471892941E-1,6.844190311E0
7.740879708E0,-4.212387950E0,-3.345709553E0,1.620507871E0,5.618187468E0
7.750818708E0,-3.188004300E0,-1.408110101E0,2.820631342E0,4.483537291E0
7.760757083E0,-1.337170804E0,-1.594464372E0,1.924335043E0,2.834326684E0
7.770696083E0,1.218326950E0,-2.536713939E0,7.219277231E-1,2.905239715E0
7.780636083E0,3.899853104E0,-2.993767397E0,1.310458091E0,5.088103564E0
7.790575083E0,4.945027699E0,-2.924650970E0,2.450379800E0,6.245898126E0
7.800514083E0,4.920371161E0,-2.522905154E0,2.091946503E0,5.911966081E0
7.810453083E0,4.055866174E0,-2.081234550E0,1.436435183E0,4.779637403E0
7.820393083E0,2.731327110E0,-1.156852906E0,1.601973367E0,3.371168209E0
7.830332083E0,1.596710142E0,-4.591315591E-1,1.663593518E0,2.351133441E0
7.840271083E0,9.471048018E-1,-6.703961384E-1,1.843362801E0,2.178170082E0
7.850210083E0,7.128618345E-1,-1.191675414E0,2.247697763E0,2.642046086E0
7.860150083E0,7.495507007E-1,-1.311312370E0,2.730615796E0,3.120517426E0
7.870089083E0,1.008675763E0,-1.156533063E0,2.553252496E0,2.978941730E0
7.880028083E0,1.131970518E0,-9.034579682E-1,2.156362062E0,2.597593290E0
7.889968083E0,1.232509444E0,-1.113820322E0,2.032170710E0,2.624765330E0
7.899907083E0,1.253171019E0,-1.280092916E0,2.321433638E0,2.932256744E0
7.909846083E0,8.134754589E-1,-1.151077026E0,2.738629990E0,3.080067347E0
7.919785083E0,3.966565450E-1,-8.085126346E-1,2.803053442E0,2.944170120E0
7.929725083E0,3.716863029E-1,-2.930197638E-1,2.468521371E0,2.513485438E0
7.939664083E0,3.850562538E-1,1.571421665E-1,2.096842085E0,2.137687701E0
7.949603083E0,2.354950024E-1,2.422899055E-1,1.982039022E0,2.010631985E0
7.959542083E0,1.855939870E-1,2.168966174E-2,2.160936924E0,2.169000682E0
7.969482083E0,3.445781726E-1,-4.046325856E-1,2.327047111E0,2.386966674E0
7.979421083E0,5.585226770E-1,-9.339681548E-1,2.216270003E0,2.469027505E0
7.989360083E0,7.541792835E-1,-1.373361268E0,2.024238085E0,2.559774871E0
7.999299083E0,8.784269151E-1,-1.651527935E0,1.900430456E0,2.666611011E0
8.009239083E0,9.494007111E-1,-1.726844165E0,1.780522774E0,2.655864046E0
8.019178083E0,9.953731285E-1,-1.753214523E0,1.571895436E0,2.556439729E0
8.029117083E0,9.538096578E-1,-1.839099596E0,1.419664053E0,2.511470926E0
8.039056083E0,7.915669651E-1,-1.837177032E0,1.293617087E0,2.382276826E0
8.048996083E0,5.587052563E-1,-1.916410312E0,1.222456619E0,2.340764882E0
8.058935083E0,4.061831211E-1,-2.089311309E0,1.296193078E0,2.492051960E0
8.068874083E0,4.736381357E-1,-2.219436416E0,1.394775087E0,2.663762120E0
8.078814083E0,6.584318581E-1,-2.379679946E0,1.410498104E0,2.843574170E0
8.088753083E0,9.139806175E-1,-2.744936796E0,1.681349319E0,3.346187998E0
8.098692083E0,1.201571973E0,-3.202273260E0,1.910564704E0,3.917727240E0
8.108631083E0,1.470960653E0,-3.743645323E0,2.042249994E0,4.511029881E0
8.118571083E0,1.693211566E0,-4.378665222E0,2.249968822E0,5.205961413E0
8.128510083E0,1.891079297E0,-5.200417122E0,2.308232818E0,5.995703286E0
8.138449083E0,2.093584162E0,-6.095098420E0,2.369874165E0,6.866558305E0
8.148388083E0,2.351433216E0,-6.851692457E0,2.125493295E0,7.549347617E0
8.158328083E0,2.445972315E0,-7.478732661E0,2.175208662E0,8.163685167E0
8.168267083E0,2.469285017E0,-7.835696406E0,2.295220570E0,8.530154988E0
8.178206083E0,2.411357090E0,-8.075368513E0,2.139323130E0,8.694994140E0
8.188145083E0,2.135140470E0,-8.373412789E0,2.147853048E0,8.904276460E0
8.198085083E0,1.808049127E0,-8.819493363E0,2.221490543E0,9.272945867E0
8.208024083E0,1.618833521E0,-9.421229741E0,2.190448844E0,9.807051440E0
8.217963083E0,1.455215271E0,-9.986176608E0,2.113249226E0,1.031053815E1
8.227902083E0,1.366589315E0,-1.036214556E1,1.982980278E0,1.063831931E1
8.237842083E0,1.445587245E0,-1.049079600E1,1.539069021E0,1.070118015E1
8.247781083E0,1.625042387E0,-1.055471893E1,5.222124910E-1,1.069184550E1
8.257720083E0,1.792102893E0,-1.057466963E1,-9.188490093E-1,1.076473660E1
8.267660083E0,1.620184228E0,-1.038208222E1,-2.212492847E0,1.073814476E1
8.277599083E0,9.317181462E-1,-9.789215487E0,-3.188214215E0,1.033738596E1
8.287538083E0,-5.131729880E-1,-8.890485578E0,-3.813579776E0,9.687490440E0
8.297477083E0,-2.186560154E0,-7.717479154E0,-4.125794195E0,9.020127911E0
8.307417083E0,-3.668086725E0,-6.441064721E0,-4.370041748E0,8.604617356E0
8.317356083E0,-4.274253831E0,-4.247962410E0,-4.092543418E0,7.284458942E0
8.327295083E0,-4.185562972E0,-8.301987880E-1,-3.533416286E0,5.540144228E0
8.337234083E0,-3.564361213E0,2.583020963E0,-2.963129157E0,5.306298385E0
8.347174083E0,-1.670389591E0,3.977322865E0,-2.788630700E0,5.136707091E0
8.357113083E0,1.298586928E-1,4.794716835E0,-2.773444312E0,5.540592582E0
8.367052083E0,4.255618901E-1,6.141858019E0,-2.326165205E0,6.581380357E0
8.376991083E0,6.149606603E-1,7.934482775E0,-1.890933263E0,8.179842427E0
8.386931083E0,1.131025754E0,1.003936405E1,-1.428494664E0,1.020336448E1
8.396870083E0,1.530299074E0,1.209124441E1,-9.258551431E-1,1.222281532E1
8.406809083E0,1.212902488E0,1.375176945E1,-6.014408013E-1,1.381824977E1
8.416748083E0,4.449678487E-1,1.508963462E1,-5.513760638E-1,1.510625979E1
8.426688083E0,-7.096047161E-1,1.592682843E1,-2.741968457E-1,1.594498625E1
8.436627083E0,-2.178093093E0,1.615052068E1,8.242816982E-1,1.631756256E1
8.446566083E0,-4.145707180E0,1.580109926E1,2.909685606E0,1.659300745E1
8.456505083E0,-6.011873830E0,1.525783562E1,4.400481184E0,1.697964692E1
8.466445083E0,-6.361035050E0,1.471154313E1,5.484459071E0,1.694023493E1
8.476384083E0,-5.752797153E0,1.412607896E1,6.074515636E0,1.641768931E1
8.486323083E0,-4.763228994E0,1.344907079E1,5.891755064E0,1.543627654E1
8.496263083E0,-3.627516404E0,1.233274377E1,4.965483599E0,1.378083711E1
8.506202083E0,-2.473188034E0,1.098505529E1,4.310279696E0,1.205680761E1
8.516141083E0,-1.250278548E0,9.700114446E0,4.003837649E0,1.056816600E1
8.526080083E0,-2.088345496E-1,8.603303674E0,3.688851650E0,9.363123008E0
8.536020083E0,7.394636690E-1,7.637223780E0,2.902594103E0,8.203599583E0
8.545959083E0,1.267012694E0,7.011363544E0,1.619193417E0,7.306594777E0
8.555898083E0,1.692416637E0,6.802923170E0,-8.371201372E-1,7.060085542E0
8.565837083E0,2.415080743E0,6.556003439E0,-5.178706995E0,8.696712151E0
8.575777083E0,2.397849291E0,6.383008302E0,-6.587721076E0,9.481062450E0
8.585716083E0,1.862912382E0,6.645271127E0,-5.684267786E0,8.940971488E0
8.595655083E0,1.426321839E0,7.300274470E0,-4.334725735E0,8.609195579E0
8.605594083E0,9.146282697E-1,8.156002201E0,-2.450899179E0,8.565268447E0
8.615534083E0,2.482946306E-1,9.251377482E0,6.246288121E-3,9.254710938E0
8.625473083E0,-5.626921803E-1,1.040732933E1,2.429553187E0,1.070195566E1
8.635412083E0,-1.587623130E0,1.099461549E1,4.077717218E0,1.183342278E1
8.645351083E0,-2.666372437E0,1.105040962E1,4.565619417E0,1.225014185E1
8.655291083E0,-3.377381289E0,1.090614127E1,3.932061907E0,1.207525290E1
8.665230083E0,-3.566446914E0,1.088844876E1,2.759247272E0,1.178521555E1
8.675169083E0,-3.284155622E0,1.104766260E1,1.620880777E0,1.163889090E1
8.685108083E0,-2.977570318E0,1.134360070E1,7.828266934E-2,1.172814265E1
8.695048083E0,-3.248009889E0,1.166482451E1,-1.137112560E0,1.216185529E1
8.704987083E0,-4.226212230E0,1.206939687E1,-6.498993087E-1,1.280443594E1
8.714926083E0,-5.263992144E0,1.238924775E1,1.262931923E0,1.352028366E1
8.724866083E0,-5.963638394E0,1.076842296E1,3.635758932E0,1.283521169E1
8.734805083E0,-6.755750758E0,5.256659735E0,4.627402267E0,9.730647030E0
8.744744083E0,-7.963231781E0,-1.794708704E0,1.740138395E0,8.346383729E0
8.754683083E0,-8.629249524E0,-1.120463695E1,-6.195966983E0,1.544013741E1
8.764623500E0,-3.316028210E0,-2.385435009E1,-1.016902138E1,2.614259087E1
8.774562500E0,3.537900223E0,-2.780045584E1,-6.792297610E0,2.883604324E1
8.784501500E0,1.024380961E1,-3.100226016E1,-5.584098549E0,3.312488380E1
8.794440500E0,1.834466262E1,-3.041783797E1,-4.899879593E0,3.585777926E1
8.804380500E0,1.733460173E1,-1.610410665E1,-4.521365935E0,2.408886502E1
8.814319500E0,5.939694631E0,-7.720323824E0,-4.203656888E-1,9.749875874E0
8.824258500E0,-2.370586648E0,-6.979612579E0,2.185283414E0,7.688311675E0
8.834197500E0,-7.215358865E0,-8.201332741E0,4.519833380E0,1.182168161E1
8.844137500E0,-9.108701912E0,-7.516891006E0,5.411526750E0,1.299063981E1
8.854076500E0,-8.794995868E0,-4.648902479E0,4.282581435E0,1.083073175E1
8.864015500E0,-6.386276311E0,-2.126116024E0,2.831764441E0,7.302313627E0
8.873954500E0,-2.822246343E0,-1.072167681E0,1.804601609E0,3.517272370E0
8.883894500E0,7.884085185E-1,-2.028850515E0,1.137493579E-1,2.179624124E0
8.893833500E0,3.772617692E0,-4.574460992E0,-1.935521936E-1,5.932604830E0
8.903772500E0,5.317529250E0,-6.215868566E0,3.466217744E-1,8.187385786E0
8.913711500E0,4.543019344E0,-6.075426047E0,1.481146502E-1,7.587605971E0
8.923651500E0,1.752630094E0,-4.427622789E0,2.473957673E-1,4.768307926E0
8.933590500E0,-8.028802311E-1,-2.556614937E0,9.457320949E-1,2.841708253E0
8.943529500E0,-2.223249093E0,-1.846789269E0,1.129852803E0,3.103229687E0
8.953469500E0,-1.428897830E0,-2.295879990E0,1.110188690E0,2.923240131E0
8.963408500E0,2.007999636E-2,-2.591232793E0,1.396984019E0,2.943884329E0
8.973347500E0,8.734216254E-1,-2.515666301E0,1.560195157E0,3.086365371E0
8.983286500E0,1.559420547E0,-2.639041382E0,1.548194332E0,3.434128353E0
8.993226500E0,1.813737298E0,-2.823635057E0,1.462242600E0,3.660698204E0
9.003165500E0,1.586865623E0,-2.616819624E0,1.268612054E0,3.312893598E0
9.013104500E0,1.314017292E0,-1.984900503E0,1.242737979E0,2.685306153E0
9.023043500E0,1.190085629E0,-1.248489300E0,9.591467039E-1,1.973573342E0
9.032983500E0,1.009105826E0,-6.248936909E-1,6.713432412E-1,1.363630610E0
9.042922500E0,5.893691515E-1,-5.477361721E-1,3.337942989E-1,8.710852685E-1
9.052861500E0,2.805247025E-1,-1.020946657E0,2.583652901E-1,1.089852654E0
9.062800500E0,1.066391436E-1,-1.498599856E0,3.892071191E-1,1.551984413E0
9.072740500E0,1.060982031E-1,-1.708080450E0,5.675450038E-1,1.803026063E0
9.082679500E0,1.644105479E-1,-1.994780543E0,5.746503210E-1,2.082403236E0
9.092618500E0,2.862910804E-1,-2.318191795E0,4.687853122E-1,2.382380207E0
9.102557500E0,4.633146572E-1,-2.329966334E0,4.196476507E-1,2.412365590E0
9.112497500E0,5.805693843E-1,-1.946642171E0,5.467545708E-1,2.103667539E0
9.122436500E0,7.048930297E-1,-1.359084122E0,8.038037257E-1,1.729186011E0
9.132375500E0,8.024312380E-1,-7.316088849E-1,8.956683075E-1,1.407611157E0
9.142314500E0,7.959297920E-1,-3.291654968E-1,8.077342241E-1,1.180800040E0
9.152254500E0,7.942233552E-1,-1.129565120E-1,6.743865708E-1,1.048020591E0
9.162193500E0,8.822129142E-1,-9.882554591E-2,5.816263416E-1,1.061298881E0
9.172132500E0,9.998179626E-1,-2.565904409E-1,4.912071915E-1,1.143135651E0
9.182071500E0,1.014767539E0,-4.335599309E-1,4.620564826E-1,1.196337563E0
9.192011500E0,1.001005020E0,-5.537640667E-1,5.859437064E-1,1.285299856E0
9.201950500E0,1.041387938E0,-6.091553253E-1,6.434521687E-1,1.367329420E0
9.211889500E0,1.115692235E0,-5.371667451E-1,6.667335887E-1,1.406360890E0
9.221829500E0,1.203211313E0,-3.674600816E-1,7.667736013E-1,1.473324855E0
9.231768500E0,1.339696362E0,-1.740388656E-1,7.977475452E-1,1.568909499E0
9.241707500E0,1.389739027E0,-3.647025347E-2,8.002744925E-1,1.604102212E0
9.251646500E0,1.278112610E0,-1.344040990E-2,6.567372619E-1,1.437030382E0
9.261586500E0,1.132405697E0,-9.044122338E-2,5.174833361E-1,1.248323388E0
9.271525500E0,1.022965335E0,-2.723504412E-1,4.667693384E-1,1.156938397E0
9.281464500E0,9.453067830E-1,-5.379759997E-1,5.810471749E-1,1.233141886E0
9.291403500E0,8.531003583E-1,-8.864127499E-1,6.453839426E-1,1.389254555E0
9.301343500E0,7.590531570E-1,-1.227641637E0,6.500512632E-1,1.582982100E0
9.311282500E0,7.238950188E-1,-1.519824080E0,6.706007179E-1,1.812069136E0
9.321221500E0,6.854588583E-1,-1.862313627E0,8.767771232E-1,2.169517001E0
9.331160500E0,6.347156245E-1,-2.349128829E0,8.765349754E-1,2.586422962E0
9.341100500E0,5.703757871E-1,-3.153736693E0,9.056646343E-1,3.330407197E0
9.351039500E0,5.408740991E-1,-4.160285166E0,1.188824311E0,4.360483998E0
9.360978500E0,4.742884192E-1,-5.151401668E0,1.392860563E0,5.357420013E0
9.370917500E0,3.124467724E-1,-6.072525828E0,1.563755965E0,6.278417447E0
9.380857500E0,1.908455175E-1,-6.968984095E0,1.911150742E0,7.228807542E0
9.390796500E0,2.551405507E-1,-7.693598540E0,2.078958814E0,7.973620567E0
9.400735500E0,4.588905808E-1,-8.332546014E0,1.860623782E0,8.550077456E0
9.410674500E0,7.373637146E-1,-8.904948665E0,1.637806274E0,9.084284527E0
9.420614500E0,9.854514268E-1,-9.331348096E0,1.308514477E0,9.474037257E0
9.430553500E0,1.220486400E0,-9.622546452E0,1.016337297E0,9.752739553E0
9.440492500E0,1.388974211E0,-9.608263459E0,1.046805968E0,9.764413899E0
9.450431500E0,1.502737931E0,-9.424494241E0,1.210549641E0,9.620017850E0
9.460371500E0,1.739781130E0,-9.417851804E0,1.228991175E0,9.655733545E0
9.470310500E0,1.987972923E0,-9.639626754E0,1.183515624E0,9.913382346E0
9.480249500E0,2.331150979E0,-1.003634338E1,9.111406249E-1,1.034372421E1
9.490189500E0,2.455528858E0,-1.054649891E1,-1.305618936E-1,1.082937245E1
9.500128500E0,2.139007088E0,-1.065197567E1,-1.771957188E0,1.100816829E1
9.510067500E0,1.300586237E0,-9.672201592E0,-3.509540935E0,1.037110822E1
9.520006500E0,4.314391458E-1,-7.684851106E0,-4.728813452E0,9.033534907E0
9.529946500E0,-3.783475240E-1,-5.225789945E0,-5.244916188E0,7.413580324E0
9.539885500E0,-1.147441812E0,-2.701330601E0,-5.070238806E0,5.858423959E0
9.549824500E0,-1.859780613E0,-2.478956312E-1,-4.202419617E0,4.602234980E0
9.559763500E0,-2.921263385E0,2.684200013E0,-3.127073389E0,5.051464882E0
9.569703500E0,-3.381029660E0,5.543921161E0,-2.378463725E0,6.915454655E0
9.579642500E0,-2.547476031E0,7.310910555E0,-2.025750321E0,8.002669032E0
9.589581500E0,-1.892154892E0,8.542192084E0,-1.711040311E0,8.914984839E0
9.599520500E0,-1.685725960E0,9.773009344E0,-1.436721697E0,1.002085590E1
9.609460500E0,-1.182471677E0,1.095170745E1,-1.013947978E0,1.106192686E1
9.619399500E0,-6.505623829E-1,1.194330751E1,-6.064859983E-1,1.197637888E1
9.629338500E0,-3.923491205E-1,1.267918194E1,-3.426689105E-1,1.268987843E1
9.639277500E0,-4.330164322E-1,1.337022928E1,-1.220898628E-2,1.337724498E1
9.649217500E0,-7.880686491E-1,1.380513582E1,8.052959351E-1,1.385104071E1
9.659156500E0,-1.546267820E0,1.395201905E1,2.247556261E0,1.421623329E1
9.669095500E0,-2.410474892E0,1.369318503E1,3.725908964E0,1.439430801E1
9.679034500E0,-3.345389418E0,1.345728029E1,4.850601014E0,1.469075741E1
9.688974500E0,-4.523557764E0,1.346403499E1,5.621193870E0,1.527549127E1
9.698913500E0,-5.913817778E0,1.334232403E1,5.433196532E0,1.557274785E1
9.708852500E0,-6.537095883E0,1.332798081E1,4.331355400E0,1.546380725E1
9.718791500E0,-5.627729303E0,1.321070905E1,2.825848228E0,1.463487577E1
9.728731500E0,-3.414942633E0,1.271046922E1,9.931542563E-1,1.319864449E1
9.738670500E0,-1.465913044E0,1.157784250E1,6.703248024E-2,1.167046835E1
9.748609500E0,5.358645701E-1,1.023022653E1,-4.014698267E-1,1.025211508E1
9.758549500E0,2.015292868E0,9.091760189E0,-7.738088250E-1,9.344532561E0
9.768488958E0,2.863045875E0,8.287232432E0,-9.682603204E-1,8.821155316E0
9.778427958E0,3.198252130E0,7.721056480E0,-1.208729403E0,8.444202546E0
9.788366958E0,3.314341288E0,7.367991074E0,-1.587847663E0,8.233675415E0
9.798306958E0,3.632121964E0,7.322948218E0,-2.226934301E0,8.472137684E0
9.808245958E0,3.726738684E0,7.779060860E0,-2.951309595E0,9.116611070E0
9.818184958E0,3.378973194E0,8.482786712E0,-3.036538610E0,9.622665794E0
9.828123958E0,2.580126299E0,9.208910324E0,-2.370836617E0,9.853017169E0
9.838063958E0,1.497832994E0,9.766219558E0,-1.231346433E0,9.956844990E0
9.848002958E0,2.489970274E-1,1.004615968E1,-2.093187721E-1,1.005142469E1
9.857941958E0,-1.175796130E0,1.009485296E1,5.841193020E-1,1.017986975E1
9.867880958E0,-2.421180997E0,1.009624927E1,1.269231567E0,1.045979520E1
9.877820958E0,-3.064077242E0,1.007682482E1,1.657565331E0,1.066201157E1
9.887759958E0,-3.429489921E0,9.990454431E0,1.453774809E0,1.066227190E1
9.897698958E0,-4.034581431E0,1.005235306E1,8.371879649E-1,1.086409375E1
9.907637958E0,-4.711870268E0,1.042163045E1,6.048242927E-1,1.145329276E1
9.917577958E0,-5.617393180E0,1.066506641E1,1.214237480E0,1.211499568E1
9.927516958E0,-6.622725433E0,9.803019009E0,1.841015729E0,1.197284481E1
9.937455958E0,-7.226903608E0,6.701479826E0,1.621425884E0,9.988342681E0
9.947394958E0,-7.753044843E0,1.066719831E0,6.263093019E-1,7.851105583E0
9.957334958E0,-9.028423734E0,-7.802467264E0,-1.271748354E0,1.200034476E1
9.967273958E0,-8.165215659E0,-2.006941700E1,-2.956783174E0,2.186766590E1
9.977212958E0,-4.031035972E0,-2.893928295E1,-7.406326590E0,3.014274411E1
9.987151958E0,9.293142097E-1,-3.381761965E1,-8.727151210E0,3.493791911E1
9.997091958E0,8.977044250E0,-3.207838406E1,-7.338721667E0,3.410963036E1
1.000703096E1,1.553203612E1,-1.887332226E1,-4.616949785E0,2.487494049E1
1.001696996E1,1.119814303E1,-1.011481301E1,-5.924509265E-1,1.510161739E1
1.002690896E1,3.645198092E0,-8.545163054E0,9.009611341E-1,9.333756571E0
1.003684896E1,-1.087113749E0,-7.932768956E0,1.256289486E0,8.104869085E0
1.004678796E1,-2.612388604E0,-5.674418151E0,2.392499381E0,6.689368345E0
1.005672696E1,-3.647192577E0,-4.935749338E0,6.547694546E-1,6.171900701E0
1.006666596E1,-4.376727455E0,-4.740870996E0,-2.232683466E-1,6.456117236E0
1.007660596E1,-3.360014766E0,-3.977656741E0,9.847582394E-1,5.299169856E0
1.008654496E1,-1.986428088E0,-3.370591210E0,1.951357366E0,4.372022098E0
1.009648396E1,-6.894905866E-1,-2.415203535E0,2.470235775E0,3.522878108E0
1.010642396E1,2.691588847E-1,-1.972538905E0,2.515465157E0,3.207946569E0
1.011636296E1,9.784963100E-1,-2.184846627E0,2.222042520E0,3.266264345E0
1.012630196E1,2.287475787E0,-2.234688878E0,1.162960907E0,3.402772095E0
1.013624096E1,3.685351506E0,-1.801454052E0,7.071762943E-1,4.162589427E0
1.014618096E1,4.339663124E0,-1.652757604E0,9.875409293E-1,4.747580522E0
1.015611996E1,4.044130519E0,-2.257272579E0,1.161826620E0,4.774946309E0
1.016605896E1,2.461490094E0,-3.172830191E0,1.169272465E0,4.182461357E0
1.017599796E1,8.349264812E-1,-3.316327879E0,1.877688296E0,3.901390287E0
1.018593796E1,-4.099952133E-1,-2.754895189E0,2.503276051E0,3.744854412E0
1.019587696E1,-9.261040883E-1,-1.813116324E0,2.533640642E0,3.250291447E0
1.020581596E1,-4.389414158E-1,-6.412577087E-1,2.292388033E0,2.420521412E0
1.021575496E1,4.022463369E-1,5.079359293E-2,1.724008266E0,1.771041108E0
1.022569496E1,1.433246697E0,3.576975703E-2,1.373784606E0,1.985638364E0
1.023563396E1,2.362479776E0,-1.964360404E-1,1.465120454E0,2.786839743E0
1.024557296E1,2.758615773E0,-4.810972095E-1,1.756350385E0,3.305477603E0
1.025551196E1,2.211870411E0,-7.468473136E-1,1.784811122E0,2.938656559E0
1.026545196E1,1.062062743E0,-7.397195578E-1,1.766221362E0,2.189680386E0
1.027539096E1,5.766070917E-2,-5.557538742E-1,1.548944822E0,1.646638147E0
1.028532996E1,-3.541503569E-1,-4.207913661E-1,1.184760497E0,1.306194964E0
1.029526896E1,-2.961005156E-1,-4.312017488E-1,1.020091063E0,1.146383985E0
1.030520896E1,1.950653069E-2,-6.006499654E-1,1.078869906E0,1.234957959E0
1.031514796E1,4.815301958E-1,-1.002845432E0,1.087220753E0,1.555512538E0
1.032508696E1,8.382088888E-1,-1.436471436E0,1.084458529E0,1.985470883E0
1.033502696E1,9.830765802E-1,-1.650944383E0,1.156558206E0,2.242695655E0
1.034496596E1,9.677942973E-1,-1.631687163E0,1.137808524E0,2.212156648E0
1.035490496E1,7.763498788E-1,-1.368730858E0,1.072908962E0,1.904541136E0
1.036484396E1,6.812607037E-1,-9.563355088E-1,1.068018351E0,1.587248232E0
1.037478396E1,6.528783920E-1,-6.147382468E-1,1.002325176E0,1.344919724E0
1.038472296E1,6.238151720E-1,-4.532995462E-1,8.542688513E-1,1.150826276E0
1.039466196E1,5.399384715E-1,-4.837044829E-1,7.385382740E-1,1.034863451E0
1.040460096E1,4.580850537E-1,-6.519323856E-1,7.276343863E-1,1.079031766E0
1.041454096E1,3.427924329E-1,-8.050031358E-1,7.180006599E-1,1.131839939E0
1.042447996E1,2.721814567E-1,-9.253540367E-1,6.959356070E-1,1.189407082E0
1.043441896E1,2.021475276E-1,-9.871140826E-1,6.890699525E-1,1.220686378E0
1.044435796E1,1.885762131E-1,-9.576768601E-1,6.969214475E-1,1.199335425E0
1.045429796E1,2.196188617E-1,-7.731001425E-1,7.543495837E-1,1.102252044E0
1.046423696E1,2.195251601E-1,-5.506305438E-1,7.919096120E-1,9.891946852E-1
1.047417596E1,2.723146270E-1,-3.296964240E-1,8.417439692E-1,9.441334110E-1
1.048411496E1,2.891891067E-1,-1.444735891E-1,8.451505570E-1,9.048659687E-1
1.049405496E1,3.143799350E-1,1.783751607E-2,9.395762193E-1,9.909371284E-1
1.050399396E1,3.592029360E-1,1.589074409E-1,1.116460340E0,1.183537923E0
1.051393296E1,4.427711959E-1,2.514343661E-1,1.227386845E0,1.328813019E0
1.052387196E1,5.728009929E-1,3.136329532E-1,1.335038763E0,1.486201569E0
1.053381196E1,7.848099958E-1,3.381263548E-1,1.348900026E0,1.596805386E0
1.054375096E1,9.996535827E-1,3.745778972E-1,1.440464061E0,1.792917343E0
1.055368996E1,1.120745618E0,3.732102334E-1,1.608743419E0,1.995848694E0
1.056362896E1,1.183473817E0,2.958270121E-1,1.643410245E0,2.046685401E0
1.057356896E1,1.262381261E0,6.408372939E-2,1.608331629E0,2.045591309E0
1.058350796E1,1.317748985E0,-3.308828241E-1,1.738358502E0,2.206317319E0
1.059344696E1,1.314178675E0,-9.031468964E-1,1.862995412E0,2.452242201E0
1.060338596E1,1.278142139E0,-1.700621742E0,1.914329288E0,2.861890679E0
1.061332596E1,1.099682047E0,-2.791243821E0,1.747079040E0,3.471689480E0
1.062326496E1,8.129987647E-1,-4.343430485E0,1.436200125E0,4.646399269E0
1.063320396E1,4.732666183E-1,-6.301686396E0,1.524026474E0,6.500606850E0
1.064314296E1,3.468293506E-1,-8.327081206E0,1.421301420E0,8.454624163E0
1.065308296E1,5.235376163E-1,-1.025373233E1,1.115541158E0,1.032751424E1
1.066302196E1,9.410352458E-1,-1.169752799E1,8.851550138E-1,1.176865361E1
1.067296096E1,1.399779281E0,-1.228600815E1,4.129508346E-1,1.237238484E1
1.068290096E1,1.465219564E0,-1.224983844E1,-3.324960709E-2,1.233720048E1
1.069283996E1,1.297028207E0,-1.216564438E1,-2.603122119E-1,1.223735869E1
1.070277896E1,1.278684906E0,-1.226338995E1,-4.183355721E-1,1.233696773E1
1.071271796E1,1.477935504E0,-1.260784357E1,-5.543476188E-1,1.270627066E1
1.072265796E1,1.771921813E0,-1.273593736E1,-5.320457536E-1,1.286961071E1
1.073259696E1,1.688556890E0,-1.241348680E1,-8.159040999E-1,1.255434500E1
1.074253596E1,1.010118491E0,-1.171522400E1,-1.558707479E0,1.186155057E1
1.075247496E1,2.065726273E-1,-1.065692241E1,-2.675661909E0,1.098962393E1
1.076241475E1,-3.969603078E-1,-9.245736673E0,-3.955896912E0,1.006431043E1
1.077235375E1,-8.016193521E-1,-7.516827271E0,-4.696296501E0,8.899465525E0
1.078229275E1,-1.149314383E0,-5.362788454E0,-4.468520554E0,7.074468142E0
1.079223175E1,-1.576318123E0,-2.735190657E0,-3.508895987E0,4.719999767E0
1.080217175E1,-2.217360654E0,-4.147488534E-2,-2.521235189E0,3.357831937E0
1.081211075E1,-2.743970836E0,2.750515625E0,-1.869867060E0,4.311741525E0
1.082204975E1,-2.774550312E0,5.278715433E0,-1.681589055E0,6.196023548E0
1.083198875E1,-1.616331789E0,6.789880371E0,-1.697260762E0,7.183014548E0
1.084192875E1,-7.934644597E-1,7.949912993E0,-1.610513810E0,8.150120071E0
1.085186775E1,-6.471306521E-1,9.208000497E0,-1.314044774E0,9.323774177E0
1.086180675E1,-6.163848958E-1,1.055757354E1,-6.886333848E-1,1.059794816E1
1.087174575E1,-7.232502902E-1,1.183051005E1,7.404197618E-2,1.185282840E1
1.088168575E1,-8.181746469E-1,1.290275491E1,5.686874767E-1,1.294117072E1
1.089162475E1,-1.056761145E0,1.372528625E1,9.587552328E-1,1.379925499E1
1.090156375E1,-1.420555461E0,1.427981396E1,1.432320205E0,1.442160205E1
1.091150275E1,-1.959216608E0,1.439026903E1,1.967035944E0,1.465563383E1
1.092144275E1,-2.455041785E0,1.438335645E1,2.510488007E0,1.480576655E1
1.093138175E1,-2.926497228E0,1.459070106E1,3.099131885E0,1.520057768E1
1.094132075E1,-3.560043921E0,1.474343384E1,3.516136594E0,1.556939211E1
1.095125975E1,-4.375425572E0,1.463671046E1,3.650615537E0,1.570683405E1
1.096119975E1,-5.018503811E0,1.440523556E1,3.306930234E0,1.560871487E1
1.097113875E1,-4.780084178E0,1.416283339E1,2.697264447E0,1.518915040E1
1.098107775E1,-3.204293766E0,1.345366320E1,1.957163651E0,1.396778585E1
1.099101675E1,-1.891054154E0,1.219597974E1,1.725665367E0,1.246177870E1
1.100095675E1,-6.051806805E-1,1.064151850E1,1.842455313E0,1.081678332E1
1.101089575E1,4.778330013E-1,9.141833990E0,1.940758703E0,9.357777376E0
1.102083475E1,1.269481974E0,7.780880513E0,1.902495693E0,8.110066332E0
1.103077475E1,1.915280045E0,6.760792812E0,1.616458089E0,7.210378205E0
1.104071375E1,2.388485560E0,6.101445572E0,9.514367115E-1,6.621006960E0
1.105065275E1,3.029053005E0,5.806423137E0,-1.496524680E-1,6.550733365E0
1.106059175E1,3.308633528E0,6.251067635E0,-1.693240217E0,7.272548716E0
1.107053175E1,2.884370670E0,7.092873146E0,-3.118493185E0,8.267614128E0
1.108047075E1,2.275000460E0,8.076440307E0,-3.542244412E0,9.107799438E0
1.109040975E1,1.507721513E0,9.064276521E0,-2.823132781E0,9.612721348E0
1.110034875E1,6.654719058E-1,9.994255121E0,-1.598056902E0,1.014306532E1
1.111028875E1,-1.933567505E-1,1.082145604E1,-2.832857578E-1,1.082689007E1
1.112022775E1,-1.218822867E0,1.137363668E1,1.114853525E0,1.149295606E1
1.113016675E1,-2.260157303E0,1.151787931E1,2.254217555E0,1.195204382E1
1.114010575E1,-3.188529672E0,1.133267811E1,2.687866802E0,1.207563425E1
1.115004575E1,-3.866134843E0,1.106018733E1,2.226316981E0,1.192607353E1
1.115998475E1,-4.397888820E0,1.083808084E1,1.698775484E0,1.181910575E1
1.116992375E1,-5.492941042E0,1.007060806E1,1.852992288E0,1.161994529E1
1.117986275E1,-7.522218989E0,7.795225487E0,1.709005480E0,1.096676883E1
1.118980275E1,-9.154416028E0,3.361096501E0,1.440812409E0,9.857801119E0
1.119974175E1,-1.031623439E1,-2.874527467E0,1.103222244E0,1.076590449E1
1.120968075E1,-1.163642225E1,-1.217061451E1,8.273810148E-4,1.683835446E1
1.121961975E1,-7.995541155E0,-2.365101434E1,-5.367263328E0,2.553637941E1
1.122955975E1,-1.805833617E-1,-3.060528099E1,-1.123963019E1,3.260437274E1
1.123949875E1,3.875048631E0,-3.667670696E1,-1.079393437E1,3.842793065E1
1.124943775E1,1.085652998E1,-3.448776202E1,-6.947035401E0,3.681754029E1
1.125937675E1,1.621293737E1,-2.042455582E1,-2.775575622E0,2.622452361E1
1.126931675E1,1.275117520E1,-1.017467681E1,1.303190587E0,1.636504882E1
1.127925575E1,6.184169641E0,-7.477491297E0,1.973346405E0,9.902066768E0
1.128919475E1,-1.009281462E0,-6.954657832E0,1.708743525E0,7.232269288E0
1.129913375E1,-6.001068760E0,-5.631812999E0,2.449172350E0,8.586535338E0
1.130907375E1,-6.696988580E0,-4.181959625E0,2.251383848E0,8.210187061E0
1.131901275E1,-3.931501159E0,-3.437267010E0,1.775718702E0,5.515857392E0
1.132895175E1,-1.143302568E0,-2.658876892E0,2.103779075E0,3.578079581E0
1.133889075E1,-2.653969324E-1,-1.191370774E0,3.010132585E0,3.248183805E0
1.134883075E1,2.036930197E-1,-7.768844604E-2,3.154888594E0,3.162411798E0
1.135876975E1,1.330498546E0,5.983104944E-2,2.734856197E0,3.041914619E0
1.136870875E1,2.551013597E0,-4.260544449E-1,1.940354075E0,3.233290383E0
1.137864775E1,2.749881202E0,-1.470411015E0,6.547408032E-1,3.186320872E0
1.138858775E1,1.907736845E0,-2.362717758E0,3.214705610E-1,3.053725330E0
1.139852675E1,1.108884103E0,-2.354225847E0,9.768311691E-1,2.779604724E0
1.140846575E1,4.620469078E-1,-1.903662797E0,1.513305165E0,2.475381165E0
1.141840575E1,-3.262062941E-1,-1.662761021E0,1.520021277E0,2.276323668E0
1.142834475E1,-8.100320336E-1,-1.463822957E0,1.742863197E0,2.415885276E0
1.143828375E1,-1.165308930E0,-1.188670530E0,2.215422449E0,2.771097103E0
1.144822275E1,-1.139699806E0,-9.621669370E-1,2.600034606E0,2.997475741E0
1.145816275E1,-7.117371225E-1,-6.250919116E-1,2.481971136E0,2.656593750E0
1.146810175E1,2.352834063E-1,-3.135581088E-1,1.910064475E0,1.949877757E0
1.147804075E1,1.479611608E0,-5.055262917E-1,1.246392342E0,1.999575258E0
1.148797975E1,2.448104356E0,-9.899254239E-1,9.608169611E-1,2.810042084E0
1.149791975E1,2.951206392E0,-1.319139453E0,9.887526186E-1,3.380440770E0
1.150785875E1,2.713762074E0,-1.282913028E0,1.509722869E0,3.360004996E0
1.151779775E1,1.624676936E0,-9.614108920E-1,2.016137499E0,2.762009497E0
1.152773675E1,3.730832027E-1,-5.559591115E-1,2.261018744E0,2.358068568E0
1.153767675E1,-4.647751455E-1,-3.961196244E-1,1.888185071E0,1.984482188E0
1.154761575E1,-6.682118379E-1,-1.935703200E-1,1.456025548E0,1.613687370E0
1.155755475E1,-5.178220361E-1,-2.450041831E-2,1.277780196E0,1.378935155E0
1.156749375E1,-4.098868936E-2,-5.303366125E-2,1.252602232E0,1.254394273E0
1.157743375E1,5.438760596E-1,-3.440121621E-1,1.117922290E0,1.289920844E0
1.158737275E1,9.443949828E-1,-6.417319179E-1,9.797055142E-1,1.504501456E0
1.159731175E1,1.177715479E0,-8.023601943E-1,9.083298683E-1,1.689928632E0
1.160725075E1,1.209588067E0,-8.176758063E-1,8.771092451E-1,1.703237401E0
1.161719075E1,1.038285040E0,-5.439723194E-1,8.236401124E-1,1.432593712E0
1.162712975E1,7.817079748E-1,-9.191296756E-2,7.849971798E-1,1.111636597E0
1.163706875E1,6.353639346E-1,3.219804382E-1,7.072197099E-1,1.003752186E0
1.164700775E1,6.084583372E-1,5.546189296E-1,6.311250687E-1,1.037372911E0
1.165694775E1,6.862058401E-1,6.437690878E-1,5.862219608E-1,1.108590673E0
1.166688675E1,8.742060294E-1,6.415208334E-1,6.390353282E-1,1.258630729E0
1.167682575E1,1.066347582E0,6.782629824E-1,8.279658826E-1,1.510849212E0
1.168676475E1,1.303399625E0,8.038272607E-1,9.974192154E-1,1.827521255E0
1.169670475E1,1.517820239E0,9.936501002E-1,1.117214631E0,2.130560333E0
1.170664375E1,1.696528691E0,1.237089568E0,1.223243216E0,2.430004972E0
1.171658275E1,1.821474919E0,1.491161613E0,1.242712105E0,2.661891661E0
1.172652175E1,1.881664695E0,1.755320106E0,1.194579141E0,2.837046003E0
1.173646175E1,1.880958644E0,2.033503729E0,1.368468318E0,3.089635637E0
1.174640075E1,1.901282688E0,2.305032052E0,1.574407107E0,3.377396388E0
1.175633975E1,1.877402367E0,2.511420638E0,1.592012196E0,3.516585859E0
1.176627825E1,1.810762820E0,2.636625313E0,1.690976175E0,3.618018166E0
1.177621825E1,1.815009945E0,2.661021650E0,1.888575811E0,3.733900898E0
1.178615725E1,1.846003696E0,2.610546146E0,1.816919353E0,3.677482394E0
1.179609625E1,1.857553555E0,2.474159841E0,1.663730343E0,3.512829455E0
1.180603525E1,1.896000606E0,2.184485854E0,1.602979088E0,3.307013562E0
1.181597525E1,1.816880761E0,1.667648124E0,1.621512423E0,2.951509529E0
1.182591425E1,1.553088744E0,9.176550078E-1,1.688016315E0,2.470541325E0
1.183585325E1,1.148148960E0,-9.152354300E-2,1.808693490E0,2.144293528E0
1.184579325E1,6.442888322E-1,-1.265058555E0,2.051123729E0,2.494511936E0
1.185573225E1,1.594002150E-1,-2.480313451E0,2.404948103E0,3.458487910E0
1.186567125E1,-9.663854107E-2,-3.734789130E0,2.524336553E0,4.508909390E0
1.187561025E1,-1.295457206E-1,-5.187420516E0,2.076854986E0,5.589225379E0
1.188555025E1,9.531385437E-2,-6.779399822E0,1.846610929E0,7.027041952E0
1.189548925E1,7.052000816E-1,-8.496245248E0,1.798539800E0,8.713107132E0
1.190542825E1,1.250215690E0,-1.017026801E1,1.715384207E0,1.038941450E1
1.191536725E1,1.501929553E0,-1.159503332E1,1.569859874E0,1.179682373E1
1.192530725E1,1.358941157E0,-1.259920022E1,1.481119605E0,1.275853763E1
1.193524625E1,9.245938256E-1,-1.307600674E1,1.499670482E0,1.319415922E1
1.194518525E1,3.797520983E-1,-1.317664200E1,1.386250870E0,1.325480281E1
1.195512425E1,-5.719168939E-2,-1.315353380E1,1.235405570E0,1.321154606E1
1.196506425E1,-3.400145669E-1,-1.320171018E1,1.208875510E0,1.326130241E1
1.197500325E1,-4.928701396E-1,-1.339948056E1,1.187850019E0,1.346105449E1
1.198494225E1,-4.250484315E-1,-1.372467112E1,7.906078756E-1,1.375399303E1
1.199488125E1,-4.282382338E-1,-1.395785106E1,1.526137903E-2,1.396442720E1
1.200482125E1,-5.220528620E-1,-1.397875603E1,-1.039598690E0,1.402707827E1
1.201476025E1,-6.068554692E-1,-1.364414093E1,-2.512963133E0,1.388689450E1
1.202469925E1,-7.527828953E-1,-1.279142042E1,-4.192710316E0,1.348205986E1
1.203463825E1,-1.005406877E0,-1.132631867E1,-5.567155657E0,1.266055132E1
1.204457825E1,-1.237214406E0,-9.319773533E0,-5.730811622E0,1.101049863E1
1.205451725E1,-1.768323290E0,-6.548288038E0,-4.799677028E0,8.309268504E0
1.206445625E1,-2.674339269E0,-3.383680787E0,-3.523352643E0,5.569147155E0
1.207439525E1,-3.633441680E0,1.426960355E-1,-2.124418577E0,4.211343597E0
1.208433525E1,-3.981319436E0,3.583601183E0,-1.258107385E0,5.502357321E0
1.209427425E1,-3.683660784E0,6.152430369E0,-9.325320786E-1,7.231277363E0
1.210421325E1,-3.157410498E0,7.768879688E0,-6.506851745E-1,8.411190395E0
1.211415225E1,-2.589851388E0,9.023066515E0,-6.093430209E-1,9.407144012E0
1.212409225E1,-2.178028189E0,1.060236789E1,-7.770774186E-1,1.085162941E1
1.213403125E1,-1.838844804E0,1.221645669E1,-8.992316739E-1,1.238675832E1
1.214397025E1,-1.673458063E0,1.350979998E1,-6.446088941E-1,1.362830429E1
1.215390925E1,-1.209021033E0,1.457862305E1,-3.926427238E-1,1.463393830E1
1.216384925E1,-1.880411929E-1,1.512170776E1,-2.862305617E-1,1.512558538E1
1.217378825E1,5.196803543E-1,1.527470133E1,-8.511002451E-2,1.528377611E1
1.218372725E1,6.352641664E-1,1.546241215E1,5.276224811E-1,1.548444819E1
1.219366625E1,3.057426473E-1,1.580690203E1,1.577951982E0,1.588840970E1
1.220360625E1,2.047343358E-1,1.605555371E1,2.845925227E0,1.630711536E1
1.221354525E1,-4.127125606E-2,1.564768001E1,3.997427931E0,1.615026387E1
1.222348425E1,-4.954209875E-1,1.438864117E1,4.700502988E0,1.514507065E1
1.223342325E1,-7.921623579E-1,1.340661416E1,4.714287214E0,1.423338781E1
1.224336325E1,-1.122974577E0,1.236785513E1,4.265799927E0,1.313095432E1
1.225330225E1,-1.540398385E0,1.122494082E1,3.583564346E0,1.188335209E1
1.226324125E1,-1.969326737E0,9.738755186E0,2.715676160E0,1.030031540E1
1.227318025E1,-2.013654771E0,7.943750027E0,1.422742174E0,8.317581699E0
1.228312025E1,-1.403562429E0,6.236697518E0,6.897375584E-3,6.392685742E0
1.229305925E1,-3.925379124E-1,5.107092052E0,-1.210253187E0,5.263191809E0
1.230299825E1,5.589701352E-1,4.823519050E0,-2.307023613E0,5.375978198E0
1.231293825E1,1.355489546E0,5.553980711E0,-3.377032503E0,6.639909802E0
1.232287725E1,1.942320202E0,7.019559587E0,-4.170608425E0,8.392901715E0
1.233281625E1,2.364873334E0,8.412758703E0,-4.165623089E0,9.680885838E0
1.234275525E1,2.497854805E0,9.768581833E0,-3.500760756E0,1.067332167E1
1.235269525E1,2.283595282E0,1.088868733E1,-2.374457213E0,1.137613142E1
1.236263425E1,1.888370574E0,1.153511807E1,-8.238667651E-1,1.171766396E1
1.237257325E1,1.297150121E0,1.174416772E1,6.250414793E-1,1.183210678E1
1.238251225E1,6.450958210E-1,1.155775030E1,1.623350787E0,1.168901229E1
1.239245225E1,-4.544953018E-2,1.124219595E1,2.212214520E0,1.145787627E1
1.240239125E1,-9.376926119E-1,1.098887001E1,2.504481747E0,1.130959594E1
1.241233025E1,-1.849903204E0,1.087924524E1,2.446650592E0,1.130337198E1
1.242226925E1,-2.857969907E0,1.090885320E1,2.095071548E0,1.146997799E1
1.243220925E1,-4.344920940E0,1.090282472E1,2.010264409E0,1.190760631E1
1.244214825E1,-6.682340135E0,1.061185441E1,2.824998043E0,1.285479434E1
1.245208725E1,-9.333161902E0,9.278810863E0,3.522755642E0,1.362402472E1
1.246202625E1,-1.093461838E1,5.005117781E0,2.536197045E0,1.229021474E1
1.247196625E1,-1.149578151E1,-2.111081663E0,-1.154806380E0,1.174492384E1
1.248190525E1,-1.195921896E1,-1.212289422E1,-5.340163237E0,1.784670350E1
1.249184425E1,-8.954559951E0,-2.419030771E1,-7.822812066E0,2.695461964E1
1.250178325E1,-2.642660809E0,-3.256444673E1,-5.573840779E0,3.314354459E1
1.251172325E1,6.949103562E0,-3.557273393E1,-3.174110731E0,3.638384832E1
1.252166225E1,1.934624857E1,-2.857700818E1,-4.034154877E0,3.474474256E1
1.253160125E1,2.087871140E1,-1.374412831E1,-4.663762593E-1,2.500078318E1
1.254154025E1,1.273777689E1,-5.662296873E0,2.676308611E0,1.419419578E1
1.255148025E1,3.395755872E0,-5.783172854E0,1.647352438E0,6.905795845E0
1.256141925E1,-2.494088614E0,-9.268502807E0,4.463822901E-1,9.608583634E0
1.257135825E1,-5.466527415E0,-8.606763471E0,1.370632957E0,1.028775652E1
1.258129725E1,-4.746947714E0,-7.339243823E0,1.615117908E0,8.888566721E0
1.259123725E1,-3.810458240E0,-5.642709870E0,1.501294253E0,6.972349038E0
1.260117625E1,-2.878844467E0,-3.307760539E0,8.440011406E-1,4.465575346E0
1.261111525E1,-1.117331356E0,-2.699760039E0,-6.098031968E-1,2.984793722E0
1.262105425E1,1.749542764E0,-4.491300137E0,-1.254223080E0,4.980537354E0
1.263099425E1,4.602277951E0,-5.886794870E0,-2.120761911E-1,7.475312201E0
1.264093325E1,5.679968328E0,-5.796399840E0,1.416803741E0,8.238180877E0
1.265087225E1,4.672343090E0,-4.692197018E0,2.510422518E0,7.081646986E0
1.266081125E1,1.081387206E0,-2.718737177E0,2.749205264E0,4.014854880E0
1.267075125E1,-1.650849073E0,-9.283103889E-1,2.194583995E0,2.898838000E0
1.268069025E1,-2.652984653E0,-5.620600963E-1,8.705148283E-1,2.848163476E0
1.269062925E1,-2.767461148E0,-1.017390965E0,-2.338161937E-1,2.957802494E0
1.270056825E1,-2.471039182E0,-1.329525277E0,-7.929970479E-1,2.915907478E0
1.271050825E1,-1.553176013E0,-1.261861882E0,-5.352300011E-2,2.001878081E0
1.272044725E1,-4.856668816E-1,-9.470173860E-1,1.169371868E0,1.581184624E0
1.273038625E1,3.103259873E-1,-1.055332963E0,1.400798743E0,1.781085904E0
1.274032525E1,6.638901608E-1,-1.669820949E0,1.133251351E0,2.124455406E0
1.275026525E1,8.526903954E-1,-2.014246509E0,1.430916581E0,2.613769724E0
1.276020425E1,1.234456860E0,-1.793252163E0,1.983299389E0,2.945015030E0
1.277014350E1,1.619969050E0,-9.819141537E-1,2.333823888E0,3.005859123E0
1.278008250E1,1.402198274E0,2.818849111E-1,2.466481862E0,2.851166757E0
1.279002250E1,9.141879744E-1,1.500018976E0,2.390941537E0,2.966883552E0
1.279996150E1,3.353207877E-1,2.367368048E0,2.022150921E0,3.131447885E0
1.280990050E1,-3.421893657E-1,2.587116938E0,1.776118798E0,3.156717535E0
1.281984050E1,-8.026415185E-1,2.430140247E0,1.697857325E0,3.071243156E0
1.282977950E1,-6.608488047E-1,2.001276215E0,1.713114903E0,2.715987906E0
1.283971850E1,-1.347498156E-2,1.354042068E0,1.626856924E0,2.116665998E0
1.284965750E1,9.599729886E-1,6.010803205E-1,1.475421055E0,1.860030371E0
1.285959750E1,1.827254599E0,-7.203652740E-2,1.470457646E0,2.346549450E0
1.286953650E1,2.386457746E0,-6.268028069E-1,1.518769827E0,2.897365030E0
1.287947550E1,2.443670120E0,-6.825899220E-1,1.602179189E0,3.000738377E0
1.288941450E1,1.958799410E0,-4.243406260E-1,1.536613336E0,2.525498097E0
1.289935450E1,1.341791274E0,-3.203455567E-2,1.496787804E0,2.010423778E0
1.290929350E1,8.430590811E-1,3.435075474E-1,1.562357457E0,1.808233081E0
1.291923250E1,5.294641348E-1,5.490652442E-1,1.470257964E0,1.656340361E0
1.292917150E1,5.174799740E-1,5.452955443E-1,1.362381513E0,1.556025752E0
1.293911150E1,6.902480203E-1,3.474111485E-1,1.302456762E0,1.514440640E0
1.294905050E1,8.685375193E-1,1.275897539E-1,1.343503046E0,1.604879124E0
1.295898950E1,1.052183287E0,-8.094125211E-2,1.246324807E0,1.633085019E0
1.296892850E1,1.086976413E0,-2.903937793E-1,1.127427232E0,1.592776956E0
1.297886850E1,9.664619362E-1,-4.450514638E-1,1.191444010E0,1.597391095E0
1.298880750E1,7.952335348E-1,-4.679468215E-1,1.231483404E0,1.538805373E0
1.299874650E1,5.821928637E-1,-5.151519781E-1,1.141575447E0,1.381131635E0
1.300868550E1,4.382923018E-1,-5.013987422E-1,1.212608592E0,1.383445134E0
1.301862550E1,4.440398955E-1,-4.163650239E-1,1.419190575E0,1.544225744E0
1.302856450E1,6.272196402E-1,-3.077161556E-1,1.470212209E0,1.627764617E0
1.303850350E1,7.652823421E-1,-1.843691415E-1,1.517460051E0,1.709483562E0
1.304844250E1,9.989196841E-1,-1.097072142E-1,1.628836499E0,1.913892512E0
1.305838250E1,1.227514460E0,-9.013132095E-2,1.737474403E0,2.129256374E0
1.306832150E1,1.293977714E0,-8.287960410E-2,1.757523336E0,2.184064017E0
1.307826050E1,1.293831826E0,-1.412120122E-1,1.927206026E0,2.325524606E0
1.308819950E1,1.235046259E0,-2.927671641E-1,2.045532621E0,2.407333707E0
1.309813950E1,1.178767393E0,-5.477917206E-1,2.223589693E0,2.575639622E0
1.310807850E1,1.140381592E0,-1.018861540E0,2.389459999E0,2.836911718E0
1.311801750E1,1.125036963E0,-1.610089887E0,2.425287058E0,3.120915719E0
1.312795650E1,1.099077299E0,-2.332099983E0,2.306965141E0,3.459588039E0
1.313789650E1,1.009823353E0,-3.202308344E0,2.160093609E0,3.992558870E0
1.314783550E1,8.384207042E-1,-4.202184559E0,2.153856969E0,4.795873663E0
1.315777450E1,6.380879331E-1,-5.346877595E0,2.005560470E0,5.746175165E0
1.316771350E1,4.350060935E-1,-6.579442003E0,1.840202966E0,6.845774926E0
1.317765350E1,2.383996068E-1,-7.897237766E0,1.657248266E0,8.072773409E0
1.318759250E1,1.397655572E-1,-9.163941727E0,1.397622535E0,9.270960638E0
1.319753150E1,2.989903557E-1,-1.037431127E1,1.305254070E0,1.046037369E1
1.320747050E1,7.226325318E-1,-1.144397869E1,1.149568444E0,1.152425067E1
1.321741050E1,1.150440849E0,-1.224559453E1,6.380364776E-1,1.231605416E1
1.322734950E1,1.520853775E0,-1.279045212E1,-6.243656874E-3,1.288055513E1
1.323728850E1,1.898421938E0,-1.296210181E1,-7.890484232E-1,1.312412613E1
1.324722750E1,2.075069977E0,-1.285932764E1,-1.816610620E0,1.315174121E1
1.325716750E1,1.900754685E0,-1.273114498E1,-2.817891337E0,1.317707981E1
1.326710650E1,1.253897682E0,-1.264419454E1,-3.465075198E0,1.317021872E1
1.327704550E1,1.632397892E-1,-1.227052238E1,-4.059630611E0,1.292567087E1
1.328698450E1,-9.288154422E-1,-1.128114776E1,-4.727703066E0,1.226695436E1
1.329692450E1,-1.955048567E0,-9.650375690E0,-5.074916579E0,1.107730762E1
1.330686350E1,-2.642617832E0,-7.855722535E0,-4.970971795E0,9.664696898E0
1.331680250E1,-2.195004703E0,-5.447854332E0,-4.448082197E0,7.367672475E0
1.332674150E1,-2.103296972E0,-2.253626255E0,-3.574949643E0,4.720482433E0
1.333668150E1,-2.123531262E0,1.463376229E0,-2.435853562E0,3.547426896E0
1.334662050E1,-1.890275743E0,4.646641361E0,-1.848797203E0,5.346257516E0
1.335655950E1,-5.876347943E-1,6.248623499E0,-1.838545865E0,6.539943515E0
1.336649850E1,6.464566874E-1,7.155170551E0,-1.739715056E0,7.391953757E0
1.337643850E1,9.202297562E-1,8.350693433E0,-1.633142534E0,8.558507939E0
1.338637750E1,9.715969609E-1,9.860915215E0,-1.563365371E0,1.003123925E1
1.339631650E1,1.171041832E0,1.139068015E1,-1.456011661E0,1.154291571E1
1.340625650E1,1.415231718E0,1.272507791E1,-1.255406702E0,1.286493430E1
1.341619550E1,1.438867040E0,1.389794166E1,-1.198414915E0,1.402352734E1
1.342613450E1,1.127511212E0,1.476162804E1,-1.139350874E0,1.484840275E1
1.343607350E1,3.969937100E-1,1.524002617E1,-7.056267091E-1,1.526151732E1
1.344601350E1,-8.696994341E-1,1.544723512E1,5.480947526E-1,1.548140361E1
1.345595250E1,-2.811790352E0,1.537336023E1,2.474387298E0,1.582305161E1
1.346589150E1,-4.761037458E0,1.496247405E1,4.465939593E0,1.632445171E1
1.347583050E1,-5.822971342E0,1.439741550E1,5.661276534E0,1.653005203E1
1.348577050E1,-6.247344128E0,1.369460824E1,5.426237175E0,1.600048916E1
1.349570950E1,-6.293986782E0,1.299464858E1,4.554971638E0,1.514010991E1
1.350564850E1,-5.561032453E0,1.206934074E1,3.320970569E0,1.369755136E1
1.351558750E1,-4.205339717E0,1.082160807E1,2.131983705E0,1.180412800E1
1.352552750E1,-2.925947590E0,9.447055723E0,1.546845818E0,1.001003312E1
1.353546650E1,-1.698773437E0,8.248153735E0,1.220796887E0,8.509301750E0
1.354540550E1,-2.942050675E-1,7.400012766E0,7.717506051E-1,7.445961627E0
1.355534450E1,1.048958840E0,7.025393938E0,6.988008340E-2,7.103615830E0
1.356528450E1,1.831145921E0,6.865279047E0,-6.599202669E-1,7.135870412E0
1.357522350E1,2.243842987E0,6.971940447E0,-1.427153313E0,7.461873191E0
1.358516250E1,2.717768294E0,7.394460250E0,-2.579003341E0,8.289485215E0
1.359510150E1,3.362748340E0,8.092306727E0,-3.932685220E0,9.605181810E0
1.360504150E1,3.686670638E0,8.880749964E0,-4.427545606E0,1.058595392E1
1.361498050E1,3.533398159E0,9.544004897E0,-3.752760547E0,1.084694168E1
1.362491950E1,2.872434457E0,9.975497253E0,-2.394551754E0,1.065341744E1
1.363485850E1,1.972939731E0,1.042105158E1,-6.619398952E-1,1.062680439E1
1.364479850E1,8.130506587E-1,1.065063197E1,1.215914462E0,1.075060281E1
1.365473750E1,-6.168637097E-1,1.057463337E1,2.535393637E0,1.089181402E1
1.366467650E1,-1.837091662E0,1.055271684E1,2.629663618E0,1.102949995E1
1.367461550E1,-2.778857664E0,1.051900530E1,1.809246637E0,1.102927449E1
1.368455550E1,-4.072381926E0,1.024659756E1,2.003616271E0,1.120676288E1
1.369449450E1,-5.975808204E0,9.079928348E0,2.493674923E0,1.115230008E1
1.370443350E1,-7.814247065E0,6.086701818E0,2.040735565E0,1.011311020E1
1.371437250E1,-9.192039353E0,1.385840396E0,8.161625469E-1,9.331680576E0
1.372431250E1,-1.066657382E1,-4.925184004E0,-1.545047799E0,1.184991170E1
1.373425150E1,-1.035315020E1,-1.357600215E1,-5.078947064E0,1.781267124E1
1.374419050E1,-5.251642824E0,-2.364360241E1,-9.179848493E0,2.590114487E1
1.375412950E1,5.462742951E-1,-2.881063719E1,-6.298596727E0,2.949616164E1
1.376406958E1,6.008893504E0,-2.986787225E1,-2.364810476E0,3.055796005E1
1.377400858E1,1.229564202E1,-2.440202136E1,-3.794837111E0,2.758699418E1
1.378394758E1,1.533839622E1,-1.054838288E1,-7.136000454E-1,1.862911713E1
1.379388658E1,1.310088080E1,-4.142894377E0,3.504209443E0,1.418013171E1
1.380382658E1,5.419250922E0,-3.290251637E0,2.957043375E0,6.995580170E0
1.381376558E1,-1.471877496E0,-5.901168496E0,1.901970248E-1,6.084931215E0
1.382370458E1,-4.706367453E0,-8.537734752E0,-4.703788977E-2,9.749103644E0
1.383364358E1,-3.410447879E0,-1.013993616E1,-4.292780149E-1,1.070671470E1
1.384358358E1,-3.221314426E0,-8.915128668E0,3.585202736E-1,9.486038298E0
1.385352258E1,-3.415339074E0,-4.813946573E0,2.021381282E0,6.238958638E0
1.386346158E1,-5.815652017E-1,-1.605479357E0,9.520413136E-1,1.955035732E0
1.387340058E1,1.496653026E0,-1.142509686E0,2.779204623E-1,1.903296731E0
1.388334058E1,2.952795080E0,-2.538297949E0,9.589667559E-1,4.010183600E0
1.389327958E1,3.456342674E0,-3.893222362E0,2.207974119E0,5.654965495E0
1.390321858E1,3.100047851E0,-3.453792411E0,4.306685997E0,6.331391867E0
1.391315758E1,1.824445012E0,-1.673739753E0,4.613736155E0,5.236083046E0
1.392309758E1,2.502309360E-1,4.150610948E-1,3.101229866E0,3.138872077E0
1.393303658E1,-9.100387171E-1,1.582127917E0,1.457512057E0,2.335731279E0
1.394297558E1,-1.521695481E0,1.271385827E0,-1.634070195E-2,1.982989177E0
1.395291458E1,-1.345961215E0,4.129280305E-1,-2.521436334E-2,1.408104015E0
1.396285458E1,-2.250683936E-1,-6.539186847E-1,7.416865611E-1,1.014083026E0
1.397279358E1,1.176050411E0,-1.228538600E0,1.362470390E0,2.179157458E0
1.398273258E1,1.735148966E0,-1.704515988E0,1.617884810E0,2.921244246E0
1.399267158E1,1.803928886E0,-2.520338227E0,1.454494894E0,3.423714299E0
1.400261158E1,1.362201565E0,-2.998358046E0,1.414387818E0,3.584164753E0
1.401255058E1,6.561502015E-1,-2.590251630E0,1.510457425E0,3.069432884E0
1.402248958E1,6.180783226E-1,-1.706589995E0,1.369487195E0,2.273755792E0
1.403242958E1,8.875449901E-1,-7.755243981E-1,1.034178468E0,1.568024013E0
1.404236858E1,8.306072892E-1,1.469054461E-2,7.208960550E-1,1.099916089E0
1.405230758E1,6.135971627E-1,2.820515567E-1,6.650178695E-1,9.477886502E-1
1.406224658E1,5.251328098E-1,-3.410680890E-3,8.860672525E-1,1.029995765E0
1.407218558E1,5.470125791E-1,-5.202647835E-1,1.099751337E0,1.333923240E0
1.408212558E1,5.316337442E-1,-9.098589152E-1,1.138006306E0,1.550979058E0
1.409206458E1,5.454849941E-1,-1.070225821E0,1.059126052E0,1.601463450E0
1.410200358E1,5.848175327E-1,-9.824608684E-1,9.727683775E-1,1.501172615E0
1.411194358E1,5.144710699E-1,-6.351865447E-1,8.981440187E-1,1.214415541E0
1.412188258E1,3.589058974E-1,-2.897406453E-1,8.478018308E-1,9.651585512E-1
1.413182158E1,1.616994864E-1,-1.146668226E-1,8.058176529E-1,8.298417282E-1
1.414176058E1,-1.855029166E-3,-7.280543625E-2,7.558052480E-1,7.593060290E-1
1.415170058E1,-7.031978488E-2,-9.942020774E-2,7.387302089E-1,7.486999208E-1
1.416163958E1,-9.164341092E-2,-9.867878079E-2,7.881461978E-1,7.995689124E-1
1.417157858E1,-7.381503113E-2,-1.518229544E-1,7.998045225E-1,8.174265365E-1
1.418151758E1,-1.525896706E-2,-1.383059460E-1,7.913178737E-1,8.034583674E-1
1.419145758E1,4.289042316E-2,-4.641753674E-2,8.488158841E-1,8.511654253E-1
1.420139658E1,4.883850329E-2,6.051166534E-2,8.154352994E-1,8.191346584E-1
1.421133558E1,7.897190988E-2,1.256017005E-1,8.745306230E-1,8.870265837E-1
1.422127458E1,1.074683154E-1,1.329159826E-1,9.230344462E-1,9.387271628E-1
1.423121458E1,1.474134229E-1,1.445028251E-1,9.087499177E-1,9.319003147E-1
1.424115358E1,1.621219477E-1,2.085935712E-1,9.489715254E-1,9.850592672E-1
1.425109258E1,2.111705122E-1,2.565389854E-1,1.048217340E0,1.099620311E0
1.426103158E1,2.790702807E-1,3.358564657E-1,1.166898495E0,1.245926116E0
1.427097158E1,3.378986058E-1,4.963373923E-1,1.246479027E0,1.383559265E0
1.428091058E1,4.730529756E-1,6.111118037E-1,1.328296631E0,1.536752646E0
1.429084958E1,6.529035350E-1,7.627827305E-1,1.450475518E0,1.764086094E0
1.430078858E1,9.286443380E-1,7.994243073E-1,1.635269752E0,2.043420341E0
1.431072858E1,1.171882004E0,6.912835622E-1,1.743682977E0,2.211698605E0
1.432066758E1,1.449780868E0,4.401456499E-1,1.955894805E0,2.474089175E0
1.433060658E1,1.736585042E0,1.432199460E-1,2.180681655E0,2.791345920E0
1.434054558E1,1.920365369E0,-7.530453622E-2,2.416740768E0,3.087735394E0
1.435048558E1,1.954158475E0,-2.083988589E-1,2.619590034E0,3.274815625E0
1.436042458E1,1.901388377E0,-4.036683798E-1,2.739238100E0,3.358816948E0
1.437036358E1,1.770592302E0,-7.612378961E-1,2.770962753E0,3.375309588E0
1.438030258E1,1.574298934E0,-1.308171245E0,2.531058512E0,3.255147666E0
1.439024258E1,1.354747388E0,-2.182411847E0,2.347073532E0,3.479513776E0
1.440018158E1,1.196282289E0,-3.509100055E0,2.174103538E0,4.297860014E0
1.441012058E1,1.008852861E0,-5.165518016E0,1.939680476E0,5.609164003E0
1.442005958E1,7.048156272E-1,-7.144450850E0,1.698239002E0,7.377259568E0
1.442999958E1,3.729495938E-1,-9.172404402E0,1.590170762E0,9.316691310E0
1.443993858E1,2.488608603E-1,-1.088484220E1,1.569750531E0,1.100026537E1
1.444987758E1,3.510406615E-1,-1.207252396E1,1.308658319E0,1.214831885E1
1.445981658E1,3.079455127E-1,-1.257677966E1,7.866076492E-1,1.260511676E1
1.446975658E1,1.817313163E-1,-1.259012885E1,5.195558086E-2,1.259154756E1
1.447969558E1,1.419665954E-1,-1.265788171E1,-6.391977346E-1,1.267480562E1
1.448963458E1,3.363467547E-1,-1.284160590E1,-9.135426611E-1,1.287845221E1
1.449957358E1,5.071521100E-1,-1.303194212E1,-1.018707758E0,1.308153218E1
1.450951358E1,3.609167549E-1,-1.311172153E1,-1.127759500E0,1.316508048E1
1.451945258E1,-1.225422911E-1,-1.316450084E1,-1.538315753E0,1.325464124E1
1.452939158E1,-6.471269976E-1,-1.305893170E1,-2.424406029E0,1.329782746E1
1.453933058E1,-1.107419814E0,-1.231369588E1,-3.329358984E0,1.280383209E1
1.454927058E1,-1.208065452E0,-1.085820462E1,-3.843432151E0,1.158153705E1
1.455920958E1,-8.320764752E-1,-8.932805386E0,-3.863050729E0,9.767831093E0
1.456914858E1,-4.433585487E-1,-6.718322146E0,-3.758535842E0,7.710966926E0
1.457908758E1,-3.239034413E-1,-4.099755959E0,-3.567141271E0,5.444025093E0
1.458902758E1,-6.388466093E-1,-1.239923714E0,-3.006475736E0,3.314277019E0
1.459896658E1,-1.363608697E0,2.042964524E0,-2.050985734E0,3.199949251E0
1.460890558E1,-1.801828274E0,5.370492745E0,-1.253401546E0,5.801706033E0
1.461884458E1,-1.813575477E0,8.058243188E0,-9.662196422E-1,8.316124078E0
1.462878458E1,-1.610087256E0,9.897376113E0,-8.408307803E-1,1.006267516E1
1.463872358E1,-8.861830274E-1,1.090539633E1,-7.820194852E-1,1.096925448E1
1.464866258E1,-3.675267398E-1,1.178092098E1,-7.429659319E-1,1.181004545E1
1.465860158E1,-1.955599082E-1,1.281602550E1,-4.762170502E-1,1.282636098E1
1.466854158E1,-1.589996807E-2,1.374068898E1,-3.510739175E-1,1.374518241E1
1.467848058E1,1.245807767E-1,1.437004117E1,-4.394346285E-1,1.437729830E1
1.468841958E1,-3.882171124E-2,1.471415800E1,-6.898451471E-1,1.473037132E1
1.469835858E1,-7.542973242E-1,1.490410831E1,-1.137596782E0,1.496648039E1
1.470829858E1,-1.809714852E0,1.507761391E1,-1.604685452E0,1.527038063E1
1.471823758E1,-3.279878091E0,1.505302637E1,-1.594189699E0,1.548846809E1
1.472817658E1,-4.531250653E0,1.479103602E1,-7.740449794E-1,1.548890328E1
1.473811558E1,-4.719617828E0,1.382892697E1,7.033451986E-1,1.462903647E1
1.474805558E1,-4.041323563E0,1.279029775E1,1.910363706E0,1.354892993E1
1.475799458E1,-2.889405123E0,1.187910041E1,2.617315468E0,1.250248090E1
1.476793321E1,-1.751462405E0,1.096548934E1,3.353240182E0,1.159973261E1
1.477787321E1,-7.228702942E-1,1.006373992E1,3.792801111E0,1.077899545E1
1.478781221E1,1.778025721E-1,9.222104566E0,3.568529985E0,9.890057262E0
1.479775121E1,7.915349516E-1,8.411337830E0,2.665284855E0,8.858943223E0
1.480769021E1,8.956023802E-1,7.342253385E0,1.591567662E0,7.565968280E0
1.481763021E1,9.815639055E-1,6.287036197E0,8.233955526E-1,6.416250625E0
1.482756921E1,1.047562963E0,5.732607302E0,1.825723469E-1,5.830395124E0
1.483750821E1,9.818887183E-1,6.253052180E0,-9.219328308E-1,6.396462082E0
1.484744721E1,7.445218760E-1,7.644557358E0,-2.371361697E0,8.038465421E0
1.485738721E1,3.928497152E-1,8.752819317E0,-3.146054621E0,9.309341361E0
1.486732621E1,1.765822582E-1,9.276808777E0,-2.874376609E0,9.713516524E0
1.487726521E1,1.492336611E-1,9.336456808E0,-2.017871783E0,9.553193338E0
1.488720421E1,9.052505784E-2,9.343929550E0,-1.024460176E0,9.400358125E0
1.489714421E1,-2.303192664E-1,9.502606611E0,-1.888065203E-1,9.507272336E0
1.490708321E1,-7.563718432E-1,9.703403504E0,1.348683679E-1,9.733772517E0
1.491702221E1,-1.314701708E0,9.863240068E0,-2.015500152E-1,9.952515643E0
1.492696121E1,-1.716910623E0,9.866231503E0,-1.201857755E0,1.008636546E1
1.493690121E1,-2.031504712E0,9.832874308E0,-2.605587122E0,1.037311490E1
1.494684021E1,-2.895062304E0,9.855377902E0,-2.964252992E0,1.069096138E1
1.495677921E1,-4.864155445E0,9.514737244E0,-8.373551953E-1,1.071874045E1
1.496671821E1,-7.467572080E0,8.109040289E0,2.143930736E0,1.123020953E1
1.497665821E1,-8.998352673E0,4.522528362E0,3.545248711E0,1.067672244E1
1.498659721E1,-9.970922391E0,-1.614564176E0,3.878359909E0,1.081978680E1
1.499653621E1,-1.114957021E1,-1.060855190E1,3.933889747E0,1.588489150E1
1.500647521E1,-8.668936915E0,-2.254033339E1,-3.873549989E0,2.445856672E1
1.501641521E1,-1.156716081E0,-2.908106156E1,-1.451327340E1,3.252201160E1
1.502635421E1,4.093515226E0,-2.910790262E1,-1.258034763E1,3.197330149E1
1.503629321E1,8.799122833E0,-2.469667659E1,-3.846232967E0,2.649799814E1
1.504623221E1,1.307627805E1,-1.580991452E1,1.958494477E0,2.061014666E1
1.505617221E1,1.288993080E1,-8.225353687E0,5.265580832E0,1.617198506E1
1.506611121E1,8.334235860E0,-5.406133279E0,6.410322400E0,1.182277453E1
1.507605021E1,3.369623788E0,-5.574062973E0,3.489863884E0,7.389431131E0
1.508598921E1,-1.912191546E-1,-6.429907064E0,-7.202307880E-1,6.472943844E0
1.509592921E1,-2.258872231E0,-6.019765232E0,-1.616139416E0,6.629629237E0
1.510586821E1,-1.008372512E0,-5.114223901E0,-4.429160607E-1,5.231469762E0
1.511580721E1,6.523323351E-1,-5.343219577E0,9.614412975E-1,5.468080311E0
1.512574621E1,2.508435050E-1,-3.908029266E0,1.663282592E0,4.254659116E0
1.513568621E1,-9.367651704E-1,-1.908612465E0,1.241267989E0,2.461925415E0
1.514562521E1,-1.191502482E0,-1.806659244E0,9.878403068E-1,2.378975464E0
1.515556421E1,-4.346622773E-1,-3.251105112E0,1.648540592E0,3.671008285E0
1.516550321E1,1.583762798E0,-4.706503401E0,2.324541872E0,5.482971254E0
1.517544321E1,2.658443028E0,-5.412342437E0,2.359266146E0,6.475098975E0
1.518538221E1,2.250615816E0,-4.178949478E0,1.840687115E0,5.090876089E0
1.519532121E1,1.576339173E0,-2.079242989E0,1.162310624E0,2.856407286E0
1.520526021E1,9.508937976E-1,-7.661928266E-1,3.102568439E-1,1.259964194E0
1.521520021E1,5.455558915E-1,-4.442340231E-1,1.888033044E-1,7.284379080E-1
1.522513921E1,3.614456356E-1,-8.109164250E-1,2.259013295E-1,9.161112413E-1
1.523507821E1,3.945294741E-1,-1.305541168E0,5.534867625E-1,1.471882755E0
1.524501721E1,6.789608476E-1,-1.217362232E0,1.216472286E0,1.850071204E0
1.525495721E1,6.042612058E-1,-7.013325870E-1,1.671882677E0,1.911070561E0
1.526489621E1,2.656433925E-1,-5.159688342E-1,1.865668759E0,1.953844971E0
1.527483521E1,-8.876701936E-2,-6.383691841E-1,1.842140879E0,1.951634653E0
1.528477421E1,-1.205213472E-1,-3.553762257E-1,1.876165827E0,1.913325865E0
1.529471421E1,1.948270328E-1,1.698259467E-1,2.083518619E0,2.099487619E0
1.530465321E1,6.633458582E-1,6.853194022E-1,2.010254030E0,2.225041949E0
1.531459221E1,1.032712717E0,1.213539907E0,1.986814735E0,2.546881908E0
1.532453121E1,1.205928441E0,1.312456085E0,1.658331462E0,2.434515890E0
1.533447121E1,1.264799816E0,1.120250505E0,1.536877484E0,2.284003540E0
1.534441021E1,1.379458745E0,8.871284491E-1,1.659554261E0,2.333243163E0
1.535434921E1,1.395207489E0,6.413489252E-1,1.774566947E0,2.346704121E0
1.536428821E1,1.347023801E0,4.010809869E-1,1.745736665E0,2.241190662E0
1.537422821E1,1.355407831E0,2.320321351E-1,1.612840125E0,2.119486392E0
1.538416721E1,1.369524764E0,1.768665791E-1,1.425446072E0,1.984635072E0
1.539410621E1,1.384880283E0,2.081667244E-1,1.383797379E0,1.968786928E0
1.540404621E1,1.394228373E0,3.094171107E-1,1.400869056E0,2.000511388E0
1.541398521E1,1.345858305E0,2.535107124E-1,1.485493323E0,2.020468428E0
1.542392421E1,1.365090528E0,9.710295618E-2,1.499526786E0,2.030143275E0
1.543386321E1,1.549412453E0,-6.895855308E-2,1.479966534E0,2.143766586E0
1.544380321E1,1.776091462E0,-2.028586221E-1,1.438323834E0,2.294434125E0
1.545374221E1,2.009782014E0,-2.227923650E-1,1.391651505E0,2.454700408E0
1.546368121E1,2.076721377E0,-1.625093257E-1,1.222762574E0,2.415435628E0
1.547362021E1,2.005134939E0,-1.784283704E-1,1.066076198E0,2.277920382E0
1.548356021E1,1.772301297E0,-2.077141500E-1,1.067624395E0,2.079427542E0
1.549349921E1,1.452759586E0,-1.376533967E-1,1.091326814E0,1.822211044E0
1.550343821E1,1.250326495E0,-1.189604330E-1,1.061867519E0,1.644697710E0
1.551337721E1,1.139931356E0,-1.701645005E-1,1.171727199E0,1.643576613E0
1.552331721E1,1.124896703E0,-1.435655165E-1,1.323978170E0,1.743250367E0
1.553325621E1,1.131910146E0,-2.319941282E-2,1.245322448E0,1.683029052E0
1.554319521E1,1.176179708E0,9.417057753E-2,1.155504684E0,1.651501704E0
1.555313421E1,1.210794201E0,2.810019815E-1,1.313920666E0,1.808693514E0
1.556307421E1,1.279519158E0,5.032879776E-1,1.369764061E0,1.940804381E0
1.557301321E1,1.350353644E0,6.719117367E-1,1.284135096E0,1.980889520E0
1.558295221E1,1.436615131E0,7.200892854E-1,1.433382937E0,2.153364404E0
1.559289121E1,1.542081945E0,6.631222022E-1,1.493005679E0,2.246511459E0
1.560283121E1,1.576774206E0,6.115433282E-1,1.405570217E0,2.199052017E0
1.561277021E1,1.518846864E0,5.150309408E-1,1.387163036E0,2.120465504E0
1.562270921E1,1.492372718E0,3.941128600E-1,1.436080842E0,2.108276419E0
1.563264821E1,1.519521340E0,2.129029691E-1,1.338912982E0,2.036408788E0
1.564258821E1,1.572130055E0,-3.801976562E-2,1.222623557E0,1.991945475E0
1.565252721E1,1.709828622E0,-3.147257978E-1,1.188660589E0,2.106057986E0
1.566246621E1,1.874003381E0,-5.355792260E-1,1.164434406E0,2.270383506E0
1.567240521E1,1.998568224E0,-7.119242334E-1,1.149877177E0,2.413157389E0
1.568234521E1,2.041256845E0,-8.094008267E-1,1.209471999E0,2.506926748E0
1.569228421E1,1.962917457E0,-8.012310970E-1,1.185011927E0,2.428841181E0
1.570222321E1,1.671364321E0,-6.121900302E-1,1.263938813E0,2.183065883E0
1.571216221E1,1.420068242E0,-3.976638740E-1,1.433474738E0,2.056594319E0
1.572210221E1,1.202229930E0,-2.327074885E-1,1.464575493E0,1.909054990E0
1.573204121E1,1.069179023E0,-1.429486352E-1,1.644790188E0,1.966955225E0
1.574198021E1,1.132188619E0,-2.040157861E-1,1.854541508E0,2.182383494E0
1.575191921E1,1.306586358E0,-5.205185527E-1,1.861868069E0,2.333379562E0
1.576185921E1,1.566526084E0,-1.110372219E0,2.188365481E0,2.911335418E0
1.577179812E1,1.778205815E0,-2.114808093E0,2.738926443E0,3.890520178E0
1.578173712E1,1.931142957E0,-3.601065647E0,3.199901630E0,5.190024793E0
1.579167613E1,1.919276325E0,-5.443473598E0,3.684299008E0,6.847560558E0
1.580161612E1,1.837139025E0,-7.703399059E0,3.753961565E0,8.764112293E0
1.581155513E1,1.492893705E0,-1.036815416E1,3.438866224E0,1.102511465E1
1.582149412E1,9.406909910E-1,-1.291247298E1,2.974945210E0,1.328409414E1
1.583143313E1,4.200418992E-1,-1.474806133E1,1.940536947E0,1.488110990E1
1.584137312E1,3.262132376E-2,-1.540047143E1,2.987857032E-1,1.540340408E1
1.585131212E1,-8.642199352E-2,-1.507746890E1,-1.404468601E0,1.514298746E1
1.586125112E1,-3.885328621E-3,-1.464944570E1,-2.615694035E0,1.488113334E1
1.587119012E1,1.860300431E-1,-1.443240290E1,-3.207181413E0,1.478563063E1
1.588113012E1,9.573850840E-2,-1.380973173E1,-3.734019052E0,1.430596920E1
1.589106912E1,-5.038833703E-1,-1.256320593E1,-4.168651947E0,1.324634669E1
1.590100813E1,-1.135335298E0,-1.076834227E1,-4.580899946E0,1.175716062E1
1.591094712E1,-1.565827634E0,-8.110332524E0,-4.388724772E0,9.353620419E0
1.592088713E1,-1.812507921E0,-4.726641212E0,-3.756130298E0,6.303557481E0
1.593082612E1,-2.185149221E0,-1.142593301E0,-2.755488682E0,3.697717464E0
1.594076513E1,-2.195810449E0,2.372544004E0,-1.918727564E0,3.759263763E0
1.595070412E1,-2.029956808E0,5.118491199E0,-1.733432808E0,5.772734716E0
1.596064412E1,-1.746004029E0,6.656590751E0,-1.393357576E0,7.021408394E0
1.597058312E1,-1.328648487E0,7.605785056E0,-1.206374145E0,7.814640855E0
1.598052212E1,-1.268683829E0,8.799594703E0,-1.194534702E0,8.970470375E0
1.599046212E1,-1.166919691E0,1.027293576E1,-1.106239407E0,1.039801309E1
1.600040112E1,-7.116069489E-1,1.186005603E1,-1.035614471E0,1.192643328E1
1.601034013E1,-1.985875234E-1,1.312001873E1,-1.098093066E0,1.316738915E1
1.602027912E1,3.598164551E-2,1.379271868E1,-1.075267802E0,1.383461543E1
1.603021913E1,-2.641862664E-1,1.395335806E1,-8.568930817E-1,1.398214080E1
1.604015812E1,-9.322888345E-1,1.400975796E1,-3.998700285E-1,1.404643644E1
1.605009713E1,-1.715250745E0,1.421663947E1,2.382590543E-1,1.432172093E1
1.606003612E1,-2.599537008E0,1.455270936E1,1.055937053E0,1.482072689E1
1.606997612E1,-3.642187361E0,1.478159511E1,1.905689588E0,1.534251399E1
1.607991512E1,-4.553593157E0,1.483444809E1,2.969485080E0,1.579917411E1
1.608985412E1,-5.038810022E0,1.460980859E1,4.023141646E0,1.596940143E1
1.609979313E1,-5.074407871E0,1.440205000E1,4.708016660E0,1.597917646E1
1.610973312E1,-4.476194440E0,1.383390646E1,4.134942749E0,1.511658150E1
1.611967213E1,-3.397704164E0,1.269392160E1,3.343786404E0,1.355953343E1
1.612961112E1,-2.148591551E0,1.120398791E1,2.783763478E0,1.174287570E1
1.613955013E1,-8.245686503E-1,9.862628449E0,2.293382059E0,1.015927924E1
1.614949012E1,-4.443752334E-2,8.795114567E0,1.674485857E0,8.953207125E0
1.615942913E1,3.370756102E-1,7.864369397E0,7.547036326E-1,7.907686359E0
1.616936812E1,5.206793511E-1,6.985123580E0,-1.238042665E-1,7.005596756E0
1.617930712E1,4.979965398E-1,6.296537338E0,-1.301218321E0,6.448841146E0
1.618924712E1,7.791104954E-1,6.038787979E0,-3.033412689E0,6.802614641E0
1.619918612E1,1.072024571E0,6.478930120E0,-4.855317378E0,8.166999389E0
1.620912513E1,8.822827153E-1,7.367090018E0,-5.602851155E0,9.297546945E0
1.621906412E1,4.317686364E-1,8.160189977E0,-5.279336407E0,9.728644177E0
1.622900413E1,-6.866984680E-2,8.712330272E0,-4.754897296E0,9.925646710E0
1.623894312E1,-7.712580503E-1,8.953046692E0,-4.093455584E0,9.874627217E0
1.624888213E1,-1.620317544E0,8.991160598E0,-3.413052521E0,9.752708616E0
1.625882112E1,-2.502329972E0,9.116523147E0,-2.408976835E0,9.755809499E0
1.626876113E1,-3.551538269E0,9.490468960E0,5.303694300E-1,1.014710387E1
1.627870012E1,-5.419247414E0,8.483938614E0,3.601487231E0,1.069187389E1
1.628863912E1,-6.828460885E0,4.560952755E0,3.478674653E0,8.918034841E0
1.629857812E1,-6.849520801E0,-1.359632006E0,1.146989822E-1,6.984102681E0
1.630851812E1,-6.532677142E0,-9.134922581E0,-1.534629815E0,1.133480348E1
1.631845713E1,-2.902011720E0,-1.796149809E1,4.607804009E-1,1.820025836E1
1.632839612E1,2.457851664E0,-2.562158215E1,-3.043621343E0,2.591852884E1
1.633833513E1,6.939368532E0,-3.321064592E1,-6.219485654E0,3.449324339E1
1.634827512E1,1.245929974E1,-3.103360591E1,-4.025838382E0,3.368272881E1
1.635821413E1,1.427501690E1,-1.762151992E1,-2.165821542E0,2.278123910E1
1.636815312E1,1.043394118E1,-7.304604918E0,1.593244643E0,1.283599665E1
1.637809212E1,2.668909837E0,-4.937266105E0,4.807770159E0,7.390150893E0
1.638803212E1,-5.754189960E0,-6.264433200E0,4.312349026E0,9.536780355E0
1.639797112E1,-1.195064460E1,-6.515074684E0,2.549252708E0,1.384784438E1
1.640791012E1,-1.226331042E1,-5.069501472E0,7.135123372E-1,1.328900777E1
1.641784912E1,-8.614922676E0,-2.960604329E0,-2.329197607E-1,9.112426808E0
1.642778913E1,-4.774208311E0,-1.441321117E0,-3.883182693E-1,5.002125812E0
1.643772812E1,-7.803253276E-1,-1.443702688E0,-1.230928942E0,2.051431482E0
1.644766713E1,2.215344535E0,-2.030719870E0,-8.721437895E-1,3.129250611E0
1.645760612E1,3.900327314E0,-3.140766399E0,4.252212167E-1,5.025711871E0
1.646754613E1,4.107609062E0,-4.117937876E0,1.244952904E0,5.948089802E0
