"Time (s)","Linear Acceleration x (m/s^2)","Linear Acceleration y (m/s^2)","Linear Acceleration z (m/s^2)","Absolute acceleration (m/s^2)"
1.403204167E-2,1.712703727E1,8.761729304E0,2.313846145E0,1.937671773E1
2.397004167E-2,1.480935769E1,9.463688128E0,2.574058936E0,1.776243923E1
3.390804167E-2,1.234907387E1,9.996523840E0,3.015531904E0,1.617168968E1
4.384604167E-2,1.014171488E1,1.019767741E1,3.166473098E0,1.472662749E1
5.378404167E-2,8.039660736E0,1.026221430E1,3.118244094E0,1.340420208E1
6.372304167E-2,6.071661610E0,1.031936382E1,2.962438601E0,1.233411476E1
7.366104167E-2,4.546304895E0,1.036673562E1,2.697328767E0,1.163673829E1
8.359904167E-2,3.366324497E0,1.036514752E1,2.346028635E0,1.114774749E1
9.353704167E-2,2.315025528E0,1.032362410E1,2.032606766E0,1.077348820E1
1.034750417E-1,1.245644045E0,1.022391738E1,1.824970969E0,1.045995386E1
1.134130417E-1,1.690646392E-1,9.966186147E0,1.464521699E0,1.007463513E1
1.233510417E-1,-1.069323596E0,9.563157452E0,1.082671620E0,9.683471033E0
1.332900417E-1,-2.272741388E0,9.034144650E0,9.275087357E-1,9.361698319E0
1.432280417E-1,-3.361512823E0,8.479359074E0,8.958800498E-1,9.165255034E0
1.531660417E-1,-4.304264665E0,7.982296042E0,1.061042769E0,9.130693083E0
1.631040417E-1,-5.048620480E0,7.535519650E0,1.187789354E0,9.147866893E0
1.730420417E-1,-5.534398971E0,7.137364610E0,1.171771638E0,9.107392289E0
1.829800417E-1,-5.818601133E0,6.840990883E0,1.150844307E0,9.054265184E0
1.929180417E-1,-5.795896395E0,6.671035128E0,1.132763547E0,8.909448802E0
2.028560417E-1,-5.568663654E0,6.405820044E0,1.205587109E0,8.573096617E0
2.127950417E-1,-5.502820498E0,6.096970698E0,1.230655292E0,8.304733444E0
2.227330417E-1,-5.707647877E0,5.815521405E0,1.330551317E0,8.256385426E0
2.326710417E-1,-5.825900213E0,5.598045913E0,1.500561597E0,8.217719662E0
2.426090417E-1,-5.725762551E0,5.446515319E0,1.753453820E0,8.094657882E0
2.525470417E-1,-5.466879417E0,5.368077845E0,2.225245625E0,7.978392595E0
2.624850417E-1,-4.729475942E0,5.523275812E0,3.073320228E0,7.894290063E0
2.724230417E-1,-2.705810153E0,6.137327596E0,4.178551283E0,7.902435664E0
2.823620417E-1,6.345567995E-1,7.302708666E0,5.132102348E0,8.948222767E0
2.923000417E-1,4.361289636E0,8.649672679E0,5.949656532E0,1.136820556E1
3.022380417E-1,7.845486984E0,9.817051742E0,6.598518544E0,1.419389368E1
3.121760417E-1,1.080191815E1,1.058515719E1,7.190770154E0,1.674616864E1
3.221140417E-1,1.355022412E1,1.054179892E1,7.740480931E0,1.883223681E1
3.320520417E-1,1.541905622E1,9.907344446E0,8.051228868E0,2.001811817E1
3.419900417E-1,1.667619121E1,9.063382482E0,7.686672513E0,2.047743123E1
3.519280417E-1,1.785448937E1,8.632852578E0,7.030133107E0,2.104119069E1
3.618670417E-1,1.939782218E1,8.484012873E0,5.997430623E0,2.200507109E1
3.718050417E-1,2.120639171E1,8.027408481E0,4.682614017E0,2.315334123E1
3.817430417E-1,2.229404398E1,6.876334963E0,3.817588627E0,2.364069294E1
3.916810417E-1,2.173960632E1,4.784935613E0,3.800144044E0,2.258201024E1
4.016190417E-1,1.984407232E1,2.167294748E0,3.974253076E0,2.035384633E1
4.115570417E-1,1.753274866E1,8.175971612E-2,3.857520432E0,1.795228187E1
4.214950417E-1,1.588601018E1,-1.223576799E0,3.706741791E0,1.635855722E1
4.314340417E-1,1.538786366E1,-2.372602037E0,3.397077928E0,1.593598842E1
4.413720417E-1,1.536386552E1,-3.926202412E0,2.796204014E0,1.610224165E1
4.513100417E-1,1.521231271E1,-5.503344408E0,2.147743120E0,1.631913166E1
4.612480417E-1,1.500132178E1,-6.840913700E0,1.070609325E0,1.652222623E1
4.711860417E-1,1.501446164E1,-7.696820356E0,-2.215720510E-1,1.687377243E1
4.811240417E-1,1.511409820E1,-8.208331858E0,-1.249495606E0,1.724453291E1
4.910620417E-1,1.469842431E1,-8.724059787E0,-2.079274564E0,1.721848655E1
5.010000417E-1,1.347658311E1,-9.202452074E0,-2.788573397E0,1.655534833E1
5.109390417E-1,1.160209441E1,-9.777580113E0,-3.110649145E0,1.548824734E1
5.208770417E-1,9.623762673E0,-1.037476151E1,-3.126955860E0,1.449242345E1
5.308150417E-1,7.882678784E0,-1.073166620E1,-3.035865596E0,1.365729710E1
5.407530417E-1,6.301554834E0,-1.082003283E1,-2.841697690E0,1.283970208E1
5.506910417E-1,5.055203860E0,-1.070721080E1,-2.707202375E0,1.214612671E1
5.606290417E-1,4.248592740E0,-1.053373093E1,-2.606785802E0,1.165355567E1
5.705670417E-1,3.536711192E0,-1.025695649E1,-2.459268737E0,1.112481394E1
5.805050417E-1,2.844497922E0,-9.914634755E0,-2.313875381E0,1.057095880E1
5.904440417E-1,2.202031594E0,-9.528586375E0,-2.410899400E0,1.007250403E1
6.003820417E-1,1.470923231E0,-9.126305539E0,-2.538203809E0,9.586216486E0
6.103200417E-1,5.745199281E-1,-8.787961083E0,-2.694985203E0,9.209846817E0
6.202580417E-1,-4.843073308E-1,-8.507166678E0,-2.772449116E0,8.960631260E0
6.301960417E-1,-1.536389242E0,-8.141916259E0,-2.698609307E0,8.713999338E0
6.401340417E-1,-2.411784668E0,-7.645318081E0,-2.563634520E0,8.416639222E0
6.500720417E-1,-3.109069228E0,-7.168466535E0,-2.422197390E0,8.180480677E0
6.600110417E-1,-3.645793338E0,-6.795592516E0,-2.163619480E0,8.009565279E0
6.699490417E-1,-3.727866027E0,-6.424242282E0,-1.833455279E0,7.650453076E0
6.798870417E-1,-3.292095264E0,-5.977599791E0,-1.557327536E0,6.999632814E0
6.898250417E-1,-2.540504104E0,-5.407819616E0,-1.377468352E0,6.131565311E0
6.997630417E-1,-1.901936699E0,-4.796526548E0,-1.194326541E0,5.296267178E0
7.097010417E-1,-1.708118457E0,-4.242820369E0,-8.651704001E-1,4.654859092E0
7.196390417E-1,-1.861751125E0,-3.863933074E0,-5.108911121E-1,4.319387199E0
7.295770417E-1,-2.179322762E0,-3.508161576E0,-3.637646413E-1,4.145958280E0
7.395160417E-1,-2.632329363E0,-3.143149724E0,-3.912266743E-1,4.118447083E0
7.494540417E-1,-3.135317379E0,-2.802783301E0,-5.574676931E-1,4.242237561E0
7.593920417E-1,-3.600569218E0,-2.390601960E0,-7.721259964E-1,4.390359323E0
7.693300417E-1,-3.935443352E0,-1.964082661E0,-1.047039857E0,4.521241814E0
7.792680417E-1,-4.278743908E0,-1.519945117E0,-1.414033331E0,4.755772582E0
7.892060417E-1,-4.900987641E0,-1.266925571E0,-1.752200031E0,5.356770035E0
7.991440417E-1,-5.621031318E0,-1.197551866E0,-1.994798670E0,6.083530659E0
8.090830417E-1,-6.413958199E0,-1.313322058E0,-2.116826552E0,6.880743365E0
8.190210417E-1,-7.240742213E0,-1.522633082E0,-2.192864914E0,7.717215549E0
8.289590417E-1,-8.022123182E0,-1.798625754E0,-2.250548866E0,8.523760036E0
8.388970417E-1,-8.756199008E0,-2.112589075E0,-2.103144214E0,9.249717252E0
8.488350417E-1,-9.338458310E0,-2.388966494E0,-1.996579732E0,9.843794753E0
8.587730417E-1,-9.700674609E0,-2.687405457E0,-2.002082985E0,1.026321452E1
8.687110417E-1,-9.836124190E0,-3.004781213E0,-1.848587873E0,1.044965676E1
8.786490417E-1,-9.821998487E0,-3.215592048E0,-1.468712983E0,1.043881240E1
8.885880417E-1,-9.721428716E0,-3.380408685E0,-1.019969660E0,1.034280800E1
8.985260417E-1,-9.602253106E0,-3.563245271E0,-5.626682798E-1,1.025751321E1
9.084640417E-1,-9.437173344E0,-3.729990905E0,-1.645282231E-2,1.014757821E1
9.184020417E-1,-9.183612345E0,-3.773298308E0,5.196234536E-1,9.942158939E0
9.283400417E-1,-8.764714893E0,-3.807250165E0,1.013840536E0,9.609539718E0
9.382780417E-1,-8.225376492E0,-3.748944070E0,1.419481766E0,9.150209208E0
9.482160417E-1,-7.655713261E0,-3.587314750E0,1.717957567E0,8.627291049E0
9.581550417E-1,-7.005403478E0,-3.435591783E0,1.841451931E0,8.016851876E0
9.680934167E-1,-6.164141173E0,-3.243038878E0,1.864597549E0,7.210455019E0
9.780314167E-1,-5.456873662E0,-2.905120685E0,1.939847122E0,6.479213163E0
9.879694167E-1,-4.839749751E0,-2.639923727E0,1.969575536E0,5.854195310E0
9.979074167E-1,-4.049797348E0,-2.474475591E0,1.942157941E0,5.127949442E0
1.007845417E0,-3.073809348E0,-2.214440555E0,2.003988739E0,4.285793012E0
1.017783417E0,-2.243739783E0,-1.885201968E0,2.150380799E0,3.634899209E0
1.027722417E0,-1.297525220E0,-1.652768714E0,2.293154603E0,3.110269144E0
1.037660417E0,-4.903071588E-1,-1.390595351E0,2.545104108E0,2.941379177E0
1.047598417E0,5.086609840E-2,-1.362112979E0,2.825359985E0,3.136972772E0
1.057536417E0,3.711888510E-1,-1.631852054E0,3.095604844E0,3.519018562E0
1.067474417E0,5.338484502E-1,-1.983388413E0,3.232726729E0,3.830058207E0
1.077412417E0,1.423282456E-1,-2.163280342E0,3.229476262E0,3.889673006E0
1.087350417E0,-3.757777458E-1,-1.895784259E0,3.116163070E0,3.666835031E0
1.097288417E0,-1.590705782E-1,-9.331711793E-1,3.160010755E0,3.298754291E0
1.107227417E0,2.229818147E-1,4.997048038E-1,3.422372983E0,3.465842266E0
1.117165417E0,4.218555593E-1,1.993490063E0,3.642090881E0,4.173342873E0
1.127103417E0,1.301672650E0,3.025242959E0,4.084837373E0,5.247127120E0
1.137041417E0,2.753508815E0,3.727792937E0,4.994661790E0,6.813581831E0
1.146979417E0,4.425654616E0,4.426998307E0,5.978961022E0,8.656368043E0
1.156917417E0,6.013252603E0,4.971309180E0,6.514539079E0,1.016426787E1
1.166855417E0,6.850277431E0,5.252931551E0,6.643180162E0,1.089272388E1
1.176794417E0,7.443495001E0,5.374303375E0,6.720659863E0,1.137787430E1
1.186732417E0,8.300164719E0,5.778716106E0,6.635583460E0,1.209616725E1
1.196670417E0,5.992265777E0,5.016007635E0,6.462333968E0,1.014048037E1
1.206608417E0,4.996155753E0,3.880859594E0,5.944891636E0,8.681266040E0
1.216546417E0,5.104308777E0,3.539451782E0,5.471295819E0,8.277485424E0
1.226484417E0,5.368409382E0,3.104551084E0,4.822672373E0,7.855967512E0
1.236422417E0,5.071017070E0,2.209639406E0,3.882240706E0,6.757922265E0
1.246361417E0,4.149135695E0,1.205175465E0,2.895831213E0,5.201308810E0
1.256299417E0,3.158494280E0,2.446749848E-1,2.061352117E0,3.779566710E0
1.266237417E0,2.349500712E0,-6.161263758E-1,1.223453861E0,2.719669953E0
1.276175417E0,1.765006603E0,-1.395560807E0,2.002028167E-1,2.258964241E0
1.286113417E0,1.084238089E0,-1.983271469E0,-8.685448283E-1,2.421426867E0
1.296051417E0,4.202677479E-1,-2.473513724E0,-1.816436373E0,3.097472553E0
1.305989417E0,-1.618214008E-1,-2.929203612E0,-2.745493451E0,4.017978877E0
1.315927417E0,-6.077172026E-1,-3.295739248E0,-3.475594924E0,4.828144309E0
1.325866417E0,-9.274730676E-1,-3.503921176E0,-3.849129678E0,5.287104044E0
1.335804417E0,-1.336986909E0,-3.759606467E0,-4.241576666E0,5.823499584E0
1.345742417E0,-1.623142334E0,-4.115585541E0,-4.210879954E0,6.107711958E0
1.355680417E0,-2.065006773E0,-4.421708915E0,-3.862998689E0,6.224027761E0
1.365618417E0,-2.649942931E0,-4.860988593E0,-3.475535282E0,6.536876405E0
1.375556417E0,-3.367275546E0,-5.400145730E0,-3.065778782E0,7.063930779E0
1.385494417E0,-3.980946384E0,-5.792069977E0,-2.600732764E0,7.493985564E0
1.395433417E0,-4.522009129E0,-6.035123529E0,-2.135101440E0,7.837725482E0
1.405371417E0,-4.813839277E0,-6.289209607E0,-1.817358917E0,8.125884537E0
1.415309417E0,-4.789210220E0,-6.438006628E0,-1.754439076E0,8.213557106E0
1.425247417E0,-4.307495544E0,-6.366793973E0,-1.871548135E0,7.911591229E0
1.435185417E0,-3.627068215E0,-6.240342672E0,-2.061796213E0,7.506564069E0
1.445123417E0,-3.196154149E0,-6.352947181E0,-2.117505706E0,7.420186632E0
1.455061417E0,-2.936369082E0,-6.609348173E0,-2.116349127E0,7.535561046E0
1.465000417E0,-2.378152361E0,-6.604931186E0,-2.213802185E0,7.360818211E0
1.474938417E0,-1.575208907E0,-6.308471505E0,-2.478503153E0,6.958525254E0
1.484876417E0,-4.119328344E-1,-5.736874015E0,-2.844932955E0,6.416779227E0
1.494814417E0,-2.454544187E-2,-4.946861971E0,-3.346123536E0,5.972318525E0
1.504752417E0,-3.570888752E-1,-4.295781525E0,-4.139019427E0,5.976013152E0
1.514690417E0,-1.715058517E-1,-3.937173543E0,-5.205573197E0,6.529069005E0
1.524628417E0,8.863776666E-1,-3.710247781E0,-5.460391932E0,6.660892133E0
1.534566417E0,3.893489580E0,-2.705158188E0,-4.899189037E0,6.817565192E0
1.544505417E0,8.849020633E0,-1.118250173E0,-3.877238413E0,9.725668477E0
1.554443417E0,1.373527797E1,5.760828888E-1,-1.796050640E0,1.386418156E1
1.564381417E0,1.699394996E1,2.174432151E0,1.878558946E0,1.723518129E1
1.574319417E0,1.757476091E1,3.866920124E0,7.458153970E0,1.947945977E1
1.584257417E0,1.690816780E1,4.432044454E0,8.900435784E0,1.961496657E1
1.594195417E0,1.605803059E1,4.615513709E0,8.326376032E0,1.866793644E1
1.604133417E0,1.490613846E1,4.841267396E0,8.081763028E0,1.763365327E1
1.614072417E0,1.399858394E1,4.818049564E0,8.490309155E0,1.706632073E1
1.624010417E0,1.271301861E1,4.594587108E0,8.192840829E0,1.580676165E1
1.633948417E0,1.107729745E1,4.336542465E0,6.908136215E0,1.375625187E1
1.643886417E0,9.309360811E0,4.084416958E0,5.609833900E0,1.161106787E1
1.653824417E0,7.434751659E0,3.780980087E0,4.611580871E0,9.530898215E0
1.663762417E0,5.675316868E0,3.462362675E0,3.681851948E0,7.599553316E0
1.673700417E0,4.167397719E0,3.141571853E0,2.766273871E0,5.906686769E0
1.683638417E0,3.082224076E0,2.819793728E0,2.007566650E0,4.634831796E0
1.693577417E0,2.627106630E0,2.422285536E0,1.613374853E0,3.920731422E0
1.703515417E0,2.591627480E0,2.112668012E0,1.764259329E0,3.780543625E0
1.713453417E0,2.750932531E0,2.166671434E0,2.357110863E0,4.221145166E0
1.723391417E0,3.117767546E0,2.379582297E0,2.999529828E0,4.937617398E0
1.733329417E0,3.502914285E0,2.660999723E0,3.628349925E0,5.702302271E0
1.743267417E0,3.730770923E0,2.733123959E0,4.229187586E0,6.266948691E0
1.753205417E0,3.687761729E0,2.622051420E0,4.557650247E0,6.422376195E0
1.763144417E0,3.414019065E0,2.482787700E0,4.817209904E0,6.405097361E0
1.773082417E0,3.011773898E0,2.285850261E0,5.294519287E0,6.505984008E0
1.783020417E0,2.655739861E0,2.081435110E0,5.639737730E0,6.572059646E0
1.792958417E0,2.751358209E0,2.098347012E0,6.138318114E0,7.046416213E0
1.802896417E0,3.500673632E0,2.396555010E0,6.813818872E0,8.026600738E0
1.812834417E0,4.259144041E0,2.640768942E0,7.403551501E0,8.940164618E0
1.822772417E0,4.762592232E0,2.721388597E0,7.411427116E0,9.220493076E0
1.832711417E0,5.057705884E0,2.722237321E0,6.865827516E0,8.951567032E0
1.842649417E0,5.094724606E0,2.802321078E0,6.414567479E0,8.657707444E0
1.852587417E0,5.049291156E0,2.822498943E0,6.314755508E0,8.563759605E0
1.862525417E0,4.885647470E0,2.703666271E0,6.300819839E0,8.419007848E0
1.872463417E0,4.579118299E0,2.583707719E0,6.234703032E0,8.155696897E0
1.882401417E0,4.041061023E0,2.428337843E0,5.838747130E0,7.504529760E0
1.892339417E0,3.273372479E0,2.074875119E0,4.841735466E0,6.201812353E0
1.902278417E0,2.326274402E0,1.715036298E0,3.556485305E0,4.582738245E0
1.912216417E0,1.371098396E0,1.548230146E0,2.119832606E0,2.961522864E0
1.922154417E0,3.472684765E-1,1.180475072E0,5.205694234E-1,1.336079831E0
1.932092417E0,-7.364299142E-1,7.653125283E-1,-8.165051937E-1,1.339668995E0
1.942030417E0,-1.675925442E0,3.737437919E-1,-1.719356806E0,2.429937928E0
1.951968417E0,-2.562184995E0,1.564371385E-1,-2.247565032E0,3.411863581E0
1.961906417E0,-3.438791379E0,-4.618284412E-2,-2.656838552E0,4.345826745E0
1.971843292E0,-4.353085992E0,-2.983207034E-1,-3.139468902E0,5.375371418E0
1.981782292E0,-5.326105946E0,-3.398489445E-1,-3.651606640E0,6.466616806E0
1.991720292E0,-6.109563847E0,-3.614177151E-1,-4.435342868E0,7.558416469E0
2.001658292E0,-6.571500900E0,-4.889757478E-1,-5.395444568E0,8.516721403E0
2.011596292E0,-6.817533608E0,-5.013987422E-1,-6.338149048E0,9.322140235E0
2.021534292E0,-7.000223429E0,-5.306267074E-1,-7.029570605E0,9.934765002E0
2.031472292E0,-7.149355495E0,-8.028411278E-1,-7.676002514E0,1.052040173E1
2.041410292E0,-7.615909510E0,-7.920293337E-1,-7.988809841E0,1.106573408E1
2.051349292E0,-8.270894727E0,-9.351703423E-1,-7.832762858E0,1.142954142E1
2.061287292E0,-8.910773662E0,-1.293473099E0,-7.631829139E0,1.180337985E1
2.071225292E0,-9.670102442E0,-1.762245840E0,-7.549487479E0,1.239399664E1
2.081163292E0,-1.045155182E1,-2.290513269E0,-7.640114059E0,1.314734686E1
2.091101292E0,-1.109764343E1,-2.567657989E0,-8.005426458E0,1.392255041E1
2.101039292E0,-1.155414725E1,-2.631507537E0,-8.528892592E0,1.460017669E1
2.110977292E0,-1.175007341E1,-2.709231359E0,-8.970185466E0,1.502891836E1
2.120915292E0,-1.170699580E1,-2.665860221E0,-9.435112785E0,1.527029517E1
2.130854292E0,-1.132225018E1,-2.543441160E0,-9.919651666E0,1.526636601E1
2.140792292E0,-1.063729448E1,-2.399107027E0,-9.976368488E0,1.477956956E1
2.150730292E0,-1.009298185E1,-2.309065754E0,-9.376556429E0,1.396853169E1
2.160668292E0,-9.730704739E0,-2.326232009E0,-8.568440820E0,1.317255283E1
2.170606292E0,-9.431254792E0,-2.284757270E0,-7.966112704E0,1.255498444E1
2.180544292E0,-9.153436035E0,-2.174333333E0,-7.569712998E0,1.207533319E1
2.190482292E0,-8.948954226E0,-2.072579210E0,-7.105342918E0,1.161315049E1
2.200421292E0,-8.987016676E0,-2.024635257E0,-6.533212747E0,1.129373656E1
2.210359292E0,-8.916662977E0,-1.949843522E0,-6.084402108E0,1.096944472E1
2.220297292E0,-8.311358628E0,-1.897523221E0,-5.708320892E0,1.025983450E1
2.230235292E0,-7.279909202E0,-1.679617666E0,-5.509685129E0,9.283039573E0
2.240173292E0,-6.076603677E0,-1.027170141E0,-5.048843844E0,7.966869831E0
2.250111292E0,-5.050859964E0,-3.255568877E-1,-4.175374491E0,6.561320431E0
2.260049292E0,-4.428423858E0,-2.090584248E-2,-3.277953188E0,5.509659882E0
2.269988292E0,-4.156897289E0,-2.662588120E-2,-2.575386254E0,4.890104126E0
2.279926292E0,-3.829624536E0,5.116810709E-2,-2.426093974E0,4.533715279E0
2.289864292E0,-3.620381339E0,-4.127107333E-2,-1.610859088E0,3.962793376E0
2.299802292E0,-3.204519761E0,-1.583347061E-1,-1.961857796E-1,3.214421509E0
2.309740292E0,-2.260393238E0,-7.536938184E-1,1.067476460E0,2.610926647E0
2.319678292E0,-7.550111961E-1,-1.115052915E0,1.883579950E0,2.315439125E0
2.329616292E0,1.158866687E0,-1.586958594E0,2.102107941E0,2.877545373E0
2.339554292E0,2.467586401E0,-1.886732623E0,2.207018977E0,3.810469184E0
2.349493292E0,3.216417090E0,-1.849911829E0,2.371210546E0,4.403425045E0
2.359431292E0,3.640867059E0,-1.587873391E0,3.497291018E0,5.292286775E0
2.369369292E0,3.830898060E0,-1.739261166E0,4.846968431E0,6.418248384E0
2.379307292E0,4.238977579E0,-2.368141343E0,5.725490656E0,7.507214369E0
2.389245292E0,4.819454650E0,-2.813777820E0,6.221105332E0,8.357430245E0
2.399183292E0,5.236688570E0,-2.901245735E0,6.456399629E0,8.804841291E0
2.409121292E0,5.279955043E0,-2.785647158E0,6.419354594E0,8.766177545E0
2.419060292E0,5.034138681E0,-2.448381367E0,6.406070305E0,8.507341555E0
2.428998292E0,4.913862040E0,-2.164628710E0,6.729666914E0,8.609301619E0
2.438936292E0,4.819941723E0,-1.819037361E0,7.274084791E0,8.913643738E0
2.448874292E0,4.647455294E0,-1.468667960E0,7.655348395E0,9.075251254E0
2.458812292E0,4.592665129E0,-1.126016737E0,7.615382676E0,8.964069387E0
2.468750292E0,4.486300183E0,-8.137897468E-1,7.340668205E0,8.641443906E0
2.478688292E0,4.182264850E0,-4.414940178E-1,7.091198503E0,8.244474056E0
2.488626292E0,3.979547730E0,-7.265998676E-2,6.653763038E0,7.753363281E0
2.498565292E0,4.043500482E0,2.363660914E-1,5.995900991E0,7.235785636E0
2.508503292E0,4.075483582E0,6.248121223E-1,5.200874375E0,6.636945900E0
2.518441292E0,3.945053836E0,9.239419341E-1,4.369789733E0,5.959209744E0
2.528379292E0,3.832847521E0,1.082834903E0,3.548075840E0,5.334050404E0
2.538317292E0,3.718414587E0,1.175250731E0,2.708573547E0,4.748072449E0
2.548255292E0,3.632518405E0,1.177656714E0,1.804407481E0,4.223499930E0
2.558193292E0,3.737257240E0,1.094940686E0,9.368151641E-1,4.005447470E0
2.568132292E0,3.910880953E0,1.061298585E0,3.238655806E-1,4.065247032E0
2.578070292E0,4.119759868E0,1.088388735E0,-3.250934958E-2,4.261228493E0
2.588008292E0,4.232913432E0,1.133696470E0,-4.203428847E-1,4.402216708E0
2.597946292E0,4.223936201E0,1.128703240E0,-8.154731601E-1,4.447539152E0
2.607884292E0,4.190405343E0,1.083219796E0,-1.098346835E0,4.465336251E0
2.617822292E0,3.895626737E0,9.980992466E-1,-1.238185337E0,4.207756256E0
2.627760292E0,3.451461711E0,8.108485973E-1,-1.369079937E0,3.800584595E0
2.637699292E0,3.039157578E0,4.636894272E-1,-1.384061088E0,3.371514758E0
2.647637292E0,2.725732201E0,1.185490814E-1,-1.320849763E0,3.031223188E0
2.657575292E0,2.479258028E0,-2.764833994E-2,-1.301588450E0,2.800288788E0
2.667513292E0,2.147889885E0,-1.383916808E-1,-1.295756437E0,2.512283416E0
2.677451292E0,1.863970143E0,-3.901176037E-1,-1.106029200E0,2.202243635E0
2.687389292E0,1.550744156E0,-7.260677710E-1,-8.536572325E-1,1.913298857E0
2.697327292E0,1.188506808E0,-9.182144402E-1,-8.578979257E-1,1.729640148E0
2.707265292E0,9.641924125E-1,-9.682802010E-1,-9.662532637E-1,1.673582662E0
2.717204292E0,8.796013284E-1,-9.857293157E-1,-1.109946542E0,1.725497640E0
2.727142292E0,8.136751413E-1,-1.060289648E0,-1.164415694E0,1.772609738E0
2.737080292E0,7.546510077E-1,-1.083211902E0,-1.158535734E0,1.756431387E0
2.747018292E0,5.374047267E-1,-1.098921909E0,-1.029942598E0,1.599129438E0
2.756956292E0,2.067476052E-1,-1.176154272E0,-9.788320863E-1,1.544084097E0
2.766894292E0,-7.232187152E-2,-1.392029966E0,-8.756743383E-1,1.646141982E0
2.776832292E0,-3.859980941E-1,-1.604342074E0,-6.683244699E-1,1.780327390E0
2.786771292E0,-7.555339372E-1,-1.758047539E0,-4.874543023E-1,1.974632720E0
2.796709292E0,-9.888191307E-1,-1.857006109E0,-3.745662028E-1,2.136945204E0
2.806647292E0,-1.227027095E0,-2.056137424E0,-3.023057270E-1,2.413438491E0
2.816585292E0,-1.720957773E0,-2.174243871E0,-3.606626934E-1,2.796267091E0
2.826523292E0,-2.166637228E0,-2.230568053E0,-5.047024190E-1,3.150313516E0
2.836461292E0,-2.330268635E0,-2.333744220E0,-6.035238719E-1,3.352723528E0
2.846399292E0,-2.375229630E0,-2.542060633E0,-7.039995021E-1,3.549563826E0
2.856338292E0,-2.406796408E0,-2.713928427E0,-8.584563348E-1,3.727602948E0
2.866276292E0,-2.514253614E0,-3.004227774E0,-9.861039761E-1,4.039709990E0
2.876214292E0,-2.312504793E0,-3.503099642E0,-8.727261722E-1,4.287311103E0
2.886152292E0,-1.952896353E0,-3.972313555E0,-3.132245252E-1,4.437475493E0
2.896090292E0,-1.951157391E0,-4.407892822E0,3.857422784E-1,4.835838231E0
2.906028292E0,-2.110350176E0,-4.777315814E0,5.213070497E-1,5.248626991E0
2.915966292E0,-2.029829339E0,-5.513723801E0,-1.312699914E-1,5.876954067E0
2.925904292E0,-1.843358123E0,-6.485712306E0,-4.397924781E-1,6.756911329E0
2.935843292E0,-1.714786622E0,-7.084824454E0,-3.759753817E-1,7.299081325E0
2.945781292E0,-1.533107784E0,-7.523450997E0,-5.548843932E-1,7.698092690E0
2.955719292E0,-1.158228171E0,-8.174515071E0,-9.097603896E-1,8.306133463E0
2.965657292E0,-8.190756297E-1,-8.526153172E0,-1.284708416E0,8.661215186E0
2.975596042E0,-7.612747335E-1,-8.799681827E0,-1.635481421E0,8.982691075E0
2.985534042E0,-9.064505732E-1,-8.979391322E0,-2.185889186E0,9.285969669E0
2.995472042E0,-1.036502005E0,-9.096143847E0,-2.782432944E0,9.568495303E0
3.005411042E0,-1.027815966E0,-9.298163978E0,-3.106251454E0,9.857030847E0
3.015349042E0,-7.653771400E-1,-9.683253999E0,-3.167627631E0,1.021690144E1
3.025287042E0,-1.067935467E-1,-1.020392926E1,-2.961912644E0,1.062565309E1
3.035225042E0,1.026816677E0,-1.059731355E1,-2.526825712E0,1.094268044E1
3.045163042E0,2.629260160E0,-1.071930518E1,-1.966603104E0,1.121088937E1
3.055101042E0,4.074868455E0,-1.037050591E1,-1.369958189E0,1.122625187E1
3.065039042E0,5.046276332E0,-1.011664670E1,-9.108655134E-1,1.134200693E1
3.074977042E0,5.900822341E0,-1.042640178E1,-6.109577295E-1,1.199595047E1
3.084916042E0,6.888459749E0,-1.137251636E1,-2.354603577E-1,1.329813700E1
3.094854042E0,8.205283120E0,-1.243461864E1,4.483484164E-1,1.490461097E1
3.104792042E0,9.791071393E0,-1.286407792E1,1.602503855E0,1.624554088E1
3.114730042E0,1.159832179E1,-1.244200250E1,2.673742268E0,1.721840272E1
3.124668042E0,1.331939475E1,-1.156739236E1,3.382396154E0,1.796250112E1
3.134606042E0,1.467612771E1,-1.056033576E1,3.987871242E0,1.851519735E1
3.144544042E0,1.564268415E1,-9.635300984E0,4.427888837E0,1.889811610E1
3.154483042E0,1.599379542E1,-8.705241693E0,4.904474920E0,1.885832970E1
3.164421042E0,1.585821486E1,-8.006268457E0,5.389710789E0,1.856427471E1
3.174359042E0,1.532086627E1,-7.633826548E0,5.776097138E0,1.806564555E1
3.184297042E0,1.453546943E1,-7.169306195E0,6.157134454E0,1.733750638E1
3.194235042E0,1.360214388E1,-6.674912417E0,6.347222757E0,1.642741644E1
3.204173042E0,1.266048255E1,-6.222158416E0,6.254343245E0,1.543113357E1
3.214111042E0,1.181556105E1,-5.505196221E0,6.070230796E0,1.437923400E1
3.224049042E0,1.115019820E1,-4.583717135E0,5.982396262E0,1.345832262E1
3.233988042E0,1.047854257E1,-3.333151488E0,5.904915977E0,1.248109715E1
3.243926042E0,9.547305651E0,-1.646715676E0,5.986077669E0,1.138840830E1
3.253864042E0,8.444726016E0,3.435391223E-1,6.298460487E0,1.054049435E1
3.263802042E0,7.375463231E0,2.607626047E0,6.892428839E0,1.042606094E1
3.273740042E0,6.353561139E0,5.146695828E0,7.525144351E0,1.111233614E1
3.283678042E0,5.567155073E0,7.477092517E0,7.993452530E0,1.227987832E1
3.293616042E0,4.896277124E0,9.909302094E0,8.357564496E0,1.385700841E1
3.303555042E0,4.105877117E0,1.227638597E1,8.403901341E0,1.543351668E1
3.313493042E0,3.476160350E0,1.391094704E1,8.196531007E0,1.651609091E1
3.323431042E0,2.754563652E0,1.485009875E1,7.788795304E0,1.699348069E1
3.333369042E0,1.829992850E0,1.517382400E1,7.258485589E0,1.691979378E1
3.343307042E0,7.284493420E-1,1.483964510E1,6.692841150E0,1.629539284E1
3.353245042E0,-1.946947396E-1,1.405304841E1,5.999208176E0,1.528124911E1
3.363183042E0,-9.730547449E-1,1.313272707E1,5.099619895E0,1.412166700E1
3.373122042E0,-1.625061098E0,1.226802679E1,3.971824143E0,1.299694933E1
3.383060042E0,-2.172677987E0,1.136036818E1,2.817356901E0,1.190445273E1
3.392998042E0,-2.702337492E0,1.047939393E1,1.690710711E0,1.095348473E1
3.402936042E0,-3.286852650E0,9.649623154E0,6.242184106E-1,1.021314232E1
3.412874042E0,-3.910155898E0,8.789125264E0,4.637894511E-2,9.619781341E0
3.422812042E0,-5.126494283E0,8.731612635E0,-1.276961001E-1,1.012612014E1
3.432750042E0,-5.675446676E0,8.779301941E0,-3.728160946E-1,1.046068016E1
3.442688042E0,-5.492176226E0,8.643526670E0,-4.613289062E-1,1.025121346E1
3.452627042E0,-5.259618427E0,8.698239067E0,-2.487463280E-1,1.016783279E1
3.462565042E0,-5.095071931E0,9.007694770E0,3.201876819E-1,1.035378400E1
3.472503042E0,-4.678384141E0,9.332049177E0,9.869176161E-1,1.048562952E1
3.482441042E0,-4.038606362E0,9.556743057E0,1.599128112E0,1.049756590E1
3.492379042E0,-3.376957074E0,9.550511094E0,1.981352413E0,1.032191158E1
3.502317042E0,-2.823719841E0,9.348941199E0,1.840100055E0,9.937910419E0
3.512255042E0,-2.428354508E0,8.916299865E0,1.280479417E0,9.329358844E0
3.522194042E0,-2.252753851E0,8.449329529E0,6.238148797E-1,8.766710581E0
3.532132042E0,-2.245253043E0,7.983716916E0,1.409424921E-1,8.294622463E0
3.542070042E0,-2.398731928E0,7.568066422E0,-6.646179199E-2,7.939393012E0
3.552008042E0,-2.656204129E0,7.141654712E0,-1.193346183E-1,7.620557273E0
3.561946042E0,-2.933071545E0,6.770021473E0,-1.775682815E-1,7.380218826E0
3.571884042E0,-3.041343268E0,6.428466895E0,-1.636952142E-1,7.113490818E0
3.581822042E0,-3.022139257E0,6.153292249E0,-1.218560473E-1,6.856469943E0
3.591761042E0,-2.950737153E0,5.864166731E0,-1.134394920E-1,6.565681207E0
3.601699042E0,-2.658979803E0,5.478290843E0,-9.247956276E-2,6.090188554E0
3.611637042E0,-1.913477933E0,4.729135049E0,2.771229386E-2,5.101655034E0
3.621575042E0,-1.023376760E0,3.637504326E0,1.707847439E-2,3.778760297E0
3.631513042E0,-1.682203013E-1,2.257759067E0,-1.883013940E-1,2.271834389E0
3.641451042E0,8.574602616E-1,4.250060391E-1,-3.770296347E-1,1.028600787E0
3.651389042E0,2.011549188E0,-1.918621144E0,-4.549438198E-1,2.816808675E0
3.661327042E0,2.668159347E0,-4.240321269E0,-3.537021679E-1,5.022400222E0
3.671266042E0,2.255424274E0,-5.775029436E0,-2.339342527E-1,6.204242813E0
3.681204042E0,6.759305280E-1,-6.609339402E0,6.909689820E-1,6.679647262E0
3.691142042E0,1.440169215E-2,-6.552119134E0,8.184733665E-1,6.603057717E0
3.701080042E0,4.794740224E-1,-7.632313288E0,6.597460198E-1,7.675764866E0
3.711018042E0,3.092130429E-1,-9.107073462E0,4.291937419E-1,9.122423308E0
3.720956042E0,-5.559018087E-1,-8.521889967E0,1.006921014E0,8.599158410E0
3.730894042E0,-8.029168493E-1,-7.096028888E0,2.102674098E0,7.444430120E0
3.740833042E0,-6.750470138E-1,-5.652391105E0,3.051963565E0,6.459078516E0
3.750771042E0,-2.186607224E-1,-4.132332259E0,4.157141118E0,5.865646144E0
3.760709042E0,7.448463964E-1,-2.869951437E0,4.826642632E0,5.664617949E0
3.770647042E0,1.559318513E0,-2.416059567E0,4.371429877E0,5.232419826E0
3.780585042E0,2.181971551E0,-2.525265383E0,3.301868885E0,4.694710133E0
3.790523042E0,2.478223071E0,-2.811788013E0,2.082701032E0,4.287818211E0
3.800461042E0,2.396749722E0,-3.073763739E0,1.000789477E0,4.024178467E0
3.810399042E0,2.084875612E0,-3.178325404E0,8.980621576E-2,3.802173569E0
3.820338042E0,1.953009204E0,-3.171582687E0,-6.149960359E-1,3.775102888E0
3.830276042E0,2.030870143E0,-3.085912207E0,-8.701638492E-1,3.795322491E0
3.840214042E0,2.414161561E0,-2.698254088E0,-8.998033854E-1,3.730736831E0
3.850152042E0,2.895587969E0,-2.231599209E0,-8.847514828E-1,3.761283013E0
3.860090042E0,3.521280389E0,-1.855287613E0,-1.213823497E0,4.161114657E0
3.870028042E0,3.866074324E0,-1.650008243E0,-1.885656881E0,4.607033727E0
3.879966042E0,3.936306986E0,-1.602070431E0,-2.222665979E0,4.795976064E0
3.889905042E0,4.214958971E0,-1.994263942E0,-1.830467352E0,5.009349112E0
3.899843042E0,3.989366375E0,-2.866542217E0,-1.758043739E0,5.217549822E0
3.909781042E0,3.623037145E0,-3.202209526E0,-1.612073847E0,5.096991866E0
3.919719042E0,4.072122018E0,-2.980122627E0,-9.180525454E-1,5.128950095E0
3.929657042E0,4.755184395E0,-2.627623816E0,-4.346833272E-1,5.450241751E0
3.939595042E0,4.990948223E0,-2.198075368E0,-4.656337360E-1,5.473382342E0
3.949533042E0,4.646709189E0,-1.788617806E0,-8.852802173E-1,5.057151471E0
3.959472042E0,3.637603728E0,-2.095374872E0,-2.022859458E0,4.659905270E0
3.969409708E0,2.749419272E0,-2.266288839E0,-2.728143593E0,4.487553777E0
3.979347708E0,2.256990159E0,-2.064694532E0,-2.214430030E0,3.776330023E0
3.989285708E0,1.927905353E0,-1.872999414E0,-1.468410682E0,3.062870514E0
3.999223708E0,1.808457847E0,-1.899939875E0,-1.214315979E0,2.890476537E0
4.009161708E0,2.010189126E0,-1.713894337E0,-1.082557745E0,2.854859960E0
4.019099708E0,2.369582974E0,-1.214282211E0,-9.091180730E-1,2.813521002E0
4.029037708E0,2.569824967E0,-9.286196335E-1,-6.947519843E-1,2.819399777E0
4.038976708E0,2.501629475E0,-1.070717645E0,-5.466159917E-1,2.775495514E0
4.048914708E0,1.900280183E0,-1.614279855E0,-5.813934763E-1,2.560270025E0
4.058852708E0,9.873117185E-1,-2.131865737E0,-8.186974610E-1,2.487951262E0
4.068790708E0,2.865328628E-1,-2.479613831E0,-1.156936521E0,2.751197548E0
4.078728708E0,-1.315898341E-1,-2.776708227E0,-1.468521048E0,3.143879536E0
4.088666708E0,-2.994435149E-1,-2.986019252E0,-1.696473289E0,3.447317654E0
4.098604708E0,-3.681126308E-1,-3.153381182E0,-1.849570790E0,3.674266171E0
4.108543708E0,-5.072927356E-1,-3.363848786E0,-1.820923088E0,3.858572983E0
4.118481708E0,-6.333417481E-1,-3.653639425E0,-1.760121254E0,4.104659504E0
4.128419708E0,-7.785094017E-1,-4.049734783E0,-1.573299352E0,4.413807829E0
4.138357708E0,-1.142317312E0,-4.384465367E0,-1.224508699E0,4.693383316E0
4.148295708E0,-1.432918668E0,-4.828266112E0,-1.314653761E0,5.205163212E0
4.158233708E0,-1.682290136E0,-5.393654151E0,-1.266987113E0,5.790238471E0
4.168171708E0,-1.546003819E0,-5.915854948E0,-1.125283496E0,6.217212439E0
4.178110708E0,-8.177991825E-1,-6.221112349E0,-1.050236530E0,6.361920396E0
4.188048708E0,-5.701093733E-2,-6.280875571E0,-1.009785638E0,6.361785537E0
4.197986708E0,4.808960652E-1,-6.269284050E0,-1.062595205E0,6.376855973E0
4.207924708E0,7.152910602E-1,-6.405106684E0,-1.296873548E0,6.574109364E0
4.217862708E0,7.606479120E-1,-6.661856754E0,-1.528372124E0,6.877124545E0
4.227800708E0,8.537116116E-1,-6.877226663E0,-1.454235716E0,7.080951321E0
4.237738708E0,9.338500410E-1,-7.061963010E0,-1.168544413E0,7.218649008E0
4.247676708E0,9.130579269E-1,-7.230389133E0,-9.660025643E-1,7.351555124E0
4.257615708E0,8.086085290E-1,-7.373041899E0,-9.128602910E-1,7.473212730E0
4.267553708E0,6.899737859E-1,-7.409955372E0,-9.395294416E-1,7.501081122E0
4.277491708E0,6.498940462E-1,-7.215382254E0,-1.091885735E0,7.326412342E0
4.287429708E0,8.008831877E-1,-6.957631141E0,-1.469212335E0,7.156020532E0
4.297367708E0,1.116077932E0,-6.654507388E0,-1.794621581E0,6.982031592E0
4.307305708E0,1.491162783E0,-6.321074009E0,-1.785908060E0,6.735652208E0
4.317243708E0,1.955483161E0,-6.072055128E0,-1.450863188E0,6.542077029E0
4.327182708E0,2.408129573E0,-5.966743265E0,-9.877262861E-1,6.509740122E0
4.337120708E0,2.838760049E0,-5.961516439E0,-4.446783749E-1,6.617852804E0
4.347058708E0,3.426009366E0,-5.963209208E0,1.165490413E-1,6.878298330E0
4.356996708E0,4.133919486E0,-5.769178128E0,7.299500299E-1,7.134811394E0
4.366934708E0,4.868542026E0,-5.413636426E0,1.369638931E0,7.408513455E0
4.376872708E0,5.842695755E0,-4.986746998E0,2.141212365E0,7.974304340E0
4.386810708E0,7.162668436E0,-4.440113611E0,2.934911079E0,8.923683715E0
4.396748708E0,8.869001153E0,-3.830194055E0,3.743058847E0,1.036050469E1
4.406687708E0,1.073319466E1,-3.177686011E0,4.402508998E0,1.202835157E1
4.416625708E0,1.244055356E1,-2.443656671E0,4.642968725E0,1.350170321E1
4.426563708E0,1.354028970E1,-1.485051273E0,4.883965226E0,1.447058875E1
4.436501708E0,1.368932587E1,-6.624450946E-1,5.022264740E0,1.459656190E1
4.446439708E0,1.322634333E1,-2.915912890E-1,4.967836518E0,1.413154567E1
4.456377708E0,1.243746273E1,-3.157671869E-1,4.904739214E0,1.337335615E1
4.466315708E0,1.143755844E1,-5.608351046E-1,4.978377879E0,1.248665389E1
4.476254708E0,1.041177672E1,-6.075648826E-1,5.003394606E0,1.156754889E1
4.486192708E0,9.683943386E0,-4.196494049E-1,4.908491957E0,1.086499694E1
4.496130708E0,9.232685103E0,-1.277441204E-1,4.560980237E0,1.029860833E1
4.506068708E0,9.041823213E0,2.713417965E-1,4.223376038E0,9.983240884E0
4.516006708E0,8.888067754E0,8.588676864E-1,3.947056507E0,9.762922573E0
4.525944708E0,8.774476234E0,1.540346637E0,3.626270070E0,9.618416479E0
4.535882708E0,8.745332542E0,2.463788635E0,3.314357368E0,9.671404266E0
4.545821708E0,8.607235342E0,3.594896250E0,3.023511014E0,9.805579948E0
4.555759708E0,8.141081277E0,4.862543367E0,2.649340668E0,9.845838630E0
4.565697708E0,7.301972501E0,6.145052937E0,2.265318786E0,9.808779089E0
4.575635708E0,6.056721974E0,7.235568597E0,1.875207907E0,9.620485366E0
4.585573708E0,4.506744388E0,8.109265407E0,1.790716956E0,9.448682322E0
4.595511708E0,2.767786546E0,8.851388170E0,2.231009664E0,9.538612007E0
4.605449708E0,1.090765336E0,9.711013656E0,2.944298784E0,1.020600071E1
4.615388708E0,-1.576058507E-1,1.060154460E1,3.626618564E0,1.120579982E1
4.625326708E0,-1.112703504E0,1.158690218E1,4.020713882E0,1.231505385E1
4.635264708E0,-1.839768518E0,1.270667789E1,4.053388124E0,1.346381694E1
4.645202708E0,-2.507593635E0,1.366363554E1,4.111781927E0,1.448757097E1
4.655140708E0,-3.213208723E0,1.396287733E1,3.959450265E0,1.486485452E1
4.665078708E0,-4.006230914E0,1.357193249E1,3.569630431E0,1.459415976E1
4.675016708E0,-4.801764484E0,1.258978737E1,2.836151022E0,1.376965653E1
4.684954708E0,-5.447777733E0,1.110512552E1,1.849163385E0,1.250685813E1
4.694893708E0,-6.102680504E0,9.608074009E0,1.060984443E0,1.143168769E1
4.704831708E0,-6.779150730E0,8.656619756E0,5.795058489E-1,1.101043947E1
4.714769708E0,-7.266099833E0,8.126642747E0,3.209406571E-1,1.090603191E1
4.724707708E0,-7.575869531E0,7.743940144E0,3.206823564E-1,1.083813846E1
4.734645708E0,-7.468283687E0,7.469054350E0,6.885236764E-1,1.058471062E1
4.744583708E0,-7.120729866E0,7.428029700E0,1.221600440E0,1.036208119E1
4.754521708E0,-6.540087318E0,7.409899823E0,1.640756779E0,1.001855480E1
4.764460708E0,-5.932506064E0,7.362946097E0,2.183990302E0,9.704504988E0
4.774398708E0,-5.432330559E0,7.285783315E0,2.575497351E0,9.445953653E0
4.784336708E0,-5.037894348E0,7.105583823E0,2.877393773E0,9.173281629E0
4.794274708E0,-4.725872887E0,6.945033315E0,3.048298531E0,8.936413499E0
4.804212708E0,-4.494301513E0,6.724580421E0,2.949805691E0,8.609302036E0
4.814150708E0,-4.352435782E0,6.445998602E0,2.580216054E0,8.194639107E0
4.824088708E0,-4.287337561E0,6.236482925E0,2.103292733E0,7.854859830E0
4.834027708E0,-4.132123806E0,6.147625712E0,1.690409872E0,7.597712457E0
4.843965708E0,-3.936142094E0,6.052794984E0,1.466617195E0,7.367530638E0
4.853903708E0,-3.561406907E0,5.839428915E0,1.427991658E0,6.987253351E0
4.863841708E0,-2.937576240E0,5.609022891E0,1.558968265E0,6.520803172E0
4.873779708E0,-2.160919236E0,5.396605241E0,1.872238545E0,6.107225003E0
4.883717708E0,-1.290347178E0,5.074348814E0,2.229359726E0,5.690699123E0
4.893655708E0,-3.808490360E-1,4.687892883E0,2.519892669E0,5.335845269E0
4.903593708E0,3.881410986E-1,4.164018028E0,2.789386160E0,5.026964771E0
4.913532708E0,1.328461668E0,3.285103748E0,2.892870183E0,4.574430558E0
4.923470708E0,2.580956311E0,1.831079848E0,2.932818360E0,4.314581373E0
4.933408708E0,3.732041523E0,-2.591029894E-1,2.939857239E0,4.757943765E0
4.943346708E0,4.540355937E0,-2.522254651E0,2.762893596E0,5.883041865E0
4.953284708E0,4.308678728E0,-4.189657777E0,2.678284385E0,6.579601197E0
4.963222708E0,3.104081553E0,-4.614551842E0,2.931141379E0,6.286573054E0
4.973161167E0,2.152344879E0,-3.951076760E0,3.471534033E0,5.682881715E0
4.983100167E0,2.611085259E0,-2.994040170E0,4.219618033E0,5.795448137E0
4.993038167E0,4.564313149E0,-3.177778105E0,4.713118941E0,7.290042411E0
5.002976167E0,6.975893165E0,-4.701185651E0,5.129202129E0,9.852560400E0
5.012914167E0,8.502439789E0,-6.392719942E0,5.362200809E0,1.191266335E1
5.022852167E0,8.731046040E0,-7.009755560E0,5.205684879E0,1.234775255E1
5.032790167E0,7.738420372E0,-6.037970538E0,4.947788755E0,1.099185388E1
5.042728167E0,7.028229253E0,-4.543045072E0,5.458579295E0,9.991564086E0
5.052667167E0,7.214272453E0,-3.120915102E0,6.558278006E0,1.023703319E1
5.062605167E0,8.131837413E0,-1.736348522E0,7.459537421E0,1.117078262E1
5.072543167E0,9.598476389E0,-8.291889739E-1,7.675864520E0,1.231816543E1
5.082481167E0,1.100632278E1,-8.649075678E-1,7.188021963E0,1.317402239E1
5.092419167E0,1.155551199E1,-1.715026358E0,6.145728875E0,1.320004379E1
5.102357167E0,1.098047107E1,-2.630809087E0,4.840724774E0,1.228513401E1
5.112295167E0,9.646762111E0,-3.415627342E0,3.383112438E0,1.077831059E1
5.122233167E0,8.360516755E0,-4.061897576E0,2.012880892E0,9.510464858E0
5.132172167E0,7.233938978E0,-4.421044672E0,7.446066606E-1,8.510578605E0
5.142110167E0,6.225504777E0,-4.509655716E0,-4.853753248E-1,7.702564094E0
5.152048167E0,5.673703621E0,-4.481391445E0,-1.679690172E0,7.422610130E0
5.161986167E0,5.493031674E0,-4.447469701E0,-2.637982744E0,7.544026555E0
5.171924167E0,5.384849414E0,-4.517913447E0,-3.278141468E0,7.755923968E0
5.181862167E0,5.442307663E0,-4.721007419E0,-3.891284010E0,8.188327973E0
5.191800167E0,5.825163463E0,-4.971453606E0,-4.597092348E0,8.932028795E0
5.201739167E0,6.201987861E0,-5.181416595E0,-5.286264773E0,9.656931532E0
5.211677167E0,6.117474545E0,-5.356315001E0,-5.655579007E0,9.904502971E0
5.221615167E0,5.166092212E0,-5.735703987E0,-5.691628845E0,9.590695902E0
5.231553167E0,3.738617302E0,-6.202302441E0,-5.514129013E0,9.102276291E0
5.241491167E0,2.130664573E0,-6.626126173E0,-5.398630131E0,8.808546241E0
5.251429167E0,7.572658825E-1,-6.940338585E0,-5.359808713E0,8.801664657E0
5.261367167E0,-2.280086660E-1,-7.024795184E0,-5.326895905E0,8.819045034E0
5.271306167E0,-8.387368923E-1,-7.060601778E0,-5.259427223E0,8.844046119E0
5.281244167E0,-1.168504652E0,-7.020668219E0,-5.162464600E0,8.792395925E0
5.291182167E0,-1.275084191E0,-6.887368659E0,-5.066404202E0,8.644659523E0
5.301120167E0,-1.132065389E0,-6.809568531E0,-4.870305254E0,8.448175477E0
5.311058167E0,-9.949072516E-1,-6.755613348E0,-4.607829883E0,8.237733206E0
5.320996167E0,-1.104686387E0,-6.640418522E0,-4.298562461E0,7.987060122E0
5.330934167E0,-1.562259078E0,-6.488717775E0,-3.931861348E0,7.746202001E0
5.340872167E0,-2.014902567E0,-6.316040141E0,-3.604113801E0,7.545981162E0
5.350811167E0,-2.430517393E0,-6.032889892E0,-3.258169718E0,7.274534017E0
5.360749167E0,-2.626878004E0,-5.619291186E0,-2.882440212E0,6.839984142E0
5.370687167E0,-2.539596616E0,-5.230060751E0,-2.726956608E0,6.421789375E0
5.380625167E0,-2.147346094E0,-4.873838434E0,-2.779265215E0,6.007471303E0
5.390563167E0,-1.668823999E0,-4.477948605E0,-2.754713341E0,5.515926290E0
5.400501167E0,-1.288596522E0,-4.137683339E0,-2.473958697E0,4.990127858E0
5.410439167E0,-1.141957709E0,-3.855470983E0,-1.855100502E0,4.428331716E0
5.420378167E0,-1.181922843E0,-3.610131755E0,-1.199645169E0,3.983609095E0
5.430316167E0,-1.403486708E0,-3.473525594E0,-7.958867419E-1,3.829959621E0
5.440254167E0,-1.761551483E0,-3.341622350E0,-6.774893957E-1,3.837772197E0
5.450192167E0,-2.058595886E0,-3.223952397E0,-5.602269942E-1,3.865946244E0
5.460130167E0,-2.245539556E0,-3.142152189E0,-5.398792684E-1,3.899620225E0
5.470068167E0,-2.192334571E0,-2.926854785E0,-7.319088471E-1,3.729410190E0
5.480006167E0,-1.779018286E0,-2.701450469E0,-1.036058786E0,3.396492088E0
5.489945167E0,-9.696233064E-1,-2.373736251E0,-1.171419489E0,2.819045364E0
5.499883167E0,4.090255988E-1,-1.917210211E0,-1.081812079E0,2.239043168E0
5.509821167E0,2.221119245E0,-1.527978607E0,-6.445420897E-1,2.771916995E0
5.519759167E0,3.743058847E0,-1.128899122E0,1.676186228E-1,3.913182690E0
5.529697167E0,4.438909670E0,-8.240814310E-1,1.024125788E0,4.629456004E0
5.539635167E0,4.439066960E0,-7.593562621E-1,1.781781095E0,4.843209811E0
5.549573167E0,4.035214393E0,-9.681357747E-1,2.273983337E0,4.731938534E0
5.559512167E0,3.641962827E0,-1.386891725E0,2.435223817E0,4.595397364E0
5.569450167E0,3.267255122E0,-1.689602664E0,2.354356824E0,4.367231303E0
5.579388167E0,2.891777338E0,-1.960635143E0,2.029298412E0,4.040361170E0
5.589326167E0,2.558667895E0,-2.234125499E0,1.615156499E0,3.761227015E0
5.599264167E0,2.610825058E0,-2.518559504E0,1.312540870E0,3.857760100E0
5.609202167E0,3.493256439E0,-2.636229456E0,9.902797651E-1,4.487003489E0
5.619140167E0,4.238329123E0,-2.377628742E0,7.027113605E-1,4.910229673E0
5.629079167E0,4.308254805E0,-2.245308591E0,4.497935192E-1,4.879014690E0
5.639017167E0,3.890018088E0,-2.492882333E0,5.213108504E-1,4.649566437E0
5.648955167E0,3.086370336E0,-3.032434157E0,7.963497683E-1,4.399489939E0
5.658893167E0,2.315601479E0,-3.641602054E0,1.122296958E0,4.459016281E0
5.668831167E0,1.903866865E0,-4.254258692E0,1.361954520E0,4.855753924E0
5.678769167E0,2.454994422E0,-4.850347245E0,1.397226094E0,5.612941009E0
5.688707167E0,4.389487833E0,-5.125798464E0,1.193680863E0,6.853195411E0
5.698645167E0,6.805095411E0,-4.755572357E0,5.449381332E-1,8.319960911E0
5.708584167E0,8.707153732E0,-3.798920514E0,-7.683850940E-1,9.530830963E0
5.718522167E0,9.865359099E0,-3.177270859E0,-2.132380146E0,1.058146518E1
5.728460167E0,9.940535581E0,-3.044584379E0,-2.723996748E0,1.074727407E1
5.738398167E0,9.446745821E0,-3.101553801E0,-2.640962485E0,1.028762973E1
5.748336167E0,9.475125282E0,-3.425486040E0,-2.181836042E0,1.030884873E1
5.758274167E0,1.082375283E1,-3.542423337E0,-2.073509063E0,1.157591587E1
5.768212167E0,1.173989691E1,-3.039419826E0,-2.569501616E0,1.239619260E1
5.778151167E0,1.144861904E1,-2.676726102E0,-3.172502454E0,1.217786978E1
5.788089167E0,1.024893645E1,-2.968296926E0,-3.171591750E0,1.113150839E1
5.798027167E0,8.863506525E0,-3.682341360E0,-2.679078437E0,9.964880685E0
5.807965167E0,7.429551730E0,-4.342794308E0,-2.242324172E0,8.893037670E0
5.817903167E0,6.110813397E0,-4.743072765E0,-1.997169277E0,7.989209269E0
5.827841167E0,5.121525319E0,-4.574156937E0,-1.569047695E0,7.043780515E0
5.837779167E0,4.453614247E0,-3.826346587E0,-7.644871938E-1,5.921152653E0
5.847718167E0,4.052958938E0,-2.549169677E0,1.635279107E-1,4.790770666E0
5.857656167E0,3.687503867E0,-9.453099990E-1,1.136249657E0,3.972701731E0
5.867594167E0,3.175650887E0,7.986290860E-1,1.964819849E0,3.818780436E0
5.877532167E0,2.542661726E0,2.578260160E0,2.818759063E0,4.588894940E0
5.887470167E0,1.762450785E0,4.239776309E0,3.614487931E0,5.843497148E0
5.897408167E0,9.466770780E-1,5.745455974E0,4.369968073E0,7.280321614E0
5.907346167E0,2.804868418E-1,7.191064854E0,5.255437667E0,8.911212694E0
5.917284167E0,-8.281586945E-2,8.561524149E0,6.088938378E0,1.050627074E1
5.927223167E0,-2.252709997E-1,9.911797686E0,6.759787091E0,1.199955007E1
5.937161167E0,-3.723547858E-1,1.107207121E1,6.871509840E0,1.303637436E1
5.947099167E0,-3.811068982E-1,1.192810358E1,6.206040566E0,1.345138792E1
5.957037167E0,-3.270558214E-1,1.237635231E1,4.734826144E0,1.325517410E1
5.966975167E0,-1.960659117E-1,1.255871059E1,2.950006835E0,1.290202286E1
5.976913292E0,-2.133631450E-1,1.252671930E1,1.387009693E0,1.260507899E1
5.986851292E0,-3.661491358E-1,1.228388093E1,1.254623906E-1,1.228997708E1
5.996790292E0,-4.879676878E-1,1.197797332E1,-7.103747213E-1,1.200893790E1
6.006728292E0,-5.397149616E-1,1.169574810E1,-1.161598506E0,1.176567579E1
6.016666292E0,-4.546192628E-1,1.153870826E1,-1.277628022E0,1.161812379E1
6.026604292E0,-2.646964359E-1,1.144207717E1,-1.099048501E0,1.149778682E1
6.036542292E0,1.832295191E-1,1.135113894E1,-7.140761550E-1,1.137505310E1
6.046480292E0,6.396853924E-1,1.134022335E1,-2.076065612E-1,1.136014804E1
6.056419292E0,9.297879803E-1,1.126565030E1,4.057336164E-1,1.131123345E1
6.066357292E0,9.967596495E-1,1.099745489E1,9.802845347E-1,1.108595967E1
6.076295292E0,8.572146785E-1,1.068539835E1,1.530410610E0,1.082842147E1
6.086233292E0,4.763030773E-1,1.033123133E1,2.143382705E0,1.056197400E1
6.096171292E0,-8.028811812E-3,9.923062931E0,2.676647165E0,1.027772749E1
6.106109292E0,-4.985312676E-1,9.467602254E0,3.160921751E0,9.993770669E0
6.116047292E0,-8.707772952E-1,8.984962549E0,3.557443664E0,9.702742423E0
6.125985292E0,-1.035209185E0,8.575901867E0,3.939784032E0,9.494190282E0
6.135924292E0,-1.089823934E0,8.280283016E0,4.238100789E0,9.365484575E0
6.145862292E0,-1.052082496E0,8.011447921E0,4.358792582E0,9.180917609E0
6.155800292E0,-5.815120286E-1,7.767465246E0,4.323839681E0,8.908830573E0
6.165738292E0,-4.646489918E-2,7.615413081E0,4.156017576E0,8.675779934E0
6.175676292E0,3.455914950E-1,7.344537892E0,4.029048211E0,8.384205378E0
6.185614292E0,6.318612331E-1,6.857126275E0,3.915895818E0,7.921721367E0
6.195552292E0,1.013621265E0,6.080382732E0,3.765758908E0,7.223532542E0
6.205491292E0,1.523961570E0,4.949300260E0,3.762837346E0,6.401326177E0
6.215429292E0,2.185322590E0,3.507772737E0,3.802481761E0,5.615956903E0
6.225367292E0,2.959419098E0,2.071169738E0,3.838780691E0,5.271066560E0
6.235305292E0,3.688934680E0,7.583283216E-1,3.740570857E0,5.308028942E0
6.245243292E0,4.230616645E0,-4.805352920E-1,3.707186472E0,5.645552488E0
6.255181292E0,4.647002134E0,-1.474841450E0,3.763312433E0,6.158920896E0
6.265119292E0,5.079026002E0,-2.048684270E0,3.840857914E0,6.689230291E0
6.275058292E0,5.294927423E0,-2.466701717E0,3.841802824E0,6.991446397E0
6.284996292E0,5.675872938E0,-2.356758860E0,3.646484772E0,7.146096636E0
6.294934292E0,6.717556745E0,-1.960646253E0,3.439120285E0,7.797259178E0
6.304872292E0,8.036219065E0,-1.337687405E0,3.579165486E0,8.898350973E0
6.314810292E0,9.038403177E0,-4.020843691E-1,3.780203869E0,9.805322285E0
6.324748292E0,9.577096045E0,5.002184817E-1,3.813463417E0,1.032053731E1
6.334686292E0,9.853458846E0,9.098954603E-1,3.683566059E0,1.055875087E1
6.344624292E0,9.900987353E0,6.757279220E-1,3.461785555E0,1.051047658E1
6.354563292E0,9.852778230E0,-2.124571189E-1,3.005367396E0,1.030313593E1
6.364501292E0,9.714290435E0,-1.447524135E0,2.302180072E0,1.008775485E1
6.374439292E0,9.435369478E0,-2.392475700E0,1.741496118E0,9.888525972E0
6.384377292E0,9.228034812E0,-2.896868217E0,1.351938239E0,9.766074389E0
6.394315292E0,8.982939413E0,-3.172110398E0,1.140872465E0,9.594637818E0
6.404253292E0,8.475681760E0,-3.400467559E0,1.145301220E0,9.203916330E0
6.414191292E0,7.717045290E0,-3.752217049E0,1.233885294E0,8.669163380E0
6.424130292E0,6.875471914E0,-4.187402798E0,1.193530151E0,8.138241238E0
6.434068292E0,5.967308106E0,-4.540886572E0,9.270456362E-1,7.555648914E0
6.444006292E0,5.130798419E0,-4.736783499E0,4.694390309E-1,6.998755842E0
6.453944292E0,4.528828737E0,-4.962476376E0,-2.385663986E-2,6.718409830E0
6.463882292E0,4.098107629E0,-5.125465758E0,-5.432630887E-1,6.584832584E0
6.473820292E0,3.565539719E0,-5.346422682E0,-1.015612242E0,6.506056963E0
6.483758292E0,3.015640077E0,-5.599360367E0,-1.254728279E0,6.482381094E0
6.493697292E0,2.555246104E0,-5.707133907E0,-1.490524267E0,6.428244136E0
6.503635292E0,2.217367086E0,-5.652582893E0,-1.847343585E0,6.346738413E0
6.513573292E0,1.996848704E0,-5.395148699E0,-2.136759710E0,6.136837646E0
6.523511292E0,1.773470448E0,-5.023754611E0,-2.147536129E0,5.744146520E0
6.533449292E0,1.707577005E0,-4.789373942E0,-1.888682231E0,5.424116753E0
6.543387292E0,1.714889533E0,-4.746898013E0,-1.542625882E0,5.277649237E0
6.553325292E0,1.824017873E0,-4.779318193E0,-1.188876936E0,5.251890322E0
6.563264292E0,1.995275803E0,-4.769514751E0,-8.515463877E-1,5.239706837E0
6.573202292E0,2.101874052E0,-4.629034225E0,-6.682385159E-1,5.127609102E0
6.583140292E0,2.019431235E0,-4.374438270E0,-6.494951199E-1,4.861651633E0
6.593078292E0,1.837450097E0,-4.273324416E0,-8.536623488E-1,4.729298450E0
6.603016292E0,1.689312057E0,-4.266431426E0,-9.807230759E-1,4.692337380E0
6.612954292E0,1.709907120E0,-4.173896315E0,-8.990918523E-1,4.599299834E0
6.622892292E0,1.653884363E0,-4.063456737E0,-6.584059842E-1,4.436272374E0
6.632831292E0,1.550825433E0,-4.001821529E0,-5.010689592E-1,4.320961140E0
6.642769292E0,1.444444115E0,-3.908561363E0,-4.496437208E-1,4.191115627E0
6.652707292E0,1.379856940E0,-3.637093559E0,-4.492064953E-1,3.915895964E0
6.662645292E0,1.388621331E0,-3.320222417E0,-5.569345732E-1,3.641747139E0
6.672583292E0,1.516015204E0,-3.116722648E0,-8.819372910E-1,3.576321511E0
6.682521292E0,1.680929489E0,-2.925727150E0,-1.172763910E0,3.572223186E0
6.692459292E0,1.715686508E0,-2.819185618E0,-1.355424349E0,3.567711158E0
6.702397292E0,1.702940163E0,-2.772852281E0,-1.481114928E0,3.575250537E0
6.712336292E0,1.581040335E0,-2.837529503E0,-1.452085256E0,3.558063210E0
6.722274292E0,1.314303805E0,-2.930266928E0,-1.294220374E0,3.462494063E0
6.732212292E0,8.467499167E-1,-3.120421597E0,-1.141683474E0,3.428914918E0
6.742150292E0,3.079155457E-1,-3.368607250E0,-1.015678462E0,3.531845060E0
6.752088292E0,-2.508666015E-1,-3.624629341E0,-9.872959310E-1,3.765053143E0
6.762026292E0,-8.232721764E-1,-3.956697396E0,-1.137285783E0,4.198410451E0
6.771964292E0,-1.376010057E0,-4.354558906E0,-1.289256380E0,4.745289133E0
6.781903292E0,-1.862549270E0,-4.640874837E0,-1.439438606E0,5.203728715E0
6.791841292E0,-2.243901751E0,-4.862055709E0,-1.565947502E0,5.579146204E0
6.801779292E0,-2.540666072E0,-5.208659942E0,-1.673859036E0,6.032157703E0
6.811717292E0,-2.859676709E0,-5.695155301E0,-1.757490300E0,6.610697160E0
6.821655292E0,-3.245073125E0,-6.191809613E0,-1.779940392E0,7.213681006E0
6.831593292E0,-3.671283690E0,-6.581263411E0,-1.743244143E0,7.735001756E0
6.841531292E0,-4.045966837E0,-6.872617303E0,-1.756838627E0,8.166345462E0
6.851470292E0,-4.169092242E0,-7.269677160E0,-1.813303142E0,8.574240749E0
6.861408292E0,-4.068814248E0,-7.733515728E0,-1.893480456E0,8.941352422E0
6.871346292E0,-3.888551606E0,-8.127420427E0,-2.071596585E0,9.244853097E0
6.881284292E0,-3.581563429E0,-8.385296085E0,-2.283757835E0,9.399805151E0
6.891222292E0,-3.030803661E0,-8.572952532E0,-2.425223324E0,9.410791365E0
6.901160292E0,-2.358508347E0,-8.504931287E0,-2.566616015E0,9.191514325E0
6.911098292E0,-1.898332475E0,-8.293229921E0,-2.774326364E0,8.948643220E0
6.921037292E0,-1.576994061E0,-8.327391694E0,-2.816113783E0,8.931005516E0
6.930975292E0,-1.269991851E0,-8.489050834E0,-2.564163108E0,8.958336665E0
6.940913292E0,-7.881976533E-1,-8.626594303E0,-2.222211212E0,8.943020043E0
6.950851292E0,1.164864761E-1,-8.673606502E0,-1.609636143E0,8.822468326E0
6.960789292E0,1.097534657E0,-8.600988176E0,-9.708962452E-1,8.724919453E0
6.970727083E0,2.239130423E0,-8.349919846E0,-5.335157436E-1,8.661380117E0
6.980665083E0,3.709457238E0,-7.899273766E0,-2.263971734E-1,8.729825583E0
6.990604083E0,5.093158137E0,-7.305289627E0,-4.882132709E-2,8.905610583E0
7.000542083E0,6.575893913E0,-6.683697274E0,4.971127331E-2,9.376388495E0
7.010480083E0,7.537064484E0,-6.205313172E0,2.788794422E-1,9.766832974E0
7.020418083E0,8.051245825E0,-5.938376083E0,6.405870330E-1,1.002483025E1
7.030356083E0,8.265275552E0,-5.854860302E0,9.664665408E-1,1.017488215E1
7.040294083E0,8.833862895E0,-6.016111307E0,1.211251307E0,1.075629391E1
7.050232083E0,9.819720411E0,-6.153812651E0,1.617433259E0,1.170095763E1
7.060170083E0,1.085514770E1,-6.011420671E0,2.039298320E0,1.257498102E1
7.070109083E0,1.201992358E1,-5.744461362E0,2.326776677E0,1.352373059E1
7.080047083E0,1.314867828E1,-5.340348594E0,2.484108878E0,1.440756261E1
7.089985083E0,1.377753229E1,-4.922588425E0,2.499927351E0,1.484257085E1
7.099923083E0,1.390752759E1,-4.834082045E0,2.469828808E0,1.492942487E1
7.109861083E0,1.378062897E1,-4.996766202E0,2.547682146E0,1.487830944E1
7.119799083E0,1.351029582E1,-5.345312880E0,2.627304851E0,1.476493121E1
7.129737083E0,1.320689199E1,-5.606768789E0,2.774832441E0,1.461360829E1
7.139676083E0,1.284182809E1,-5.737938793E0,2.997932954E0,1.438138006E1
7.149614083E0,1.249957770E1,-5.754001679E0,3.150939385E0,1.411652921E1
7.159552083E0,1.222849493E1,-5.624056667E0,3.325792183E0,1.386459503E1
7.169490083E0,1.193505592E1,-5.113871314E0,3.313021864E0,1.340049826E1
7.179428083E0,1.175759995E1,-4.302889400E0,3.205390996E0,1.292402975E1
7.189366083E0,1.168356250E1,-3.265230231E0,3.305091870E0,1.257342409E1
7.199304083E0,1.174664460E1,-1.845592929E0,3.403852512E0,1.236835012E1
7.209243083E0,1.196162099E1,1.285896277E-1,3.474883318E0,1.245679438E1
7.219181083E0,1.202803367E1,2.844338878E0,3.694853232E0,1.290022473E1
7.229119083E0,1.154712591E1,6.179983034E0,3.640748945E0,1.359350433E1
7.239057083E0,1.048018447E1,9.428003156E0,3.546704960E0,1.453618334E1
7.248995083E0,8.885600814E0,1.249791124E1,3.933593293E0,1.583113525E1
7.258933083E0,6.607641955E0,1.527701332E1,5.169049734E0,1.742891687E1
7.268871083E0,3.838990606E0,1.718765184E1,6.759385972E0,1.886378868E1
7.278810083E0,8.005411255E-1,1.791278143E1,7.824853914E0,1.956366385E1
7.288748083E0,-1.701777152E0,1.733937306E1,8.004963359E0,1.917366271E1
7.298686083E0,-3.297941310E0,1.582028982E1,6.937975141E0,1.758674176E1
7.308624083E0,-4.026437722E0,1.390909113E1,5.133375871E0,1.536315608E1
7.318562083E0,-4.216513161E0,1.217875618E1,2.873782532E0,1.320453374E1
7.328500083E0,-4.049651168E0,1.110222296E1,1.015231150E0,1.186126990E1
7.338438083E0,-3.545903599E0,1.044625191E1,4.316778584E-1,1.104010675E1
7.348377083E0,-2.767934480E0,1.000823698E1,1.189465459E0,1.045184658E1
7.358315083E0,-1.792265153E0,9.816491579E0,2.940046981E0,1.040286487E1
7.368253083E0,-9.191758686E-1,9.664279200E0,4.686824304E0,1.078005096E1
7.378191083E0,-1.163046277E-1,9.481527398E0,6.227662400E0,1.134445537E1
7.388129083E0,5.863505995E-1,9.439201158E0,7.454960221E0,1.204237341E1
7.398067083E0,9.198705178E-1,9.437882611E0,8.300013860E0,1.260198477E1
7.408005083E0,8.492127639E-1,9.520706667E0,8.761278484E0,1.296630319E1
7.417943083E0,5.557158673E-1,9.605667295E0,8.998028737E0,1.317354111E1
7.427882083E0,1.422457999E-1,9.432978551E0,8.926610845E0,1.298790589E1
7.437820083E0,-4.412069196E-1,9.079192184E0,8.346156578E0,1.234036968E1
7.447758083E0,-1.216631915E0,8.739899309E0,7.290264037E0,1.144613397E1
7.457696083E0,-1.935726004E0,8.546199181E0,6.292657126E0,1.078805308E1
7.467634083E0,-2.614263221E0,8.366831748E0,5.306831185E0,1.024698506E1
7.477572083E0,-3.131486868E0,8.176511310E0,4.304956976E0,9.756751599E0
7.487511083E0,-3.600910696E0,8.040668212E0,3.411474357E0,9.447595483E0
7.497449083E0,-4.015786434E0,7.892451235E0,2.668820374E0,9.248779885E0
7.507387083E0,-4.195035753E0,7.702714934E0,2.017534106E0,9.000032567E0
7.517325083E0,-4.157135856E0,7.431396527E0,1.557147442E0,8.656335311E0
7.527263083E0,-4.029504586E0,7.056701100E0,1.358730365E0,8.238937179E0
7.537201083E0,-3.866844987E0,6.777281960E0,1.375611423E0,7.923152637E0
7.547139083E0,-3.634623402E0,6.601608798E0,1.710799406E0,7.727778504E0
7.557077083E0,-3.111551371E0,6.389135599E0,2.302028629E0,7.470083095E0
7.567016083E0,-2.298879611E0,6.029464009E0,3.022815195E0,7.125776828E0
7.576954083E0,-9.371490401E-1,5.289023489E0,3.655454693E0,6.497258407E0
7.586892083E0,1.016401032E0,4.023509436E0,4.153448017E0,5.871356714E0
7.596830083E0,3.596331741E0,2.023134862E0,4.355252970E0,5.999575410E0
7.606768083E0,6.139641924E0,-6.755586451E-1,4.159545493E0,7.446704046E0
7.616706083E0,7.759617113E0,-3.487255442E0,3.925792522E0,9.369335899E0
7.626644083E0,7.973612927E0,-5.383173017E0,3.830354269E0,1.035512765E1
7.636583083E0,7.773148155E0,-6.106256661E0,4.032823758E0,1.067576087E1
7.646521083E0,8.334497230E0,-6.142057409E0,4.280023863E0,1.120300485E1
7.656459083E0,9.378728669E0,-5.977066525E0,3.851378517E0,1.176940917E1
7.666397083E0,1.032070634E1,-6.025382652E0,2.744919255E0,1.226200625E1
7.676335083E0,1.060367182E1,-6.229329441E0,1.875193874E0,1.244020713E1
7.686273083E0,9.640408527E0,-5.683005372E0,1.452769380E0,1.128470494E1
7.696211083E0,7.893632957E0,-4.097768490E0,1.384584414E0,9.001012269E0
7.706150083E0,6.387431136E0,-2.537428761E0,1.974272604E0,7.150914176E0
7.716088083E0,5.858853951E0,-2.032362645E0,3.012353942E0,6.894268910E0
7.726026083E0,6.110873623E0,-2.571253149E0,3.634587150E0,7.560710479E0
7.735964083E0,6.499300650E0,-3.574153252E0,3.545801858E0,8.221203758E0
7.745902083E0,6.662318684E0,-4.228938494E0,3.045939764E0,8.458614548E0
7.755840083E0,6.435146170E0,-4.180932854E0,2.388503979E0,8.037179668E0
7.765778083E0,6.070648872E0,-4.077053852E0,1.732309412E0,7.515054340E0
7.775717083E0,5.885684484E0,-4.009531083E0,1.271386850E0,7.234227386E0
7.785655083E0,5.760990856E0,-3.931834158E0,1.174168119E0,7.072977185E0
7.795593083E0,5.181272169E0,-3.958435773E0,1.315968508E0,6.651809391E0
7.805531083E0,4.359835433E0,-4.184426858E0,1.240895521E0,6.169069203E0
7.815469083E0,3.626487586E0,-4.565341675E0,9.942310211E-1,5.914579625E0
7.825407083E0,2.998382605E0,-4.901807713E0,5.574098057E-1,5.773103393E0
7.835345083E0,2.642928611E0,-5.193950102E0,1.305233020E-1,5.829170236E0
7.845284083E0,2.687635252E0,-5.400322316E0,-4.304635379E-1,6.047492308E0
7.855222083E0,2.877525920E0,-5.551145396E0,-1.150223333E0,6.357545465E0
7.865160083E0,3.228601518E0,-5.462355427E0,-1.875649956E0,6.616589554E0
7.875098083E0,3.382217814E0,-5.248801078E0,-2.639436946E0,6.779080873E0
7.885036083E0,3.131744730E0,-5.103767325E0,-3.110776030E0,6.747828797E0
7.894974083E0,2.446517714E0,-5.020387784E0,-3.146243193E0,6.410038117E0
7.904912083E0,1.487694215E0,-5.000775638E0,-2.835581503E0,5.938140578E0
7.914851083E0,6.820671809E-1,-5.138986275E0,-2.409551324E0,5.716671510E0
7.924789083E0,2.047694921E-1,-5.364533848E0,-1.858252151E0,5.680955466E0
7.934727083E0,-3.669887960E-2,-5.451252733E0,-1.377048522E0,5.622612009E0
7.944665083E0,2.524336553E-1,-5.416152483E0,-1.216493628E0,5.556823482E0
7.954603083E0,5.607123131E-1,-5.138511481E0,-1.280511869E0,5.325261419E0
7.964541083E0,5.725979483E-1,-4.729484128E0,-1.382018948E0,4.960429911E0
7.974479208E0,5.520309520E-1,-4.338713244E0,-1.493593470E0,4.621687164E0
7.984418208E0,5.263534892E-1,-3.934571532E0,-1.735376130E0,4.332370188E0
7.994356208E0,5.263102198E-1,-3.619008998E0,-1.834287630E0,4.091312709E0
8.004294208E0,5.870657140E-1,-3.452178580E0,-1.488663829E0,3.805036543E0
8.014232208E0,5.941168714E-1,-3.403111085E0,-1.065942736E0,3.615297198E0
8.024170208E0,3.934398454E-1,-3.357797502E0,-8.342137787E-1,3.482170531E0
8.034108208E0,1.795410955E-1,-3.207111247E0,-6.566013873E-1,3.278555007E0
8.044046208E0,-1.952326834E-2,-3.004784721E0,-4.188623697E-1,3.033901459E0
8.053985208E0,-7.737678945E-2,-2.843966410E0,-4.112443247E-1,2.874587623E0
8.063923208E0,3.895999789E-3,-2.830053545E0,-5.827089536E-1,2.889423467E0
8.073861208E0,1.308606863E-3,-2.829444265E0,-6.819151533E-1,2.910457840E0
8.083799208E0,-3.857583582E-2,-2.935198762E0,-6.341486639E-1,3.003169059E0
8.093737208E0,-7.665407360E-2,-3.032492922E0,-2.389811124E-1,3.042860684E0
8.103675208E0,-1.278105447E0,-2.893652540E0,-3.520155385E-2,3.163545117E0
8.113613208E0,-2.145525856E0,-3.177754716E0,-1.903803715E-1,3.838964824E0
8.123552208E0,-2.416307489E0,-3.674555792E0,-5.634904714E-1,4.433782095E0
8.133490208E0,-2.431730690E0,-4.030861725E0,-8.227371562E-1,4.778917955E0
8.143428208E0,-2.704330223E0,-4.107053284E0,-7.983361405E-1,4.981829907E0
8.153366208E0,-3.261417847E0,-4.073840514E0,-8.290810928E-1,5.283975621E0
8.163304208E0,-3.645306850E0,-4.377070101E0,-9.813270932E-1,5.780139061E0
8.173242208E0,-3.491341476E0,-4.926199080E0,-8.848394103E-1,6.102445695E0
8.183180208E0,-2.827279041E0,-5.472224357E0,-4.812042135E-1,6.178212014E0
8.193118208E0,-1.925953553E0,-5.991150713E0,-7.395517427E-1,6.336412292E0
8.203057208E0,-9.763750863E-1,-6.135064139E0,-1.430221932E0,6.374782747E0
8.212995208E0,2.486826664E-1,-6.280203141E0,-1.797087498E0,6.536996102E0
8.222933208E0,1.396142605E0,-5.964475715E0,-1.818354991E0,6.389882597E0
8.232871208E0,2.461738016E0,-5.811309071E0,-1.262832666E0,6.436319874E0
8.242809208E0,2.931368251E0,-6.437897869E0,-7.841719915E-1,7.117188666E0
8.252747208E0,2.333026181E0,-7.426526381E0,4.551916321E-1,7.797660205E0
8.262685208E0,1.835740371E0,-8.082252440E0,7.446370661E-1,8.321492148E0
8.272624208E0,1.846620285E0,-8.673801799E0,1.714538115E-1,8.869850085E0
8.282562208E0,1.986732436E0,-9.335702518E0,6.915202282E-2,9.545010700E0
8.292500208E0,2.717174801E0,-9.580941174E0,-9.870801687E-2,9.959277883E0
8.302438208E0,4.692885236E0,-9.618087950E0,-3.476848713E-1,1.070755212E1
8.312376208E0,8.036651759E0,-9.274880950E0,-6.445900369E-1,1.228929145E1
8.322314208E0,1.090678797E1,-8.815551170E0,-1.052765377E0,1.406343774E1
8.332252208E0,1.256166109E1,-8.470354947E0,-1.364145471E0,1.521194055E1
8.342191208E0,1.340334323E1,-8.414928020E0,-1.079342800E0,1.586271112E1
8.352129208E0,1.324196943E1,-8.399762097E0,-3.664684669E-1,1.568566406E1
8.362067208E0,1.229021580E1,-8.410479459E0,3.511533666E-1,1.489660625E1
8.372005208E0,1.137881498E1,-8.545848348E0,4.059932693E-1,1.423635434E1
8.381943208E0,1.044916031E1,-8.955137072E0,2.568214059E-2,1.376154391E1
8.391881208E0,9.762966167E0,-9.565675263E0,-5.643147826E-2,1.366824188E1
8.401819208E0,9.321824151E0,-1.051210325E1,-1.010960197E-1,1.405030038E1
8.411758208E0,8.807793084E0,-1.128563843E1,-1.419048981E-1,1.431652858E1
8.421696208E0,8.648296244E0,-1.161447063E1,9.430623293E-2,1.448094782E1
8.431634208E0,9.043703678E0,-1.138959490E1,3.249016341E-1,1.454706188E1
8.441572208E0,9.741515071E0,-1.093813606E1,6.516827095E-1,1.466167203E1
8.451510208E0,1.075581403E1,-1.005702966E1,1.440190265E0,1.479545636E1
8.461448208E0,1.154971155E1,-8.391729192E0,2.522792888E0,1.449763566E1
8.471386208E0,1.171815580E1,-6.400615438E0,3.237327318E0,1.373911720E1
8.481325208E0,1.159562622E1,-4.098749653E0,3.942253604E0,1.291509426E1
8.491263208E0,1.114252314E1,-1.632923264E0,5.095516319E0,1.236068554E1
8.501201208E0,1.013224122E1,9.187291414E-1,6.348643631E0,1.199214957E1
8.511139208E0,8.550841870E0,3.450868219E0,7.086341221E0,1.162934306E1
8.521077208E0,6.929272145E0,5.851688772E0,7.474136750E0,1.175243779E1
8.531015208E0,5.622846293E0,8.048277778E0,7.805007294E0,1.254230100E1
8.540953208E0,4.507835478E0,1.013698332E1,8.273925338E0,1.383968395E1
8.550892208E0,3.284946458E0,1.173600969E1,8.537103252E0,1.487974894E1
8.560830208E0,2.310576089E0,1.281349366E1,8.904391426E0,1.577379372E1
8.570768208E0,1.467166979E0,1.331597062E1,9.048206034E0,1.616594213E1
8.580706208E0,5.265824077E-1,1.320949984E1,8.660333322E0,1.580409910E1
8.590644208E0,-1.297847986E-1,1.268061802E1,8.255562158E0,1.513172905E1
8.600582208E0,-3.367715549E-1,1.166704879E1,7.542833347E0,1.389704204E1
8.610520208E0,-1.521351957E-1,1.060592767E1,6.797327385E0,1.259811520E1
8.620459208E0,7.791999578E-3,9.887455727E0,6.218511508E0,1.168039926E1
8.630397208E0,1.983442792E-1,9.525772694E0,6.039118931E0,1.128054269E1
8.640335208E0,7.095648819E-1,9.386040028E0,6.366161889E0,1.136350505E1
8.650273208E0,1.545993878E0,9.372661014E0,6.953632815E0,1.177242035E1
8.660211208E0,2.584067030E0,9.445358276E0,7.565335187E0,1.237442895E1
8.670149208E0,3.667320448E0,9.679277893E0,8.070461529E0,1.312516701E1
8.680087208E0,4.536422808E0,1.011383185E1,8.551680946E0,1.399999906E1
8.690026208E0,5.150637437E0,1.074673096E1,8.967876985E0,1.491456034E1
8.699964208E0,5.645607750E0,1.138892832E1,9.170066686E0,1.567388587E1
8.709902208E0,5.975842118E0,1.175168607E1,9.130342457E0,1.603670689E1
8.719840208E0,6.104985477E0,1.176028382E1,8.802760971E0,1.590797674E1
8.729778208E0,5.685230237E0,1.161888060E1,8.278168663E0,1.535735347E1
8.739716208E0,4.894933434E0,1.136937055E1,7.531243581E0,1.448939578E1
8.749654208E0,3.962499003E0,1.094306409E1,6.708659622E0,1.343347178E1
8.759593208E0,2.971761401E0,1.053104121E1,5.946601946E0,1.245376528E1
8.769531208E0,2.014733582E0,1.025711787E1,5.327665983E0,1.173250371E1
8.779469208E0,1.250826140E0,1.001304339E1,4.885001353E0,1.121110353E1
8.789407208E0,6.812245971E-1,9.865653799E0,4.707329028E0,1.095235766E1
8.799345208E0,2.947987792E-1,9.881125531E0,4.589439512E0,1.089892211E1
8.809283208E0,2.736520314E-1,9.974788570E0,4.886671318E0,1.111084376E1
8.819221208E0,4.353351456E-1,9.935880028E0,5.131954998E0,1.119143381E1
8.829160208E0,6.527299458E-1,9.837977757E0,5.280260852E0,1.118449898E1
8.839098208E0,8.940182233E-1,9.707562044E0,5.412312616E0,1.115029853E1
8.849036208E0,1.313193127E0,9.501135451E0,5.477502639E0,1.104531965E1
8.858974208E0,1.925529045E0,9.140080994E0,5.293073856E0,1.073617127E1
8.868912208E0,2.831753623E0,8.457816178E0,5.009194459E0,1.022963891E1
8.878850208E0,4.102198633E0,7.269384799E0,4.665865252E0,9.562546080E0
8.888788208E0,5.943074906E0,5.181293803E0,4.401009772E0,9.029663993E0
8.898727208E0,8.175321987E0,2.009269359E0,4.114911650E0,9.370461612E0
8.908665208E0,1.011573921E1,-1.684291053E0,3.937409770E0,1.098490837E1
8.918603208E0,1.102075254E1,-4.683100505E0,3.782023815E0,1.255755235E1
8.928541208E0,1.068841785E1,-6.388226942E0,3.630234482E0,1.297036322E1
8.938479208E0,9.884438564E0,-6.973719755E0,3.487783153E0,1.258965942E1
8.948417208E0,8.895746318E0,-6.758320609E0,3.518597395E0,1.171280187E1
8.958355208E0,8.231500280E0,-6.782692974E0,3.589935764E0,1.125389531E1
8.968294208E0,8.488541542E0,-7.065303524E0,3.655233960E0,1.163333945E1
8.978231958E0,8.932527058E0,-6.861336270E0,3.598375928E0,1.182439362E1
8.988169958E0,8.714598992E0,-6.020088583E0,3.059112371E0,1.102469368E1
8.998107958E0,8.636336349E0,-5.273616076E0,2.382686438E0,1.039588990E1
9.008045958E0,9.084016721E0,-5.148451163E0,1.947132022E0,1.062154566E1
9.017983958E0,9.645889707E0,-5.437477278E0,1.689007856E0,1.120098634E1
9.027921958E0,1.009989910E1,-5.851626207E0,1.590954727E0,1.178051901E1
9.037860958E0,1.066456355E1,-6.451979134E0,1.432542107E0,1.254643883E1
9.047798958E0,1.084531736E1,-7.017238827E0,1.175017866E0,1.297086028E1
9.057736958E0,1.038141915E1,-7.337003170E0,7.920065296E-1,1.273706220E1
9.067674958E0,9.372875022E0,-7.560711209E0,2.624394107E-1,1.204508259E1
9.077612958E0,8.446704714E0,-7.690234053E0,2.672949386E-1,1.142619652E1
9.087550958E0,8.166183373E0,-7.970067176E0,4.628813785E-1,1.142027937E1
9.097488958E0,8.222739397E0,-8.348080312E0,2.458671590E-1,1.172025336E1
9.107427958E0,8.332960582E0,-8.555854688E0,-1.300900233E-1,1.194394428E1
9.117365958E0,8.346182306E0,-8.648289812E0,-5.714058472E-1,1.203238050E1
9.127303958E0,8.062187135E0,-8.687866107E0,-9.959572653E-1,1.189410820E1
9.137241958E0,7.473366086E0,-8.561541106E0,-1.317468903E0,1.144058176E1
9.147179958E0,6.916201279E0,-8.360094001E0,-1.686565036E0,1.098041500E1
9.157117958E0,6.339423156E0,-8.117997054E0,-2.095205595E0,1.051094899E1
9.167055958E0,5.536793990E0,-7.927801162E0,-2.391509594E0,9.961196569E0
9.176993958E0,4.639682590E0,-7.934616092E0,-2.414755931E0,9.503464277E0
9.186932958E0,3.632393859E0,-7.983975363E0,-2.249427516E0,9.055278675E0
9.196870958E0,2.496471062E0,-7.963586122E0,-2.193398472E0,8.629140661E0
9.206808958E0,1.754741816E0,-8.013586832E0,-2.290074874E0,8.517108411E0
9.216746958E0,1.296082127E0,-7.953738241E0,-2.417332506E0,8.413398679E0
9.226684958E0,9.722364271E-1,-7.869953488E0,-2.653768472E0,8.362051105E0
9.236622958E0,8.545226204E-1,-7.895591190E0,-2.874690605E0,8.445970354E0
9.246561958E0,6.388352072E-1,-7.937106421E0,-2.840559822E0,8.454262171E0
9.256499958E0,4.098138034E-1,-7.811671951E0,-2.726124550E0,8.283834926E0
9.266437958E0,6.134138525E-2,-7.749847001E0,-2.653292801E0,8.191694207E0
9.276375958E0,-4.355614328E-1,-7.763537672E0,-2.686559365E0,8.226775320E0
9.286313958E0,-9.868123662E-1,-7.843105997E0,-2.795889726E0,8.384814231E0
9.296251958E0,-1.658359237E0,-7.932530975E0,-2.906647393E0,8.609518110E0
9.306189958E0,-2.396019405E0,-7.887756506E0,-2.895436234E0,8.737342998E0
9.316128958E0,-3.010337237E0,-7.861140565E0,-2.893998696E0,8.901398188E0
9.326066958E0,-3.456556975E0,-7.906334864E0,-3.054686321E0,9.153634558E0
9.336004958E0,-3.888555699E0,-7.892228456E0,-3.430296544E0,9.443255255E0
9.345942958E0,-4.170473354E0,-7.880069171E0,-3.995927828E0,9.770147253E0
9.355880958E0,-4.003544118E0,-7.809043043E0,-4.595861217E0,9.906132397E0
9.365818958E0,-3.668055443E0,-7.673792852E0,-5.037250569E0,9.885121181E0
9.375756958E0,-3.457590178E0,-7.559265777E0,-5.242916440E0,9.827797399E0
9.385695958E0,-3.152607595E0,-7.513813616E0,-5.096648340E0,9.611043336E0
9.395633958E0,-2.759403977E0,-7.464480658E0,-4.562894030E0,9.173482639E0
9.405571958E0,-2.614070848E0,-7.363202789E0,-3.816761831E0,8.695849159E0
9.415509958E0,-2.571037095E0,-7.469547855E0,-3.124812563E0,8.495223979E0
9.425447958E0,-2.517141554E0,-7.797563789E0,-2.471860131E0,8.558510101E0
9.435385958E0,-2.333402157E0,-7.979393485E0,-1.734362515E0,8.492555525E0
9.445323958E0,-1.873257861E0,-8.009398472E0,-1.137044001E0,8.303759868E0
9.455262958E0,-1.065059806E0,-8.163787769E0,-8.995169449E-1,8.281963165E0
9.465200958E0,4.366876066E-2,-8.475035058E0,-9.077469009E-1,8.523621920E0
9.475138958E0,1.161666334E0,-8.749015703E0,-7.655110413E-1,8.858936257E0
9.485076958E0,2.236497422E0,-8.832214565E0,-4.167453852E-1,9.120505006E0
9.495014958E0,3.243235930E0,-8.771974211E0,2.929776639E-2,9.352377730E0
9.504952958E0,4.286658114E0,-8.870862907E0,4.223196821E-1,9.861338672E0
9.514890958E0,5.226206267E0,-9.142167866E0,8.676132207E-1,1.056623007E1
9.524829958E0,6.275063438E0,-9.405764440E0,1.482120064E0,1.140357425E1
9.534767958E0,7.673470670E0,-9.577520553E0,2.464874462E0,1.251745414E1
9.544705958E0,9.138567150E0,-9.446990234E0,3.228673439E0,1.353452497E1
9.554643958E0,1.077799603E1,-9.303550433E0,3.611190686E0,1.468883750E1
9.564581958E0,1.239962656E1,-8.781814490E0,4.008202010E0,1.571421929E1
9.574519958E0,1.359864725E1,-8.002167805E0,4.201367703E0,1.632817770E1
9.584457958E0,1.410543478E1,-7.344183551E0,4.009429926E0,1.640048325E1
9.594396958E0,1.375256117E1,-6.793012140E0,3.444570183E0,1.572078294E1
9.604334958E0,1.293107765E1,-6.549300191E0,2.694551924E0,1.474336164E1
9.614272958E0,1.171951118E1,-6.452155720E0,1.888587506E0,1.351088519E1
9.624210958E0,1.036169415E1,-6.275397899E0,1.262548345E0,1.217946439E1
9.634148958E0,9.115568882E0,-6.068936808E0,7.901202178E-1,1.097952094E1
9.644086958E0,8.236361071E0,-5.973428387E0,3.850777423E-1,1.018173734E1
9.654024958E0,7.645190611E0,-5.924101861E0,4.245196422E-2,9.671903872E0
9.663963958E0,7.492411053E0,-5.706452706E0,1.012503862E-2,9.418063941E0
9.673901958E0,7.605938253E0,-5.266215255E0,1.951098919E-2,9.251145902E0
9.683839958E0,7.358864740E0,-4.168222761E0,1.449056983E-1,8.458603248E0
9.693777958E0,6.947120771E0,-2.516453921E0,6.815116954E-1,7.420207917E0
9.703715958E0,6.553449960E0,-6.756147784E-1,1.548045666E0,6.767614579E0
9.713653958E0,5.964360525E0,1.461032081E0,2.634492248E0,6.681972809E0
9.723591958E0,5.360962953E0,3.802467728E0,3.742705675E0,7.563499876E0
9.733530958E0,4.539652517E0,6.361626788E0,4.765246868E0,9.153486663E0
9.743468958E0,3.910889139E0,9.162773454E0,5.657862929E0,1.145700153E1
9.753406958E0,5.171542402E0,1.245568850E1,5.816218393E0,1.468732185E1
9.763344958E0,6.187708960E0,1.442175395E1,4.204166765E0,1.624653032E1
9.773282958E0,4.504397315E0,1.440219618E1,3.049769690E0,1.539525723E1
9.783220958E0,3.520959085E0,1.399977794E1,2.738522401E0,1.469321068E1
9.793158958E0,3.961754068E0,1.441171194E1,1.261302888E0,1.499946070E1
9.803097958E0,4.315063888E0,1.414712192E1,-6.753942653E-1,1.480597827E1
9.813035958E0,4.905047362E0,1.452263596E1,-2.394941032E0,1.551457983E1
9.822973958E0,3.843627448E0,1.379417463E1,-2.430357910E0,1.452444028E1
9.832911958E0,3.700454280E0,1.327950271E1,-1.847265233E0,1.390866431E1
9.842849958E0,3.763684316E0,1.316110946E1,-1.398706609E0,1.375996010E1
9.852787958E0,3.547881712E0,1.295743222E1,-8.307934499E-1,1.346004206E1
9.862725958E0,3.121871706E0,1.279262962E1,1.534145665E-1,1.316894041E1
9.872664958E0,3.116488467E0,1.229389721E1,8.092033370E-1,1.270854905E1
9.882602958E0,3.001697391E0,1.170948438E1,1.465479619E0,1.217661045E1
9.892540958E0,2.792467643E0,1.145641922E1,2.111981695E0,1.197947760E1
9.902478958E0,2.461022902E0,1.132331087E1,2.770782659E0,1.191432916E1
9.912416958E0,2.134728680E0,1.117363852E1,3.102484678E0,1.179121179E1
9.922354958E0,1.611964796E0,1.104857125E1,3.104653995E0,1.158914292E1
9.932292958E0,9.842135713E-1,1.097553485E1,3.189193624E0,1.147179139E1
9.942231958E0,3.186171198E-1,1.091503020E1,3.577010787E0,1.149062258E1
9.952169958E0,-2.836656806E-1,1.079735850E1,4.018821723E0,1.152451061E1
9.962107958E0,-7.371698794E-1,1.068191107E1,4.316035987E0,1.154447098E1
9.972045958E0,-1.016060139E0,1.057131917E1,4.532620948E0,1.154685325E1
9.981984208E0,-1.111691059E0,1.033409529E1,4.676387609E0,1.139727966E1
9.991922208E0,-1.135080798E0,1.010731220E1,4.708826207E0,1.120799771E1
1.000186021E1,-1.175156445E0,9.993956913E0,4.511033320E0,1.102767378E1
1.001179921E1,-1.169052536E0,9.905964503E0,4.162960267E0,1.080856395E1
1.002173721E1,-1.158222324E0,9.561716114E0,3.809503098E0,1.035761593E1
1.003167521E1,-9.410538107E-1,9.197180809E0,3.412922713E0,9.855037217E0
1.004161321E1,-9.193869531E-1,8.897294075E0,3.226967221E0,9.508965858E0
1.005155121E1,-1.629262907E0,8.428032800E0,2.657854214E0,8.986123943E0
1.006148921E1,-1.863885943E0,7.885052753E0,1.852640871E0,8.311462322E0
1.007142821E1,-1.707564141E0,7.272817115E0,1.341463537E0,7.590070388E0
1.008136621E1,-1.462314375E0,6.632775042E0,1.143279033E0,6.887608804E0
1.009130421E1,-9.733836508E-1,5.890057617E0,1.013619657E0,6.055384321E0
1.010124221E1,-2.207499325E-2,4.940266896E0,9.270257556E-1,5.026539671E0
1.011118021E1,1.345154884E0,3.862716853E0,8.735060446E-1,4.182467688E0
1.012111821E1,3.001530161E0,2.451954455E0,6.898569147E-1,3.936644068E0
1.013105621E1,4.982062209E0,3.829645586E-1,3.962601037E-1,5.012447284E0
1.014099521E1,6.906904791E0,-2.748718191E0,1.019497132E-1,7.434458906E0
1.015093321E1,8.366969157E0,-6.683998990E0,-2.348521011E-1,1.071154381E1
1.016087121E1,8.302061555E0,-9.857071255E0,-5.104057932E-1,1.289754216E1
1.017080921E1,5.996440689E0,-1.094767170E1,-1.912764573E-1,1.248380564E1
1.018074721E1,3.800045811E0,-1.133749036E1,2.988476837E-1,1.196111809E1
1.019068521E1,2.842183009E0,-1.171008664E1,3.183902478E-1,1.205427334E1
1.020062321E1,1.763452413E0,-1.059165813E1,-4.001834393E-3,1.073745791E1
1.021056221E1,8.433532691E-1,-8.028441684E0,-5.075204846E-1,8.088553495E0
1.022050021E1,1.262002800E0,-5.225370700E0,-5.534738986E-1,5.404024738E0
1.023043821E1,2.333144295E0,-3.111452553E0,3.325443104E-2,3.889190809E0
1.024037621E1,3.417992833E0,-2.026737331E0,1.029881787E0,4.104996433E0
1.025031421E1,4.442134994E0,-1.811235859E0,2.367073495E0,5.349408899E0
1.026025221E1,4.798988811E0,-1.954224256E0,3.596011899E0,6.307185396E0
1.027019021E1,4.322839515E0,-2.160298846E0,4.243055427E0,6.430968196E0
1.028012921E1,3.491480640E0,-2.396566120E0,4.324201916E0,6.052494398E0
1.029006721E1,2.675935559E0,-2.387823948E0,3.904073625E0,5.301332397E0
1.030000521E1,2.245234331E0,-2.307713000E0,3.212882448E0,4.548541538E0
1.030994321E1,2.002477233E0,-2.288166928E0,2.286133705E0,3.804212175E0
1.031988121E1,2.042658130E0,-2.512760820E0,1.287855241E0,3.484966326E0
1.032981921E1,2.156553120E0,-3.026158633E0,4.367309491E-1,3.741535962E0
1.033975721E1,2.137611065E0,-3.376141972E0,-2.290354371E-1,4.002520820E0
1.034969621E1,1.766851400E0,-3.517714757E0,-7.287081543E-1,4.003385637E0
1.035963421E1,1.198950520E0,-3.686232682E0,-1.029350933E0,4.010655442E0
1.036957221E1,6.314004725E-1,-3.722264394E0,-1.076174194E0,3.925820891E0
1.037951021E1,2.181052369E-1,-3.628156967E0,-9.200593829E-1,3.749346895E0
1.038944821E1,-6.909830153E-2,-3.473762114E0,-6.248322221E-1,3.530185988E0
1.039938621E1,-2.090326971E-1,-3.273374233E0,-2.664622220E-1,3.290847255E0
1.040932421E1,-3.149193406E-2,-3.197507195E0,1.374399734E-1,3.200614589E0
1.041926321E1,3.561872345E-1,-3.131497977E0,4.482592463E-1,3.183407809E0
1.042920121E1,9.052817148E-1,-3.042962362E0,5.012560701E-1,3.214095917E0
1.043913921E1,1.641596439E0,-2.927252103E0,3.769851959E-1,3.377241712E0
1.044907721E1,1.855674114E0,-2.837791166E0,7.435560621E-2,3.391476651E0
1.045901521E1,1.581949577E0,-3.002506938E0,-2.001454409E-1,3.399657420E0
1.046895321E1,1.064158165E0,-3.368652566E0,-2.038116817E-1,3.538614406E0
1.047889121E1,6.580427259E-1,-3.808433057E0,-6.345387463E-2,3.865386006E0
1.048883021E1,6.695570630E-1,-4.283228430E0,1.478164788E-1,4.337764649E0
1.049876821E1,9.816024971E-1,-4.498215931E0,3.405243710E-1,4.616648879E0
1.050870621E1,1.284440905E0,-4.413680981E0,2.293639775E-1,4.602496722E0
1.051864421E1,1.633191066E0,-4.286708400E0,-1.272810940E-1,4.589050277E0
1.052858221E1,2.059570616E0,-4.184283601E0,-4.609816913E-1,4.686423423E0
1.053852021E1,2.557537628E0,-4.101866219E0,-7.484716702E-1,4.891473708E0
1.054845821E1,3.198540398E0,-4.022670068E0,-9.540784836E-1,5.227121666E0
1.055839721E1,3.823805387E0,-3.992505160E0,-1.125247536E0,5.641610329E0
1.056833521E1,4.372529154E0,-4.039700376E0,-1.146802711E0,6.062453859E0
1.057827321E1,4.787513650E0,-4.232296843E0,-8.928464413E-1,6.452115799E0
1.058821121E1,5.215705252E0,-4.303769991E0,-5.961727524E-1,6.788331118E0
1.059814921E1,5.750375236E0,-3.965013014E0,-3.099329082E-1,6.991723819E0
1.060808721E1,6.208940200E0,-3.323600939E0,-2.098892776E-1,7.045659310E0
1.061802521E1,6.915573873E0,-2.751974505E0,-2.766118920E-1,7.448156806E0
1.062796421E1,7.732153911E0,-2.331357678E0,-3.225475816E-1,8.082417316E0
1.063790221E1,8.316932779E0,-1.931900756E0,-3.007562879E-1,8.543656461E0
1.064784021E1,8.563885839E0,-1.784131091E0,-2.497930527E-1,8.751323385E0
1.065777821E1,8.725610468E0,-1.811582015E0,-2.296782654E-2,8.911713357E0
1.066771621E1,8.940842968E0,-1.823436075E0,3.399325597E-1,9.131218224E0
1.067765421E1,9.148981626E0,-1.757836455E0,7.663688278E-1,9.347789844E0
1.068759321E1,9.152729691E0,-1.750684141E0,1.082780378E0,9.381352200E0
1.069753121E1,8.464666775E0,-2.005615726E0,1.201895177E0,8.781664425E0
1.070746921E1,7.614719017E0,-2.323026419E0,1.283322333E0,8.063951491E0
1.071740721E1,7.159803885E0,-2.428895375E0,1.391099381E0,7.687488660E0
1.072734521E1,7.405044880E0,-2.419854118E0,1.333148797E0,7.903649115E0
1.073728321E1,7.817450754E0,-2.313620296E0,1.002948343E0,8.214090366E0
1.074722121E1,8.041902559E0,-2.128490724E0,6.372599673E-1,8.343187029E0
1.075716021E1,8.114539011E0,-1.899994693E0,4.797745693E-1,8.347808504E0
1.076709821E1,7.651582203E0,-1.865879698E0,4.909351498E-1,7.891085767E0
1.077703621E1,6.877166437E0,-2.086845831E0,5.361183393E-1,7.206786149E0
1.078697421E1,6.043984984E0,-2.291542525E0,5.741626632E-1,6.489266861E0
1.079691221E1,5.250438298E0,-2.328596623E0,6.862268901E-1,5.784494092E0
1.080685021E1,5.007657811E0,-2.219125344E0,9.887442863E-1,5.565857464E0
1.081678821E1,5.314713231E0,-2.037880078E0,1.307906951E0,5.840355514E0
1.082672721E1,5.917929540E0,-1.763203906E0,1.414535022E0,6.334957567E0
1.083666521E1,6.452151627E0,-1.311208289E0,1.631377845E0,6.783135077E0
1.084660321E1,6.778179508E0,-9.985991836E-1,1.531163585E0,7.020354670E0
1.085654121E1,6.711256955E0,-8.603879625E-1,1.088360303E0,6.853157339E0
1.086647921E1,6.272432191E0,-7.057446036E-1,6.746785661E-1,6.347965990E0
1.087641721E1,5.632990628E0,-6.114594206E-1,4.212380203E-1,5.681716951E0
1.088635521E1,4.827782840E0,-6.224358138E-1,4.619025546E-1,4.889608109E0
1.089629421E1,3.861846203E0,-6.089997894E-1,5.673120654E-1,3.950516399E0
1.090623221E1,2.717157844E0,-6.242937666E-1,4.668083686E-1,2.826764849E0
1.091617021E1,1.283043421E0,-5.432180285E-1,1.924880004E-1,1.406533994E0
1.092610821E1,-2.626709604E-1,-2.174614950E-1,-1.313764838E-1,3.654385253E-1
1.093604621E1,-1.894407824E0,2.736783439E-1,-4.496707642E-1,1.966185301E0
1.094598421E1,-3.297639593E0,6.536809223E-1,-9.616531129E-1,3.496641581E0
1.095592221E1,-4.559560533E0,6.918273532E-1,-1.708409064E0,4.918015745E0
1.096586121E1,-5.969661611E0,4.750973815E-1,-2.623317634E0,6.537918069E0
1.097579896E1,-7.407887211E0,8.441917598E-2,-3.455243690E0,8.174510902E0
1.098573696E1,-8.681390900E0,-6.102636650E-1,-3.896956394E0,9.535472659E0
1.099567496E1,-9.688375576E0,-1.489688992E0,-3.807463589E0,1.051572982E1
1.100561296E1,-1.039922509E1,-2.393087904E0,-3.381268811E0,1.119391491E1
1.101555096E1,-1.092485586E1,-3.104619789E0,-2.974797860E0,1.174055203E1
1.102548996E1,-1.119559598E1,-3.478566479E0,-2.681945912E0,1.202641376E1
1.103542796E1,-1.142182476E1,-3.560529240E0,-2.582835022E0,1.223954599E1
1.104536596E1,-1.134150740E1,-3.561833754E0,-2.813318229E0,1.221602265E1
1.105530396E1,-1.104118739E1,-3.579220157E0,-3.075129357E0,1.200729180E1
1.106524196E1,-1.073077742E1,-3.745848261E0,-3.227973820E0,1.181527732E1
1.107517996E1,-1.051677985E1,-3.993854113E0,-3.354363725E0,1.173904958E1
1.108511796E1,-1.036164036E1,-4.360894656E0,-3.458795581E0,1.176198368E1
1.109505696E1,-1.026213712E1,-4.723500087E0,-3.501788696E0,1.182731734E1
1.110499496E1,-1.023148134E1,-5.059071794E0,-3.336171575E0,1.189148681E1
1.111493296E1,-1.023180293E1,-5.367649244E0,-3.082185484E0,1.195831581E1
1.112487096E1,-1.026086944E1,-5.581732766E0,-2.818091896E0,1.201594043E1
1.113480896E1,-1.034048513E1,-5.765947541E0,-2.592864166E0,1.212001355E1
1.114474696E1,-1.027849295E1,-5.890739402E0,-2.479683121E0,1.210359684E1
1.115468496E1,-1.008085238E1,-5.979020079E0,-2.446162203E0,1.197313557E1
1.116462396E1,-9.615655509E0,-6.023974058E0,-2.511980217E0,1.162149469E1
1.117456196E1,-8.962462463E0,-6.025234718E0,-2.635789161E0,1.111649996E1
1.118449996E1,-8.222343541E0,-5.918336506E0,-2.732869897E0,1.049296041E1
1.119443796E1,-7.533523995E0,-5.820191576E0,-2.702004200E0,9.895930500E0
1.120437596E1,-7.031425926E0,-5.821538774E0,-2.555644884E0,9.479587809E0
1.121431396E1,-6.843328015E0,-5.922957560E0,-2.310986272E0,9.340943321E0
1.122425196E1,-6.873558705E0,-6.075477503E0,-2.065253525E0,9.403324321E0
1.123419096E1,-6.969826094E0,-6.242240093E0,-1.685704910E0,9.507136173E0
1.124412896E1,-7.144778879E0,-6.421325691E0,-1.272686833E0,9.690253899E0
1.125406696E1,-7.257794448E0,-6.537478876E0,-9.909171116E-1,9.818152933E0
1.126400496E1,-7.098965945E0,-6.444249115E0,-8.223184955E-1,9.622882720E0
1.127394296E1,-6.272367872E0,-6.235963107E0,-7.425549457E-1,8.875878686E0
1.128388096E1,-5.213820110E0,-5.912428479E0,-7.999558192E-1,7.923424763E0
1.129381996E1,-4.253057674E0,-5.576817012E0,-1.005451536E0,7.085218441E0
1.130375796E1,-3.368733550E0,-5.434389364E0,-1.183467823E0,6.502426437E0
1.131369596E1,-2.643658344E0,-5.347357652E0,-1.262613396E0,6.097323665E0
1.132363396E1,-2.349739278E0,-5.348718883E0,-1.110122616E0,5.946632710E0
1.133357196E1,-2.651462622E0,-5.358620558E0,-7.417643291E-1,6.024556635E0
1.134350996E1,-3.652485477E0,-5.376527656E0,-3.511054194E-1,6.509299103E0
1.135344796E1,-4.946980669E0,-5.661278872E0,-1.677515008E-2,7.518176483E0
1.136338696E1,-5.877579074E0,-5.673255140E0,1.815850628E-1,8.170968901E0
1.137332496E1,-6.163628372E0,-5.148024901E0,6.600271247E-2,8.030991934E0
1.138326296E1,-5.303587149E0,-4.157482011E0,-3.017970192E-1,6.745648580E0
1.139320096E1,-3.697997280E0,-2.897583039E0,-7.560672764E-1,4.758446078E0
1.140313896E1,-2.277824957E0,-1.820851606E0,-1.251694159E0,3.173440621E0
1.141307696E1,-1.097949809E0,-1.267879252E0,-1.240765713E0,2.086267273E0
1.142301496E1,-4.029181820E-1,-1.114591570E0,-9.234590272E-1,1.502475958E0
1.143295396E1,-2.349171513E-1,-1.046634645E0,-8.195182639E-1,1.349903824E0
1.144289196E1,-2.232420158E-1,-9.418098557E-1,-9.695566481E-1,1.369993758E0
1.145282996E1,2.117042899E-1,-7.608929104E-1,-8.687296003E-1,1.174081703E0
1.146276796E1,1.130974883E0,-4.315286082E-1,-3.581624971E-1,1.262379302E0
1.147270596E1,2.279220103E0,9.476582408E-2,1.748200536E-1,2.287878251E0
1.148264396E1,4.084904616E0,4.901142007E-1,8.484765995E-1,4.200782093E0
1.149258296E1,6.389510990E0,8.218659210E-1,1.713125720E0,6.666041856E0
1.150252096E1,8.077175303E0,1.310748113E0,2.635386288E0,8.596748360E0
1.151245896E1,8.715839186E0,1.865712613E0,3.496708927E0,9.574638876E0
1.152239696E1,8.490764653E0,2.250387483E0,4.086773386E0,9.688087785E0
1.153233496E1,8.048278363E0,2.327898758E0,4.316087443E0,9.424569383E0
1.154227296E1,7.953242982E0,2.254072690E0,4.275137638E0,9.306541755E0
1.155221096E1,7.911975088E0,2.251361629E0,3.995913210E0,9.145233806E0
1.156214996E1,7.680056389E0,2.336433939E0,3.609892604E0,8.801904016E0
1.157208796E1,7.198893691E0,2.516617643E0,3.610458907E0,8.437585451E0
1.158202596E1,6.402227515E0,2.613829942E0,3.727626876E0,7.855942098E0
1.159196396E1,5.882758538E0,2.602757070E0,3.827956325E0,7.485615673E0
1.160190196E1,5.652003434E0,2.590664443E0,3.450310102E0,7.110648696E0
1.161183996E1,5.350940241E0,2.549728087E0,2.554655243E0,6.454451037E0
1.162177796E1,5.052532852E0,2.404283860E0,1.475436989E0,5.786672914E0
1.163171696E1,4.608263161E0,2.320327491E0,7.471645251E-1,5.213277650E0
1.164165496E1,3.844327360E0,2.285482471E0,4.457466978E-1,4.494549265E0
1.165159296E1,2.974310787E0,2.242051107E0,2.744802895E-1,3.734790122E0
1.166153096E1,2.273824877E0,2.121194715E0,1.926667790E-1,3.115584548E0
1.167146896E1,1.922716534E0,2.042100013E0,1.624840365E-1,2.809521738E0
1.168140696E1,1.770316460E0,2.038609810E0,1.883193742E-1,2.706550297E0
1.169134596E1,1.843769767E0,2.082858615E0,2.531727433E-1,2.793185171E0
1.170128396E1,2.220083703E0,2.088666946E0,4.346235394E-1,3.078993160E0
1.171122196E1,2.726293534E0,2.158361079E0,7.608139729E-1,3.559499527E0
1.172115996E1,3.283755965E0,2.262369889E0,9.817191491E-1,4.106719279E0
1.173109796E1,3.728936652E0,2.339463089E0,1.137552416E0,4.546656090E0
1.174103596E1,4.089533272E0,2.348159068E0,1.330703491E0,4.899888281E0
1.175097396E1,4.176124688E0,2.251759532E0,1.587207978E0,5.002965877E0
1.176091296E1,3.895671176E0,2.058236867E0,1.838148254E0,4.774032039E0
1.177085096E1,3.558832378E0,1.888561486E0,1.983315323E0,4.490600411E0
1.178078896E1,3.252113757E0,1.789020825E0,1.949055317E0,4.192333006E0
1.179072696E1,2.976083078E0,1.695369481E0,1.777876617E0,3.859040481E0
1.180066496E1,2.829676400E0,1.643162031E0,1.657359070E0,3.667954345E0
1.181060296E1,2.825279294E0,1.591846282E0,1.592422232E0,3.612753277E0
1.182054196E1,2.899307383E0,1.595562187E0,1.563527924E0,3.660112233E0
1.183047996E1,2.911964850E0,1.665714742E0,1.506205184E0,3.677335849E0
1.184041796E1,2.866193431E0,1.723368873E0,1.301851575E0,3.588855330E0
1.185035596E1,2.956018943E0,1.753602194E0,1.082392123E0,3.603434660E0
1.186029396E1,3.265067679E0,1.811122131E0,1.104614904E0,3.893713447E0
1.187023196E1,3.596601298E0,1.924725930E0,1.293146532E0,4.279291852E0
1.188016996E1,3.756993932E0,2.085287256E0,1.306826971E0,4.491238479E0
1.189010896E1,3.799044768E0,2.223018713E0,1.309660531E0,4.592359312E0
1.190004696E1,3.849139618E0,2.282122661E0,1.473078514E0,4.711042342E0
1.190998496E1,3.993450655E0,2.324830139E0,1.717467570E0,4.929723944E0
1.191992296E1,4.261280029E0,2.351162490E0,1.954690863E0,5.244739165E0
1.192986096E1,4.619023207E0,2.441397599E0,2.202213296E0,5.669703787E0
1.193979896E1,5.046942914E0,2.645124533E0,2.486825495E0,6.217122937E0
1.194973696E1,5.460554484E0,2.849085063E0,2.724758055E0,6.734927426E0
1.195967596E1,5.766687799E0,2.942201095E0,2.821380663E0,7.061970284E0
1.196961396E1,5.732880952E0,2.976521035E0,2.927792094E0,7.092077835E0
1.197955179E1,5.655526382E0,2.989079685E0,2.989829882E0,7.061066403E0
1.198948979E1,5.586148583E0,2.914831740E0,2.885574027E0,6.930211940E0
1.199942779E1,5.426057081E0,2.731638182E0,2.660447746E0,6.631886972E0
1.200936579E1,5.278266367E0,2.631315164E0,2.479687214E0,6.397871834E0
1.201930479E1,5.283727666E0,2.694240267E0,2.620850987E0,6.484255436E0
1.202924279E1,5.438060830E0,2.738000829E0,2.941251215E0,6.761664946E0
1.203918079E1,5.437230526E0,2.697119436E0,3.032028068E0,6.784624032E0
1.204911879E1,5.471501057E0,2.527174206E0,3.025036260E0,6.743498918E0
1.205905679E1,5.482754023E0,2.385414310E0,3.010436055E0,6.694289981E0
1.206899479E1,5.645129448E0,2.266509133E0,2.973629879E0,6.771043109E0
1.207893279E1,5.637376624E0,1.934929906E0,2.911960465E0,6.633512094E0
1.208887179E1,5.137791104E0,1.548074318E0,2.754091782E0,6.031455302E0
1.209880979E1,4.518352280E0,1.385249827E0,2.509595430E0,5.350933903E0
1.210874779E1,4.309121363E0,1.335839100E0,2.245212697E0,5.039243304E0
1.211868579E1,4.040635346E0,1.107761437E0,1.656184072E0,4.505198673E0
1.212862379E1,4.266646603E0,9.097858250E-1,1.270245620E0,4.543732763E0
1.213856179E1,4.506285381E0,9.731006455E-1,1.254784997E0,4.777867536E0
1.214849979E1,4.118850626E0,8.887288320E-1,1.192250780E0,4.379067405E0
1.215843879E1,3.176764197E0,6.416079569E-1,9.453488830E-1,3.375970386E0
1.216837679E1,2.070024269E0,5.585248697E-1,7.367667139E-1,2.267107341E0
1.217831479E1,1.207778646E0,6.407314593E-1,5.851457807E-1,1.487165641E0
1.218825279E1,9.446621275E-1,6.608546519E-1,3.636596838E-1,1.208868798E0
1.219819079E1,8.979089606E-1,4.071948355E-1,-1.657954609E-1,9.997681083E-1
1.220812879E1,4.976144242E-1,-8.500097394E-3,-7.772931808E-1,9.229718608E-1
1.221806779E1,1.034547865E-2,-4.764264536E-1,-1.319708971E0,1.403111173E0
1.222800579E1,1.487642759E-1,-9.262852058E-1,-1.857341447E0,2.080829725E0
1.223794379E1,8.229418087E-1,-1.151770214E0,-2.433640975E0,2.815389181E0
1.224788179E1,1.245139430E0,-1.145740857E0,-3.046726799E0,3.485059325E0
1.225781979E1,1.291496741E0,-1.228221096E0,-3.679204913E0,4.088158471E0
1.226775779E1,1.125092000E0,-1.259854241E0,-3.876885826E0,4.228866092E0
1.227769679E1,3.229528302E-1,-1.206838121E0,-3.343723254E0,3.569487636E0
1.228763479E1,-9.176772273E-1,-1.102170914E0,-2.612621323E0,2.980386283E0
1.229757279E1,-2.199476945E0,-1.219248544E0,-2.123554358E0,3.291466080E0
1.230751079E1,-3.427856501E0,-1.501352726E0,-1.813056682E0,4.158297095E0
1.231744879E1,-4.419201629E0,-2.077509289E0,-1.876504819E0,5.231315152E0
1.232738679E1,-5.246326536E0,-2.685484062E0,-2.271255026E0,6.316198711E0
1.233732479E1,-5.953113990E0,-3.241893994E0,-2.952611770E0,7.393737831E0
1.234726379E1,-6.454350765E0,-3.812506812E0,-3.636803244E0,8.331877929E0
1.235720179E1,-6.647570252E0,-4.270936705E0,-4.473562024E0,9.079859458E0
1.236713979E1,-6.885118650E0,-4.823618745E0,-5.076902293E0,9.820748114E0
1.237707779E1,-7.537084365E0,-5.166198047E0,-5.335417053E0,1.058130040E1
1.238701579E1,-7.959438692E0,-5.307608280E0,-5.608352215E0,1.108949884E1
1.239695379E1,-8.193120911E0,-5.379098092E0,-5.667907276E0,1.132197418E1
1.240689179E1,-8.605413934E0,-5.846961299E0,-5.700675657E0,1.186329669E1
1.241683079E1,-9.221853136E0,-6.720618348E0,-5.760068750E0,1.278231897E1
1.242676879E1,-9.650673898E0,-7.493478169E0,-5.278758118E0,1.330988389E1
1.243670679E1,-9.336411785E0,-7.395736113E0,-4.681434048E0,1.279770770E1
1.244664479E1,-8.997736961E0,-7.350127831E0,-5.561193252E0,1.288062576E1
1.245658279E1,-8.525743867E0,-7.481904776E0,-6.771500818E0,1.321061811E1
1.246652079E1,-7.363536665E0,-7.432245542E0,-6.587055078E0,1.236322129E1
1.247645979E1,-5.394186832E0,-7.243883337E0,-5.377143953E0,1.051117379E1
1.248639779E1,-4.943429655E0,-6.762069844E0,-4.279403181E0,9.406188225E0
1.249633579E1,-5.125413133E0,-6.524751241E0,-4.068972123E0,9.241145637E0
1.250627379E1,-5.158163972E0,-6.620407012E0,-4.151010020E0,9.363083293E0
1.251621179E1,-5.012785819E0,-6.921768998E0,-4.029381210E0,9.448535371E0
1.252614979E1,-4.902703214E0,-7.118810810E0,-3.466348722E0,9.312869569E0
1.253608779E1,-5.142061910E0,-7.080530843E0,-2.251418054E0,9.035684864E0
1.254602679E1,-5.170120944E0,-7.009384847E0,-1.827177123E0,8.899449575E0
1.255596479E1,-4.883631935E0,-7.141913744E0,-1.904603907E0,8.859137026E0
1.256590279E1,-4.576832623E0,-7.366410572E0,-1.927196086E0,8.884001707E0
1.257584079E1,-4.245991314E0,-7.380754377E0,-1.833042758E0,8.709995589E0
1.258577879E1,-3.906083313E0,-7.174577460E0,-1.753318019E0,8.355008836E0
1.259571679E1,-3.687588359E0,-6.897542229E0,-1.878481763E0,8.043823124E0
1.260565579E1,-3.564960845E0,-6.737806823E0,-2.035105281E0,7.889780739E0
1.261559379E1,-3.090574192E0,-6.784466434E0,-2.252338991E0,7.788046261E0
1.262553179E1,-2.395380304E0,-6.783916211E0,-2.472142552E0,7.607289580E0
1.263546979E1,-1.893679261E0,-6.528371837E0,-2.478451697E0,7.235218228E0
1.264540779E1,-1.864932303E0,-6.064843757E0,-2.346991379E0,6.765254675E0
1.265534579E1,-2.218332169E0,-5.498917481E0,-2.295025127E0,6.358162582E0
1.266528379E1,-2.756659294E0,-4.871432304E0,-2.228583215E0,6.024666489E0
1.267522279E1,-3.365379879E0,-4.263567460E0,-2.107143271E0,5.826134394E0
1.268516079E1,-3.879020060E0,-3.850370457E0,-2.075397275E0,5.846317057E0
1.269509879E1,-4.222550704E0,-3.368604326E0,-2.037316406E0,5.773048388E0
1.270503679E1,-4.745819494E0,-2.375596835E0,-1.758943625E0,5.591077326E0
1.271497479E1,-5.679495288E0,-9.354001379E-1,-1.510412402E0,5.950881092E0
1.272491279E1,-6.379353207E0,4.954497850E-1,-1.480712054E0,6.567657575E0
1.273485179E1,-6.379575402E0,1.793045171E0,-1.743174269E0,6.852200364E0
1.274478979E1,-5.508399326E0,2.628337469E0,-1.904094906E0,6.393449648E0
1.275472779E1,-3.678562304E0,2.854709499E0,-1.556022730E0,4.909418875E0
1.276466579E1,-1.019630741E0,3.324421011E0,-9.917997488E-1,3.615949204E0
1.277460379E1,2.985031657E0,4.216170514E0,-2.201818755E-1,5.170588734E0
1.278454179E1,7.392111424E0,5.390284401E0,1.581059046E0,9.284299916E0
1.279447979E1,1.000122968E1,6.690183590E0,3.643376099E0,1.257208578E1
1.280441879E1,1.052110913E1,7.374737592E0,4.860419658E0,1.373696368E1
1.281435679E1,9.302559915E0,7.306238045E0,5.165863586E0,1.290755135E1
1.282429479E1,7.376616887E0,7.056847866E0,5.048609371E0,1.138868013E1
1.283423279E1,5.524782055E0,6.791714643E0,4.963295571E0,1.006404032E1
1.284417079E1,4.200836191E0,6.716452206E0,4.819946401E0,9.273059811E0
1.285410879E1,3.600629445E0,6.729060557E0,4.578320739E0,8.899764557E0
1.286404779E1,3.731340735E0,6.592985324E0,4.261107536E0,8.691800538E0
1.287398579E1,4.146451238E0,6.393702859E0,4.214136268E0,8.708124862E0
1.288392379E1,4.623960304E0,5.991894479E0,4.439150575E0,8.774386939E0
1.289386179E1,4.763431600E0,5.410706386E0,4.568653538E0,8.534554432E0
1.290379979E1,4.382850659E0,4.821111166E0,4.347725265E0,7.832956514E0
1.291373779E1,3.651275688E0,4.278390736E0,3.759304166E0,6.765264906E0
1.292367579E1,2.801417684E0,3.781091477E0,2.981023391E0,5.570556009E0
1.293361479E1,2.024196716E0,3.429186158E0,2.275261538E0,4.586229946E0
1.294355279E1,1.492452094E0,3.159426033E0,1.767743100E0,3.915903699E0
1.295349079E1,1.224005254E0,2.933103120E0,1.368857743E0,3.460499139E0
1.296342879E1,1.108338557E0,2.789562746E0,1.037829323E0,3.176029656E0
1.297336679E1,1.124707545E0,2.567456844E0,7.069038141E-1,2.890763690E0
1.298330454E1,9.740803465E-1,2.181806075E0,5.963201022E-1,2.462662773E0
1.299324354E1,7.877105802E-1,1.726471113E0,8.947198892E-1,2.098026249E0
1.300318154E1,6.051251319E-1,1.039816791E0,1.237141609E0,1.725663566E0
1.301311954E1,5.476575270E-1,7.989588690E-1,1.989479458E0,2.212756777E0
1.302305754E1,1.022053243E0,7.869013256E-1,2.924894798E0,3.196688303E0
1.303299554E1,1.470037670E0,5.395260966E-1,3.366799875E0,3.713144296E0
1.304293354E1,1.634862201E0,4.107668996E-1,3.581282762E0,3.958167516E0
1.305287254E1,1.614344613E0,2.669955611E-1,3.545480261E0,3.904846404E0
1.306281054E1,1.469729229E0,6.876676440E-2,3.160190265E0,3.485919589E0
1.307274854E1,1.237277556E0,-8.989100039E-2,2.675964795E0,2.949529408E0
1.308268654E1,1.027158447E0,-2.204271662E-1,2.375944744E0,2.597836800E0
1.309262454E1,7.355683270E-1,-2.356854755E-1,2.359262053E0,2.482483805E0
1.310256254E1,3.479110855E-1,-2.222111517E-1,2.441190900E0,2.475849941E0
1.311250054E1,-1.431076795E-2,-2.648092872E-1,2.413415456E0,2.427942117E0
1.312243954E1,-3.528917438E-1,-3.865091407E-1,2.177901889E0,2.239905922E0
1.313237754E1,-4.393884355E-1,-3.518257964E-1,1.954809562E0,2.034237944E0
1.314231554E1,-2.550305499E-1,-1.375136483E-1,1.778159330E0,1.801610720E0
1.315225354E1,2.356009832E-1,1.673707008E-2,1.648789684E0,1.665621618E0
1.316219154E1,7.420499656E-1,1.708690900E-1,1.507105801E0,1.688550353E0
1.317212954E1,1.063568474E0,4.463653332E-1,1.438999187E0,1.844217604E0
1.318206854E1,1.193974978E0,7.078364450E-1,1.439508480E0,1.999698313E0
1.319200654E1,1.119215987E0,8.162145871E-1,1.402388016E0,1.971178030E0
1.320194454E1,9.050427099E-1,8.450752741E-1,1.425387454E0,1.888116501E0
1.321188254E1,7.008130619E-1,8.685945296E-1,1.637153724E0,1.981380257E0
1.322182054E1,5.402121212E-1,8.846398741E-1,1.914465528E0,2.177061116E0
1.323175854E1,3.406469433E-1,9.365099394E-1,2.175654219E0,2.393023713E0
1.324169654E1,2.318261670E-1,9.977788192E-1,2.438610524E0,2.645019325E0
1.325163554E1,2.176099777E-1,1.066006470E0,2.646696557E0,2.861595108E0
1.326157354E1,3.363906088E-1,1.170382778E0,2.642243902E0,2.909365451E0
1.327151154E1,4.318864578E-1,1.374094509E0,2.588095177E0,2.961907878E0
1.328144954E1,6.237243940E-1,1.783923515E0,2.673500193E0,3.273991220E0
1.329138754E1,7.935194966E-1,1.836467764E0,2.771204828E0,3.417874082E0
1.330132554E1,9.293109937E-1,1.894640543E0,2.857190473E0,3.552016204E0
1.331126454E1,8.596325022E-1,2.033927068E0,3.139640225E0,3.838380921E0
1.332120254E1,6.372285385E-1,1.975850183E0,3.661812955E0,4.209384548E0
1.333114054E1,5.485783173E-1,2.307179149E0,4.629285656E0,5.201374768E0
1.334107854E1,4.706776173E-1,2.248699391E0,5.123789361E0,5.615283055E0
1.335101654E1,5.345650265E-1,1.941951535E0,5.106355888E0,5.489244573E0
1.336095454E1,5.952253573E-1,2.080492539E0,4.832498619E0,5.294882938E0
1.337089354E1,7.963030636E-1,2.255638867E0,4.531816664E0,5.124389480E0
1.338083154E1,1.215628971E0,2.352934781E0,4.216684484E0,4.979405981E0
1.339076954E1,1.629153272E0,2.533177543E0,3.960903883E0,4.975930909E0
1.340070754E1,1.844395858E0,2.580178047E0,3.732424516E0,4.897969743E0
1.341064554E1,1.702391694E0,2.596613985E0,3.476231686E0,4.660979339E0
1.342058354E1,1.372620572E0,2.602245439E0,3.273896974E0,4.401609928E0
1.343052154E1,9.829227984E-1,2.543766850E0,3.096611735E0,4.126244206E0
1.344046054E1,6.355082877E-1,2.494872433E0,3.072794856E0,4.008781294E0
1.345039854E1,3.522859722E-1,2.545238010E0,3.178861009E0,4.087480795E0
1.346033654E1,3.851736367E-2,2.646785434E0,3.328173169E0,4.252492606E0
1.347027454E1,-1.466303346E-1,2.812833495E0,3.437866935E0,4.444374173E0
1.348021254E1,-1.672636968E-1,2.880833105E0,3.287378899E0,4.374246970E0
1.349015054E1,-2.749935289E-1,2.908367059E0,2.876137206E0,4.099559198E0
1.350008954E1,-6.118244331E-1,2.920050965E0,2.256597810E0,3.740756668E0
1.351002754E1,-8.823394333E-1,2.840154026E0,1.607540501E0,3.380707652E0
1.351996554E1,-1.052010429E0,2.603144740E0,1.150102295E0,3.034110046E0
1.352990354E1,-1.140972745E0,2.140983739E0,8.244234931E-1,2.562284971E0
1.353984154E1,-1.016906231E0,1.655217528E0,7.022348124E-1,2.065666255E0
1.354977954E1,-4.061782971E-1,1.122774748E0,1.160127347E0,1.664782089E0
1.355971854E1,7.101998895E-1,5.870446640E-1,2.467555411E0,2.633977036E0
1.356965654E1,1.467394728E0,2.063540876E-1,3.513393080E0,3.813103753E0
1.357959454E1,1.473609442E0,-9.707079649E-2,3.174079156E0,3.500817906E0
1.358953254E1,1.308741057E0,-2.841395974E-2,2.349743956E0,2.689778274E0
1.359947054E1,1.009337303E0,-4.173865324E-1,8.489461309E-1,1.383359260E0
1.360940854E1,8.507368407E-1,-1.134693713E0,-9.059225696E-1,1.682848388E0
1.361934654E1,7.617913350E-1,-1.473551554E0,-2.414619983E0,2.929517005E0
1.362928554E1,6.327342224E-1,-1.809910880E0,-3.209753019E0,3.738802540E0
1.363922354E1,3.715405610E-1,-2.457422771E0,-3.652107162E0,4.417562199E0
1.364916154E1,-4.047126925E-1,-3.211905963E0,-3.757131341E0,4.959452409E0
1.365909954E1,-1.676368661E0,-3.757618414E0,-3.616754896E0,5.478213579E0
1.366903754E1,-2.775861843E0,-3.907180250E0,-3.599988590E0,5.994279300E0
1.367897554E1,-3.410683521E0,-3.962972043E0,-3.990491379E0,6.577380249E0
1.368891454E1,-3.616191224E0,-4.040416660E0,-4.774694799E0,7.224923265E0
1.369885254E1,-3.575913264E0,-4.111721701E0,-5.734898241E0,7.910908219E0
1.370879054E1,-4.040968053E0,-4.326117464E0,-7.065533320E0,9.217726195E0
1.371872854E1,-4.198436202E0,-4.499154702E0,-8.487760354E0,1.048386071E1
1.372866654E1,-3.541899426E0,-4.643337100E0,-9.289535242E0,1.097274332E1
1.373860454E1,-2.781700872E0,-4.542415327E0,-9.425275429E0,1.082622804E1
1.374854254E1,-2.290340338E0,-4.466295104E0,-9.274895568E0,1.054595366E1
1.375848154E1,-1.887081555E0,-4.701947250E0,-9.162993894E0,1.047042701E1
1.376841954E1,-1.783047017E0,-5.191863815E0,-8.938367842E0,1.048947693E1
1.377835754E1,-2.186416020E0,-5.527527907E0,-8.366390283E0,1.026306320E1
1.378829554E1,-2.660638073E0,-5.561105543E0,-7.658126991E0,9.831164673E0
1.379823354E1,-2.802127828E0,-5.700462234E0,-6.974462351E0,9.433467821E0
1.380817154E1,-2.577131940E0,-6.023081188E0,-6.350155136E0,9.123792319E0
1.381811054E1,-2.155681008E0,-6.264030327E0,-5.779240016E0,8.791168962E0
1.382804854E1,-1.769374181E0,-6.323758466E0,-5.241417214E0,8.401967658E0
1.383798654E1,-1.640946813E0,-6.419741095E0,-4.414271257E0,7.961882498E0
1.384792454E1,-1.387475570E0,-6.451409615E0,-4.241309448E0,7.844391647E0
1.385786254E1,-1.369395394E0,-6.630044392E0,-4.210115138E0,7.972314712E0
1.386780054E1,-1.597913645E0,-6.899534960E0,-4.246167900E0,8.257533077E0
1.387773954E1,-1.823021800E0,-7.075419792E0,-4.327817250E0,8.492053689E0
1.388767754E1,-2.076838029E0,-7.132434822E0,-4.354520899E0,8.610849839E0
1.389761554E1,-2.170475340E0,-7.200306963E0,-4.448162888E0,8.737364399E0
1.390755354E1,-2.122916281E0,-7.248262902E0,-4.462880915E0,8.772764370E0
1.391749154E1,-1.930540986E0,-7.262923626E0,-4.453985546E0,8.735847717E0
1.392742954E1,-1.600842515E0,-7.237386496E0,-4.297432194E0,8.567985966E0
1.393736754E1,-1.308402064E0,-7.094679936E0,-4.071089984E0,8.283729414E0
1.394730654E1,-1.111260119E0,-6.935491244E0,-3.871572461E0,8.020287474E0
1.395724454E1,-9.508623688E-1,-6.829355509E0,-3.581916016E0,7.770093838E0
1.396718254E1,-9.725738114E-1,-6.657694706E0,-3.183575619E0,7.443517471E0
1.397712054E1,-1.148356024E0,-6.318156248E0,-2.830142423E0,7.017658161E0
1.398705829E1,-1.484128290E0,-5.758974736E0,-2.887101320E0,6.610883513E0
1.399699629E1,-2.007023151E0,-5.049570653E0,-3.374514692E0,6.396378281E0
1.400693529E1,-2.737289223E0,-4.211903801E0,-3.956148342E0,6.394059401E0
1.401687329E1,-3.466283818E0,-3.425960834E0,-4.440184947E0,6.592994275E0
1.402681129E1,-3.939340813E0,-2.685979321E0,-4.698610829E0,6.694014840E0
1.403674929E1,-4.298420373E0,-1.803117585E0,-4.731569245E0,6.641942355E0
1.404668729E1,-4.408123202E0,-7.758150047E-1,-4.284040608E0,6.195679383E0
1.405662529E1,-4.154521565E0,3.506236088E-1,-3.700282372E0,5.574502308E0
1.406656429E1,-3.402474908E0,1.417376769E0,-3.233821328E0,4.903406243E0
1.407650229E1,-2.207102299E0,2.245428459E0,-2.518476473E0,4.031869699E0
1.408644029E1,-9.927934831E-1,2.897202970E0,-1.583788526E0,3.447870364E0
1.409637829E1,-3.365350351E-1,3.491197050E0,-7.580517483E-1,3.588363850E0
1.410631629E1,-1.633302748E-1,3.960305713E0,-5.298863769E-2,3.964026477E0
1.411625429E1,3.449434774E-1,4.235209633E0,8.912530750E-1,4.341695370E0
1.412619229E1,9.851462021E-1,4.429224926E0,2.121176881E0,5.008786065E0
1.413613129E1,1.644350185E0,4.520874769E0,2.961238167E0,5.648993511E0
1.414606929E1,2.394158090E0,4.510104198E0,3.210906674E0,6.031828455E0
1.415600729E1,3.061490434E0,4.446014037E0,3.567226641E0,6.470306824E0
1.416594529E1,3.551413431E0,4.328166913E0,4.410109794E0,7.127035469E0
1.417588329E1,3.753804275E0,4.045087416E0,5.208097440E0,7.588020670E0
1.418582129E1,3.387146139E0,3.685905823E0,5.962906322E0,7.785557945E0
1.419576029E1,2.792364732E0,3.436690475E0,6.248866158E0,7.658751235E0
1.420569829E1,2.055513526E0,3.237625526E0,5.881235338E0,7.021131248E0
1.421563629E1,1.464262667E0,3.123478521E0,5.191398962E0,6.233041505E0
1.422557429E1,1.162638433E0,3.091127046E0,4.737771971E0,5.775229675E0
1.423551229E1,1.229798529E0,3.131098613E0,4.473596522E0,5.597253683E0
1.424545029E1,1.435863910E0,3.284627784E0,4.200654927E0,5.522317147E0
1.425538929E1,1.630596364E0,3.338086538E0,3.971525935E0,5.438261164E0
1.426532729E1,1.571064108E0,3.251313858E0,3.717815248E0,5.182801795E0
1.427526529E1,1.317918846E0,3.104575642E0,3.395016784E0,4.785544793E0
1.428520329E1,9.328741407E-1,2.905472102E0,3.096488943E0,4.347443625E0
1.429514129E1,4.925128748E-1,2.760547108E0,2.860956665E0,4.006028246E0
1.430507929E1,5.805641949E-2,2.587758377E0,2.690289888E0,3.733299298E0
1.431501829E1,-1.992450428E-1,2.450761038E0,2.545137438E0,3.538877340E0
1.432495629E1,-2.526339224E-1,2.487675680E0,2.446618286E0,3.498327489E0
1.433489429E1,-1.098453547E-1,2.599427081E0,2.397565409E0,3.537994777E0
1.434483229E1,9.648680583E-2,2.682038882E0,2.350257341E0,3.567401273E0
1.435477029E1,2.267836744E-1,2.718609123E0,2.313512853E0,3.576955147E0
1.436470829E1,2.651193358E-1,2.713009830E0,2.217692776E0,3.514096164E0
1.437464729E1,3.009642296E-1,2.698239763E0,2.153884451E0,3.465587326E0
1.438458529E1,4.072986236E-1,2.770272782E0,2.159960293E0,3.536344429E0
1.439452329E1,4.723300405E-1,2.840605431E0,2.229303008E0,3.641692845E0
1.440446129E1,3.839943995E-1,2.795058544E0,2.342422072E0,3.666980383E0
1.441439929E1,3.223264472E-1,2.673439382E0,2.428802989E0,3.626328230E0
1.442433729E1,3.738053338E-1,2.599641089E0,2.521201860E0,3.640648711E0
1.443427529E1,4.601599382E-1,2.588474076E0,2.733670966E0,3.792743356E0
1.444421429E1,4.531769009E-1,2.551016813E0,2.990302337E0,3.956635459E0
1.445415229E1,4.847224832E-1,2.477239569E0,3.247418443E0,4.113076502E0
1.446409029E1,4.820080595E-1,2.382516430E0,3.444145675E0,4.215549281E0
1.447402829E1,4.751087835E-1,2.352353568E0,3.579795815E0,4.309783492E0
1.448396629E1,4.021375787E-1,2.233638718E0,3.469294549E0,4.145703948E0
1.449390429E1,3.187239777E-1,2.115270608E0,3.237393976E0,3.880293092E0
1.450384329E1,1.399487212E-1,2.046808484E0,2.934983000E0,3.580940634E0
1.451378129E1,-7.360416591E-2,2.039460288E0,2.658868706E0,3.351775445E0
1.452371929E1,-1.329805943E-1,2.048108904E0,2.446369194E0,3.193298633E0
1.453365729E1,-1.187443784E-1,2.059973490E0,2.306466959E0,3.094734372E0
1.454359529E1,-1.414403459E-1,2.077615709E0,2.169839163E0,3.007439841E0
1.455353329E1,-1.230116764E-1,2.115879303E0,2.008988693E0,2.920293250E0
1.456347229E1,-6.226305261E-2,2.162669308E0,1.841975257E0,2.841458792E0
1.457341029E1,-8.803728685E-2,2.099445704E0,1.565049954E0,2.620077133E0
1.458334829E1,-2.239875358E-1,2.028420160E0,1.369485149E0,2.457671323E0
1.459328629E1,-3.729088095E-1,2.015573827E0,1.322934296E0,2.439621688E0
1.460322429E1,-4.832323202E-1,1.991547618E0,1.319048821E0,2.437142832E0
1.461316229E1,-4.941942416E-1,1.928439204E0,1.303360156E0,2.379464942E0
1.462310029E1,-4.414902171E-1,1.884069947E0,1.311625196E0,2.337732626E0
1.463303929E1,-3.664476362E-1,1.847803177E0,1.439444745E0,2.370793459E0
1.464297729E1,-2.271273445E-1,1.831108207E0,1.745020235E0,2.539614088E0
1.465291529E1,3.226961374E-2,1.810897890E0,2.033158159E0,2.722889016E0
1.466285329E1,3.281015959E-1,1.825101947E0,2.264275205E0,2.926702919E0
1.467279129E1,6.062495515E-1,1.751030588E0,2.471083036E0,3.088672532E0
1.468272929E1,8.426549654E-1,1.621224740E0,2.619832694E0,3.194050781E0
1.469266829E1,9.569456658E-1,1.561619393E0,2.734554480E0,3.291229002E0
1.470260629E1,1.150087385E0,1.636890600E0,2.911294175E0,3.532385257E0
1.471254429E1,1.498068637E0,1.814574620E0,3.140954679E0,3.924600233E0
1.472248229E1,1.875547630E0,1.954133624E0,3.411500670E0,4.355990582E0
1.473242029E1,2.181100024E0,2.198927307E0,3.576486291E0,4.731144978E0
1.474235829E1,2.199431922E0,2.513296425E0,3.646955180E0,4.945143252E0
1.475229729E1,2.123303513E0,2.660101883E0,3.597095972E0,4.952136839E0
1.476223529E1,2.191061048E0,2.696272759E0,3.430405887E0,4.882450190E0
1.477217329E1,2.260966411E0,2.782879964E0,3.187914838E0,4.797831908E0
1.478211129E1,2.306954909E0,2.922018553E0,3.183244666E0,4.898293579E0
1.479204929E1,2.333638677E0,2.961989534E0,3.314937412E0,5.020763042E0
1.480198729E1,2.360713040E0,2.968510349E0,3.335116153E0,5.050546456E0
1.481192629E1,2.346269833E0,2.970101377E0,3.144375300E0,4.920729656E0
1.482186429E1,2.223339286E0,2.936089293E0,2.629497849E0,4.525275335E0
1.483180229E1,1.911625243E0,2.898270087E0,1.917230676E0,3.966113215E0
1.484174029E1,1.516315750E0,2.677457589E0,1.123397477E0,3.275670082E0
1.485167829E1,1.130404195E0,2.264023190E0,4.062662977E-1,2.562941075E0
1.486161629E1,7.157679006E-1,1.777362354E0,-1.337252373E-1,1.920735033E0
1.487155429E1,2.336445048E-1,1.199244050E0,-5.556872159E-1,1.342223650E0
1.488149329E1,-3.102026841E-1,4.508396226E-1,-8.341801572E-1,9.976665802E-1
1.489143129E1,-9.313325223E-1,-3.818185043E-1,-1.047076694E0,1.452423919E0
1.490136929E1,-1.502111109E0,-1.137012134E0,-1.053059565E0,2.158255968E0
1.491130729E1,-1.876951254E0,-1.836577692E0,-8.117911685E-1,2.748630301E0
1.492124529E1,-1.908080661E0,-2.446496079E0,-3.090545833E-1,3.117952791E0
1.493118329E1,-1.741745210E0,-2.903595146E0,3.327223581E-1,3.402241219E0
1.494112229E1,-1.401220035E0,-3.310467215E0,9.936284655E-1,3.729598946E0
1.495106029E1,-1.078586170E0,-3.648715192E0,1.375936382E0,4.045945082E0
1.496099829E1,-9.941681635E-1,-3.768503591E0,1.433144370E0,4.152576602E0
1.497093629E1,-1.214034582E0,-3.737668299E0,1.165966376E0,4.099209908E0
1.498087467E1,-1.640271752E0,-3.760772987E0,4.895879513E-1,4.132021448E0
1.499081267E1,-2.081344770E0,-3.839598716E0,-5.248753130E-1,4.398864450E0
1.500075167E1,-2.555292882E0,-3.801396518E0,-1.837998565E0,4.935420542E0
1.501068967E1,-3.202038202E0,-3.783477141E0,-3.266632394E0,5.936213871E0
1.502062767E1,-3.956820772E0,-3.824522840E0,-4.698348874E0,7.235875049E0
1.503056567E1,-4.568472859E0,-3.877295716E0,-5.954001013E0,8.447158954E0
1.504050367E1,-5.121814756E0,-3.926746788E0,-7.060251530E0,9.565535970E0
1.505044167E1,-5.615669421E0,-3.903851430E0,-7.987139291E0,1.051523624E1
1.506038067E1,-6.130320293E0,-3.818474481E0,-8.839492595E0,1.141482385E1
1.507031867E1,-6.574560748E0,-3.746425089E0,-9.697795440E0,1.230072300E1
1.508025667E1,-6.954247942E0,-3.864050018E0,-1.044888315E1,1.313284456E1
1.509019467E1,-7.185590106E0,-4.052254348E0,-1.067008098E1,1.348718276E1
1.510013267E1,-7.231467944E0,-4.077888542E0,-1.050261322E1,1.338761323E1
1.511007067E1,-6.853168294E0,-4.040364035E0,-1.006154371E1,1.282673454E1
1.512000967E1,-6.220768533E0,-4.079818708E0,-9.390920114E0,1.198049508E1
1.512994767E1,-5.671731355E0,-4.168485301E0,-8.752021757E0,1.123132633E1
1.513988567E1,-5.294587115E0,-4.362795294E0,-8.239396945E0,1.072167419E1
1.514982367E1,-5.074069317E0,-4.553495800E0,-7.675820081E0,1.026638775E1
1.515976167E1,-5.028458696E0,-4.755822911E0,-7.146865166E0,9.948916027E0
1.516969967E1,-5.009391510E0,-4.921191525E0,-6.677396899E0,9.690188784E0
1.517963767E1,-4.808424755E0,-4.962801481E0,-6.520637725E0,9.501003289E0
1.518957667E1,-4.358870643E0,-4.898980876E0,-6.273847218E0,9.075292051E0
1.519951467E1,-3.842121790E0,-4.860224361E0,-5.748197733E0,8.451358345E0
1.520945267E1,-3.466570916E0,-4.799976990E0,-4.864688711E0,7.663033947E0
1.521939067E1,-3.238583008E0,-4.660570598E0,-3.969781126E0,6.925929568E0
1.522932867E1,-3.276347250E0,-4.486784917E0,-3.186237271E0,6.404513888E0
1.523926667E1,-3.693101991E0,-4.569222472E0,-2.699524981E0,6.465619184E0
1.524920567E1,-4.073524180E0,-4.847389723E0,-2.943167932E0,6.982336561E0
1.525914367E1,-4.636383591E0,-5.158696069E0,-3.260728460E0,7.664238255E0
1.526908167E1,-5.228462123E0,-5.508043231E0,-3.371075360E0,8.309001473E0
1.527901967E1,-5.440359371E0,-5.594303110E0,-3.268196524E0,8.460191835E0
1.528895767E1,-5.331437438E0,-5.446690736E0,-2.736669711E0,8.098149556E0
1.529889567E1,-4.940446991E0,-5.275645060E0,-2.241000947E0,7.567201102E0
1.530883467E1,-4.549627283E0,-4.916401486E0,-1.929579996E0,6.970895993E0
1.531877267E1,-4.400836110E0,-4.374269285E0,-1.723212167E0,6.439802048E0
1.532871067E1,-4.396061566E0,-3.864758701E0,-1.723005761E0,6.101677307E0
1.533864867E1,-4.717706081E0,-3.172674070E0,-1.717462893E0,5.939047921E0
1.534858667E1,-5.398379871E0,-2.002340993E0,-1.857538791E0,6.049985540E0
1.535852467E1,-6.233007925E0,-6.842914617E-1,-2.339577402E0,6.692702370E0
1.536846367E1,-6.935988257E0,2.558004820E-1,-2.994276690E0,7.559038291E0
1.537840167E1,-6.785082731E0,7.430875540E-1,-3.094738287E0,7.494460076E0
1.538833967E1,-5.167868596E0,1.334108909E0,-2.074299460E0,5.726205608E0
1.539827767E1,-1.980941938E0,1.981469357E0,4.021200371E-1,2.830556889E0
1.540821567E1,1.916638938E0,2.241575729E0,3.907266789E0,4.895395830E0
1.541815367E1,5.211657810E0,2.188369575E0,7.047729133E0,9.034424412E0
1.542809267E1,7.225385671E0,1.877642103E0,8.724824018E0,1.148278242E1
1.543803067E1,7.848378432E0,1.902446576E0,9.032400425E0,1.211612993E1
1.544796867E1,7.179927662E0,2.344984907E0,9.055285258E0,1.179188308E1
1.545790667E1,5.844766254E0,2.628526334E0,9.043738761E0,1.108420742E1
1.546784467E1,4.660245493E0,2.586602383E0,8.694485155E0,1.019816023E1
1.547778267E1,3.634885942E0,2.511823511E0,7.844985293E0,9.003635233E0
1.548772167E1,3.250207565E0,2.293411880E0,6.467128100E0,7.592584088E0
1.549765967E1,3.393726304E0,2.003758943E0,4.986273959E0,6.355734113E0
1.550759767E1,3.647752156E0,1.838591473E0,3.719933694E0,5.524891047E0
1.551753567E1,3.778847900E0,1.750448205E0,2.867235990E0,5.056164811E0
1.552747367E1,3.772311882E0,1.443337237E0,2.456818753E0,4.727527652E0
1.553741167E1,3.578548312E0,1.093464410E0,1.952696963E0,4.220746127E0
1.554734967E1,3.242623726E0,9.293716586E-1,1.286589757E0,3.610215162E0
1.555728867E1,3.111377416E0,9.009910280E-1,7.095069945E-1,3.315999764E0
1.556722667E1,3.102516545E0,9.765008014E-1,3.270353562E-1,3.268962351E0
1.557716467E1,3.042486691E0,9.970198506E-1,3.114776695E-1,3.216798437E0
1.558710267E1,2.889196962E0,9.225654995E-1,6.081063348E-1,3.093279732E0
1.559704067E1,2.651442157E0,8.361892605E-1,9.440926087E-1,2.936097554E0
1.560697967E1,2.525370048E0,8.579759860E-1,1.107210630E0,2.887824796E0
1.561691767E1,2.435035829E0,9.888998222E-1,1.007327322E0,2.814610218E0
1.562685567E1,2.328463014E0,1.055045280E0,8.030834949E-1,2.679515563E0
1.563679367E1,2.527557199E0,1.010627491E0,8.765590221E-1,2.859767305E0
1.564673167E1,2.918278966E0,9.874731016E-1,1.075011767E0,3.262990277E0
1.565666967E1,3.228731034E0,1.013829426E0,1.465597002E0,3.687889473E0
1.566660767E1,3.210433927E0,1.136304621E0,2.223254063E0,4.067054563E0
1.567654667E1,3.098872561E0,1.164689929E0,2.900437649E0,4.401369371E0
1.568648467E1,2.998970835E0,1.170078138E0,3.302826658E0,4.612111539E0
1.569642267E1,2.670001512E0,1.249049463E0,3.531149905E0,4.599788287E0
1.570636067E1,2.227716073E0,1.270332159E0,3.707134724E0,4.507694594E0
1.571629867E1,1.889454063E0,1.341640123E0,3.802801604E0,4.453238699E0
1.572623667E1,1.810051214E0,1.585264948E0,3.780020851E0,4.480837867E0
1.573617567E1,1.928125793E0,1.803676579E0,3.735182648E0,4.574112776E0
1.574611367E1,2.089401941E0,1.945917701E0,3.582121253E0,4.580806571E0
1.575605167E1,2.068253147E0,2.085638089E0,3.388958484E0,4.484707005E0
1.576598967E1,1.957698671E0,2.166385798E0,3.074685261E0,4.240224164E0
1.577592767E1,1.854863105E0,2.313770716E0,2.878816400E0,4.132993579E0
1.578586567E1,1.769377397E0,2.542012101E0,2.850925766E0,4.209548624E0
1.579580467E1,1.591821723E0,2.667169998E0,2.796965321E0,4.179797508E0
1.580574267E1,1.404991196E0,2.678780229E0,2.821231266E0,4.136328038E0
1.581568067E1,1.315797476E0,2.651078460E0,3.002344093E0,4.215875954E0
1.582561867E1,1.254003224E0,2.691129549E0,3.182715493E0,4.352514244E0
1.583555667E1,1.263105000E0,2.713650684E0,3.205343633E0,4.385608519E0
1.584549467E1,1.120123328E0,2.696985535E0,2.991678772E0,4.180735476E0
1.585543367E1,8.808540943E-1,2.683073840E0,2.634099900E0,3.861770507E0
1.586537167E1,7.871890086E-1,2.696365730E0,2.363292539E0,3.670859070E0
1.587530967E1,6.813427109E-1,2.655169757E0,2.084701365E0,3.443854542E0
1.588524767E1,5.280173144E-1,2.596087151E0,1.728282580E0,3.163136333E0
1.589518567E1,3.350159284E-1,2.515301435E0,1.519504237E0,2.957679852E0
1.590512367E1,3.517223006E-1,2.470453876E0,1.829413683E0,3.094124327E0
1.591506267E1,5.305091053E-1,2.438943231E0,2.479842165E0,3.518451528E0
1.592500067E1,6.772280252E-1,2.425818570E0,3.010602116E0,3.925169886E0
1.593493867E1,8.709486187E-1,2.492538224E0,3.437539490E0,4.334509897E0
1.594487667E1,1.096627169E0,2.548628225E0,3.880553784E0,4.770408227E0
1.595481467E1,1.175454068E0,2.558638659E0,4.039837786E0,4.924288110E0
1.596475267E1,1.133514329E0,2.571660993E0,3.833473173E0,4.753294812E0
1.597469167E1,1.170349741E0,2.612225466E0,3.516704358E0,4.534385289E0
1.598462954E1,1.304978081E0,2.683182013E0,3.262780833E0,4.421331504E0
1.599456754E1,1.554429949E0,2.731176544E0,3.162275966E0,4.458202224E0
1.600450554E1,1.743907510E0,2.879674771E0,3.058756860E0,4.548596896E0
1.601444354E1,1.818910038E0,3.072633473E0,2.934270809E0,4.621629081E0
1.602438154E1,1.950090567E0,3.086615919E0,2.850795373E0,4.632179326E0
1.603432054E1,1.991849334E0,3.030952181E0,2.937545249E0,4.667259044E0
1.604425854E1,1.913813271E0,3.039858660E0,3.001889180E0,4.681320386E0
1.605419654E1,1.799306955E0,3.022522250E0,3.202711802E0,4.757153472E0
1.606413454E1,1.662375104E0,2.985428098E0,3.677267146E0,5.019817286E0
1.607407254E1,1.482536093E0,2.959634861E0,4.155567048E0,5.312823097E0
1.608401054E1,1.489235541E0,2.829304517E0,4.321811575E0,5.375950319E0
1.609394954E1,1.499628674E0,2.674332837E0,4.271096334E0,5.257680685E0
1.610388754E1,1.438956210E0,2.510296803E0,4.025553038E0,4.957545993E0
1.611382554E1,1.347252281E0,2.423196679E0,3.693890780E0,4.618636157E0
1.612376354E1,1.220939851E0,2.487624224E0,3.280202612E0,4.294030458E0
1.613370154E1,1.219506406E0,2.669359195E0,3.060718017E0,4.240361914E0
1.614363954E1,1.218694228E0,2.915488383E0,3.079586982E0,4.412385308E0
1.615357854E1,8.952253810E-1,3.111715677E0,3.024046619E0,4.430469602E0
1.616351654E1,5.321705917E-1,3.185381824E0,2.901405948E0,4.341430568E0
1.617345454E1,3.436332625E-1,3.194763681E0,2.759268322E0,4.235346559E0
1.618339254E1,2.061354017E-1,3.119655612E0,2.536005256E0,4.025675794E0
1.619333054E1,-2.070285639E-1,2.896349861E0,2.164559128E0,3.621742614E0
1.620326854E1,-9.363488486E-1,2.606669442E0,1.847501460E0,3.329374775E0
1.621320754E1,-1.764273947E0,2.383540862E0,1.734246156E0,3.435336858E0
1.622314554E1,-2.176245958E0,2.074773377E0,1.863402963E0,3.537372137E0
1.623308354E1,-2.079096808E0,1.353045117E0,1.862362744E0,3.101897744E0
1.624302154E1,-1.933988212E0,2.637936258E-1,1.145498198E0,2.263197650E0
1.625295954E1,-2.222566431E0,-9.731860149E-1,2.040619791E-2,2.426377747E0
1.626289754E1,-2.832797059E0,-2.024817690E0,-9.712020546E-1,3.614949417E0
1.627283654E1,-3.419345879E0,-2.707844399E0,-1.781585798E0,4.711517323E0
1.628277454E1,-3.848644359E0,-2.995836727E0,-2.331367326E0,5.405772351E0
1.629271254E1,-3.786649840E0,-3.073024944E0,-2.614974242E0,5.533560301E0
1.630265054E1,-3.216611218E0,-3.031573447E0,-2.723716081E0,5.191883530E0
1.631258854E1,-2.609885995E0,-2.802851713E0,-2.754612184E0,4.717559848E0
1.632252654E1,-2.071610618E0,-2.610895517E0,-2.827119997E0,4.370463755E0
1.633246454E1,-1.770704130E0,-2.531737958E0,-2.994433980E0,4.302525429E0
1.634240354E1,-1.786206853E0,-2.530384328E0,-3.258818175E0,4.495917666E0
1.635234154E1,-2.269805501E0,-2.568989984E0,-3.660484468E0,5.015064615E0
1.636227954E1,-3.026161557E0,-2.765509932E0,-4.268027131E0,5.917918092E0
1.637221754E1,-3.731410024E0,-3.059571962E0,-4.899738675E0,6.876906314E0
1.638215554E1,-4.442084123E0,-3.382547012E0,-5.505782112E0,7.841388417E0
1.639209454E1,-5.102624779E0,-3.615084347E0,-6.107788632E0,8.741321207E0
1.640203254E1,-5.720000705E0,-3.767674456E0,-6.643243897E0,9.541827306E0
1.641197054E1,-6.108274536E0,-3.975456433E0,-6.908792857E0,1.004224529E1
1.642190854E1,-6.562782117E0,-4.206527871E0,-7.018224667E0,1.048906399E1
1.643184654E1,-6.984810753E0,-4.374085683E0,-7.044842362E0,1.084204827E1
1.644178454E1,-7.168330879E0,-4.539002892E0,-7.063914226E0,1.104021735E1
1.645172354E1,-7.068634098E0,-4.669468891E0,-6.881560035E0,1.091445813E1
1.646166154E1,-6.876850103E0,-4.661492119E0,-6.553155845E0,1.058132448E1
1.647159954E1,-6.683912451E0,-4.639910046E0,-6.307611964E0,1.029511630E1
1.648153754E1,-6.310050253E0,-4.696280129E0,-5.975999992E0,9.878479496E0
1.649147554E1,-5.669802943E0,-4.743466575E0,-5.492769719E0,9.209650360E0
1.650141354E1,-4.859994566E0,-4.698887402E0,-4.937463741E0,8.371238749E0
1.651135154E1,-4.143836364E0,-4.586447200E0,-4.345388425E0,7.555744721E0
1.652129054E1,-3.707211907E0,-4.548721549E0,-3.746115187E0,6.961872366E0
1.653122854E1,-3.735817071E0,-4.679367058E0,-3.301817429E0,6.837748429E0
1.654116654E1,-3.910927146E0,-4.962030818E0,-2.927947045E0,6.963474340E0
1.655110454E1,-4.021037818E0,-5.240295718E0,-2.521058604E0,7.070019860E0
