"Time (s)","Linear Acceleration x (m/s^2)","Linear Acceleration y (m/s^2)","Linear Acceleration z (m/s^2)","Absolute acceleration (m/s^2)"
5.652583335E-3,2.503499415E0,-6.737585798E-1,8.214221174E-1,2.719594499E0
1.559158333E-2,1.693275885E0,-1.810868070E0,1.255305984E0,2.778888177E0
2.552958333E-2,8.671222007E-1,-2.446818261E0,-2.829058349E-1,2.611293975E0
3.546858333E-2,5.649591458E-1,-2.930526544E0,-1.733146879E0,3.451226270E0
4.540658333E-2,8.949324355E-1,-3.689931046E0,-2.257940916E0,4.417555021E0
5.534558334E-2,1.108795517E0,-4.206006884E0,-2.318974153E0,4.929255778E0
6.528458333E-2,7.769818166E-1,-3.757190106E0,-2.639830171E0,4.657132333E0
7.522258333E-2,6.214426643E-1,-2.130809584E0,-2.433404163E0,3.293629653E0
8.516158333E-2,9.230309379E-1,-1.246842724E-1,-2.220118786E0,2.407583790E0
9.509958333E-2,6.373082069E-1,5.544850284E-1,-2.586402408E0,2.720862513E0
1.050385833E-1,6.245475358E-1,7.060659081E-1,-2.640649366E0,2.803857658E0
1.149775833E-1,9.375276473E-1,4.865514922E-1,-2.067668425E0,2.321840469E0
1.249155833E-1,1.060913838E0,-4.074135214E-2,-1.254458722E0,1.643430776E0
1.348545833E-1,5.444576383E-1,-2.812630597E-1,-9.339985603E-1,1.117092807E0
1.447925833E-1,-1.691853842E-1,-6.101856047E-1,-1.164148477E0,1.325213885E0
1.547315833E-1,-3.011406693E-1,-8.307642138E-1,-1.720044438E0,1.933754832E0
1.646695833E-1,3.823377371E-2,-8.409652662E-1,-2.622549310E0,2.754350974E0
1.746085833E-1,5.973609066E-1,-8.039713946E-1,-3.489879672E0,3.630767161E0
1.845475833E-1,7.862812284E-1,-6.549188510E-1,-3.833363246E0,3.967597591E0
1.944855833E-1,4.706798100E-1,-6.215370968E-1,-3.822333643E0,3.901036058E0
2.044245833E-1,3.075483406E-1,-6.555026954E-1,-2.970382043E0,3.057358214E0
2.143625833E-1,4.732979009E-1,-3.614090905E-1,-2.059857715E0,2.144211099E0
2.243015833E-1,4.360189775E-1,1.601873964E-2,-2.266657945E0,2.308269349E0
2.342405833E-1,1.157061651E-1,5.399640530E-2,-2.686381609E0,2.689414375E0
2.441785833E-1,-2.815978128E-1,1.799480617E-2,-2.875789297E0,2.889599491E0
2.541175833E-1,-5.615385246E-1,-2.020213008E-2,-2.900893732E0,2.954812699E0
2.640555833E-1,-6.482875237E-1,3.452780843E-4,-2.948378386E0,3.018809689E0
2.739945833E-1,-7.927090725E-1,-7.534312785E-2,-2.885574612E0,2.993426983E0
2.839335833E-1,-7.991091424E-1,-2.720387846E-2,-2.709297432E0,2.824820003E0
2.938715833E-1,-7.957233122E-1,-2.128094137E-2,-2.783552978E0,2.895133097E0
3.038105833E-1,-7.833263379E-1,-6.422727853E-2,-2.890062350E0,2.995026825E0
3.137485833E-1,-7.664164826E-1,-1.710143933E-1,-2.966455638E0,3.068631486E0
3.236875833E-1,-7.135711017E-1,-2.751641214E-1,-2.879400537E0,2.979235886E0
3.336265833E-1,-7.987890074E-1,-3.788586438E-1,-2.689360766E0,2.830946675E0
3.435645833E-1,-8.901976526E-1,-5.148566937E-1,-2.466757851E0,2.672531304E0
3.535035833E-1,-1.019141037E0,-5.404464483E-1,-2.176784486E0,2.463558710E0
3.634415833E-1,-1.018776463E0,-5.356154788E-1,-2.099519379E0,2.394320581E0
3.733805833E-1,-9.934457400E-1,-5.622191405E-1,-2.188363727E0,2.468189742E0
3.833195833E-1,-9.513820401E-1,-5.510661614E-1,-2.383456078E0,2.624817055E0
3.932575833E-1,-7.236078474E-1,-5.325187933E-1,-2.601923257E0,2.752669471E0
4.031965833E-1,-5.438957208E-1,-6.272097731E-1,-2.881496764E0,2.998706097E0
4.131345833E-1,-5.963648334E-1,-7.944769782E-1,-3.279107428E0,3.426279354E0
4.230735833E-1,-8.097604305E-1,-1.130511784E0,-3.561731427E0,3.823571578E0
4.330125833E-1,-1.081031183E0,-1.637414510E0,-3.758237050E0,4.239587293E0
4.429505833E-1,-1.509966551E0,-2.416561258E0,-4.270609261E0,5.133991699E0
4.528895833E-1,-1.959662459E0,-3.431179474E0,-4.811386662E0,6.225970699E0
4.628275833E-1,-2.406539423E0,-4.701513972E0,-5.036415002E0,7.298023136E0
4.727665833E-1,-2.160658450E0,-5.170890437E0,-5.051432991E0,7.544768261E0
4.827045833E-1,-1.538074409E0,-4.467953959E0,-4.877187719E0,6.790820680E0
4.926435833E-1,-1.184941760E0,-3.259685317E0,-4.516216877E0,5.694370046E0
5.025825833E-1,-1.367677774E0,-2.452702314E0,-4.404761345E0,5.223812175E0
5.125205833E-1,-2.338303294E0,-2.029937512E0,-4.446048535E0,5.418086025E0
5.224595833E-1,-3.815484214E0,-2.225174289E0,-3.989709021E0,5.952066740E0
5.323975833E-1,-5.065013734E0,-2.807926512E0,-2.701883748E0,6.390539195E0
5.423365833E-1,-5.575087990E0,-3.526275666E0,-1.156540080E0,6.697298793E0
5.522755833E-1,-5.970100152E0,-4.982171552E0,3.312892056E-1,7.782922442E0
5.622135833E-1,-7.802432765E0,-6.518467239E0,1.639999272E0,1.029844502E1
5.721525833E-1,-1.007633249E1,-8.386442140E0,1.643477196E0,1.321233914E1
5.820905833E-1,-1.158775470E1,-9.403126177E0,5.294604072E-1,1.493235311E1
5.920295833E-1,-1.127929069E1,-7.879668052E0,1.400545558E-1,1.375976680E1
6.019685833E-1,-7.900650786E0,-4.481311923E0,4.057276230E-1,9.092142448E0
6.119065833E-1,-2.975736923E0,-3.044206649E-1,3.544688840E-1,3.012196934E0
6.218455833E-1,6.225460339E-1,3.695020462E0,8.079695745E-1,3.833217267E0
6.317835833E-1,3.005707412E0,5.601243755E0,1.270417382E0,6.482450846E0
6.417225833E-1,3.988127350E0,5.207747777E0,-9.306602387E-1,6.625098123E0
6.516615833E-1,4.902579837E0,4.346811930E0,-3.061072358E0,7.231889587E0
6.616006250E-1,5.428246279E0,4.180104888E0,-2.407184079E0,7.261795214E0
6.715396250E-1,5.440199742E0,4.283657323E0,-6.138827261E-1,6.951427572E0
6.814776250E-1,5.631502512E0,4.760949749E0,1.261188283E0,7.481380818E0
6.914166250E-1,5.862770416E0,5.372827538E0,2.407730209E0,8.308821665E0
7.013556250E-1,6.643207060E0,6.308415372E0,2.435858824E0,9.479541801E0
7.112936250E-1,7.572156549E0,7.277418873E0,1.911535488E0,1.067484652E1
7.212326250E-1,8.238307024E0,8.059594479E0,1.388829492E0,1.160842854E1
7.311706250E-1,8.646931504E0,8.573872883E0,9.539722104E-1,1.221436792E1
7.411096250E-1,8.708184012E0,8.954306767E0,1.181046272E0,1.254619260E1
7.510486250E-1,8.784467372E0,9.193468997E0,1.831867175E0,1.284688587E1
7.609866250E-1,8.737466283E0,9.240464239E0,2.141707478E0,1.289637187E1
7.709256250E-1,8.333438299E0,9.141997712E0,2.009593441E0,1.253238931E1
7.808636250E-1,7.913075534E0,9.104283171E0,1.416948752E0,1.214547159E1
7.908026250E-1,7.520977040E0,9.214807241E0,3.124157090E-1,1.189854494E1
8.007416250E-1,7.078009524E0,9.368297821E0,-5.912329515E-1,1.175639312E1
8.106796250E-1,6.499412332E0,9.800742103E0,-8.680003794E-1,1.179196044E1
8.206186250E-1,5.582551961E0,1.004704144E1,-1.445158060E0,1.158431742E1
8.305566250E-1,4.805978865E0,9.641557505E0,-1.284100013E0,1.084923854E1
8.404956250E-1,4.505577284E0,9.289709489E0,2.738110757E-1,1.032830584E1
8.504346250E-1,4.447580798E0,8.999463059E0,1.867553902E0,1.021073297E1
8.603726250E-1,4.413291264E0,8.817735690E0,2.849183296E0,1.026389049E1
8.703116250E-1,4.371813162E0,8.686413074E0,3.247579826E0,1.025247761E1
8.802496250E-1,4.346141839E0,8.655269049E0,3.209364763E0,1.020307078E1
8.901886250E-1,4.371260308E0,8.680965807E0,2.931862925E0,1.015199016E1
9.001276250E-1,4.338885444E0,8.718352320E0,2.698849043E0,1.010541341E1
9.100656250E-1,4.300505198E0,8.801914878E0,2.433642730E0,1.009409072E1
9.200046250E-1,4.310663273E0,8.982307913E0,2.073403959E0,1.017657493E1
9.299426250E-1,4.390214350E0,9.144509676E0,1.877191136E0,1.031600144E1
9.398816250E-1,4.391934601E0,9.196363953E0,1.880648010E0,1.036335064E1
9.498206250E-1,4.179899066E0,9.130630724E0,1.776472993E0,1.019783457E1
9.597586250E-1,3.714763001E0,9.041998630E0,1.830618356E0,9.945268570E0
9.696976250E-1,3.070247809E0,9.025953285E0,2.605170801E0,9.883378431E0
9.796356250E-1,2.291591350E0,8.324446451E0,1.977049739E0,8.857568814E0
9.895746250E-1,5.278129542E-1,5.883952539E0,-1.957693409E0,6.223507651E0
9.995136250E-1,-1.652332804E0,3.767529445E0,-1.216592154E-1,4.115735994E0
1.009451625E0,-3.484813937E0,1.174736615E0,2.479127051E0,4.435087961E0
1.019390625E0,-7.761655453E0,-4.737825181E0,-3.234769746E0,9.651632925E0
1.029328625E0,-1.784000698E1,-1.759550449E1,-1.321018397E1,2.832625263E1
1.039267625E0,-2.361964987E1,-2.731400960E1,-1.137519438E1,3.785945097E1
1.049206625E0,-1.418489845E1,-2.914074994E1,-1.144549428E1,3.437141240E1
1.059144625E0,-4.454179673E0,-2.596746834E1,-1.900108392E1,3.248369312E1
1.069083625E0,-7.625371474E-1,-2.049981417E1,-7.888795556E0,2.197855635E1
1.079021625E0,-7.186678272E-1,-1.651649206E1,1.376359486E1,2.151156752E1
1.088960625E0,-6.271636970E0,-1.383530512E1,6.447393748E0,1.650205999E1
1.098899625E0,-6.912455553E0,-6.516770961E0,-7.196553635E0,1.191808415E1
1.108837625E0,-1.094230103E0,7.132250050E0,-4.225653529E0,8.361966159E0
1.118776625E0,3.014045249E0,2.242047950E1,4.732888961E0,2.311195811E1
1.128714625E0,-2.016461142E0,1.458405044E1,2.873247512E0,1.500053979E1
1.138653625E0,-6.962499533E0,6.112381035E-1,-3.576589202E0,7.851242073E0
1.148592625E0,-5.844242928E0,-5.469277360E0,-4.555474498E0,9.209805544E0
1.158530625E0,-3.324840841E0,-8.249556482E0,-5.350699335E0,1.037977515E1
1.168469625E0,-3.168290120E0,-9.747128398E0,-6.284135394E0,1.202226817E1
1.178408625E0,-3.080907575E0,-7.638719498E0,-3.838862552E0,9.087292927E0
1.188346625E0,-2.369950764E0,-2.514995626E0,-2.230973557E0,4.113284896E0
1.198285625E0,-1.004160763E0,6.936879373E-1,-2.757137012E0,3.015185947E0
1.208223625E0,-5.336908677E-1,7.886701083E-1,-2.381589646E0,2.564916319E0
1.218162625E0,-5.090954322E-1,-1.876614162E-1,-2.517242126E0,2.575053958E0
1.228101625E0,2.533694144E0,-3.152807570E0,-2.307885493E0,4.656837665E0
1.238039625E0,2.289233752E0,-3.198009763E0,-2.262577173E0,4.537302401E0
1.247978625E0,6.002927005E-1,-2.390285041E0,-3.028998041E0,3.904951093E0
1.257916625E0,-4.117126867E-1,-1.217400531E0,-2.879566013E0,3.153327102E0
1.267855625E0,-2.929259160E-1,2.556142482E-1,-2.380403246E0,2.411941925E0
1.277794625E0,3.134633839E-2,1.863617556E0,-2.051218454E0,2.771560956E0
1.287732625E0,2.834253600E-1,2.646819933E0,-1.705947971E0,3.161683756E0
1.297671625E0,6.836979693E-1,2.401817212E0,-1.340741991E0,2.834388456E0
1.307609625E0,1.281581325E0,2.192892688E0,-1.167766734E0,2.795515727E0
1.317548625E0,1.422589561E0,2.364305277E0,-1.544467755E0,3.162132374E0
1.327487625E0,1.589275261E0,1.829374215E0,-1.955703017E0,3.114029570E0
1.337425625E0,2.663992621E0,1.726666702E0,-1.699573336E0,3.600942114E0
1.347364625E0,3.307705868E0,1.985405118E0,-1.299829023E0,4.070909859E0
1.357302625E0,2.976797316E0,2.191218630E0,-1.258765782E0,3.904773058E0
1.367241625E0,2.415866317E0,2.466861054E0,-9.289290243E-1,3.575573052E0
1.377180625E0,1.816732242E0,2.758914565E0,-6.527083111E-1,3.367217510E0
1.387118625E0,1.453209091E0,2.795517258E0,-7.791104954E-1,3.245573380E0
1.397057625E0,1.428670081E0,2.492573015E0,-1.031048892E0,3.052389270E0
1.406996625E0,1.687751728E0,1.974407967E0,-1.234780503E0,2.876017317E0
1.416934625E0,1.853181153E0,1.697016641E0,-1.609155502E0,2.983877896E0
1.426873625E0,1.795472058E0,1.621677899E0,-2.001886665E0,3.140240331E0
1.436811625E0,1.677382276E0,1.599863107E0,-2.171461766E0,3.176227237E0
1.446750625E0,1.640539847E0,1.594808481E0,-2.191746342E0,3.168365053E0
1.456689625E0,1.340220127E0,1.544445243E0,-2.070689682E0,2.910198766E0
1.466627625E0,7.702101561E-1,1.453355564E0,-1.939919627E0,2.543374577E0
1.476566625E0,2.835715404E-1,1.311517899E0,-1.784036951E0,2.232326110E0
1.486504625E0,-3.197175658E-1,1.102825218E0,-1.880344686E0,2.203211048E0
1.496443625E0,-9.569921511E-1,8.443534353E-1,-2.346354910E0,2.670982602E0
1.506382625E0,-1.432647357E0,5.896013591E-1,-2.455748713E0,2.903585706E0
1.516320625E0,-1.971554818E0,5.030505806E-1,-2.564860096E0,3.273926633E0
1.526259625E0,-2.383233883E0,5.015361518E-2,-2.662305114E0,3.573539933E0
1.536197625E0,-2.666368929E0,-9.512998867E-1,-2.876381035E0,4.035847197E0
1.546136625E0,-2.991126795E0,-2.185414392E0,-3.455030851E0,5.065581285E0
1.556075625E0,-3.218194644E0,-3.291889442E0,-3.902929325E0,6.035409694E0
1.566013625E0,-3.271271574E0,-4.070757862E0,-4.117111080E0,6.650029393E0
1.575952625E0,-3.218622660E0,-4.873964733E0,-4.439772719E0,7.336664490E0
1.585890625E0,-3.169270990E0,-5.820017329E0,-4.511555477E0,8.016920427E0
1.595829625E0,-2.923235066E0,-6.877176962E0,-4.777930648E0,8.869582149E0
1.605768625E0,-1.979312904E0,-6.166677110E0,-5.168194871E0,8.285881026E0
1.615706625E0,-1.300900233E0,-4.439083332E0,-5.152182856E0,6.924073254E0
1.625645625E0,-1.595116337E0,-3.521421307E0,-5.525088449E0,6.743248959E0
1.635584625E0,-2.225364323E0,-3.052593895E0,-5.857968682E0,6.970392596E0
1.645522625E0,-3.708250957E0,-3.488007978E0,-5.267641976E0,7.325665622E0
1.655461625E0,-5.508357811E0,-4.592210800E0,-3.477482405E0,7.970149916E0
1.665399250E0,-6.701705528E0,-5.977222645E0,-1.470394642E0,9.099566360E0
1.675338250E0,-7.694395516E0,-7.877640238E0,-3.044879079E-1,1.101606331E1
1.685277250E0,-8.478027079E0,-9.658232009E0,1.173151142E0,1.290483135E1
1.695215250E0,-8.818095294E0,-1.101755996E1,2.296543941E0,1.429753637E1
1.705154250E0,-8.543945664E0,-1.104142712E1,2.003787010E0,1.410415835E1
1.715092250E0,-8.161284576E0,-9.121673375E0,4.236050463E-1,1.224707852E1
1.725031250E0,-6.572045860E0,-5.421954675E0,-2.037310266E-1,8.522375585E0
1.734970250E0,-2.847256638E0,-1.052767789E0,4.222603329E-1,3.064880776E0
1.744908250E0,4.763007385E-1,2.487825953E0,1.816197953E0,3.116843816E0
1.754847250E0,1.979483643E0,3.805925771E0,2.376014911E0,4.903965061E0
1.764785250E0,2.075040010E0,3.652225860E0,1.755571536E0,4.552644967E0
1.774724250E0,2.813763787E0,3.723522715E0,1.141640790E0,4.804709331E0
1.784663250E0,3.467783629E0,4.123937704E0,1.516333877E0,5.597468527E0
1.794601250E0,4.431740983E0,4.929484631E0,1.549494606E0,6.807428325E0
1.804540250E0,5.361820740E0,6.146622915E0,-8.009749889E-2,8.156991511E0
1.814479250E0,6.305760736E0,7.624977372E0,-3.130288188E0,1.037793826E1
1.824417250E0,6.671052085E0,8.743165564E0,-4.025004569E0,1.171095819E1
1.834356250E0,6.146904750E0,9.336193099E0,-1.326112403E0,1.125644321E1
1.844294250E0,6.625014617E0,1.088260154E1,8.982865445E-1,1.277218673E1
1.854233250E0,7.168546641E0,1.245473891E1,2.267269564E0,1.454816461E1
1.864172250E0,6.674132983E0,1.117275208E1,1.502577717E0,1.310084653E1
1.874110250E0,6.827703670E0,1.004868334E1,-2.639339225E-1,1.215167624E1
1.884049250E0,7.383241197E0,9.974813129E0,-6.971273426E-1,1.242960716E1
1.893987250E0,8.054681649E0,1.010908742E1,3.074232101E-2,1.292565240E1
1.903926250E0,8.423242176E0,9.986597607E0,8.039920791E-1,1.308929119E1
1.913865250E0,8.365926014E0,9.820804485E0,1.450783081E0,1.298236074E1
1.923803250E0,8.033210673E0,9.652580091E0,1.711021600E0,1.267408265E1
1.933742250E0,7.606822937E0,9.535829905E0,1.708660494E0,1.231727762E1
1.943681250E0,7.110028877E0,9.421057833E0,1.451582980E0,1.189184319E1
1.953619250E0,6.516776224E0,9.296800407E0,9.591900464E-1,1.139381041E1
1.963558250E0,5.818420454E0,9.193625118E0,4.415033734E-1,1.088906261E1
1.973496250E0,5.112919972E0,9.088535450E0,5.539425530E-2,1.042815879E1
1.983435250E0,4.466874855E0,9.015751648E0,-4.457811964E-1,1.007151774E1
1.993374250E0,3.985283849E0,8.873133965E0,-1.173326778E0,9.797534866E0
2.003312250E0,3.851559196E0,8.669018192E0,-1.287189682E0,9.573047682E0
2.013251250E0,3.995219730E0,8.533273326E0,-3.653153229E-1,9.429315438E0
2.023189250E0,4.120321493E0,8.476201578E0,8.681641746E-1,9.464499534E0
2.033128250E0,4.138070424E0,8.465536841E0,1.893523725E0,9.611158772E0
2.043067250E0,4.066585874E0,8.348799520E0,2.489484808E0,9.614421912E0
2.053005250E0,3.891207119E0,8.179814987E0,2.828646705E0,9.489578929E0
2.062944250E0,3.638313873E0,7.980712616E0,2.920053889E0,9.244231521E0
2.072883250E0,3.545929912E0,7.796052284E0,2.874033962E0,9.033942736E0
2.082821250E0,3.597562872E0,7.671556292E0,3.215659876E0,9.062874985E0
2.092760250E0,3.646062310E0,7.680308404E0,3.917257926E0,9.360866264E0
2.102698250E0,3.580189333E0,7.661263438E0,4.565650992E0,9.610300833E0
2.112637250E0,3.098709423E0,7.470915518E0,4.257307431E0,9.140090007E0
2.122576250E0,2.290385069E0,6.746097005E0,2.267646271E0,7.476490365E0
2.132514250E0,7.756243855E-2,3.910330145E0,-4.788839506E0,6.183015574E0
2.142453250E0,-4.338731078E0,-6.959911555E-1,-6.520108552E0,7.862620847E0
2.152392250E0,-6.805009457E0,-5.605302892E0,-9.646335849E-1,8.868939744E0
2.162330250E0,-1.180542549E1,-1.346576576E1,-5.128664770E0,1.862788557E1
2.172269250E0,-2.200963542E1,-2.770808153E1,-1.070547067E1,3.696983819E1
2.182207250E0,-2.886807790E1,-4.018572866E1,-1.391742341E1,5.139993564E1
2.192146250E0,-2.023831967E1,-3.942087543E1,-1.357957363E1,4.634651899E1
2.202085250E0,-8.208013185E0,-2.417786718E1,-6.062153453E-1,2.554032574E1
2.212023250E0,-1.080718942E0,-7.184020713E0,1.144078845E1,1.355248122E1
2.221962250E0,7.848066775E0,1.590928093E1,8.072951859E0,1.949025202E1
2.231900250E0,1.506001613E1,3.081319628E1,2.631904855E0,3.439744284E1
2.241839250E0,4.829988117E0,1.108697693E1,1.134446375E0,1.214647321E1
2.251778250E0,-1.403043196E0,-4.052108753E0,1.402957535E-1,4.290431034E0
2.261716250E0,-5.455788419E-1,-6.944732768E0,-1.180051149E0,7.065372616E0
2.271655250E0,-2.491019118E0,-8.912176409E0,-6.938865087E0,1.156632670E1
2.281594250E0,-7.937958945E0,-1.338929003E1,-2.606011864E1,3.035480297E1
2.291532250E0,-5.739112329E0,-1.422184466E1,-1.274081160E1,1.993806801E1
2.301471250E0,-1.716438168E0,-5.505106759E0,1.252097032E1,1.378503022E1
2.311409250E0,-6.297331975E0,2.690168851E0,-6.193809945E0,9.233454396E0
2.321348250E0,-8.180633597E0,5.060337131E0,-4.673751392E0,1.069456544E1
2.331287250E0,-3.229525086E0,5.436523013E0,1.219401156E0,6.439918783E0
2.341225250E0,-2.872964214E0,2.732680740E0,-9.570488691E-2,3.966185426E0
2.351164250E0,-2.817331758E0,-1.000243128E0,-1.523140036E0,3.355264538E0
2.361103250E0,-8.316158608E-1,-3.398099144E0,-2.294555596E0,4.183736143E0
2.371041250E0,6.201513067E-1,-3.665411039E0,-3.078625699E0,4.826775521E0
2.380980250E0,1.962553322E0,-3.329112816E0,-3.428474552E0,5.166144156E0
2.390918250E0,1.465920061E0,-2.267491466E0,-4.461446008E0,5.214876763E0
2.400857250E0,5.137422144E-1,-7.658244520E-1,-3.965226145E0,4.071048579E0
2.410796250E0,-2.690289304E-1,1.097276795E0,-2.165851947E0,2.442807317E0
2.420734250E0,-8.353633413E-1,2.912113370E0,-1.050095612E0,3.206390024E0
2.430673250E0,-1.038473101E0,3.618760491E0,-4.929945391E-1,3.796958979E0
2.440612250E0,-6.270387420E-1,2.923692611E0,-1.894363385E-1,2.996171256E0
2.450550250E0,-2.235422704E-1,2.044287018E0,-1.265337467E-1,2.060361946E0
2.460489250E0,3.903987086E-1,1.376137234E0,-2.736882842E-1,1.456389410E0
2.470427250E0,1.237498289E0,1.015108651E0,-6.287949532E-1,1.719660048E0
2.480366250E0,1.763933931E0,1.183640755E0,-1.226485643E0,2.452903460E0
2.490305250E0,1.890341086E0,1.476465806E0,-1.337314353E0,2.746224750E0
2.500243250E0,1.500992245E0,2.059059716E0,-7.908107740E-1,2.667974197E0
2.510182250E0,1.338205761E0,2.324683082E0,-1.493367183E-1,2.686493541E0
2.520120250E0,1.518321345E0,1.767225768E0,3.011719519E-1,2.349274604E0
2.530059250E0,1.242806391E0,1.348438535E0,6.389252543E-2,1.834921378E0
2.539998250E0,1.098802041E0,9.468526407E-1,-3.959032774E-1,1.503540905E0
2.549936250E0,9.427521345E-1,9.393888161E-1,-6.175326312E-1,1.467167163E0
2.559875250E0,8.570272753E-1,1.140083091E0,-6.518575412E-1,1.568184766E0
2.569814250E0,7.625602439E-1,1.356765116E0,-4.503765231E-1,1.620231069E0
2.579752250E0,5.086022195E-1,1.360472251E0,-5.652889287E-1,1.558561046E0
2.589691250E0,5.083312011E-1,1.233964232E0,-7.275035548E-1,1.519976894E0
2.599629250E0,7.982107177E-1,1.002072283E0,-8.456126332E-1,1.535040695E0
2.609568250E0,1.001721889E0,6.966419506E-1,-9.493264514E-1,1.545955194E0
2.619507250E0,1.101144728E0,5.125854890E-1,-1.026872225E0,1.590512547E0
2.629445250E0,1.207892666E0,5.091942501E-1,-1.054882727E0,1.682575718E0
2.639384250E0,1.092826479E0,6.021790123E-1,-1.053987519E0,1.633333697E0
2.649323250E0,1.004697537E0,7.724813609E-1,-1.113311614E0,1.686892808E0
2.659261458E0,8.554014570E-1,9.734691663E-1,-1.040617860E0,1.661998616E0
2.669200458E0,8.401101109E-1,1.126934457E0,-1.101507840E0,1.785801162E0
2.679138458E0,8.746697867E-1,1.133701148E0,-1.107218816E0,1.810043931E0
2.689077458E0,8.936156425E-1,1.122801645E0,-8.847527254E-1,1.685829124E0
2.699016458E0,9.630931360E-1,1.030581991E0,-9.136572665E-1,1.680600259E0
2.708954458E0,7.839899969E-1,9.722694638E-1,-1.075814005E0,1.648430769E0
2.718893458E0,7.421332884E-1,9.875497001E-1,-1.032146414E0,1.609764718E0
2.728832458E0,7.499355206E-1,1.014126465E0,-8.264407825E-1,1.507932405E0
2.738770458E0,6.092643759E-1,1.153472923E0,-9.533966982E-1,1.615756209E0
2.748709458E0,3.000077713E-1,1.298356986E0,-1.064792004E0,1.705730793E0
2.758647458E0,1.993590635E-1,1.475258064E0,-1.072928989E0,1.835022345E0
2.768586458E0,2.861408070E-1,1.517476130E0,-1.073459331E0,1.880671503E0
2.778525458E0,1.317675894E-1,1.494680760E0,-1.069491411E0,1.842619101E0
2.788463458E0,-1.049136668E-1,1.451446155E0,-1.234201044E0,1.908128674E0
2.798402458E0,-4.182124516E-1,1.430814547E0,-1.535315693E0,2.139936027E0
2.808341458E0,-7.821621573E-1,1.574421579E0,-1.931706043E0,2.611909108E0
2.818279458E0,-1.114275528E0,1.707589869E0,-2.085890688E0,2.916918421E0
2.828218458E0,-1.430012017E0,1.690847829E0,-2.227179884E0,3.140737331E0
2.838156458E0,-1.542268032E0,1.562330414E0,-2.944294690E0,3.672647306E0
2.848095458E0,-1.699516618E0,1.343372945E0,-3.618428369E0,4.217348867E0
2.858034458E0,-1.991815713E0,9.152786994E-1,-3.777030585E0,4.367038467E0
2.867972458E0,-2.321869986E0,4.512881041E-3,-4.031708402E0,4.652501826E0
2.877911458E0,-2.550770645E0,-1.397686855E0,-4.687111695E0,5.516246502E0
2.887850458E0,-2.539232919E0,-2.434957768E0,-4.772571090E0,5.929094194E0
2.897788458E0,-2.110892798E0,-1.931746389E0,-4.123591549E0,5.019115438E0
2.907727458E0,-1.399239290E0,-1.052438591E0,-3.119563810E0,3.577314069E0
2.917665458E0,-1.063057135E0,-6.488088030E-1,-2.726573031E0,2.997539629E0
2.927604458E0,-1.577292269E0,-1.200014713E0,-3.041221061E0,3.630001619E0
2.937543458E0,-3.043312025E0,-2.883315248E0,-2.856238546E0,5.072805292E0
2.947481458E0,-4.627398174E0,-4.913643354E0,-1.494600946E0,6.913070003E0
2.957420458E0,-5.543058697E0,-7.342955636E0,2.383021045E-1,9.203330108E0
2.967359458E0,-6.438369155E0,-1.024833301E1,1.644413043E0,1.221413203E1
2.977297458E0,-6.615110604E0,-1.418977035E1,1.346413790E0,1.571375515E1
2.987236458E0,-6.815192968E0,-1.764607706E1,1.635622923E0,1.898699958E1
2.997174458E0,-8.711684740E0,-1.874916716E1,2.004747415E0,2.077122366E1
3.007113458E0,-1.041916293E1,-1.675045085E1,1.803735197E0,1.980883693E1
3.017052458E0,-8.210347978E0,-1.258723097E1,2.384557839E0,1.521625162E1
3.026990458E0,-3.745190157E0,-6.670127056E0,3.157673038E0,8.275744273E0
3.036929458E0,-3.664973375E-1,-1.411454124E0,2.199489955E0,2.638992063E0
3.046868458E0,1.566364700E0,2.038344054E0,2.798116346E-1,2.585853710E0
3.056806458E0,1.942308215E0,4.696633301E0,-4.063113213E0,6.506905143E0
3.066745458E0,1.419816227E0,6.292722030E0,-7.682975904E0,1.003206596E1
3.076683458E0,2.153337736E0,6.601387773E0,-5.564111012E0,8.898006254E0
3.086622458E0,3.515139351E0,6.218776971E0,-7.870096453E-1,7.186708277E0
3.096561458E0,4.688486083E0,5.929587134E0,1.186292540E0,7.651744593E0
3.106499458E0,5.024489021E0,6.243411875E0,6.612910004E-1,8.041329962E0
3.116438458E0,5.072145583E0,7.247145499E0,3.100332610E-1,8.851208919E0
3.126377458E0,5.381900078E0,9.089119002E0,-4.815272722E-1,1.057396809E1
3.136315458E0,6.072376724E0,1.110846545E1,-9.599559586E-1,1.269619152E1
3.146254458E0,5.908703803E0,1.137267306E1,8.320554252E-1,1.284300547E1
3.156192458E0,5.232185630E0,1.041510730E1,2.081807870E0,1.183993879E1
3.166131458E0,5.068144333E0,1.010516043E1,2.857796245E0,1.166050401E1
3.176070458E0,5.113993521E0,1.025646649E1,2.840953925E0,1.180758459E1
3.186008458E0,5.209877332E0,1.032050870E1,2.101740736E0,1.175044833E1
3.195947458E0,5.251442850E0,1.036258761E1,1.118671757E0,1.167100255E1
3.205886458E0,5.238471386E0,1.034492902E1,4.997382060E-1,1.160641534E1
3.215824458E0,5.062357929E0,1.019425328E1,1.480492345E-1,1.138297792E1
3.225763458E0,4.783696588E0,1.005737114E1,1.641080276E-1,1.113828527E1
3.235701458E0,4.520754609E0,9.927378176E0,3.214096038E-1,1.091299060E1
3.245640458E0,4.239559377E0,9.804681373E0,6.951006246E-1,1.070461608E1
3.255579458E0,4.031647591E0,9.779541854E0,1.278793080E0,1.065499568E1
3.265517458E0,3.833547433E0,9.772685409E0,1.877482474E0,1.066425836E1
3.275456458E0,3.560597360E0,9.880744293E0,2.569253694E0,1.081240149E1
3.285395458E0,3.236168400E0,1.004752910E1,3.120785294E0,1.100749417E1
3.295333458E0,2.906223762E0,1.006256814E1,3.060189428E0,1.091174475E1
3.305272458E0,2.598996141E0,1.006176239E1,2.633602302E0,1.072052725E1
3.315211458E0,2.302737604E0,1.010736249E1,2.211937216E0,1.059971902E1
3.325149458E0,2.039780715E0,1.020018470E1,1.990210944E0,1.059081739E1
3.335088458E0,1.816641464E0,1.029324782E1,2.124265526E0,1.066600398E1
3.345026458E0,1.603283582E0,1.041121071E1,2.528002757E0,1.083303396E1
3.354965458E0,1.324956555E0,1.052294282E1,2.899619039E0,1.099525470E1
3.364904458E0,9.366502726E-1,1.059982084E1,3.110874263E0,1.108652580E1
3.374842458E0,4.966164507E-1,1.062427390E1,3.275656986E0,1.112887022E1
3.384781458E0,2.359453842E-2,1.047983831E1,3.294141204E0,1.098539640E1
3.394720458E0,-4.431291917E-1,9.598963462E0,2.474551020E0,9.922694482E0
3.404658458E0,-9.914395604E-1,7.814413710E0,5.070329730E-1,7.893357744E0
3.414597458E0,-2.204547943E0,5.898138469E0,-1.868150318E-1,6.299441950E0
3.424535458E0,-4.125447455E0,8.161759955E-1,-3.956424916E0,5.773972469E0
3.434474458E0,-6.936297575E0,-1.226103235E1,-1.678334144E1,2.191177054E1
3.444413458E0,-4.905840830E0,-2.135670959E1,-8.222114915E0,2.340468954E1
3.454351458E0,-2.674552107E0,-2.418793375E1,1.097383565E1,2.669521374E1
3.464290458E0,-5.100364246E0,-2.447603308E1,1.900666918E1,3.140610425E1
3.474229458E0,-6.202204792E0,-2.336434640E1,2.054581772E0,2.426069524E1
3.484167458E0,-3.772643420E0,-3.981802416E0,-2.061518675E1,2.133245212E1
3.494106458E0,-7.816197696E0,-2.252800629E0,-1.848601672E1,2.019655593E1
3.504045458E0,-5.213848761E0,-5.499495771E0,9.871724378E0,1.244506387E1
3.513983458E0,5.413352251E-1,-5.127356747E0,5.055965168E0,7.221192064E0
3.523922458E0,5.777721494E-2,-8.297530548E0,-5.859889492E0,1.015828018E1
3.533860458E0,-2.524693233E0,-1.196797458E1,-8.722405025E0,1.502287725E1
3.543799458E0,-1.888338707E0,-1.045871583E1,-1.943502216E0,1.080406224E1
3.553738458E0,5.410266383E-1,-6.077866091E0,4.501173161E0,7.582461728E0
3.563676458E0,-1.350873754E0,-6.328830925E0,-3.409979224E0,7.314842383E0
3.573615458E0,-3.732899018E0,-4.428502210E0,-3.601303044E0,6.820230972E0
3.583553458E0,-4.847588236E0,-2.451439900E0,-1.180853387E0,5.559054237E0
3.593492458E0,-5.248673608E0,-1.241395458E0,-3.167848948E0,6.254990350E0
3.603431458E0,-4.157911196E0,-3.485846847E-1,-4.973373247E0,6.491854762E0
3.613369458E0,-2.280981723E0,-1.561663247E0,-4.541676823E0,5.316812775E0
3.623308458E0,-5.453557706E-1,-3.479570446E0,-2.915151583E0,4.571972458E0
3.633247458E0,4.808908027E-1,-4.568323170E0,-1.207900268E0,4.749721635E0
3.643185458E0,7.232476589E-1,-4.398541662E0,-1.339129329E0,4.654409016E0
3.653124458E0,8.197875282E-1,-3.309926348E0,-2.890748228E0,4.470356735E0
3.663062958E0,1.045829191E0,-1.531899750E0,-3.415369772E0,3.886544252E0
3.673000958E0,1.227413304E0,-6.300959587E-3,-3.435898762E0,3.648559088E0
3.682939958E0,1.035393519E0,2.027106875E-1,-3.349629527E0,3.511858387E0
3.692877958E0,5.423868468E-1,-9.540200114E-2,-3.018455511E0,3.068282697E0
3.702816958E0,1.086456522E-2,-6.230792999E-3,-2.239391794E0,2.239426817E0
3.712755958E0,-1.873292944E-1,-6.108586192E-3,-2.142365436E0,2.150548591E0
3.722693958E0,-7.855968118E-2,-3.667315185E-2,-2.090685405E0,2.092482260E0
3.732632958E0,-4.266976386E-2,2.501298523E-1,-2.012583561E0,2.028516266E0
3.742571958E0,-9.245675862E-2,8.087652344E-1,-2.256149329E0,2.398511883E0
3.752509958E0,-7.512502670E-2,1.370827085E0,-2.326102493E0,2.701030077E0
3.762448958E0,-4.211661726E-2,1.506187204E0,-2.168511261E0,2.640608791E0
3.772386958E0,2.297914821E-1,1.253968726E0,-1.742679595E0,2.159206767E0
3.782325958E0,4.880346385E-1,1.065725219E0,-1.333938171E0,1.775764369E0
3.792264958E0,6.547428498E-1,9.703021681E-1,-1.202303898E0,1.678007497E0
3.802202958E0,8.498696986E-1,9.393516862E-1,-1.101607243E0,1.678749121E0
3.812141958E0,9.565164801E-1,1.013017248E0,-8.250614244E-1,1.619214030E0
3.822080958E0,9.755836657E-1,1.079564994E0,-7.860183960E-1,1.653798350E0
3.832018958E0,8.471621454E-1,1.079946817E0,-9.943418258E-1,1.694899553E0
3.841957958E0,6.399242511E-1,1.011657770E0,-1.023425292E0,1.574913909E0
3.851895958E0,4.339554951E-1,1.051930468E0,-8.405027515E-1,1.414680161E0
3.861834958E0,2.315172878E-1,1.147834160E0,-7.629973233E-1,1.397600955E0
3.871773958E0,1.545308000E-1,1.230067647E0,-6.836196166E-1,1.415726656E0
3.881711958E0,1.862493137E-1,1.265300045E0,-4.630673200E-1,1.360185411E0
3.891650958E0,3.265716720E-1,1.283370280E0,-4.721772820E-1,1.405930197E0
3.901589958E0,5.135743994E-1,1.288850875E0,-5.249250144E-1,1.483388524E0
3.911527958E0,6.900486302E-1,1.197357738E0,-4.947001719E-1,1.467842268E0
3.921466958E0,8.733301896E-1,1.162712985E0,-3.965306836E-1,1.507263643E0
3.931405958E0,1.016943069E0,1.199855669E0,-4.755224741E-1,1.643151987E0
3.941343958E0,1.250312754E0,1.266247294E0,-6.687799680E-1,1.901034150E0
3.951282958E0,1.362978660E0,1.389250492E0,-9.228976214E-1,2.153942380E0
3.961220958E0,1.352853036E0,1.573458835E0,-1.146510351E0,2.370753051E0
3.971159958E0,1.280542859E0,1.644782002E0,-1.396146698E0,2.508849029E0
3.981098958E0,1.276593065E0,1.831918046E0,-1.531895072E0,2.707824974E0
3.991036958E0,1.320043432E0,1.781633161E0,-1.541662553E0,2.700639704E0
4.000975958E0,1.271119486E0,1.670984545E0,-1.832410381E0,2.786693723E0
4.010914958E0,1.220809166E0,1.587846494E0,-2.116884440E0,2.914246255E0
4.020852958E0,1.145525972E0,1.598646886E0,-2.259265310E0,2.995359972E0
4.030791958E0,1.103559920E0,1.670001628E0,-2.435820233E0,3.152771819E0
4.040730958E0,1.157076708E0,1.664049162E0,-2.568861638E0,3.272145510E0
4.050668958E0,1.215374033E0,1.575993603E0,-2.486771408E0,3.185109403E0
4.060607958E0,1.139406568E0,1.311716412E0,-2.671486997E0,3.186799343E0
4.070545958E0,7.563218495E-1,9.369239223E-1,-3.132620643E0,3.356063359E0
4.080484958E0,5.671857655E-2,3.328960204E-1,-3.466259260E0,3.482669954E0
4.090423958E0,-6.556488758E-1,-4.286242962E-1,-3.484732953E0,3.571688394E0
4.100361958E0,-1.312098235E0,-1.347543472E0,-3.407888845E0,3.892451871E0
4.110300958E0,-2.047512781E0,-2.221566557E0,-2.794010723E0,4.115113908E0
4.120239958E0,-2.553692499E0,-3.080845302E0,-1.781460668E0,4.380246028E0
4.130177958E0,-2.547988248E0,-3.930581392E0,-1.194494357E0,4.834100843E0
4.140116958E0,-2.337785523E0,-4.786114411E0,-1.895847993E0,5.653881138E0
4.150054958E0,-2.692139363E0,-6.097513320E0,-1.892544609E0,6.928853306E0
4.159993958E0,-2.915301564E0,-8.430041319E0,-2.084185640E0,9.160153362E0
4.169932958E0,-1.932138737E0,-1.140256871E1,-5.663210793E0,1.287725474E1
4.179870958E0,-9.599787627E-1,-1.395672372E1,-7.372019806E0,1.581323408E1
4.189809958E0,-1.659034590E0,-1.474147502E1,-2.669287274E0,1.507277599E1
4.199748958E0,-1.982761299E0,-1.189704084E1,1.959981132E0,1.221934733E1
4.209686958E0,-9.743750462E-1,-3.223566481E0,9.482660589E-1,3.498570580E0
4.219625958E0,3.652812628E-1,2.975281425E0,-1.023446926E-1,2.999367333E0
4.229564958E0,-1.225588680E0,-7.852915871E-1,3.240157663E0,3.552094054E0
4.239502958E0,-4.851930963E0,-7.261078244E0,4.680048258E0,9.907943432E0
4.249441958E0,-5.898596891E0,-1.029164568E1,2.973525214E0,1.222919737E1
4.259379958E0,-6.487265911E0,-1.305008136E1,2.035123408E0,1.471499133E1
4.269318958E0,-6.506955825E0,-1.406344008E1,2.268406116E0,1.566098616E1
4.279257958E0,-3.594613829E0,-1.088398149E1,2.466928589E0,1.172467647E1
4.289195958E0,-1.058331415E0,-4.699646956E0,2.628229880E0,5.487653341E0
4.299134958E0,-7.514052182E-2,-5.482431257E-1,1.580649595E0,1.674714831E0
4.309073958E0,5.997591421E-1,2.036246073E0,1.237387776E-1,2.126339668E0
4.319011958E0,1.515253604E0,3.938215517E0,-9.015168388E-1,4.314889054E0
4.328950958E0,2.366648256E0,5.508243790E0,-1.575272641E0,6.198649653E0
4.338889958E0,2.817213644E0,6.865891836E0,-1.739820306E0,7.622607042E0
4.348827958E0,2.981653721E0,7.915928975E0,-1.289866537E0,8.556631705E0
4.358766958E0,3.078289192E0,8.622601824E0,-8.177681192E-1,9.192054790E0
4.368705958E0,3.123535824E0,9.215595446E0,-6.630813447E-1,9.753120133E0
4.378643958E0,3.345310481E0,9.728149506E0,-4.063078129E-1,1.029529412E1
4.388582958E0,3.714064259E0,1.046589154E1,3.913950741E-1,1.111226120E1
4.398520958E0,4.156102653E0,1.128877019E1,9.332144487E-1,1.206567076E1
4.408459958E0,4.246768701E0,1.180358830E1,5.288292003E-1,1.255545305E1
4.418398958E0,4.334719303E0,1.194644396E1,4.524575472E-3,1.270855362E1
4.428336958E0,4.295855784E0,1.148966415E1,-1.721641751E-1,1.226769741E1
4.438275958E0,4.067980435E0,1.120932407E1,2.883956395E-2,1.192469047E1
4.448214958E0,3.951213877E0,1.144750807E1,7.870480176E-1,1.213577260E1
4.458152958E0,3.685809051E0,1.141359889E1,1.173596919E0,1.205125544E1
4.468091958E0,3.334004597E0,1.165922405E1,1.508766410E0,1.222004371E1
4.478030958E0,3.004889386E0,1.187936938E1,1.791121438E0,1.238373502E1
4.487968958E0,2.978876878E0,1.139972228E1,1.320521150E0,1.185627056E1
4.497907958E0,3.016228599E0,1.101276290E1,3.412948148E-1,1.142344361E1
4.507845958E0,2.911652901E0,1.084059515E1,-1.539970954E-1,1.122586036E1
4.517784958E0,2.753511153E0,1.072571841E1,1.902241047E-1,1.107515437E1
4.527723958E0,2.508388857E0,1.062916919E1,1.136008898E0,1.098006231E1
4.537661958E0,2.257978192E0,1.058081037E1,2.198454998E0,1.104016386E1
4.547600958E0,2.110431160E0,1.057991809E1,3.263787138E0,1.127124185E1
4.557539958E0,1.950680989E0,1.057605776E1,4.096727686E0,1.150831576E1
4.567477958E0,1.692105419E0,1.054219419E1,4.350833645E0,1.152956341E1
4.577416958E0,1.334752249E0,1.048081831E1,4.114484510E0,1.133834638E1
4.587355958E0,1.061914735E0,1.043170754E1,3.876392906E0,1.117920423E1
4.597293958E0,8.250580622E-1,1.038952105E1,3.793254855E0,1.109106176E1
4.607232958E0,5.656897554E-1,1.032577588E1,3.836890579E0,1.103011250E1
4.617171958E0,2.208562057E-1,1.014803806E1,3.925065129E0,1.088290358E1
4.627109958E0,-4.379608378E-2,9.601012326E0,4.160535427E0,1.046381435E1
4.637048958E0,-4.896981713E-1,8.422570916E0,3.367491601E0,9.084024704E0
4.646987958E0,-2.168005038E0,6.130701531E0,-5.646834496E-1,6.527221040E0
4.656925958E0,-6.544696094E0,-4.978424656E-1,-1.165281784E1,1.337419372E1
4.666864625E0,-8.346457710E0,-8.024664967E0,-1.612369248E1,1.985024089E1
4.676802625E0,-4.296444014E0,-1.103220139E1,-3.363051226E0,1.230768102E1
4.686741625E0,-2.060781282E0,-1.564478213E1,5.548768503E0,1.672706966E1
4.696680625E0,4.290131360E-2,-2.244446945E1,6.125871146E0,2.326547543E1
4.706618625E0,-8.710138151E-1,-2.692883713E1,3.540803073E0,2.717458778E1
4.716557625E0,-7.633565762E0,-3.256888360E1,-2.343141631E1,4.084158145E1
4.726496625E0,-1.203401420E1,-2.860753299E1,-2.560971464E1,4.023761828E1
4.736434625E0,-5.630252377E0,-1.670804451E1,-1.169151939E0,1.766990122E1
4.746373625E0,9.852052590E-1,-6.868366962E0,1.421611907E1,1.581907505E1
4.756312625E0,-4.377304575E-1,-1.420391008E0,5.674060886E0,5.865499596E0
4.766250625E0,-4.576122186E0,1.989351988E0,-1.166789430E1,1.269008168E1
4.776189625E0,-5.156888695E0,6.320277618E0,-4.461598620E0,9.297594981E0
4.786127625E0,-2.350995552E0,4.412256306E0,-1.628820273E0,5.258159496E0
4.796066625E0,-1.321758128E0,2.768188834E-1,-2.071755629E0,2.473023378E0
4.806005625E0,-3.600195289E0,-1.374420199E0,-1.787264029E0,4.247911218E0
4.815943625E0,-5.648158890E0,-1.526044348E0,-3.862527988E0,7.010679900E0
4.825882625E0,-4.473120851E0,-6.377043557E-1,-2.821487374E0,5.326937957E0
4.835821625E0,-2.823167864E0,-1.509300261E0,-6.735162127E-1,3.271374047E0
4.845759625E0,-1.565558369E0,-3.106597610E0,-7.352750891E-1,3.555636535E0
4.855698625E0,9.133350849E-3,-3.904146715E0,-1.949705527E0,4.363919870E0
4.865637625E0,1.743223386E0,-3.233510841E0,-2.470631631E0,4.427012625E0
4.875575625E0,2.210544263E0,-2.250143654E0,-1.975880004E0,3.722063163E0
4.885514625E0,1.211307440E0,-1.359782864E0,-1.397589791E0,2.295546204E0
4.895452625E0,1.007505370E0,-4.788086092E-1,-1.830870810E0,2.143924597E0
4.905391625E0,9.543316680E-1,2.996902674E-1,-1.595222756E0,1.882896394E0
4.915330625E0,9.291558963E-1,1.204228801E0,-1.455298301E0,2.105086894E0
4.925268625E0,5.095535615E-1,1.480800347E0,-1.432629231E0,2.122461075E0
4.935207625E0,7.525658906E-3,1.253964048E0,-1.560231848E0,2.001700749E0
4.945146625E0,-4.031728283E-1,7.604561234E-1,-1.357279671E0,1.607186968E0
4.955084625E0,-7.120812312E-1,2.666388810E-1,-1.268128343E0,1.478616065E0
4.965023625E0,-6.530024260E-1,7.966597438E-2,-1.371906481E0,1.521475017E0
4.974962625E0,-5.584406698E-1,1.925891572E-1,-1.357569108E0,1.480520330E0
4.984900625E0,-4.435636398E-1,3.986269104E-1,-1.227090245E0,1.364332286E0
4.994839625E0,-1.958998507E-1,6.350678462E-1,-1.172645066E0,1.347881438E0
5.004778625E0,2.657302237E-1,7.558865243E-1,-1.227211867E0,1.465614532E0
5.014716625E0,8.099539733E-1,6.301363045E-1,-9.718136734E-1,1.413336130E0
5.024655625E0,1.260536611E0,4.791027242E-1,-9.441902572E-1,1.646203878E0
5.034594625E0,1.440243182E0,3.093913829E-1,-9.670984787E-1,1.762186971E0
5.044532625E0,1.383910522E0,1.967599761E-1,-9.063014692E-1,1.665924721E0
5.054471625E0,1.094372191E0,2.146775991E-1,-9.542205709E-1,1.467744481E0
5.064409625E0,7.705995807E-1,3.784762359E-1,-9.564647323E-1,1.285259802E0
5.074348625E0,5.035288829E-1,5.187895310E-1,-9.137525761E-1,1.165172813E0
5.084287625E0,2.130380398E-1,6.952017814E-1,-8.479678917E-1,1.117022949E0
5.094225625E0,4.138542295E-2,8.554096431E-1,-9.307282126E-1,1.264789870E0
5.104164625E0,2.024569184E-2,8.850725681E-1,-9.583194691E-1,1.304660701E0
5.114103625E0,3.259793490E-2,9.173638165E-1,-9.503807044E-1,1.321303326E0
5.124041625E0,1.288708788E-1,9.719089830E-1,-8.828132039E-1,1.319308125E0
5.133980625E0,3.705743086E-1,9.780970913E-1,-8.318401015E-1,1.336397094E0
5.143919625E0,5.008032033E-1,9.292646545E-1,-9.340371519E-1,1.409525469E0
5.153857625E0,5.650453922E-1,8.942936271E-1,-1.098428112E0,1.524985804E0
5.163796625E0,6.920670891E-1,8.831166744E-1,-1.186201835E0,1.632766582E0
5.173734625E0,7.368535450E-1,9.724434185E-1,-1.172412931E0,1.692084936E0
5.183673625E0,6.050874174E-1,1.105534233E0,-1.154523375E0,1.709169666E0
5.193612625E0,4.184975034E-1,1.145936739E0,-1.148239957E0,1.675340613E0
5.203550625E0,1.630680272E-1,1.252625620E0,-1.171341137E0,1.722702001E0
5.213489625E0,-8.954718411E-2,1.371767317E0,-1.364497474E0,1.936909297E0
5.223428625E0,-3.183446395E-1,1.358156168E0,-1.741868001E0,2.231599342E0
5.233366625E0,-5.145321733E-1,1.240504927E0,-1.732598410E0,2.192143490E0
5.243305625E0,-6.027654880E-1,1.125605970E0,-1.797317147E0,2.204691353E0
5.253244625E0,-4.082154670E-1,7.705466634E-1,-1.751584319E0,1.956637334E0
5.263182625E0,-1.390356785E-1,2.053688318E-1,-1.722901973E0,1.740660359E0
5.273121625E0,-6.155714750E-2,-4.580071396E-1,-2.018363534E0,2.070591987E0
5.283060625E0,-1.552845061E-1,-1.134257510E0,-2.529637054E0,2.776637715E0
5.292998625E0,-1.429471734E-1,-1.713742894E0,-2.943828083E0,3.409321396E0
5.302937625E0,4.861272767E-2,-2.225633880E0,-3.106235082E0,3.821584194E0
5.312876625E0,1.344371358E-1,-2.755121477E0,-3.481964296E0,4.442166482E0
5.322814625E0,-1.201721223E-1,-3.425029373E0,-3.717715845E0,5.056350329E0
5.332753625E0,-6.340653411E-1,-4.079596514E0,-3.983626748E0,5.737109781E0
5.342691625E0,-1.065339595E0,-4.476173390E0,-4.455157328E0,6.404647023E0
5.352630625E0,-1.467533454E0,-4.653540491E0,-4.370832292E0,6.550821968E0
5.362569625E0,-1.814686009E0,-4.719773072E0,-3.658851925E0,6.241517490E0
5.372507625E0,-2.093975195E0,-4.714106535E0,-2.628870150E0,5.789515594E0
5.382446625E0,-2.236039000E0,-4.767195160E0,-2.693757872E0,5.914588031E0
5.392385625E0,-1.885025528E0,-4.551487282E0,-3.669702896E0,6.142969727E0
5.402323625E0,-2.306388752E0,-4.382887496E0,-2.769343367E0,5.674362922E0
5.412262625E0,-2.656066428E0,-2.192946775E0,-2.550734977E0,4.286018356E0
5.422201625E0,-2.345257680E0,-3.658315735E0,1.572465393E-1,4.348359930E0
5.432139625E0,-2.885484565E0,-9.203397569E0,3.366727662E0,1.021584079E1
5.442078625E0,-3.435339476E0,-1.341076919E1,1.621513884E0,1.393842154E1
5.452017625E0,-4.219459573E0,-1.686503523E1,7.660624337E-1,1.740172704E1
5.461955625E0,-4.634272746E0,-1.851739990E1,1.195870499E0,1.912591669E1
5.471894625E0,-3.750821026E0,-1.660021483E1,1.342867161E0,1.707158701E1
5.481833625E0,-1.956094341E0,-1.156261518E1,1.839724079E0,1.187033949E1
5.491771625E0,-2.699443120E-1,-5.977446009E0,2.479707094E0,6.477011502E0
5.501710625E0,5.080590132E-1,-1.366005471E0,2.224931337E0,2.659777126E0
5.511648625E0,7.643870603E-1,2.139791492E0,1.117350432E0,2.532087517E0
5.521587625E0,8.698240529E-1,4.123420810E0,-4.882379754E-1,4.242354226E0
5.531526625E0,9.883417055E-1,5.154470286E0,-1.304153624E0,5.407975586E0
5.541464625E0,1.180877215E0,6.113849271E0,-1.270298245E0,6.355098861E0
5.551403625E0,1.256595295E0,7.138134688E0,-7.908078504E-1,7.290910479E0
5.561342625E0,1.023187749E0,8.080031083E0,-3.413979085E-1,8.151709514E0
5.571280625E0,7.755751227E-1,8.907171192E0,-1.118817572E-1,8.941573292E0
5.581219625E0,7.029079731E-1,9.650415452E0,-7.963326652E-2,9.676308153E0
5.591158625E0,7.820821966E-1,1.027528985E1,-4.662807304E-2,1.030511563E1
5.601096625E0,9.532247901E-1,1.064204125E1,-6.628052831E-2,1.068485248E1
5.611035625E0,9.000861713E-1,1.090187631E1,-4.322004533E-1,1.094750471E1
5.620974625E0,9.252530260E-1,1.112395940E1,-7.379443431E-1,1.118673893E1
5.630912625E0,1.203026614E0,1.141408772E1,-8.284218192E-1,1.150716969E1
5.640851625E0,1.420569787E0,1.177846749E1,-3.054632965E-1,1.186775559E1
5.650790625E0,1.196256415E0,1.246357405E1,9.372841108E-1,1.255588344E1
5.660729375E0,1.908675177E-1,1.446751894E1,3.235598881E0,1.482614699E1
5.670668375E0,8.818916827E-3,1.547728045E1,2.718999717E0,1.571430073E1
5.680606375E0,1.148376928E0,1.403221829E1,-1.406957030E0,1.414925609E1
5.690545375E0,1.600176810E0,1.309928334E1,-3.243438828E0,1.358939606E1
5.700484375E0,1.572943110E0,1.275311765E1,-2.638333869E0,1.311781100E1
5.710422375E0,1.560728277E0,1.245638315E1,-1.363668923E0,1.262762633E1
5.720361375E0,1.705713059E0,1.197998359E1,-1.000223248E-1,1.210121764E1
5.730300375E0,1.779790411E0,1.174185222E1,7.573269128E-1,1.190009629E1
5.740238375E0,1.772980159E0,1.162860101E1,1.305071636E0,1.183516084E1
5.750177375E0,1.776574442E0,1.149912845E1,1.677190487E0,1.175581303E1
5.760116375E0,1.690058016E0,1.137265903E1,1.980453111E0,1.166687036E1
5.770054375E0,1.430969060E0,1.119682156E1,2.376233597E0,1.153529244E1
5.779993375E0,1.046871311E0,1.094110060E1,2.714123139E0,1.132122283E1
5.789932375E0,6.901301989E-1,1.070089347E1,2.934697655E0,1.111745704E1
5.799870375E0,4.684634230E-1,1.042633512E1,3.199493494E0,1.091625763E1
5.809809375E0,3.677441101E-1,1.008959982E1,3.492464726E0,1.068328461E1
5.819748375E0,3.250768313E-1,9.732072403E0,3.820243263E0,1.046007489E1
5.829686375E0,2.331451526E-1,9.391476184E0,4.145252559E0,1.026826667E1
5.839625375E0,9.040116996E-2,9.005996738E0,4.454741006E0,1.004792850E1
5.849564375E0,-4.899883394E-1,8.089063861E0,2.791598747E0,8.571234817E0
5.859502375E0,-2.478663074E0,4.931076828E0,-4.056759628E0,6.849568453E0
5.869441375E0,-6.996205807E0,-4.727605417E0,-1.797876843E1,1.986286140E1
5.879379375E0,-6.843921508E0,-1.434263177E1,-1.731002354E1,2.349866512E1
5.889318375E0,-2.657630850E0,-2.008609325E1,-8.756331155E-1,2.028006108E1
5.899257375E0,-2.660417048E0,-2.350013746E1,1.929915626E1,3.052526350E1
5.909195375E0,-3.196394177E0,-3.092822973E1,1.418580009E1,3.417615037E1
5.919134375E0,-3.287378315E0,-3.079529913E1,-2.178374929E0,3.104678118E1
5.929073375E0,-3.019227344E0,-1.585256411E1,-1.704147145E1,2.346979488E1
5.939011375E0,-3.912004496E0,-3.592310611E0,-1.160397722E1,1.276169119E1
5.948950375E0,-2.995847544E0,1.286157063E0,-7.143543363E-2,3.261043625E0
5.958889375E0,-1.032650736E0,-8.109409833E-1,-4.430942838E0,4.621390187E0
5.968827375E0,-1.652347714E0,-5.058291775E0,-9.107328401E0,1.054798555E1
5.978766375E0,2.918257624E-1,-5.229968365E0,-1.357038181E0,5.411033543E0
5.988705375E0,-6.323275486E-1,-4.263837601E0,1.081690457E0,4.444120100E0
5.998643375E0,-3.059635405E0,-4.689685639E0,-5.150712281E0,7.608176996E0
6.008582375E0,-3.808194198E0,-3.641279873E0,-3.441289895E0,6.293150110E0
6.018521375E0,-3.449371331E0,-1.631270841E0,-2.633603472E-1,3.824730815E0
6.028459375E0,-2.794884882E0,2.722575290E0,-1.350789846E0,4.128974560E0
6.038398375E0,-2.438720744E0,3.736204156E0,-2.730884768E0,5.231090898E0
6.048337375E0,-1.555264639E0,1.308830811E0,-2.743048146E0,3.414117649E0
6.058275375E0,-1.322733736E-1,-1.545828987E0,-2.018348331E0,2.545744191E0
6.068214375E0,1.336179408E0,-3.577581475E0,-1.473231711E0,4.093272077E0
6.078152375E0,2.134854687E0,-4.122498704E0,-1.469802904E0,4.869591428E0
6.088091375E0,2.072685336E0,-2.984734034E0,-1.098241001E0,3.796155299E0
6.098030375E0,1.662861593E0,-9.285179651E-1,-6.142336321E-1,2.001133989E0
6.107968375E0,8.603177959E-1,1.076423285E0,-5.876323092E-1,1.498047239E0
6.117907375E0,2.086289468E-1,2.314501033E0,-1.252026865E0,2.639699290E0
6.127846375E0,-3.898046315E-3,2.397824441E0,-1.540305707E0,2.849933142E0
6.137784375E0,-6.176022130E-1,1.399674323E0,-1.434382811E0,2.097134891E0
6.147723375E0,-8.509219050E-1,3.014426780E-1,-1.535168343E0,1.780920441E0
6.157662375E0,-7.884756884E-1,-4.018586665E-1,-1.161699663E0,1.460387074E0
6.167600375E0,-4.276937118E-1,-8.500880921E-1,-6.153592211E-1,1.133242536E0
6.177539375E0,8.447706342E-2,-9.901651597E-1,-3.264564818E-1,1.046010159E0
6.187478375E0,5.167608395E-1,-7.863072485E-1,-2.647110540E-1,9.774419657E-1
6.197416375E0,5.348448157E-1,-3.746884096E-1,-5.811436540E-1,8.741729393E-1
6.207355375E0,5.794543934E-1,-1.207941198E-1,-9.301458299E-1,1.102510716E0
6.217294375E0,6.608224922E-1,-1.050452292E-1,-9.790297222E-1,1.185841500E0
6.227232375E0,6.909900320E-1,-2.228479135E-1,-8.490566432E-1,1.117150661E0
6.237171375E0,7.552746132E-1,-3.878692031E-1,-8.425902075E-1,1.196177461E0
6.247110375E0,8.658957472E-1,-4.739349550E-1,-7.104513198E-1,1.216195241E0
6.257048375E0,8.453462926E-1,-4.048290521E-1,-4.803446728E-1,1.053198899E0
6.266987375E0,6.496838388E-1,-3.239883721E-1,-6.258807009E-1,9.585323195E-1
6.276925375E0,2.534899548E-1,-1.986047727E-1,-8.474258548E-1,9.065492774E-1
6.286864375E0,-9.201880217E-2,-1.273546958E-1,-8.853356928E-1,8.991695988E-1
6.296803375E0,-1.984904596E-1,-8.932382047E-2,-9.084310251E-1,9.341435301E-1
6.306741375E0,-2.026165473E-1,-1.439847618E-1,-1.012864051E0,1.042918339E0
6.316680375E0,-2.232496172E-2,-1.377668327E-1,-9.307147640E-1,9.411206490E-1
6.326619375E0,3.157934994E-1,-1.675659978E-1,-1.010497683E0,1.071871944E0
6.336557375E0,5.918385038E-1,-1.917553443E-1,-1.033803515E0,1.206562321E0
6.346496375E0,7.318787339E-1,-1.585688871E-1,-9.882665688E-1,1.239944105E0
6.356435375E0,7.360381508E-1,-9.748536408E-2,-1.147238329E0,1.366532597E0
6.366373375E0,5.997173345E-1,-1.907554704E-1,-1.314772752E0,1.457626811E0
6.376312375E0,2.777070755E-1,-2.778783989E-1,-1.370158163E0,1.425366976E0
6.386251375E0,8.548921645E-2,-1.603651518E-1,-1.353551486E0,1.365696531E0
6.396189375E0,1.680861077E-1,9.753155708E-3,-1.376308849E0,1.386569188E0
6.406128375E0,1.971827298E-1,7.323286772E-2,-1.386863658E0,1.402724096E0
6.416067375E0,1.457962292E-1,9.803090930E-2,-1.556075063E0,1.565961749E0
6.426005375E0,9.393084168E-2,1.626081437E-1,-1.671534768E0,1.682050205E0
6.435944375E0,1.377931452E-1,1.915121001E-1,-1.488112291E0,1.506699049E0
6.445883375E0,8.915512830E-2,4.125029379E-1,-1.281247156E0,1.348963152E0
6.455821375E0,-3.521661043E-2,4.399983001E-1,-1.263372803E0,1.338263633E0
6.465760375E0,-1.184736523E-1,3.103737152E-1,-1.629277525E0,1.662802785E0
6.475698375E0,-2.549023497E-1,9.981664896E-2,-1.928057381E0,1.947394114E0
6.485637375E0,-4.729236791E-1,-9.945061326E-2,-2.039464381E0,2.095939453E0
6.495576375E0,-6.678949919E-1,-1.459067416E-1,-2.022287600E0,2.134717694E0
6.505514375E0,-7.874443857E-1,-2.918818957E-1,-1.920269474E0,2.095876560E0
6.515453375E0,-9.411884429E-1,-6.208538496E-1,-2.109743820E0,2.392135902E0
6.525392375E0,-1.105553236E0,-1.090860060E0,-2.281728559E0,2.760164641E0
6.535330375E0,-1.040680718E0,-1.839159822E0,-2.642013522E0,3.383158385E0
6.545269375E0,-8.691355433E-1,-2.638817434E0,-2.913924252E0,4.026128238E0
6.555208375E0,-9.239236616E-1,-3.567538882E0,-3.153908016E0,4.850577737E0
6.565146375E0,-1.135233557E0,-4.716300995E0,-3.865104856E0,6.202522540E0
6.575085375E0,-1.022187875E0,-5.698261342E0,-5.244375320E0,7.811435391E0
6.585024375E0,-7.279542290E-1,-6.110450284E0,-5.877136440E0,8.509303895E0
6.594962375E0,-4.654608777E-1,-6.074212750E0,-5.289371983E0,8.067847937E0
6.604901375E0,-3.076967137E-1,-5.608808883E0,-4.200601133E0,7.014161691E0
6.614840375E0,-4.114089239E-1,-5.133940712E0,-2.887286677E0,5.904492264E0
6.624778375E0,-6.924867730E-1,-5.118632117E0,-3.011825061E0,5.979215908E0
6.634717375E0,-8.606306219E-1,-5.297009032E0,-4.078243468E0,6.740256637E0
6.644656375E0,-7.270071262E-1,-3.781701341E0,-3.984599724E0,5.541375223E0
6.654594375E0,-5.740109280E-2,-2.724748115E0,-3.494637259E0,4.431708107E0
6.664533458E0,8.575438768E-2,-7.505696511E-1,-1.636327220E0,1.802297253E0
6.674472458E0,-5.100090596E-1,2.232718366E0,4.818773450E0,5.335327366E0
6.684410458E0,-2.819944879E0,-4.564159952E0,8.933507051E0,1.042070983E1
6.694349458E0,-5.227122526E0,-1.088117132E1,5.715269723E0,1.335615989E1
6.704287458E0,-6.644276515E0,-1.595095170E1,4.633348301E-2,1.727950860E1
6.714226458E0,-7.125623986E0,-1.821981872E1,7.384147516E-1,1.957757819E1
6.724165458E0,-5.456071424E0,-1.616024928E1,2.879271898E0,1.729776225E1
6.734103458E0,-2.176057385E0,-8.842986891E0,3.463764253E0,9.743269764E0
6.744042458E0,-3.815682435E-1,-2.260400839E0,3.323683677E0,4.037558602E0
6.753981458E0,5.978111422E-1,1.386554925E0,1.622335711E0,2.216277483E0
6.763919458E0,1.359513015E0,3.683654060E0,-9.801056099E-1,4.046997637E0
6.773858458E0,2.091879699E0,5.405728067E0,-2.830763397E0,6.450664928E0
6.783797458E0,2.482061476E0,6.735049860E0,-3.319276046E0,7.908167883E0
6.793735458E0,2.603579189E0,7.736369169E0,-2.756226600E0,8.615498684E0
6.803674458E0,2.616598307E0,8.400711100E0,-1.574631786E0,8.938568059E0
6.813613458E0,2.549781589E0,8.886517657E0,-3.453224500E-1,9.251531215E0
6.823551458E0,2.486420283E0,9.289845729E0,5.610777640E-1,9.633188867E0
6.833490458E0,2.529780018E0,9.872582749E0,1.339014723E0,1.027913603E1
6.843429458E0,2.728689723E0,1.072827130E1,1.783303710E0,1.121256995E1
6.853367458E0,2.823071970E0,1.131648015E1,1.440887253E0,1.175196215E1
6.863306458E0,2.974695826E0,1.162234449E1,8.103773117E-2,1.199726110E1
6.873245458E0,3.206254045E0,1.141258031E1,-1.381525151E0,1.193464143E1
6.883183458E0,3.221431078E0,1.121694767E1,-1.733709966E0,1.179844412E1
6.893122458E0,3.141480929E0,1.172662140E1,-4.507922602E-1,1.214848820E1
6.903061458E0,2.673763318E0,1.292764651E1,1.059138916E0,1.324367131E1
6.912999458E0,2.702998812E0,1.281834801E1,1.927182637E0,1.324123413E1
6.922938458E0,3.005793366E0,1.191361301E1,1.362372011E0,1.236224196E1
6.932877458E0,3.069820085E0,1.151049427E1,8.691113504E-1,1.194448108E1
6.942815458E0,3.102261607E0,1.125956686E1,4.865666219E-1,1.168925233E1
6.952754458E0,3.027925662E0,1.115236401E1,1.005778833E-1,1.155654242E1
6.962693458E0,2.887010688E0,1.117497519E1,-3.325977393E-1,1.154666716E1
6.972631458E0,2.868543427E0,1.098709363E1,-7.258054503E-1,1.137855708E1
6.982570458E0,2.851519843E0,1.073334786E1,-8.090839076E-1,1.113510388E1
6.992509458E0,2.751454103E0,1.063614608E1,-1.431094337E-1,1.098720089E1
7.002447458E0,2.686219057E0,1.056213670E1,1.044181738E0,1.094827932E1
7.012386458E0,2.583263038E0,1.051570981E1,2.301543603E0,1.107025310E1
7.022325458E0,2.417862849E0,1.054126799E1,3.287795806E0,1.130371589E1
7.032263458E0,2.213916937E0,1.058415849E1,3.826244845E0,1.147022183E1
7.042202458E0,1.989738489E0,1.060526226E1,3.850780932E0,1.145683903E1
7.052141458E0,1.800285925E0,1.056809619E1,3.719886332E0,1.134738916E1
7.062079458E0,1.622501041E0,1.049668531E1,3.537963080E0,1.119509245E1
7.072018458E0,1.481775078E0,1.033102434E1,3.500136273E0,1.100802776E1
7.081957458E0,1.571026101E0,9.812925947E0,3.527055684E0,1.054522453E1
7.091895458E0,1.633194867E0,9.013694597E0,3.695266045E0,9.877702512E0
7.101834458E0,1.415232302E0,8.135158047E0,3.547457789E0,8.987109418E0
7.111773458E0,3.220868576E-1,6.634814551E0,1.188953096E0,6.748193353E0
7.121711458E0,-2.214070134E0,2.731369502E0,-4.670748847E0,5.846227904E0
7.131650458E0,-8.419440317E0,-9.353490917E0,-2.128267448E1,2.472502782E1
7.141589458E0,-9.197428731E0,-1.900736617E1,-1.739750607E1,2.735956654E1
7.151527458E0,-4.537027995E0,-1.592892875E1,9.012604092E0,1.885583269E1
7.161466458E0,-3.721475312E0,-2.059002969E1,1.580496661E1,2.622204550E1
7.171404458E0,-4.602526458E0,-3.093644857E1,3.711843486E0,3.149642650E1
7.181343458E0,-9.561727223E0,-3.142131373E1,-1.544949916E1,3.629617898E1
7.191282458E0,-1.295001679E1,-2.247332663E1,-1.766637742E1,3.138238735E1
7.201221458E0,-9.052478009E0,-9.039966137E0,-5.277729008E0,1.383917517E1
7.211159458E0,-2.671477057E0,5.544306493E-1,-1.050718925E0,2.923729343E0
7.221098458E0,-1.245477984E0,3.368245892E0,-4.264438695E0,5.575099387E0
7.231036458E0,-1.786308302E0,1.432512871E0,-2.315949973E0,3.256779813E0
7.240975458E0,-2.145585790E0,-1.245613639E0,9.734245813E-1,2.665079199E0
7.250914458E0,-2.660900613E0,-3.834827389E0,-1.150949557E0,4.807387862E0
7.260852458E0,-2.022863258E0,-4.466739492E0,-2.292956967E0,5.413075753E0
7.270791458E0,7.440318793E-2,-3.371396372E0,-1.169807412E0,3.569355504E0
7.280730458E0,5.731592810E-1,-3.140920181E0,-1.973346990E0,3.753397059E0
7.290668458E0,-2.426414986E0,-3.123821753E0,-4.197337217E0,5.767442392E0
7.300607458E0,-4.368936625E0,-2.602948274E0,-4.456079434E0,6.761626348E0
7.310546458E0,-3.286649459E0,-1.927600713E0,-3.033086999E0,4.870043729E0
7.320484458E0,-1.355405931E0,-1.673277823E0,-1.936249915E0,2.895867338E0
7.330423458E0,-5.616961071E-1,-1.404908751E0,-1.779719952E0,2.335952530E0
7.340362458E0,-3.512401977E-1,-6.841686702E-1,-1.790011636E0,1.948229479E0
7.350300458E0,7.745543450E-1,5.443003482E-1,-1.207568146E0,1.534411330E0
7.360239458E0,1.562482734E0,1.635286124E0,-5.210518187E-1,2.320992891E0
7.370178458E0,1.795741615E0,1.694400305E0,-6.608909047E-1,2.555867197E0
7.380116458E0,1.801582983E0,1.286750556E0,-1.092285027E0,2.468707115E0
7.390055458E0,1.346691533E0,7.856541145E-1,-1.489851837E0,2.156499239E0
7.399994458E0,1.307961038E0,8.461043841E-1,-1.501323490E0,2.163475659E0
7.409932458E0,4.382005736E-1,5.981327391E-1,-8.119215614E-1,1.099544969E0
7.419871458E0,1.394598940E-1,5.487997806E-1,-1.069212499E0,1.209894883E0
7.429810458E0,1.383515543E-1,1.012495676E0,-1.035354781E0,1.454733024E0
7.439748458E0,4.124470970E-1,1.257319765E0,-8.451746768E-1,1.570122872E0
7.449687458E0,9.575938296E-1,1.349159642E0,-9.003905189E-1,1.883592517E0
7.459626458E0,1.249678624E0,1.078204347E0,-1.068150644E0,1.966002817E0
7.469564458E0,1.323642978E0,6.211479646E-1,-1.294669440E0,1.952952761E0
7.479503458E0,1.716590780E0,4.167956713E-1,-1.069698987E0,2.065104952E0
7.489442458E0,1.952526517E0,1.413041058E-1,-9.218737739E-1,2.163834075E0
7.499380458E0,1.914108263E0,-1.333717731E-1,-1.090902160E0,2.207185084E0
7.509319458E0,1.645164118E0,1.311480770E-1,-1.078545824E0,1.971554181E0
7.519258458E0,1.373400152E0,4.971609727E-1,-1.016579956E0,1.779559445E0
7.529196458E0,6.402587119E-1,4.939917818E-1,-6.315361279E-1,1.026058955E0
7.539135458E0,5.653503245E-1,7.431890032E-1,-9.002267969E-1,1.297057890E0
7.549074458E0,2.876183984E-1,7.986533520E-1,-8.779921746E-1,1.221245994E0
7.559012458E0,1.480658260E-1,6.921144515E-1,-7.705367231E-1,1.046266096E0
7.568951458E0,1.681966200E-1,5.156688720E-1,-7.871954405E-1,9.559713124E-1
7.578890458E0,2.563279009E-1,4.337689689E-1,-9.144384545E-1,1.044058044E0
7.588828458E0,4.071188217E-1,3.203063804E-1,-1.017129595E0,1.141444052E0
7.598767458E0,5.156747192E-1,3.215971532E-1,-1.131225144E0,1.284139974E0
7.608706458E0,5.155317548E-1,4.007997358E-1,-1.191591214E0,1.358787342E0
7.618644458E0,4.841623199E-1,5.282222593E-1,-1.219971260E0,1.414836309E0
7.628583458E0,3.898987716E-1,6.430720997E-1,-1.253095737E0,1.461441652E0
7.638522458E0,3.065586993E-1,8.138686842E-1,-1.077936544E0,1.385029843E0
7.648460458E0,3.403842571E-1,8.956747395E-1,-9.918316162E-1,1.379066582E0
7.658399458E0,3.047033778E-1,8.659246910E-1,-9.338044327E-1,1.309450433E0
7.668338250E0,1.881274393E-1,7.407761496E-1,-9.904826635E-1,1.251078392E0
7.678276250E0,2.509838381E-1,6.625620389E-1,-1.093190176E0,1.302707221E0
7.688215250E0,2.269517818E-1,6.200562894E-1,-1.097732878E0,1.281013030E0
7.698154250E0,1.313468823E-1,6.730718243E-1,-1.139928140E0,1.330305923E0
7.708092250E0,4.059634119E-2,7.982273823E-1,-1.170626022E0,1.417455573E0
7.718031250E0,-1.496010125E-3,9.372367483E-1,-1.250744571E0,1.562938560E0
7.727970250E0,-4.694173962E-2,1.103561382E0,-1.287146997E0,1.696112804E0
7.737908250E0,-6.147733301E-2,1.249138926E0,-1.235130751E0,1.757747277E0
7.747847250E0,-1.250266269E-1,1.339841520E0,-1.379732979E0,1.927296046E0
7.757786250E0,-3.019592795E-1,1.425238350E0,-1.381390080E0,2.007665887E0
7.767724250E0,-2.979273319E-1,1.497167289E0,-1.373648951E0,2.053577860E0
7.777663250E0,-1.506023481E-1,1.537152303E0,-1.358886486E0,2.057204597E0
7.787602250E0,-1.028700650E-2,1.511120499E0,-1.429206855E0,2.079957505E0
7.797540250E0,1.440256923E-2,1.517164181E0,-1.546572168E0,2.166536420E0
7.807479250E0,-1.134123024E-1,1.480492199E0,-1.685992593E0,2.246617574E0
7.817418250E0,-2.316517738E-1,1.373782852E0,-1.724270806E0,2.216766041E0
7.827356250E0,-2.709971032E-1,1.214442717E0,-1.649048715E0,2.065834507E0
7.837295250E0,-2.716499448E-1,1.065932211E0,-1.683788193E0,2.011255292E0
7.847234250E0,-3.983327955E-1,6.975301427E-1,-2.039894736E0,2.192347566E0
7.857172250E0,-6.926965418E-1,5.773833096E-2,-2.043072698E0,2.158079762E0
7.867111250E0,-1.031226062E0,-7.703192067E-1,-2.210348089E0,2.557822813E0
7.877050250E0,-1.055143221E0,-1.729305843E0,-2.636547545E0,3.324937424E0
7.886988250E0,-9.468767604E-1,-2.833226829E0,-3.255778792E0,4.418579569E0
7.896927250E0,-1.138526270E0,-3.949702957E0,-3.860511868E0,5.639144208E0
7.906865250E0,-1.511985010E0,-4.609830215E0,-3.734664000E0,6.122446282E0
7.916804250E0,-1.786064181E0,-4.705698824E0,-3.726318269E0,6.262513435E0
7.926743250E0,-2.356194604E0,-4.497638519E0,-3.546964869E0,6.193655224E0
7.936682250E0,-3.053662474E0,-4.500578499E0,-3.583821039E0,6.513358163E0
7.946620250E0,-3.699122576E0,-4.859275358E0,-4.275703356E0,7.455045542E0
7.956559250E0,-4.175873843E0,-5.453727860E0,-3.668330262E0,7.787022334E0
7.966497250E0,-3.953498969E0,-5.187326961E0,-3.186330242E0,7.258871504E0
7.976436250E0,-3.002569211E0,-3.588594705E0,-2.899701777E0,5.504698377E0
7.986375250E0,-3.847816686E0,-4.164769396E0,-1.369193373E0,5.833154195E0
7.996314250E0,-5.245573415E0,-7.298926102E0,1.694955790E-1,8.989943906E0
8.006252250E0,-4.734658037E0,-6.026004796E0,2.924283180E-1,7.669109130E0
8.016191250E0,-1.888279650E0,-2.773901564E0,1.248472051E0,3.580336909E0
8.026130250E0,-2.912053728E0,-8.361721281E0,4.198682077E0,9.799355636E0
8.036068250E0,-4.879674832E0,-1.286232609E1,1.838365917E0,1.387912995E1
8.046007250E0,-5.727523733E0,-1.534501527E1,6.481556690E-1,1.639189212E1
8.055946250E0,-4.672229069E0,-1.379246841E1,9.833366351E-1,1.459550823E1
8.065884250E0,-2.338669622E0,-7.826743149E0,1.958208987E0,8.400111092E0
8.075823250E0,-2.079386830E-1,-2.691716609E0,2.502752141E0,3.681350985E0
8.085762250E0,1.368933464E0,2.640485644E-1,1.869751285E0,2.332310087E0
8.095700250E0,2.057388143E0,2.009447699E0,3.374837458E-1,2.895621057E0
8.105639250E0,2.721413448E0,3.403008174E0,-1.001742720E0,4.471022731E0
8.115578250E0,3.296666909E0,4.714360889E0,-1.743093578E0,6.010955542E0
8.125516250E0,3.652975766E0,6.008811643E0,-1.967081698E0,7.302017510E0
8.135455250E0,3.881927880E0,7.355075744E0,-2.130495003E0,8.585191450E0
8.145394250E0,3.829685639E0,8.463308467E0,-2.044441531E0,9.511772888E0
8.155332250E0,3.519325665E0,9.212759546E0,-1.334143993E0,9.951910961E0
8.165271250E0,3.099054701E0,9.735084304E0,-3.847326835E-1,1.022369922E1
8.175210250E0,2.760229020E0,1.008526586E1,8.052154628E-1,1.048712657E1
8.185148250E0,2.424710815E0,1.029446871E1,1.864001133E0,1.073917170E1
8.195087250E0,2.247831957E0,1.040423031E1,2.144154099E0,1.085809162E1
8.205026250E0,2.333463553E0,1.048905703E1,1.700889544E0,1.087926445E1
8.214964250E0,2.345612898E0,1.083945728E1,1.392668920E0,1.117744428E1
8.224903250E0,2.204670150E0,1.182428627E1,1.873761306E0,1.217313837E1
8.234842250E0,2.196547783E0,1.188701871E1,1.089715176E0,1.213727791E1
8.244780250E0,2.003124374E0,1.189324015E1,1.056265155E-1,1.206121160E1
8.254719250E0,1.522105810E0,1.302160074E1,6.157444795E-1,1.312471078E1
8.264658250E0,1.681369638E0,1.281990688E1,5.255827530E-1,1.294037301E1
8.274596250E0,1.840206913E0,1.245068796E1,-4.427499267E-1,1.259372938E1
8.284535250E0,1.891603938E0,1.223820833E1,-8.243965960E-1,1.241094429E1
8.294474250E0,1.886085921E0,1.208165030E1,-6.030350081E-1,1.224284465E1
8.304412250E0,1.833061615E0,1.202841725E1,-5.108602680E-2,1.216739685E1
8.314351250E0,1.765830476E0,1.208362432E1,7.562964141E-1,1.223536343E1
8.324290250E0,1.874871546E0,1.173758726E1,1.481456405E0,1.197834760E1
8.334228250E0,1.957092461E0,1.139611806E1,1.954885576E0,1.172703267E1
8.344167250E0,1.975944323E0,1.126382597E1,2.366087508E0,1.167803501E1
8.354106250E0,1.906444025E0,1.112490314E1,2.758807561E0,1.161933810E1
8.364044250E0,1.823661046E0,1.095952751E1,2.959776363E0,1.149770669E1
8.373983250E0,1.744506119E0,1.068212391E1,3.114898317E0,1.126293320E1
8.383922250E0,1.572258694E0,1.035129546E1,3.254099472E0,1.096405393E1
8.393860250E0,1.408998293E0,1.005005978E1,3.363082216E0,1.069108506E1
8.403799250E0,1.292801985E0,9.780013724E0,3.484680912E0,1.046245700E1
8.413738250E0,1.126938697E0,9.472722076E0,3.495325184E0,1.015971223E1
8.423676250E0,4.530017768E-1,8.677262181E0,1.994167171E0,8.914975730E0
8.433615250E0,-4.145308400E0,2.095837387E0,-1.426058364E1,1.499801193E1
8.443554250E0,-1.018768218E1,-8.477950480E0,-2.401393464E1,2.742869974E1
8.453492250E0,-5.667989137E0,-5.949384052E0,-3.390496302E-1,8.224124641E0
8.463431250E0,-1.302002725E0,-6.163061192E0,1.184305349E1,1.341403930E1
8.473370250E0,-6.212178388E-1,-1.949680034E1,2.391878407E0,1.965279159E1
8.483308250E0,-3.703963486E0,-1.935506383E1,9.632356326E0,2.193445075E1
8.493247250E0,-4.142592953E0,-1.775705955E1,-5.860357270E0,1.915249403E1
8.503186250E0,-8.905917549E0,-3.035067685E1,-3.264821160E1,4.545750404E1
8.513124250E0,9.351370132E-1,-1.969790128E1,-3.953301918E0,2.011244372E1
8.523063250E0,5.981525027E0,-1.353702695E1,8.439194550E0,1.703671755E1
8.533002250E0,3.837919981E0,-1.141367725E1,8.418735142E0,1.469274513E1
8.542940250E0,-1.485398598E0,-8.263533082E0,-4.879451176E0,9.710892429E0
8.552879250E0,-4.538975118E0,-9.222936040E-1,-3.287840537E0,5.680036620E0
8.562818250E0,-3.819191934E0,4.467604880E0,-1.545564693E0,6.077375306E0
8.572756250E0,-2.928346995E0,5.869233343E0,-2.844602003E0,7.149466883E0
8.582695250E0,-2.848715519E0,4.316901083E0,-1.888946525E0,5.506263165E0
8.592634250E0,-2.398407847E0,1.142057696E0,-2.056412828E0,3.359388292E0
8.602572250E0,-1.813518905E0,-1.319711895E0,-2.331776047E0,3.235377851E0
8.612511250E0,-1.421514697E0,-2.498237506E0,-2.331616418E0,3.701125476E0
8.622450250E0,-1.299065523E0,-3.148381813E0,-1.915756593E0,3.907685069E0
8.632388250E0,-4.416891687E-1,-3.533404006E0,-6.539145917E-1,3.620447139E0
8.642327250E0,8.992424181E-1,-3.991956106E0,-2.813001895E-1,4.101643607E0
8.652266250E0,1.156790633E0,-3.346629320E0,-9.978554177E-1,3.678832398E0
8.662204250E0,3.535599343E-1,-1.571850266E0,-1.445724655E0,2.164679575E0
8.672143125E0,-2.322965755E-1,-1.751942754E-1,-1.430592061E0,1.459879576E0
8.682082125E0,-5.346733461E-1,1.182763088E-1,-1.150009909E0,1.273729824E0
8.692020125E0,-6.140275177E-1,2.321753919E-2,-1.034363093E0,1.203110907E0
8.701959125E0,-4.142432155E-1,-2.196027088E-1,-1.166151733E0,1.256874160E0
8.711898125E0,-1.098191884E-1,-4.422325212E-1,-1.087399678E0,1.179011415E0
8.721836125E0,1.161881219E-1,-6.115023977E-1,-1.087303199E0,1.252861967E0
8.731775125E0,5.316566214E-2,-5.748994124E-1,-1.447501039E0,1.558395065E0
8.741714125E0,-3.283856244E-1,-4.788816994E-1,-1.725016326E0,1.820122558E0
8.751652125E0,-5.414716114E-1,-4.016493362E-1,-1.639783217E0,1.772964381E0
8.761591125E0,-3.364759782E-1,-2.743291390E-1,-1.448051262E0,1.511729148E0
8.771530125E0,6.478758797E-2,-3.660924178E-1,-1.447747791E0,1.494722301E0
8.781469125E0,3.433261375E-1,-5.039136297E-1,-1.300786797E0,1.436609924E0
8.791407125E0,6.004755722E-1,-6.350275004E-1,-1.208581468E0,1.491475781E0
8.801346125E0,8.650673430E-1,-6.824665457E-1,-1.317608652E0,1.717613068E0
8.811285125E0,9.770340675E-1,-5.223458076E-1,-1.329978436E0,1.730977571E0
8.821223125E0,8.061734560E-1,-3.362242556E-1,-1.420515554E0,1.667581132E0
8.831162125E0,5.234082466E-1,-2.238512957E-1,-1.523084487E0,1.625992605E0
8.841101125E0,2.724182689E-1,-1.638261187E-1,-1.308387592E0,1.346450446E0
8.851039125E0,-8.082313836E-3,-1.605733126E-1,-9.782578897E-1,9.913816679E-1
8.860978125E0,-3.236059642E-1,-2.651981270E-1,-8.398326606E-1,9.382802163E-1
8.870917125E0,-3.085609321E-1,-4.267602038E-1,-6.368027151E-1,8.263484848E-1
8.880855125E0,-1.794159651E-2,-5.444833660E-1,-3.448752111E-1,6.447658086E-1
8.890794125E0,1.931585298E-1,-6.204328501E-1,-2.099097794E-1,6.828684022E-1
8.900733125E0,3.031222907E-1,-6.937850010E-1,-3.207039911E-1,8.222358546E-1
8.910671125E0,4.670970748E-1,-7.564139432E-1,-3.881370056E-1,9.700474555E-1
8.920610125E0,6.683376262E-1,-7.241168475E-1,-2.971145689E-1,1.029221773E0
8.930549125E0,7.767781873E-1,-6.677795094E-1,-3.186270601E-1,1.072770725E0
8.940487125E0,7.893890235E-1,-7.063038898E-1,-4.747588277E-1,1.160773949E0
8.950426125E0,6.957230607E-1,-6.381557608E-1,-4.554337800E-1,1.048185709E0
8.960365125E0,5.883146793E-1,-4.949609578E-1,-3.693370378E-1,8.529421780E-1
8.970303125E0,4.495750161E-1,-3.545359808E-1,-3.310570711E-1,6.613714849E-1
8.980242125E0,3.648630407E-1,-1.488139772E-1,-1.727004379E-1,4.302279391E-1
8.990181125E0,2.756699055E-1,-1.162946874E-1,-2.322210002E-1,3.787412627E-1
9.000119125E0,3.194822153E-1,-1.166156995E-1,-2.403959924E-1,4.164833015E-1
9.010058125E0,3.593546712E-1,-1.977902555E-1,-2.295973545E-1,4.700762812E-1
9.019997125E0,2.610297932E-1,-2.324964041E-1,-2.275069749E-1,4.170737998E-1
9.029935125E0,2.254376453E-1,-1.983106577E-1,-2.940190530E-1,4.202338068E-1
9.039874125E0,2.791725339E-1,-8.528924167E-2,-4.213918751E-1,5.126233226E-1
9.049813125E0,3.857019326E-1,-2.466647923E-2,-6.211818784E-1,7.316019014E-1
9.059751125E0,2.874175465E-1,-1.386959553E-3,-7.112939036E-1,7.671699857E-1
9.069690125E0,2.343053864E-1,2.954598069E-2,-6.924418956E-1,7.316062861E-1
9.079629125E0,2.262778902E-1,5.368094802E-2,-7.544896245E-1,7.895175243E-1
9.089567125E0,1.767032956E-1,6.406911135E-2,-8.529643375E-1,8.734283409E-1
9.099506125E0,6.483392715E-2,1.527585089E-2,-1.033008878E0,1.035154159E0
9.109445125E0,5.364908069E-2,-4.674848914E-2,-1.118719704E0,1.120980563E0
9.119383125E0,8.627493605E-2,-1.364634883E-1,-1.251455008E0,1.261826171E0
9.129322125E0,-2.995601669E-2,-2.696993136E-1,-1.472669794E0,1.497461654E0
9.139261125E0,-2.019451408E-1,-2.525628787E-1,-1.529860241E0,1.563663072E0
9.149199125E0,-2.525120080E-1,-2.624522746E-1,-1.478912866E0,1.523097757E0
9.159138125E0,-2.980382828E-1,-2.761534703E-1,-1.378116809E0,1.436764941E0
9.169077125E0,-4.279137133E-1,-2.875204575E-1,-1.321850222E0,1.418825630E0
9.179015125E0,-6.455093654E-1,-4.525955415E-1,-1.582710884E0,1.768190829E0
9.188954125E0,-7.674014461E-1,-7.079644990E-1,-1.747372570E0,2.035541601E0
9.198893125E0,-5.286545147E-1,-1.539888800E0,-2.063242083E0,2.628250560E0
9.208831125E0,-5.288522968E-1,-1.951841515E0,-1.830105994E0,2.727390328E0
9.218770125E0,-7.247025923E-1,-1.681038247E0,-1.291278639E0,2.240197304E0
9.228709125E0,-4.452280498E-1,-1.818585809E0,-1.973197886E0,2.720108869E0
9.238647125E0,-4.238807425E-1,-1.681414808E0,-2.880402750E0,3.362075347E0
9.248586125E0,-6.599553502E-1,-1.083848664E0,-1.457880431E0,1.932791852E0
9.258525125E0,-7.036208948E-1,-6.762889624E-1,-2.120308569E-1,9.987022622E-1
9.268464125E0,-5.781169890E-1,-9.496837163E-1,-9.879747927E-2,1.116189659E0
9.278402125E0,-6.435764220E-1,-1.676062267E0,-2.466495895E-1,1.812239320E0
9.288341125E0,-8.189987388E-1,-2.513402844E0,-5.444447744E-1,2.698957744E0
9.298280125E0,-9.151021135E-1,-3.795125964E0,-1.248591042E0,4.098703764E0
9.308218125E0,-9.017624219E-1,-5.631027718E0,-3.201668366E0,6.540055730E0
9.318157125E0,-6.985879040E-1,-6.892447550E0,-4.261581745E0,8.133568544E0
9.328096125E0,-4.148188739E-1,-6.971461560E0,-1.656267980E0,7.177504762E0
9.338034125E0,-5.037750506E-1,-6.582366196E0,7.277140546E-1,6.641603856E0
9.347973125E0,-8.074032716E-1,-6.259563054E0,8.348224738E-1,6.366392875E0
9.357912125E0,-1.072009514E0,-5.795817457E0,1.957510391E-1,5.897374235E0
9.367850125E0,-9.862115648E-1,-4.881032848E0,-7.740614247E-1,5.039470806E0
9.377789125E0,-5.479273760E-1,-1.292372069E0,-1.200209133E0,1.846876264E0
9.387728125E0,7.592551053E-2,5.082336695E0,8.601251301E-1,5.155165003E0
9.397666125E0,1.038129285E-1,5.134484503E0,2.415942331E0,5.675428229E0
9.407605125E0,-1.017261449E0,3.124911089E0,2.942766813E0,4.411322555E0
9.417544125E0,-2.353701936E0,3.079658318E-1,2.323433532E0,3.321610925E0
9.427482125E0,-4.059886134E0,-5.103363867E0,3.341087622E0,7.327336807E0
9.437421125E0,-4.857796013E0,-9.007568470E0,3.241642563E0,1.073511613E1
9.447360125E0,-5.332798669E0,-1.116405610E1,1.769926304E0,1.249830106E1
9.457298125E0,-7.636194085E0,-1.188138784E1,8.487748075E-1,1.414917863E1
9.467237125E0,-8.382375401E0,-8.114738985E0,1.333628268E0,1.174273267E1
9.477176125E0,-4.294360944E0,-2.185074669E0,3.092978275E-1,4.828224557E0
9.487114125E0,-1.031826279E0,3.331907201E-1,-1.653356359E0,1.977187087E0
9.497053125E0,9.281390655E-1,1.984656090E0,-1.760223581E0,2.810460633E0
9.506992125E0,2.054812152E0,3.516541806E0,-1.187588210E0,4.242485711E0
9.516930125E0,2.451644845E0,4.714062096E0,-1.173269548E0,5.441461690E0
9.526869125E0,2.762095743E0,5.858631756E0,-9.707728690E-1,6.549438061E0
9.536808125E0,2.909842896E0,6.990991260E0,-8.882388353E-1,7.624310638E0
9.546747125E0,2.783704129E0,8.061900036E0,-1.575797721E0,8.673314207E0
9.556685125E0,2.883673975E0,9.097755924E0,-2.972513353E0,9.996027915E0
9.566624125E0,3.261938541E0,9.734608340E0,-3.762258765E0,1.093423219E1
9.576563125E0,3.261355866E0,1.014074892E1,-2.241528951E0,1.088557223E1
9.586501125E0,2.832583635E0,1.054709767E1,1.119906689E0,1.097811415E1
9.596440125E0,2.708128282E0,1.075104036E1,3.848053790E0,1.173568684E1
9.606379125E0,2.848220260E0,1.080263502E1,4.620433556E0,1.208956940E1
9.616317125E0,2.750826112E0,1.103514020E1,4.395174251E0,1.219257644E1
9.626256125E0,2.053026413E0,1.206440101E1,4.901911501E0,1.318307345E1
9.636195125E0,1.576538856E0,1.283336249E1,4.348418745E0,1.364145935E1
9.646133125E0,1.524757230E0,1.254318857E1,2.121918308E0,1.281245493E1
9.656072125E0,1.737284807E0,1.215064627E1,-4.550946414E-1,1.228264933E1
9.666011333E0,2.625373515E0,1.122495017E1,-5.062998784E0,1.259071281E1
9.675949333E0,2.718258875E0,1.124697664E1,-6.533060135E0,1.328774960E1
9.685888333E0,2.413835725E0,1.103744283E1,-3.903746181E0,1.195370158E1
9.695827333E0,2.228732758E0,1.092957574E1,-3.476941172E-1,1.115991786E1
9.705765333E0,2.183504545E0,1.108903866E1,2.747038286E0,1.163102274E1
9.715704333E0,2.219910625E0,1.115302708E1,4.105355837E0,1.209015975E1
9.725643333E0,2.176518146E0,1.111248132E1,3.877347171E0,1.196905566E1
9.735582333E0,2.035790429E0,1.107501470E1,3.420160396E0,1.176851267E1
9.745520333E0,1.870282212E0,1.107756409E1,3.496831427E0,1.176597687E1
9.755459333E0,1.655855459E0,1.092236027E1,4.012078714E0,1.175315221E1
9.765398333E0,1.528378849E0,1.043734660E1,4.700027025E0,1.154835053E1
9.775336333E0,1.291632542E0,9.829459534E0,5.150409980E0,1.117198784E1
9.785275333E0,6.819902900E-1,9.236577594E0,5.207736082E0,1.062544077E1
9.795214333E0,-1.398781161E0,6.859358157E0,2.160546184E-1,7.003860554E0
9.805152333E0,-9.084899651E0,-6.033417896E0,-2.012172385E1,2.288714276E1
9.815091333E0,-1.116810588E1,-1.879521047E1,-2.364794806E1,3.220577546E1
9.825030333E0,-2.014597050E0,-1.556248374E1,1.531556226E0,1.576690096E1
9.834968333E0,-1.467636511E-1,-1.982817491E1,1.095571279E1,2.265404385E1
9.844907333E0,-2.542082267E0,-1.875373032E1,1.735643757E1,2.567898963E1
9.854846333E0,-2.817603654E0,-2.300577643E1,3.822526016E0,2.349077148E1
9.864784333E0,-3.020675699E0,-1.738219222E1,-2.529268094E1,3.083804140E1
9.874723333E0,-6.318187239E0,-1.139755413E1,-1.696349532E1,2.139121090E1
9.884662333E0,-4.052461047E0,-1.464555145E1,9.145234730E0,1.773555570E1
9.894600333E0,2.513683218E0,-1.286686236E1,4.520446753E0,1.386755888E1
9.904539333E0,2.457533576E0,-7.064438721E0,-1.144884825E-1,7.480566378E0
9.914478333E0,-9.094589657E-1,-8.423516411E-1,-3.198722539E0,3.430524417E0
9.924416333E0,-1.589691290E0,5.450970898E0,-2.883160297E0,6.368109250E0
9.934355333E0,3.752772242E-1,5.488277303E0,-3.409440696E0,6.471963118E0
9.944294333E0,1.314462849E0,2.549252708E0,-3.449686496E0,4.486294559E0
9.954232333E0,1.316354424E-1,1.112752621E0,-2.746588050E0,2.966360093E0
9.964171333E0,-1.850665681E0,9.900447071E-2,-3.153418604E0,3.657706145E0
9.974110333E0,-3.617914399E0,-4.984570080E-1,-3.647875532E0,5.161856244E0
9.984049333E0,-3.991244500E0,-1.534067312E0,-2.749872724E0,5.083816989E0
9.993987333E0,-2.780413023E0,-2.118480729E0,-1.038737688E0,3.646591993E0
1.000392633E1,-6.276354504E-1,-2.250091614E0,-2.845407164E-1,2.353253481E0
1.001386533E1,5.554930884E-1,-1.873327442E0,-1.014476713E0,2.201611064E0
1.002380333E1,1.147078700E0,-6.351385975E-1,-1.633488105E0,2.094629793E0
1.003374233E1,1.733358548E0,1.079244567E0,-1.939480501E0,2.816182754E0
1.004368133E1,2.059773807E0,1.494527856E0,-1.959851031E0,3.212055061E0
1.005361933E1,1.730252215E0,8.962015736E-1,-2.037734190E0,2.819452184E0
1.006355833E1,1.058548639E0,6.537362516E-2,-2.029663863E0,2.290051163E0
1.007349733E1,2.839100942E-1,-2.691069907E-1,-1.823346028E0,1.864836253E0
1.008343533E1,-4.585064918E-1,-3.244579035E-1,-1.605462985E0,1.700885808E0
1.009337433E1,-9.191682673E-1,-2.382319379E-1,-1.203432410E0,1.532929981E0
1.010331333E1,-6.186567584E-1,-8.914898872E-2,-1.135637453E0,1.296285521E0
1.011325133E1,8.768484592E-3,-2.131310105E-2,-1.260353301E0,1.260563992E0
1.012319033E1,2.475357351E-1,-1.685559314E-1,-1.309658777E0,1.343462376E0
1.013312933E1,2.597400436E-1,-2.856206971E-1,-1.321039213E0,1.376295272E0
1.014306733E1,3.666189596E-1,-2.204020232E-1,-1.527407334E0,1.586177694E0
1.015300633E1,4.398059267E-1,-1.447665346E-1,-1.783728218E0,1.842843715E0
1.016294533E1,6.127466851E-1,-8.037407219E-2,-1.798850287E0,1.902046489E0
1.017288433E1,6.454364213E-1,-1.963717210E-1,-1.716361277E0,1.844192523E0
1.018282233E1,5.693547902E-1,-1.934878743E-1,-1.516321013E0,1.631205643E0
1.019276133E1,4.955822244E-1,1.242124021E-2,-1.290862902E0,1.382780916E0
1.020270033E1,3.361973584E-1,4.792845726E-2,-1.221118484E0,1.267460513E0
1.021263833E1,9.461964369E-2,2.115171790E-2,-1.198699089E0,1.202613728E0
1.022257733E1,-2.701735228E-2,-7.307089984E-2,-1.086212109E0,1.089002314E0
1.023251633E1,-8.559475869E-2,-1.071209908E-1,-9.683825272E-1,9.780419666E-1
1.024245433E1,-2.353211939E-2,-1.346947056E-1,-9.735210603E-1,9.830766396E-1
1.025239333E1,1.906779948E-1,-1.869179428E-1,-9.827298403E-1,1.018358657E0
1.026233233E1,3.674989656E-1,-1.435625929E-1,-9.413262910E-1,1.020666887E0
1.027227033E1,4.214336827E-1,-1.646225095E-2,-9.711494297E-1,1.058776921E0
1.028220933E1,4.036543465E-1,3.992244959E-2,-1.052412279E0,1.127875098E0
1.029214833E1,3.684649256E-1,7.962212026E-2,-1.005091347E0,1.073459221E0
1.030208633E1,3.576969856E-1,2.004255956E-1,-9.068645561E-1,9.952491527E-1
1.031202533E1,2.627297249E-1,2.413180983E-1,-9.561092216E-1,1.020493105E0
1.032196433E1,7.310276717E-2,2.305872881E-1,-9.641795486E-1,9.940607195E-1
1.033190233E1,2.123357892E-2,3.132832897E-1,-9.561577535E-1,1.006397006E0
1.034184133E1,2.067560837E-1,4.597870320E-1,-7.850629610E-1,9.329930577E-1
1.035178033E1,4.024615145E-1,4.442866480E-1,-8.342631876E-1,1.027307628E0
1.036171833E1,4.432841429E-1,3.431344950E-1,-1.090086474E0,1.225777563E0
1.037165733E1,4.969805861E-1,3.895836067E-1,-1.120411888E0,1.286113482E0
1.038159633E1,5.720810544E-1,5.121962106E-1,-1.066688256E0,1.314323220E0
1.039153533E1,6.057604319E-1,6.272922188E-1,-1.001541502E0,1.327978392E0
1.040147333E1,6.451683265E-1,7.129673767E-1,-1.088353944E0,1.452266834E0
1.041141233E1,5.987952286E-1,7.846314365E-1,-1.086103351E0,1.467590783E0
1.042135133E1,5.704894423E-1,8.208789110E-1,-1.170364067E0,1.539172648E0
1.043128933E1,5.033626758E-1,8.546477509E-1,-1.408731076E0,1.722881309E0
1.044122833E1,4.973011597E-1,8.535408729E-1,-1.659389808E0,1.931169335E0
1.045116733E1,3.596932250E-1,7.402224183E-1,-2.033365150E0,2.193600300E0
1.046110533E1,6.262864977E-2,6.986826289E-1,-2.192143368E0,2.301645565E0
1.047104433E1,-6.296398759E-2,7.943559408E-1,-2.025459715E0,2.176569062E0
1.048098333E1,-8.056746885E-2,6.438351613E-1,-2.128427136E0,2.225133008E0
1.049092133E1,-2.199210897E-1,1.932984245E-1,-2.349112456E0,2.367289357E0
1.050086033E1,-4.761261991E-1,-3.483595669E-1,-2.750268288E0,2.812832416E0
1.051079933E1,-7.956353116E-1,-8.889638901E-1,-3.058477948E0,3.282922434E0
1.052073833E1,-1.310629853E0,-1.385305960E0,-3.161842103E0,3.692433981E0
1.053067633E1,-1.782972758E0,-1.523855150E0,-2.772309367E0,3.631366905E0
1.054061533E1,-1.771252453E0,-2.018438963E0,-3.220812150E0,4.193454662E0
1.055055433E1,-1.824063335E0,-2.579654136E0,-4.218644179E0,5.270557961E0
1.056049233E1,-2.299159401E0,-2.115491048E0,-3.146040587E0,4.433847957E0
1.057043133E1,-2.418838310E0,-1.367101239E0,-1.995468176E0,3.420765676E0
1.058037033E1,-2.517879472E0,-1.671542369E0,-1.081237298E0,3.209804515E0
1.059030833E1,-2.363687957E0,-3.777912930E0,-1.467107338E-1,4.458830666E0
1.060024733E1,-1.913582014E0,-6.725581464E0,-1.280337330E0,7.108762609E0
1.061018633E1,-9.694283018E-1,-1.078206218E1,-4.739233775E0,1.181748674E1
1.062012433E1,2.644254175E-1,-1.491747504E1,-1.020014845E1,1.807329552E1
1.063006333E1,2.176216722E-2,-1.645612774E1,-7.807792323E0,1.821445126E1
1.064000233E1,-1.337361715E0,-1.436478687E1,1.290348640E0,1.448449646E1
1.064994033E1,-8.649482059E-1,-8.803231671E0,4.010697310E0,9.712400124E0
1.065987933E1,6.256490050E-1,-2.289486644E0,3.436267721E0,4.176256891E0
1.066981821E1,7.804383981E-1,-1.914471960E-1,4.637307158E0,4.706416238E0
1.067975721E1,-1.386590155E0,1.971432611E0,6.794562529E-1,2.504164451E0
1.068969521E1,-2.606332058E0,1.703773391E-1,-2.239235088E0,3.440373383E0
1.069963421E1,-3.741206157E0,-3.560070818E0,1.050052342E0,5.270041524E0
1.070957321E1,-4.958509040E0,-7.501278940E0,4.178668520E0,9.915506453E0
1.071951121E1,-4.138809512E0,-8.676909009E0,4.637165071E0,1.067341529E1
1.072945021E1,-3.057559351E0,-7.783758513E0,2.977965882E0,8.877153066E0
1.073938921E1,-8.417104939E-1,-4.032686641E0,1.166774534E0,4.281635309E0
1.074932721E1,5.334327132E-1,-7.298108661E-1,-6.874922276E-2,9.065874560E-1
1.075926621E1,1.448703226E0,1.650953153E0,-1.055186125E0,2.436761193E0
1.076920521E1,2.350471057E0,3.685822792E0,-8.829517829E-1,4.459776642E0
1.077914321E1,2.688524029E0,5.435945308E0,-2.926646551E-2,6.064529608E0
1.078908221E1,2.542300369E0,6.833879499E0,1.435257371E-1,7.292859509E0
1.079902121E1,2.304212565E0,7.831698664E0,-2.485511041E-1,8.167415574E0
1.080895921E1,2.306767798E0,8.636308283E0,-9.578359044E-1,8.990241823E0
1.081889821E1,2.475115861E0,9.316257602E0,-1.663967886E0,9.782006101E0
1.082883721E1,2.743189941E0,9.893708739E0,-2.053379585E0,1.047028803E1
1.083877621E1,2.917363877E0,1.028076167E1,-1.638541853E0,1.081156288E1
1.084871421E1,2.891685829E0,1.050359321E1,-4.500625277E-1,1.090366331E1
1.085865321E1,2.831905943E0,1.061070485E1,1.320380816E0,1.106120039E1
1.086859221E1,2.909137137E0,1.064919005E1,2.826421255E0,1.139548089E1
1.087853021E1,3.016757188E0,1.059523428E1,3.392003714E0,1.152672992E1
1.088846921E1,3.087125504E0,1.051783118E1,3.117543597E0,1.139623599E1
1.089840821E1,3.102101101E0,1.045073555E1,2.542906140E0,1.119407327E1
1.090834621E1,3.041907232E0,1.032319024E1,2.080435821E0,1.096128047E1
1.091828521E1,2.943651789E0,1.019594430E1,1.654949141E0,1.074063418E1
1.092822421E1,2.778805916E0,1.009785024E1,1.216976316E0,1.054368878E1
1.093816221E1,2.599769435E0,1.009477344E1,7.751431596E-1,1.045294689E1
1.094810121E1,2.348010256E0,1.049202391E1,-5.477916475E-2,1.075168446E1
1.095804021E1,2.129174117E0,1.110079624E1,-1.104260709E0,1.135695608E1
1.096797921E1,2.189574978E0,1.112343666E1,-2.065739429E0,1.152355679E1
1.097791721E1,2.278541387E0,1.119256712E1,-1.754190423E0,1.155605875E1
1.098785621E1,2.354125128E0,1.128908594E1,-8.846131962E-2,1.153226743E1
1.099779521E1,2.730469615E0,1.067488973E1,1.235877002E0,1.108765652E1
1.100773321E1,2.835218976E0,1.035239474E1,1.923328153E0,1.090457403E1
1.101767221E1,2.664626459E0,1.033443560E1,2.324420396E0,1.092262439E1
1.102761121E1,2.569741059E0,1.036003237E1,2.244097048E0,1.090732834E1
1.103754921E1,2.480246500E0,1.042842492E1,2.252752097E0,1.095347255E1
1.104748821E1,2.395991777E0,1.057523213E1,2.398503302E0,1.110536489E1
1.105742721E1,2.266703115E0,1.081519250E1,2.527768868E0,1.133560529E1
1.106736621E1,2.143321163E0,1.084603306E1,2.564049672E0,1.134921184E1
1.107730421E1,1.645974249E0,1.018865165E1,2.525510674E0,1.062525566E1
1.108724321E1,7.500860864E-1,9.224262189E0,1.807100708E0,9.429488588E0
1.109718221E1,-7.778577295E-1,7.331403877E0,-9.710774358E-1,7.436231360E0
1.110712021E1,-3.625459646E0,3.242531340E0,-4.841817327E0,6.863028643E0
1.111705921E1,-8.411599785E0,-6.393449675E0,-1.394600226E1,1.749634787E1
1.112699821E1,-7.537659731E0,-1.367177487E1,-1.214434765E1,1.977925484E1
1.113693621E1,-9.596079031E-1,-1.343419080E1,3.191643315E0,1.384142033E1
1.114687521E1,-1.145359911E0,-2.104621074E1,1.079599025E1,2.368139019E1
1.115681421E1,-6.528093510E0,-2.764591159E1,9.675705244E0,3.000886044E1
1.116675221E1,-1.157210405E1,-3.160864215E1,-1.161363565E1,3.560753268E1
1.117669121E1,-9.240794606E0,-2.863842266E1,-2.869417469E1,4.158012985E1
1.118663021E1,-3.322513649E-1,-1.577647079E1,-5.859015918E0,1.683257226E1
1.119656921E1,2.383020314E0,-5.406238528E0,9.728262942E0,1.138179690E1
1.120650721E1,2.123960009E0,-2.788806701E0,4.023605623E0,5.336483032E0
1.121644621E1,-2.828512512E0,-3.210651151E0,-6.476416402E0,7.762263411E0
1.122638521E1,-4.942161979E0,-5.412785071E-1,-2.789762721E0,5.700940579E0
1.123632321E1,-1.649963512E0,1.552122345E0,1.423336836E0,2.675322618E0
1.124626221E1,2.504412165E-1,2.574346619E0,1.545397462E0,3.013010891E0
1.125620121E1,-1.135025834E0,3.661072113E0,-1.214480724E0,4.020783020E0
1.126613921E1,-2.867142434E0,3.402782471E0,-3.464701561E0,5.639467279E0
1.127607821E1,-2.670873624E0,1.029626264E0,-2.970170374E0,4.124997965E0
1.128601721E1,-1.769868563E0,-2.130795550E0,-1.285872889E0,3.053881709E0
1.129595521E1,-8.021827313E-1,-4.176439853E0,-3.998793840E-2,4.252969083E0
1.130589421E1,1.880511332E-1,-4.889718887E0,-7.292758459E-1,4.947378829E0
1.131583321E1,5.389168167E-1,-3.980717758E0,-1.112540367E0,4.168247986E0
1.132577221E1,-7.694000244E-2,-1.863196557E0,-9.571038330E-1,2.096060333E0
1.133571021E1,-6.213064241E-1,3.001960516E-2,-8.591688180E-1,1.060704439E0
1.134564921E1,-2.428778431E-1,1.051231726E0,-8.597552937E-1,1.379585790E0
1.135558821E1,1.451998132E-1,9.207563710E-1,-1.414931463E0,1.694374907E0
1.136552621E1,5.313499349E-1,1.892071277E-1,-1.657951686E0,1.751266937E0
1.137546521E1,6.882678607E-1,-2.525932842E-1,-1.438986323E0,1.614991534E0
1.138540421E1,5.020173776E-1,-8.988369137E-1,-1.280400479E0,1.642971282E0
1.139534221E1,2.474047574E-1,-1.355806172E0,-1.224830296E0,1.843808218E0
1.140528121E1,4.867222309E-2,-1.278450433E0,-1.262617342E0,1.797500222E0
1.141522021E1,-1.617459717E-1,-1.197662378E0,-1.460902272E0,1.895993771E0
1.142515821E1,-2.273102161E-1,-1.086597440E0,-1.416641774E0,1.799788278E0
1.143509721E1,-3.371831989E-1,-7.476033586E-1,-1.621241112E0,1.816872597E0
1.144503621E1,-4.803034499E-1,-4.637479359E-1,-1.870968091E0,1.986523382E0
1.145497521E1,-4.242470706E-1,-4.628363550E-1,-1.881139323E0,1.983151083E0
1.146491321E1,-2.778079399E-1,-5.958260125E-1,-1.684052487E0,1.807821525E0
1.147485221E1,-1.312240908E-1,-6.727595830E-1,-1.518890864E0,1.666389713E0
1.148479121E1,2.034012437E-2,-5.509731907E-1,-1.373133811E0,1.479689711E0
1.149472921E1,7.237800479E-2,-3.429514772E-1,-1.347993708E0,1.392817765E0
1.150466821E1,-5.781229824E-2,-1.747498870E-2,-1.605493391E0,1.606628975E0
1.151460721E1,-2.470553863E-1,2.083778089E-1,-1.647554752E0,1.678956323E0
1.152454521E1,-4.360625392E-1,3.727483034E-1,-1.367111764E0,1.482594486E0
1.153448421E1,-6.167999750E-1,5.318019247E-1,-1.096226050E0,1.365637964E0
1.154442321E1,-7.643646947E-1,4.991656905E-1,-1.086036108E0,1.418765026E0
1.155436121E1,-6.531243405E-1,3.469591588E-1,-1.106082117E0,1.330552408E0
1.156430021E1,-3.365063837E-1,2.454316145E-1,-8.798007184E-1,9.734076884E-1
1.157423921E1,-9.684246272E-2,2.990564293E-1,-6.428510749E-1,7.155911647E-1
1.158417821E1,-5.294916898E-2,4.005138069E-1,-6.092348474E-1,7.310143797E-1
1.159411621E1,-7.541563332E-2,4.907100320E-1,-5.929556143E-1,7.733564597E-1
1.160405521E1,-2.528365284E-2,5.263283461E-1,-5.470438617E-1,7.595510369E-1
1.161399421E1,-3.295432270E-2,4.648828804E-1,-6.607119799E-1,8.085433818E-1
1.162393221E1,-1.269211248E-1,2.876438338E-1,-8.475164866E-1,9.039536173E-1
1.163387121E1,-2.211782411E-1,1.229546660E-1,-9.813592529E-1,1.013461222E0
1.164381021E1,-2.484443924E-1,-2.533598542E-3,-1.072988631E0,1.101378970E0
1.165374821E1,-2.118232808E-1,-4.462887347E-2,-1.128242480E0,1.148821975E0
1.166368721E1,-2.078959984E-1,-1.257911503E-2,-1.098344496E0,1.117917534E0
1.167362658E1,-1.222065148E-1,9.433488429E-2,-1.001684759E0,1.013511647E0
1.168356458E1,-8.124413788E-3,1.759666926E-1,-1.009173873E0,1.024432618E0
1.169350358E1,5.622360975E-2,1.458085084E-1,-1.054367588E0,1.065885653E0
1.170344258E1,5.505650550E-2,7.757442534E-2,-1.172766103E0,1.176617756E0
1.171338158E1,4.843073308E-2,9.610834479E-2,-1.073635333E0,1.079015837E0
1.172331958E1,-6.732191741E-3,2.360842556E-1,-7.933028573E-1,8.277140337E-1
1.173325858E1,-1.150384131E-1,3.245929742E-1,-6.959244972E-1,7.764697942E-1
1.174319758E1,-2.147655997E-1,2.873046952E-1,-8.009451681E-1,8.775998023E-1
1.175313558E1,-2.329545334E-1,1.432772487E-1,-1.023738703E0,1.059640088E0
1.176307458E1,-2.798082724E-1,1.572725594E-2,-1.064192079E0,1.100474806E0
1.177301358E1,-5.129464084E-1,-8.008814335E-2,-8.756486106E-1,1.017982622E0
1.178295158E1,-5.957768959E-1,-6.574141502E-2,-8.212309134E-1,1.016706573E0
1.179289058E1,-5.024000779E-1,-3.413312137E-2,-8.498816854E-1,9.878612187E-1
1.180282958E1,-5.198931929E-1,-5.955213726E-2,-1.044037312E0,1.167839585E0
1.181276858E1,-4.990984476E-1,-1.008504367E-1,-1.231783805E0,1.332877118E0
1.182270658E1,-4.106750983E-1,-2.229128176E-1,-1.454137629E0,1.527370421E0
1.183264558E1,-3.551037455E-1,-4.465202844E-1,-1.684304502E0,1.778302755E0
1.184258458E1,-4.740901986E-1,-5.015197796E-1,-1.567206407E0,1.712430883E0
1.185252258E1,-4.348466107E-1,-5.142608625E-1,-1.331737279E0,1.492340440E0
1.186246158E1,-3.862384146E-1,-5.662964040E-1,-1.207530724E0,1.388525181E0
1.187240058E1,-3.795000833E-1,-7.607286036E-1,-1.447415670E0,1.678612654E0
1.188233858E1,-4.585988778E-1,-1.071328021E0,-1.601833034E0,1.980890135E0
1.189227758E1,-6.004837583E-1,-1.356863349E0,-1.400902238E0,2.040633719E0
1.190221658E1,-6.617314419E-1,-1.700963804E0,-1.241313012E0,2.207266264E0
1.191215558E1,-7.668266648E-1,-2.184311607E0,-1.056817571E0,2.544818993E0
1.192209358E1,-8.648739463E-1,-2.737253555E0,-1.372606393E0,3.181919590E0
1.193203258E1,-1.117321927E0,-3.326937068E0,-1.601987985E0,3.857885955E0
1.194197158E1,-1.346774271E0,-3.841294994E0,-1.623860664E0,4.382496049E0
1.195190958E1,-1.472536185E0,-4.371407073E0,-1.835257683E0,4.964446936E0
1.196184858E1,-1.628443127E0,-4.788710575E0,-2.263193470E0,5.541265259E0
1.197178758E1,-1.957428676E0,-5.166521398E0,-2.962560807E0,6.269069860E0
1.198172558E1,-2.259250692E0,-5.378285329E0,-3.637901351E0,6.874917673E0
1.199166458E1,-2.084806615E0,-5.741382219E0,-3.554391418E0,7.067077667E0
1.200160358E1,-1.604913785E0,-6.606311713E0,-3.119343663E0,7.479933663E0
1.201154158E1,-1.373174888E0,-7.106615272E0,-2.239942601E0,7.576736287E0
1.202148058E1,-1.424815012E0,-5.239089437E0,-8.292193794E-1,5.492336545E0
1.203141958E1,-8.514503472E-1,1.132002239E0,-7.304379800E-1,1.593717794E0
1.204135858E1,2.092398347E-1,3.347650244E0,1.044684306E0,3.513105288E0
1.205129658E1,-2.302269535E-1,1.465622730E0,5.003082365E0,5.218418111E0
1.206123558E1,-1.510261397E0,-3.677892798E0,5.838664684E0,7.063836792E0
1.207117458E1,-2.620588739E0,-1.056777225E1,3.205481335E0,1.134990777E1
1.208111258E1,-3.063539883E0,-1.541448838E1,7.585730276E-1,1.573426711E1
1.209105158E1,-3.324246179E0,-1.744528367E1,2.704103351E-2,1.775920230E1
1.210099058E1,-2.512283102E0,-1.405905233E1,1.726495671E-1,1.428279828E1
1.211092858E1,-5.237400761E-1,-5.586017021E0,5.409563255E-1,5.636534713E0
1.212086758E1,4.042037655E-1,4.327085763E-1,8.606991805E-2,5.983522598E-1
1.213080658E1,3.890179617E-1,4.097987761E0,-9.844125959E-1,4.232482347E0
1.214074558E1,2.838440207E-1,6.102064208E0,-1.641912189E0,6.325474738E0
1.215068358E1,3.697372797E-1,7.233507453E0,-1.087348223E0,7.324115093E0
1.216062258E1,7.569489634E-1,8.055799052E0,-3.405465174E-1,8.098446890E0
1.217056158E1,9.710880339E-1,8.679771806E0,5.954395115E-1,8.754198923E0
1.218049958E1,7.536104956E-1,9.308488991E0,1.301493140E0,9.429198294E0
1.219043858E1,3.398752570E-1,9.967922770E0,1.181433431E0,1.004344485E1
1.220037758E1,5.242675681E-2,1.054601476E1,7.747330505E-2,1.054642963E1
1.221031658E1,2.384278379E-1,1.102858313E1,-1.428736739E0,1.112329908E1
1.222025458E1,7.321041441E-1,1.131518558E1,-2.596820977E0,1.163240647E1
1.223019358E1,1.084080214E0,1.144934292E1,-2.461012377E0,1.176092110E1
1.224013258E1,1.211856786E0,1.151367048E1,-1.073009681E0,1.162688929E1
1.225007058E1,1.008649085E0,1.177022525E1,1.041432450E0,1.185918029E1
1.226000958E1,-1.155865896E-1,1.337512807E1,4.866728804E0,1.423349783E1
1.226994858E1,-2.169825715E-1,1.347398812E1,2.771496019E0,1.375778425E1
1.227988658E1,2.424343318E-1,1.207456581E1,-6.772736335E-1,1.209597510E1
1.228982558E1,1.063427263E-1,1.172338555E1,-8.539437461E-1,1.175492652E1
1.229976458E1,7.669091105E-2,1.155081433E1,-4.286302896E-1,1.155901887E1
1.230970358E1,2.539863834E-1,1.123190836E1,1.662562215E-1,1.123600977E1
1.231964158E1,4.542306788E-1,1.103319775E1,9.860998830E-1,1.108648597E1
1.232958058E1,6.058779609E-1,1.088169406E1,1.776723400E0,1.104242273E1
1.233951958E1,6.945544946E-1,1.085885483E1,2.448721675E0,1.115317767E1
1.234945758E1,7.637691557E-1,1.085692642E1,2.653129663E0,1.120246811E1
1.235939658E1,8.292024225E-1,1.078388885E1,2.454762872E0,1.109079331E1
1.236933558E1,8.784845833E-1,1.064537065E1,2.166555075E0,1.089906475E1
1.237927458E1,8.760851783E-1,1.055462186E1,2.158308162E0,1.080860130E1
1.238921258E1,7.369889081E-1,1.049167191E1,2.502982521E0,1.081125588E1
1.239915158E1,5.166740449E-1,1.044134142E1,2.885486319E0,1.084502623E1
1.240909058E1,2.724627078E-1,1.033627046E1,2.950950576E0,1.075271278E1
1.241902858E1,7.226310700E-2,1.011366930E1,2.915487213E0,1.052575861E1
1.242896758E1,6.131390333E-2,9.720343473E0,3.192079225E0,1.023123680E1
1.243890658E1,6.089264799E-2,9.172189225E0,3.605962690E0,9.855746041E0
1.244884458E1,-1.819185734E-2,8.599159752E0,3.651003792E0,9.342146867E0
1.245878358E1,-6.044582570E-1,7.301011219E0,1.397454135E0,7.458083713E0
1.246872258E1,-1.933895533E0,3.695869478E0,-4.838497277E0,6.388306429E0
1.247866158E1,-3.846586139E0,-4.033887075E0,-1.529975431E1,1.628345638E1
1.248859958E1,-2.841022629E0,-5.334293218E0,-6.001592671E0,8.517347492E0
1.249853858E1,-1.967118682E0,-3.929245888E0,9.939861982E0,1.086781419E1
1.250847758E1,-3.750847338E0,-1.272860729E1,7.735679197E0,1.535991640E1
1.251841558E1,-6.192910643E0,-2.613210488E1,-5.212488699E0,2.735706648E1
1.252835458E1,-9.571228364E0,-4.440698801E1,-1.888200654E1,4.919470670E1
1.253829358E1,-9.209286300E0,-4.892792885E1,-2.682713300E1,5.655482509E1
1.254823158E1,-4.286910422E0,-3.418716368E1,-1.301247324E1,3.683020799E1
1.255817058E1,-1.137067975E0,-1.890107314E1,1.007143603E1,2.144708169E1
1.256810958E1,-3.500914245E0,-1.160289665E1,1.192813984E1,1.700482670E1
1.257804858E1,-7.310274378E0,-5.524707211E0,-1.530656047E0,9.290070462E0
1.258798658E1,-5.788634738E0,9.925479001E-1,-5.575439408E0,8.098084221E0
1.259792558E1,-5.316764435E0,1.213483774E1,3.947831848E0,1.382416896E1
1.260786458E1,-3.847467607E0,2.296146857E1,5.586667816E0,2.394249158E1
1.261780258E1,-3.551239184E-1,1.665862501E1,-5.315937638E-1,1.667088756E1
1.262774158E1,3.612670031E-1,5.474486060E0,-7.146320790E-1,5.532739871E0
1.263768058E1,1.721013907E-1,-1.114116191E0,8.879482287E-1,1.435035133E0
1.264761958E1,-5.901507050E-2,-3.030137663E0,7.436412853E-1,3.120612023E0
1.265755758E1,-3.858773491E-1,-4.220587501E0,-3.192632371E-1,4.250198724E0
1.266749571E1,-1.114434572E0,-5.552723560E0,-1.717164100E0,5.918053387E0
1.267743471E1,-1.626332282E0,-6.410959747E0,-3.260083512E0,7.373839304E0
1.268737271E1,-5.225162539E-1,-6.086141070E0,-4.954773254E0,7.865361680E0
1.269731171E1,2.356994796E0,-3.265482831E0,-5.168588389E0,6.552336111E0
1.270725071E1,5.320036536E0,1.539731510E0,-2.203085847E0,5.960465512E0
1.271718871E1,7.234738877E0,4.019450299E0,1.455021728E0,8.403244347E0
1.272712771E1,4.012747928E0,1.297618191E0,7.676850361E-1,4.286641951E0
1.273706671E1,-8.076098245E-1,-3.381965214E-1,-2.875920859E0,3.006248709E0
1.274700571E1,-1.157054050E0,7.123779774E-1,-3.190399320E0,3.467694375E0
1.275694371E1,3.763379091E-1,9.010173404E-1,-1.177679518E0,1.529833820E0
1.276688271E1,9.991534996E-1,4.768889683E-1,-1.199725860E-1,1.113608650E0
1.277682171E1,9.725504225E-1,2.388441414E-2,-4.302831513E-1,1.063752029E0
1.278675971E1,2.506391448E-1,-4.499286264E-2,-1.238172473E0,1.264086789E0
1.279669871E1,-4.105140075E-1,6.702116588E-1,-1.639645808E0,1.818280449E0
1.280663771E1,-9.200354093E-1,1.701424272E0,-1.607736382E0,2.515179116E0
1.281657671E1,-1.203148528E0,2.248894688E0,-1.356670976E0,2.888883839E0
1.282651471E1,-1.142583068E0,2.200670362E0,-1.252679415E0,2.778066203E0
1.283645371E1,-6.755215153E-1,2.057187876E0,-1.576939098E0,2.678635510E0
1.284639271E1,-1.067885765E-1,1.890977555E0,-1.488992296E0,2.409211069E0
1.285633071E1,1.695967358E-1,1.647038442E0,-9.853441304E-1,1.926759388E0
1.286626971E1,4.772403860E-1,1.461565054E0,-6.905842352E-1,1.685478383E0
1.287620871E1,6.306634310E-1,1.266230337E0,-8.032238281E-1,1.626728050E0
1.288614671E1,3.878224254E-1,1.313442218E0,-9.978782219E-1,1.694490377E0
1.289608571E1,-2.421612668E-1,1.535772361E0,-1.180997229E0,1.952432656E0
1.290602471E1,-8.857847589E-1,1.636305586E0,-1.107587190E0,2.165377564E0
1.291596371E1,-1.177036032E0,1.663307735E0,-9.883022368E-1,2.264673874E0
1.292590171E1,-1.093928679E0,1.679665906E0,-8.527976918E-1,2.178352913E0
1.293584071E1,-7.410845903E-1,1.712407682E0,-7.305201334E-1,2.003797920E0
1.294577971E1,-4.450973645E-1,1.649746580E0,-7.196139067E-1,1.854081880E0
1.295571771E1,-1.978896582E-1,1.420244243E0,-8.518024957E-1,1.667879348E0
1.296565671E1,-7.177281797E-2,1.253985975E0,-1.207595043E0,1.742388576E0
1.297559571E1,-6.583613992E-2,1.166371880E0,-1.336610933E0,1.775186341E0
1.298553471E1,-2.392426291E-1,1.098583063E0,-1.123847712E0,1.589702948E0
1.299547271E1,-3.539363489E-1,1.005546553E0,-1.003589782E0,1.464099471E0
1.300541171E1,-4.478490642E-1,8.828845400E-1,-1.105281633E0,1.483813123E0
1.301535071E1,-5.452642617E-1,8.654452193E-1,-1.222808329E0,1.594229830E0
1.302528871E1,-4.481539965E-1,9.689388898E-1,-1.112556739E0,1.541903717E0
1.303522771E1,-1.048753676E-1,1.081526442E0,-9.759295285E-1,1.460526184E0
1.304516671E1,-1.151696831E-2,1.087074281E0,-9.747770423E-1,1.460155271E0
1.305510571E1,-9.937576890E-2,1.114710561E0,-1.095286403E0,1.565920650E0
1.306504371E1,-1.274923977E-1,1.216909365E0,-1.182701107E0,1.701735768E0
1.307498271E1,-1.556897181E-1,1.291937328E0,-1.114589231E0,1.713374011E0
1.308492171E1,-2.669894215E-1,1.462440383E0,-1.014807665E0,1.799958283E0
1.309485971E1,-4.764533508E-1,1.516246753E0,-1.040274628E0,1.899521865E0
1.310479871E1,-5.688241553E-1,1.475130887E0,-1.230654708E0,2.003517672E0
1.311473771E1,-5.785904673E-1,1.500118671E0,-1.205963670E0,2.009843608E0
1.312467571E1,-4.829282650E-1,1.543811113E0,-1.019411763E0,1.912007532E0
1.313461471E1,-3.010140771E-1,1.488483004E0,-1.052516359E0,1.847696353E0
1.314455371E1,-3.020002100E-1,1.449990199E0,-1.359149026E0,2.010214361E0
1.315449271E1,-4.120722905E-1,1.478556186E0,-1.377098808E0,2.062118594E0
1.316443071E1,-4.685508388E-1,1.548505842E0,-1.296866823E0,2.073469023E0
1.317436971E1,-3.982705227E-1,1.723406587E0,-1.544165454E0,2.348019724E0
1.318430871E1,-4.015166044E-1,1.703774561E0,-1.726862876E0,2.458885669E0
1.319424671E1,-5.714881468E-1,1.410960619E0,-1.688826739E0,2.273663195E0
1.320418571E1,-5.170648947E-1,9.566003877E-1,-1.727362229E0,2.041132204E0
1.321412471E1,-4.332772180E-1,3.036353838E-1,-1.889551127E0,1.962225027E0
1.322406371E1,-6.544373327E-1,-4.785495776E-1,-2.143859400E0,2.292036441E0
1.323400171E1,-8.891705891E-1,-1.446473683E0,-2.645509572E0,3.143506219E0
1.324394071E1,-1.013201435E0,-2.619229846E0,-3.005893938E0,4.113677248E0
1.325387971E1,-1.182510488E0,-4.018145785E0,-2.939152064E0,5.116878097E0
1.326381771E1,-1.517590590E0,-5.261356219E0,-3.182274613E0,6.333389470E0
1.327375671E1,-2.181343268E0,-5.438166665E0,-3.938370468E0,7.059934636E0
1.328369571E1,-2.770980003E0,-4.624872177E0,-4.487929217E0,7.014932750E0
1.329363471E1,-3.046584127E0,-3.876361915E0,-4.211763468E0,6.484351012E0
1.330357271E1,-3.217915439E0,-3.828358614E0,-3.781689647E0,6.269966988E0
1.331351171E1,-3.384160259E0,-4.900426308E0,-4.201216260E0,7.288136711E0
1.332345071E1,-3.907975179E0,-6.560277169E0,-4.094621519E0,8.664608007E0
1.333338871E1,-4.540984806E0,-8.579281558E0,-3.087027563E0,1.018598813E1
1.334332771E1,-4.976186342E0,-1.080080134E1,-2.167761063E0,1.208796625E1
1.335326671E1,-5.153849312E0,-1.277629250E1,-8.268541807E-1,1.380143111E1
1.336320571E1,-4.820836055E0,-1.394209983E1,-1.388757572E-1,1.475269109E1
1.337314371E1,-3.972419097E0,-1.377194937E1,-2.938670254E-1,1.433642426E1
1.338308271E1,-2.969476602E0,-1.266011534E1,-7.198597822E-1,1.302361355E1
1.339302171E1,-1.858932475E0,-1.110096932E1,-5.505466363E-1,1.126899514E1
1.340295971E1,-1.407893900E0,-8.795161929E0,5.214643398E-1,8.922385536E0
1.341289871E1,-1.557041169E0,-5.308911624E0,1.422282875E0,5.712425790E0
1.342283771E1,-1.340476381E0,-2.043937501E0,2.328098440E0,3.375588805E0
1.343277571E1,-9.361879040E-1,9.343043697E-1,3.197835224E0,3.460566798E0
1.344271471E1,-5.011753786E-1,3.485431695E0,3.216386392E0,4.769124897E0
1.345265371E1,-1.159996954E-1,5.434736688E0,2.280893576E0,5.895107658E0
1.346259271E1,3.994056134E-1,6.696881576E0,3.403559712E-1,6.717409461E0
1.347253071E1,9.607768346E-1,7.552586503E0,-1.801365759E0,7.823654748E0
1.348246971E1,1.489246797E0,8.321279014E0,-3.282239782E0,9.068331624E0
1.349240871E1,1.836312667E0,9.075632399E0,-3.929733546E0,1.005892407E1
1.350234671E1,2.129056881E0,9.758376102E0,-3.635003471E0,1.062883049E1
1.351228571E1,2.263130612E0,1.029122117E1,-2.457226889E0,1.081984091E1
1.352222471E1,2.082563038E0,1.046550211E1,-6.194879401E-1,1.068866542E1
1.353216371E1,1.686151930E0,1.050975384E1,9.934840393E-1,1.069041836E1
1.354210171E1,1.242122852E0,1.077046364E1,2.638340886E0,1.115825250E1
1.355204071E1,4.325884160E-1,1.213160423E1,4.948807340E0,1.310929624E1
1.356197971E1,5.569655634E-2,1.315961959E1,4.469418687E0,1.389799961E1
1.357191871E1,7.318775645E-1,1.201676725E1,8.045663488E-1,1.206588857E1
1.358185671E1,1.200007989E0,1.126495916E1,-2.348107320E0,1.156948279E1
1.359179571E1,1.019312360E0,1.141033030E1,-3.604590933E0,1.200948421E1
1.360173471E1,5.858614799E-1,1.155404433E1,-3.254796460E0,1.201802289E1
1.361167271E1,2.303496171E-1,1.153788497E1,-1.885355165E0,1.169317812E1
1.362161171E1,-8.652152410E-2,1.190512987E1,-6.176523529E-2,1.190560449E1
1.363155071E1,-1.925149341E-1,1.239639305E1,8.474146720E-1,1.242681513E1
1.364148971E1,9.968336899E-2,1.226669245E1,-1.227769107E-3,1.226709754E1
1.365142771E1,3.513750126E-1,1.174996582E1,-9.291820626E-1,1.179188452E1
1.366136671E1,5.522800068E-1,1.133677583E1,-7.426702090E-1,1.137449157E1
1.367130596E1,8.583560550E-1,1.100102871E1,2.927491108E-1,1.103834724E1
1.368124396E1,1.438153388E0,1.050817860E1,1.585284098E0,1.072395581E1
1.369118296E1,1.824682409E0,9.944743237E0,2.732840077E0,1.047357622E1
1.370112196E1,1.549250777E0,9.377573259E0,3.382892875E0,1.008875723E1
1.371106096E1,1.145612803E0,8.942153914E0,3.535787916E0,9.683818539E0
1.372099896E1,8.478986022E-1,8.707202264E0,3.488103873E0,9.418129959E0
1.373093796E1,6.124032343E-1,8.634875130E0,3.577414537E0,9.366642995E0
1.374087696E1,4.188684727E-1,8.600419242E0,3.842121205E0,9.428921322E0
1.375081496E1,2.127255792E-1,8.560378094E0,3.916707411E0,9.416258399E0
1.376075396E1,8.486886341E-2,8.334583184E0,3.348804485E0,8.982592669E0
1.377069296E1,1.787353857E-1,7.625648632E0,1.496076929E0,7.773075940E0
1.378063196E1,1.583780486E-2,6.131175740E0,-1.659404573E0,6.351786389E0
1.379056996E1,-1.836283869E0,3.120769506E0,-4.974726877E0,6.152970686E0
1.380050896E1,-3.648042178E0,8.425323200E-1,-3.228414992E0,4.943757255E0
1.381044796E1,-3.191325226E0,-9.735713464E-1,4.357961985E-1,3.364864959E0
1.382038596E1,-3.938130440E0,-6.060608618E0,-1.906647216E0,7.474968347E0
1.383032496E1,-5.762210001E0,-1.390385787E1,-5.181380342E0,1.591750703E1
1.384026396E1,-5.839765715E0,-2.412472067E1,-2.217329664E0,2.492030421E1
1.385020296E1,-6.408748915E0,-3.492828423E1,-8.809245533E0,3.658770160E1
1.386014096E1,-2.578483231E0,-3.751722784E1,-1.174480858E1,3.939710000E1
1.387007996E1,2.556062375E0,-2.716718368E1,-2.333967583E0,2.738679843E1
1.388001896E1,1.458822272E0,-1.373713037E1,1.967560585E0,1.395378829E1
1.388995696E1,-7.899135187E-1,-6.533335539E0,-1.250113072E0,6.698598310E0
1.389989596E1,-1.186395670E0,-2.117055763E0,-4.597122461E0,5.198364619E0
1.390983496E1,-5.815001880E-1,1.103105299E0,-2.415341529E0,2.718245477E0
1.391977396E1,8.480693409E-1,4.658148682E0,1.150435587E0,4.872481173E0
1.392971196E1,7.038536140E-1,7.605315524E0,-4.506788242E-1,7.651100936E0
1.393965096E1,-1.230500341E0,4.414441996E0,-3.010155389E0,5.482924830E0
1.394958996E1,-3.120506381E0,-1.161349415E0,-2.127731609E0,3.951396505E0
1.395952796E1,-3.914498041E0,-2.282536059E0,-8.491080987E-1,4.610233219E0
1.396946696E1,-2.851489730E0,1.450500076E0,-7.571384132E-1,3.287583113E0
1.397940596E1,-9.640570495E-1,3.532937983E0,-5.657186991E-1,3.705549141E0
1.398934496E1,-5.333014432E-1,-9.104465604E-2,-3.996098274E-1,6.725976307E-1
1.399928296E1,-3.993662909E-1,-1.902102175E0,-1.498716801E0,2.454310121E0
1.400922196E1,1.658504248E-1,-1.329390206E0,-1.364945955E0,1.912553828E0
1.401916096E1,1.136487054E0,-8.275652021E-1,-1.960740978E-1,1.419475973E0
1.402909896E1,1.912445315E0,-5.401114029E-1,1.940649945E-1,1.996704443E0
1.403903796E1,1.835798258E0,-3.988555366E-1,-4.093489498E-1,1.922708388E0
1.404897696E1,1.557955527E0,-3.585050708E-1,-1.211353049E0,2.005773546E0
1.405891596E1,1.058120623E0,-4.474605167E-1,-2.002940333E0,2.309027965E0
1.406885396E1,2.443288296E-1,-6.714141387E-1,-3.294885555E0,3.371463235E0
1.407879296E1,-7.660688657E-1,-8.393683916E-1,-4.385799994E0,4.530633774E0
1.408873196E1,-1.131814251E0,-6.208854246E-1,-3.654986916E0,3.876265156E0
1.409866996E1,-1.088568537E0,-4.869151890E-2,-1.510680789E0,1.862661743E0
1.410860896E1,-1.304791847E0,1.623725009E-1,-3.005433762E-1,1.348767183E0
1.411854796E1,-1.969470578E0,5.075698936E-1,-3.458920419E-1,2.063027595E0
1.412848696E1,-1.914547097E0,8.824664640E-1,-5.603187954E-1,2.181328677E0
1.413842496E1,-1.283950324E0,8.737020725E-1,-1.031803182E0,1.864537893E0
1.414836396E1,-7.313875678E-1,6.861999929E-1,-1.151969311E0,1.527360959E0
1.415830296E1,-3.825222167E-1,6.407542634E-1,-9.662254894E-1,1.220852558E0
1.416824196E1,-2.133111048E-1,5.088849324E-1,-9.105523950E-1,1.064692991E0
1.417817996E1,-1.872977194E-1,5.703087634E-1,-5.960125387E-1,8.459098460E-1
1.418811896E1,-2.629723844E-1,6.803340662E-1,-3.197584963E-1,7.964009119E-1
1.419805796E1,-8.574371651E-1,6.858737183E-1,-5.602568150E-1,1.232683637E0
1.420799596E1,-1.722874491E0,6.374868393E-1,-8.628338528E-1,2.029573413E0
1.421793496E1,-1.942819262E0,5.559719753E-1,-9.143717963E-1,2.218045830E0
1.422787396E1,-1.663332294E0,5.118231583E-1,-7.776551235E-1,1.906143949E0
1.423781296E1,-1.241950651E0,5.525829291E-1,-7.358650732E-1,1.545731775E0
1.424775096E1,-6.468689892E-1,7.517157054E-1,-7.006554794E-1,1.214262777E0
1.425768996E1,-2.993677935E-1,8.905823994E-1,-7.277970850E-1,1.188464001E0
1.426762896E1,-3.879113030E-1,7.555959177E-1,-1.003855830E0,1.314962698E0
1.427756696E1,-7.294199798E-1,6.057972693E-1,-1.133630689E0,1.477891193E0
1.428750596E1,-9.341906413E-1,6.197411245E-1,-1.043959544E0,1.531875564E0
1.429744496E1,-1.058001632E0,5.269721246E-1,-8.437041020E-1,1.452206489E0
1.430738396E1,-9.790308917E-1,3.828891295E-1,-7.422853160E-1,1.286892794E0
1.431732196E1,-6.699418098E-1,3.196023756E-1,-7.435851520E-1,1.050660071E0
1.432726096E1,-5.322103527E-1,2.546468264E-1,-6.965805548E-1,9.128621665E-1
1.433719996E1,-5.710551605E-1,8.487993658E-2,-6.970261127E-1,9.050712688E-1
1.434713796E1,-6.838198838E-1,-5.292314887E-3,-7.374748117E-1,1.005736914E0
1.435707696E1,-6.907675454E-1,3.168021441E-2,-7.973976624E-1,1.055465049E0
1.436701596E1,-5.450157550E-1,1.110473961E-1,-8.603768528E-1,1.024510628E0
1.437695496E1,-4.186448532E-1,2.562641662E-1,-8.775255668E-1,1.005477974E0
1.438689296E1,-3.655246532E-1,3.887702590E-1,-8.970207685E-1,1.043741752E0
1.439683196E1,-2.532996279E-1,5.449026114E-1,-8.610913825E-1,1.050027584E0
1.440677096E1,-1.488047679E-1,7.490563917E-1,-8.497875452E-1,1.142526678E0
1.441670896E1,-1.551508972E-1,8.781406939E-1,-8.470159650E-1,1.229893867E0
1.442664796E1,-1.418095976E-1,9.189098203E-1,-9.231853044E-1,1.310258114E0
1.443658696E1,-1.891201504E-1,1.003724268E0,-8.783248812E-1,1.347101865E0
1.444652596E1,-3.412486218E-1,1.057285933E0,-7.313264644E-1,1.330091186E0
1.445646396E1,-4.093251224E-1,1.072195163E0,-7.824855083E-1,1.389040350E0
1.446640296E1,-4.528702144E-1,1.096100335E0,-7.359106815E-1,1.395740630E0
1.447634196E1,-4.846643034E-1,1.093461487E0,-6.100914645E-1,1.342672374E0
1.448628096E1,-4.939654693E-1,1.011234432E0,-8.209642804E-1,1.393046773E0
1.449621896E1,-5.359780061E-1,8.756065106E-1,-9.848710907E-1,1.422649025E0
1.450615796E1,-5.201455003E-1,7.210236704E-1,-7.787824667E-1,1.181917343E0
1.451609696E1,-4.604328570E-1,5.598592043E-1,-7.408837384E-1,1.036508301E0
1.452603496E1,-5.983112253E-1,3.525245386E-1,-1.023051070E0,1.236480232E0
1.453597396E1,-7.492392634E-1,2.159429365E-1,-1.361121876E0,1.568643869E0
1.454591296E1,-6.947965693E-1,8.932791352E-3,-1.422618213E0,1.583244974E0
1.455585196E1,-5.336152925E-1,-1.376960814E-1,-1.208980249E0,1.328660503E0
1.456578996E1,-2.562233819E-1,-2.596046805E-1,-1.211969345E0,1.265667692E0
1.457572896E1,1.363048826E-1,-4.886804634E-1,-1.390152717E0,1.479835191E0
1.458566796E1,4.818148090E-1,-8.167291421E-1,-1.779659141E0,2.016526384E0
1.459560596E1,7.380578522E-1,-1.117307602E0,-2.047997807E0,2.446916567E0
1.460554496E1,8.197514217E-1,-1.321918634E0,-1.851711456E0,2.418325161E0
1.461548396E1,8.405148114E-1,-1.536942388E0,-1.913966176E0,2.594595070E0
1.462542296E1,7.921597266E-1,-1.521760093E0,-1.798113538E0,2.485253128E0
1.463536096E1,6.888000304E-1,-1.449704270E0,-1.915885232E0,2.499340748E0
1.464529996E1,5.945145551E-1,-1.323558193E0,-2.050753600E0,2.512139362E0
1.465523896E1,2.105445678E-1,-1.244245976E0,-1.885570927E0,2.268888447E0
1.466517796E1,-2.490766957E-1,-1.155732579E0,-1.919759597E0,2.254602827E0
1.467511612E1,-7.982467512E-1,-9.815025097E-1,-2.323822079E0,2.645882482E0
1.468505513E1,-1.390808482E0,-9.419326472E-1,-2.442884839E0,2.964670586E0
1.469499412E1,-1.917843172E0,-9.763171989E-1,-1.873097062E0,2.853035280E0
1.470493213E1,-2.232945823E0,-1.042107146E0,-1.573077596E0,2.923458137E0
1.471487112E1,-2.422012325E0,-1.468015995E0,-1.787295020E0,3.348975687E0
1.472481013E1,-2.516381416E0,-2.339361640E0,-2.282281705E0,4.124754307E0
1.473474912E1,-2.466743233E0,-4.086606740E0,-2.253928556E0,5.278766027E0
1.474468712E1,-2.162269650E0,-6.951875142E0,-3.347905183E0,8.013266946E0
1.475462613E1,-1.852484311E0,-1.040961559E1,-4.149468986E0,1.135825197E1
1.476456512E1,-1.441885227E0,-1.354166847E1,-3.122776271E0,1.397166954E1
1.477450313E1,-6.149034306E-1,-1.562244811E1,-1.841687281E0,1.574264283E1
1.478444212E1,2.429468402E-1,-1.671497463E1,-9.628984237E-1,1.674444903E1
1.479438113E1,2.297425117E-1,-1.687559530E1,-1.145770970E0,1.691600690E1
1.480432012E1,-8.439258577E-1,-1.545857872E1,-1.700894807E0,1.557475233E1
1.481425812E1,-1.710851300E0,-1.171520880E1,-1.655889958E0,1.195471041E1
1.482419713E1,-1.757813943E0,-8.298622223E0,-2.325411353E-1,8.485936368E0
1.483413612E1,-1.422981325E0,-5.131136388E0,1.143955995E0,5.446289728E0
1.484407513E1,-1.313825503E0,-2.218322521E0,1.778521565E0,3.132128864E0
1.485401312E1,-1.135664935E0,5.757747406E-1,2.065751270E0,2.426639591E0
1.486395213E1,-6.244262061E-1,2.912764750E0,1.958792539E0,3.565245403E0
1.487389112E1,-1.802135253E-1,4.636046791E0,1.083470349E0,4.764379788E0
1.488382912E1,3.332209429E-2,5.629238470E0,-5.844783942E-1,5.659598140E0
1.489376813E1,2.123562545E-1,6.295620494E0,-1.923198345E0,6.586245096E0
1.490370712E1,4.950951514E-1,7.111228141E0,-2.311766875E0,7.493927606E0
1.491364613E1,6.204483452E-1,7.997433314E0,-1.842588630E0,8.230372326E0
1.492358412E1,6.927409807E-1,8.909539899E0,-8.616970079E-1,8.977879093E0
1.493352313E1,5.923021880E-1,9.594180440E0,1.525047398E-1,9.613655802E0
1.494346212E1,3.052249494E-1,1.011395932E1,9.723919630E-1,1.016517986E1
1.495340112E1,4.078052392E-2,1.053445599E1,1.378302165E0,1.062431846E1
1.496333913E1,-8.774857144E-2,1.076923573E1,1.576051490E0,1.088430412E1
1.497327812E1,-2.372595459E-1,1.096572673E1,1.548024616E0,1.107699576E1
1.498321713E1,-4.300928244E-1,1.202732966E1,1.056676214E0,1.208131629E1
1.499315512E1,-4.895897055E-1,1.357583843E1,-5.552714789E-1,1.359600727E1
1.500309413E1,-5.973573983E-2,1.405188131E1,-2.658057697E0,1.430119601E1
1.501303312E1,2.802994385E-1,1.343546549E1,-2.737538899E0,1.371438734E1
1.502297212E1,3.515974626E-1,1.253600234E1,-1.490427203E0,1.262918639E1
1.503291013E1,3.623922998E-1,1.204572851E1,-1.127086631E-1,1.205170556E1
1.504284912E1,4.155160447E-1,1.184714654E1,1.100508186E0,1.190540437E1
1.505278813E1,4.235965678E-1,1.183193560E1,1.672158666E0,1.195701671E1
1.506272712E1,3.806198251E-1,1.201414419E1,1.510891289E0,1.211475648E1
1.507266513E1,4.336213632E-1,1.215963227E1,8.614270858E-1,1.219781706E1
1.508260412E1,6.277006468E-1,1.215906042E1,1.106866229E-1,1.217575500E1
1.509254312E1,1.019288094E0,1.178677638E1,-3.156525815E-1,1.183497707E1
1.510248113E1,1.399014465E0,1.121825277E1,-5.028769183E-1,1.131632988E1
1.511242012E1,1.507329165E0,1.086705965E1,-2.285618126E-1,1.097348017E1
1.512235913E1,1.253027909E0,1.064114077E1,6.963343140E-1,1.073726396E1
1.513229812E1,7.274614549E-1,1.040822162E1,1.878087076E0,1.060129655E1
1.514223613E1,2.356948676E-1,1.023963703E1,2.910708869E0,1.064790800E1
1.515217512E1,-8.693753522E-2,1.014062964E1,3.631781656E0,1.077171136E1
1.516211412E1,-1.994619745E-1,1.001765451E1,3.906920049E0,1.075440427E1
1.517205312E1,-1.027168679E-1,9.862189908E0,3.814231156E0,1.057457800E1
1.518199112E1,1.107930422E-2,9.657813349E0,3.622289286E0,1.031476908E1
1.519193013E1,7.771475852E-2,9.340836958E0,3.458630397E0,9.960893478E0
1.520186912E1,1.557411736E-1,8.935065919E0,3.159726580E0,9.478582719E0
1.521180713E1,1.532110469E-1,8.160576478E0,1.854001225E0,8.369934446E0
1.522174612E1,-8.926549450E-1,5.332610389E0,-4.938080038E0,7.322445006E0
1.523168512E1,-5.090254995E0,-1.512851275E0,-1.447925664E1,1.542233081E1
1.524162412E1,-4.834464453E0,-4.134577882E0,-6.693628185E0,9.234253575E0
1.525156212E1,-2.273769913E0,-5.464183851E0,5.101372890E0,7.813535700E0
1.526150113E1,-7.058597206E-1,-1.493498161E1,1.040950859E0,1.498784482E1
1.527144012E1,4.066709981E-1,-2.325662198E1,-2.410582188E0,2.338475473E1
1.528137913E1,2.314770589E0,-3.033673007E1,1.231168678E0,3.044981331E1
1.529131712E1,2.369292806E0,-3.553276470E1,-1.057545549E1,3.714877084E1
1.530125612E1,-3.700832010E0,-3.208451896E1,-1.324679222E1,3.490830873E1
1.531119512E1,-4.496657941E0,-1.867741480E1,-1.315501315E0,1.925607177E1
1.532113312E1,-2.937475960E0,-6.093334315E0,1.648834122E0,6.962481027E0
1.533107213E1,-4.712332490E0,6.541581282E0,1.573731315E0,8.214316370E0
1.534101112E1,-4.420495618E0,1.344094316E1,-9.870550257E-1,1.418358249E1
1.535095013E1,-3.747039632E0,6.085849879E0,-1.828771659E0,7.377145825E0
1.536088812E1,-1.964425600E0,-8.720829785E-2,2.139292724E0,2.905709309E0
1.537082712E1,-7.029923192E-1,1.332527822E-1,2.903259516E-2,7.160987337E-1
1.538076612E1,-1.535427082E0,-2.143167674E0,-1.081455984E0,2.849605420E0
1.539070512E1,-3.849746852E-1,-2.715267439E0,-1.033794159E0,2.930804180E0
1.540064313E1,-2.835303175E-1,-3.497586302E0,-2.390338250E0,4.245846951E0
1.541058212E1,-3.632141259E-1,-4.108668870E0,-3.416095412E0,5.355631825E0
1.542052113E1,-9.430140898E-2,-4.724853718E0,-4.769718234E0,6.714413410E0
1.543045912E1,1.421143837E-1,-4.811964367E0,-6.259366588E0,7.896509840E0
1.544039812E1,6.316323146E-1,-4.128800833E0,-4.624413756E0,6.231465180E0
1.545033712E1,-1.349595845E-2,-2.642566084E0,-5.774183929E-1,2.704949103E0
1.546027612E1,-1.801376577E0,-7.999926567E-1,5.836176109E-1,2.055615562E0
1.547021413E1,-2.750136725E0,8.479059112E-1,-3.190468901E-1,2.895511589E0
1.548015312E1,-1.587701337E0,1.687111166E0,-1.346033136E0,2.679355300E0
1.549009213E1,6.307830065E-3,1.799385307E0,-1.223647404E0,2.176037739E0
1.550003112E1,1.094490377E0,1.261829723E0,-1.613728024E0,2.322550661E0
1.550996912E1,1.222154464E0,1.203099704E-1,-2.124520903E0,2.453920351E0
1.551990812E1,9.606168401E-1,-5.682517129E-1,-2.462751923E0,2.703856830E0
1.552984712E1,7.219579093E-1,-7.145098722E-1,-2.282871689E0,2.498649781E0
1.553978513E1,2.786782980E-2,-7.234128428E-1,-2.247492526E0,2.361212699E0
1.554972412E1,-1.185925408E0,-6.995848542E-1,-2.438744425E0,2.800591440E0
1.555966313E1,-2.116402483E0,-2.109920990E-1,-2.147169508E0,3.022253138E0
1.556960212E1,-2.160944964E0,3.668847156E-1,-1.737711800E0,2.797128855E0
1.557954012E1,-1.551616853E0,5.395804757E-1,-1.549095241E0,2.257954387E0
1.558947912E1,-7.671715043E-1,3.144755369E-1,-1.340079501E0,1.575836302E0
1.559941812E1,-2.078085825E-1,-4.176736307E-1,-1.310793722E0,1.391335994E0
1.560935713E1,2.413708694E-1,1.630244654E-1,-1.529758499E0,1.557240488E0
1.561929512E1,4.802135490E-1,-1.988749141E-1,-1.523401991E0,1.609630365E0
1.562923413E1,-2.052385850E-1,-3.859045386E-1,-1.573640099E0,1.633214116E0
1.563917312E1,-7.683179241E-1,-2.745688748E-1,-1.543204756E0,1.745617776E0
1.564911112E1,-1.130495412E0,-1.841142029E-1,-1.409778312E0,1.816423080E0
1.565905012E1,-1.363651382E0,5.616835356E-2,-1.234602163E0,1.840364767E0
1.566898912E1,-1.394181156E0,2.938050449E-1,-1.196995211E0,1.860876147E0
1.567892837E1,-1.098508657E0,3.988146061E-1,-1.008604354E0,1.543715357E0
1.568886637E1,-7.598621193E-1,3.567099756E-1,-1.002516233E0,1.307543974E0
1.569880537E1,-3.928674761E-1,2.962146825E-1,-1.013545251E0,1.126659651E0
1.570874437E1,-7.339965954E-2,2.853008544E-1,-9.272520429E-1,9.729236551E-1
1.571868338E1,2.082032695E-2,2.293868548E-1,-9.009857655E-1,9.299608404E-1
1.572862137E1,2.836330824E-2,2.327226913E-1,-8.107228822E-1,8.439407088E-1
1.573856038E1,-1.144446284E-3,3.272873712E-1,-6.908894598E-1,7.644910587E-1
1.574849937E1,-1.025779235E-1,4.697752458E-1,-5.589289123E-1,7.373008483E-1
1.575843737E1,-2.561719264E-1,5.534740448E-1,-6.242358792E-1,8.727130153E-1
1.576837637E1,-2.591060592E-1,6.569294161E-1,-6.700020361E-1,9.734448808E-1
1.577831537E1,-2.773022289E-1,7.367713916E-1,-7.646807367E-1,1.097481316E0
1.578825438E1,-2.469194385E-1,6.451320738E-1,-7.861441112E-1,1.046511904E0
1.579819237E1,-7.677321061E-3,6.804960340E-1,-8.416663474E-1,1.082375182E0
1.580813138E1,1.414771834E-1,7.220440096E-1,-1.028625805E0,1.264687468E0
1.581807037E1,1.581492763E-1,7.623248935E-1,-1.050817743E0,1.307810524E0
1.582800937E1,6.439999066E-2,7.700233376E-1,-8.506909400E-1,1.149242522E0
1.583794737E1,-1.114121527E-1,8.849608862E-1,-6.956140101E-1,1.131126557E0
1.584788637E1,1.407205537E-3,8.786646044E-1,-6.731092465E-1,1.106855693E0
1.585782538E1,-1.373806607E-1,8.812730473E-1,-8.590220529E-1,1.238319231E0
1.586776337E1,-4.914882964E-1,9.362637717E-1,-8.805275273E-1,1.376037544E0
1.587770238E1,-9.150646182E-1,3.130230886E-1,-1.256649089E0,1.585715499E0
1.588764137E1,-4.638887807E-1,1.177319330E-1,-1.631822233E0,1.700557970E0
1.589758037E1,2.874370616E-1,2.049712211E-1,-1.377749603E0,1.422261311E0
1.590751837E1,7.236902931E-1,5.165213960E-1,-1.175642933E0,1.473993996E0
1.591745737E1,9.778199333E-1,8.824272877E-1,-1.452980465E0,1.961112432E0
1.592739638E1,1.070715525E0,1.059072842E0,-1.644297268E0,2.229748983E0
1.593733537E1,1.138283318E0,1.064802529E0,-1.280362473E0,2.017131974E0
1.594727338E1,1.266960070E0,9.461841577E-1,-1.371377892E0,2.093114809E0
1.595721237E1,1.260982169E0,7.850196916E-1,-1.793973125E0,2.329092424E0
1.596715137E1,1.229554554E0,5.958669430E-1,-2.086160830E0,2.493778022E0
1.597708937E1,1.157816527E0,2.589416063E-1,-1.740126116E0,2.106093247E0
1.598702837E1,1.376328145E0,-3.567555839E-1,-1.943302826E0,2.407899413E0
1.599696738E1,1.520342143E0,-1.102826387E0,-2.104166746E0,2.820493568E0
1.600690637E1,1.459151031E0,-1.914438631E0,-1.403244048E0,2.786268268E0
1.601684438E1,1.403263929E0,-2.588652416E0,-1.560453458E0,3.332459449E0
1.602678337E1,1.021162712E0,-2.901205974E0,-2.853600867E0,4.195569961E0
1.603672237E1,2.666324490E-1,-2.932776260E0,-3.239234095E0,4.377774204E0
1.604666137E1,-1.105053592E-1,-2.988891989E0,-3.674221916E0,4.737678065E0
1.605659937E1,-9.258539736E-2,-3.748678606E0,-3.741288310E0,5.297018177E0
1.606653838E1,-5.609878083E-2,-5.651600561E0,-4.114806692E0,6.991092196E0
1.607647737E1,-4.026686886E-2,-7.885332835E0,-4.321985237E0,8.992199493E0
1.608641638E1,-4.577466461E-1,-9.946303275E0,-4.156904891E0,1.078973304E1
1.609635437E1,-1.320565881E0,-9.670349779E0,-3.188149896E0,1.026761213E1
1.610629337E1,-1.561001050E0,-1.118384308E1,-8.478503627E-1,1.132404170E1
1.611623237E1,-2.187400399E0,-1.347082478E1,1.585697057E0,1.373907842E1
1.612617037E1,-2.068909058E0,-1.443920087E1,1.592594140E0,1.467335212E1
1.613610938E1,-1.624982453E0,-1.656794873E1,1.214817524E0,1.669171275E1
1.614604837E1,-1.405376674E0,-1.787992242E1,-1.037766758E-1,1.793536949E1
1.615598738E1,-2.365607159E0,-1.563893258E1,-1.129813042E0,1.585713678E1
1.616592537E1,-2.764395453E0,-1.042894883E1,-1.046686685E0,1.083976055E1
1.617586437E1,-1.929731000E0,-5.062611698E0,-1.245958333E-1,5.419356333E0
1.618580337E1,-1.173665843E0,-4.665505064E-1,8.126555331E-1,1.501855487E0
1.619574237E1,-1.086757069E0,3.118804257E0,5.037912767E-1,3.340926005E0
1.620568038E1,-1.020666868E0,5.308812221E0,-1.133153044E0,5.523520967E0
1.621561937E1,-2.772156170E-1,6.178493748E0,-2.337948368E0,6.611855720E0
1.622555838E1,1.427277859E0,6.431357174E0,-2.005673321E0,6.886378051E0
1.623549737E1,2.632762642E0,6.795563280E0,-8.714736986E-1,7.339658427E0
1.624543537E1,2.943178749E0,7.382603851E0,9.868470110E-2,7.948262668E0
1.625537437E1,2.838232338E0,8.074525344E0,6.757837629E-1,8.585464812E0
1.626531337E1,2.531480388E0,8.809786985E0,3.405745840E-1,9.172607629E0
1.627525138E1,2.214024087E0,9.551529095E0,-6.784313822E-1,9.828218549E0
1.628519037E1,2.115855183E0,1.021011093E1,-2.064018009E0,1.062936399E1
1.629512938E1,2.273100115E0,1.072955886E1,-3.332060398E0,1.146268049E1
1.630506837E1,2.361255223E0,1.091235335E1,-2.745472401E0,1.149750410E1
1.631500637E1,2.066862241E0,1.122735221E1,3.627856712E-1,1.142177616E1
1.632494537E1,1.062424612E0,1.358879118E1,5.346522084E0,1.464135548E1
1.633488437E1,9.186184828E-1,1.482216309E1,5.616062354E0,1.587704428E1
1.634482338E1,1.878613179E0,1.261886908E1,2.039881872E0,1.291999081E1
1.635476137E1,2.297176171E0,1.130983420E1,-2.599555866E-1,1.154369720E1
1.636470038E1,2.430551891E0,1.138229641E1,-8.935036683E-1,1.167315736E1
