"Time (s)","Linear Acceleration x (m/s^2)","Linear Acceleration y (m/s^2)","Linear Acceleration z (m/s^2)","Absolute acceleration (m/s^2)"
8.735583338E-3,-4.443130336E-1,3.131359398E-2,2.203231004E0,2.247803699E0
1.867458333E-2,-2.739861267E-1,-1.235295643E0,3.037216887E0,3.290244694E0
2.861358334E-2,-5.604462647E-1,-2.138040251E0,3.352909230E0,4.015883020E0
3.855258334E-2,-8.539292742E-1,-2.622881432E0,2.643488774E0,3.820567381E0
4.849158334E-2,-1.045908494E0,-2.256073900E0,1.656653019E0,2.988024974E0
5.843058333E-2,-8.654361561E-1,-5.970135820E-1,8.322435594E-1,1.340908013E0
6.836929166E-2,-7.010501665E-1,1.080826823E0,1.160482857E0,1.733891121E0
7.830829168E-2,-5.288059576E-1,1.172845041E0,1.722669253E0,2.150067577E0
8.824729167E-2,1.089738272E-1,-1.379317242E-1,1.710698833E0,1.719706648E0
9.818629167E-2,1.121530607E0,-2.238708839E0,9.551672351E-1,2.679923994E0
1.081252917E-1,2.805401099E0,-4.521105149E0,5.047644361E-1,5.344665961E0
1.180642917E-1,4.488044992E0,-7.540843540E0,1.777557213E-2,8.775373788E0
1.280032917E-1,5.788402603E0,-1.142052901E1,-7.236853230E-1,1.282411042E1
1.379412917E-1,6.271545753E0,-1.517706686E1,-1.052871870E0,1.645552138E1
1.478802917E-1,5.534001945E0,-1.767812097E1,-6.901842856E-1,1.853692242E1
1.578192917E-1,4.411901965E0,-1.847766690E1,-9.972964239E-1,1.902323982E1
1.677582917E-1,3.247446802E0,-1.798589852E1,-1.518989682E0,1.833973244E1
1.776972917E-1,2.630470533E0,-1.684968512E1,-1.579420656E0,1.712675782E1
1.876362917E-1,2.319419564E0,-1.535076074E1,-1.331822648E0,1.558201893E1
1.975752917E-1,1.450669499E0,-1.424025988E1,-1.143804259E0,1.435958675E1
2.075142917E-1,5.548181735E-1,-1.342598365E1,-1.113351960E0,1.348348667E1
2.174532917E-1,2.543075417E-1,-1.217289376E1,-1.267174662E0,1.224131310E1
2.273922917E-1,-4.646263339E-1,-1.059621896E1,-1.629240103E0,1.073080412E1
2.373312917E-1,-1.393448500E0,-8.661660640E0,-2.222638936E0,9.050203733E0
2.472702917E-1,-2.253759718E0,-6.636956971E0,-2.583019209E0,7.469981187E0
2.572092917E-1,-3.150615157E0,-4.764258104E0,-2.880684586E0,6.397098938E0
2.671482917E-1,-3.605594608E0,-2.887400697E0,-3.320046709E0,5.688594326E0
2.770872917E-1,-3.421427488E0,-5.543271536E-1,-2.681536607E0,4.382246367E0
2.870252917E-1,-3.429172710E0,2.384139032E0,-1.032274614E0,4.302201213E0
2.969642917E-1,-3.182710523E0,5.070265703E0,5.405563760E-1,6.010777135E0
3.069032917E-1,-2.854811533E0,7.547533924E0,2.270057516E0,8.382623596E0
3.168422917E-1,-2.272269079E0,9.849373981E0,3.859714600E0,1.081992474E1
3.267812917E-1,-1.552069135E0,1.196174846E1,4.516371828E0,1.287982761E1
3.367202917E-1,-6.896307736E-1,1.391248369E1,4.360460501E0,1.459610937E1
3.466592917E-1,2.556607701E-1,1.540562517E1,3.817329011E0,1.587358340E1
3.565982917E-1,1.043198529E0,1.628097440E1,2.757974918E0,1.654583985E1
3.665372917E-1,1.387381429E0,1.645349182E1,1.615590363E0,1.659073092E1
3.764762917E-1,1.107725185E0,1.577584162E1,1.055894880E0,1.584989426E1
3.864152917E-1,5.332458946E-1,1.432787339E1,8.764099181E-1,1.436455365E1
3.963542917E-1,-2.410654986E-1,1.291532876E1,8.089751494E-1,1.294288494E1
4.062932917E-1,-9.367537683E-1,1.171672089E1,9.377719148E-1,1.179145760E1
4.162322917E-1,-1.333102019E0,1.059531147E1,1.041536604E0,1.072951931E1
4.261712917E-1,-1.436369694E0,9.516074502E0,1.190530529E0,9.697226138E0
4.361102917E-1,-1.400022817E0,8.559606262E0,1.378503456E0,8.782209006E0
4.460482917E-1,-1.412038845E0,7.706424408E0,1.424811065E0,7.963222804E0
4.559872917E-1,-1.399117668E0,7.154993380E0,1.272139972E0,7.400662175E0
4.659262917E-1,-1.201722831E0,6.881797432E0,7.931160387E-1,7.030811241E0
4.758652917E-1,-8.511197602E-1,6.953202460E0,4.466487770E-1,7.019325069E0
4.858042917E-1,-4.144296686E-1,7.470137839E0,5.464049073E-1,7.501551146E0
4.957432917E-1,1.370917717E-1,8.040326149E0,7.093690002E-1,8.072722163E0
5.056822917E-1,4.539702219E-1,8.422655116E0,1.191834458E0,8.518666418E0
5.156212917E-1,5.573416125E-1,8.500299123E0,1.768202983E0,8.700129691E0
5.255602917E-1,8.023753971E-1,8.392412147E0,2.030877306E0,8.671842397E0
5.354992917E-1,1.253546849E0,8.247982997E0,2.010368636E0,8.581502506E0
5.454382917E-1,1.988460873E0,7.799184052E0,1.439488599E0,8.176391377E0
5.553772917E-1,2.872200860E0,6.699744372E0,7.966500959E-1,7.332855093E0
5.653162917E-1,3.097615117E0,4.696947296E0,8.821412127E-1,5.695147622E0
5.752552917E-1,3.268856967E0,4.970928526E-1,1.864119247E0,3.795717026E0
5.851942917E-1,2.040962437E0,-7.921628841E0,7.046701777E-1,8.210620636E0
5.951332917E-1,-7.952662792E-1,-2.261778794E1,-3.844119784E0,2.295591507E1
6.050722917E-1,-4.695728737E0,-4.653775549E1,-3.004860735E0,4.687047837E1
6.150102917E-1,-4.021033433E0,-5.021959750E1,-2.041528448E0,5.042166718E1
6.249492917E-1,2.237498465E0,-2.458297631E1,-4.782542932E0,2.514362425E1
6.348882917E-1,5.705272154E0,-1.418663858E1,-1.750520711E0,1.539074940E1
6.448272917E-1,5.065784982E0,-1.804134650E1,3.306863576E0,1.902860236E1
6.547662917E-1,1.722717785E0,-2.268082794E1,3.342639180E0,2.299045344E1
6.647052917E-1,-8.500299123E-1,-2.221314659E1,-1.001744986E0,2.225196452E1
6.746442917E-1,-6.915586737E-1,-1.805803913E1,-3.330342486E0,1.837558738E1
6.845832917E-1,-1.022209509E-1,-1.405670760E1,-3.517877895E0,1.449058116E1
6.945222917E-1,-4.128721165E-1,-1.011491008E1,-3.786284974E0,1.080822942E1
7.044612917E-1,-3.646282750E-1,-6.255981635E0,-4.285355355E0,7.591740941E0
7.144002917E-1,-4.548470119E-1,-3.019793939E0,-3.616313431E0,4.733261462E0
7.243392917E-1,-7.104220106E-1,-6.041577101E-2,-1.733395532E0,1.874302422E0
7.342782917E-1,-4.835048005E-1,2.567052802E0,-1.416663408E-1,2.616028733E0
7.442172917E-1,-2.819039145E-1,5.215921015E0,1.126561990E0,5.343635819E0
7.541562917E-1,2.547377140E-1,7.953729470E0,2.573185362E0,8.363491298E0
7.640942917E-1,1.118604222E0,1.070067595E1,3.439485444E0,1.129538850E1
7.740332917E-1,1.515339558E0,1.303648424E1,3.740342231E0,1.364684342E1
7.839722917E-1,1.803343580E0,1.514114975E1,3.932413032E0,1.574707389E1
7.939112917E-1,1.601824847E0,1.734120791E1,4.124948395E0,1.789688615E1
8.038502917E-1,1.811465947E0,1.868782986E1,3.987178639E0,1.919411335E1
8.137892917E-1,2.184965326E0,1.856742400E1,3.731179059E0,1.906423365E1
8.237282917E-1,1.803559927E0,1.711690755E1,3.220374193E0,1.751034444E1
8.336672917E-1,1.373591941E0,1.507780336E1,2.677892622E0,1.537524042E1
8.436062917E-1,1.330041586E0,1.332641960E1,2.285961650E0,1.358631998E1
8.535452917E-1,1.287149336E0,1.210287803E1,1.964175778E0,1.232860075E1
8.634842917E-1,9.375609764E-1,1.118655619E1,1.982481072E0,1.139948644E1
8.734232917E-1,5.010411484E-1,1.030421836E1,2.330230481E0,1.057629105E1
8.833622917E-1,1.956454968E-1,9.387227597E0,2.654289751E0,9.757231841E0
8.933012917E-1,-5.090933125E-3,8.573372946E0,2.949832881E0,9.066656695E0
9.032402917E-1,-6.831090085E-2,7.828032460E0,2.950738322E0,8.365979633E0
9.131792917E-1,-1.591238244E-1,7.195239766E0,2.793282745E0,7.720053379E0
9.231182917E-1,-4.896487623E-2,6.613844097E0,2.645749308E0,7.123574994E0
9.330572917E-1,1.511087170E-1,6.389264238E0,2.467046703E0,6.850682505E0
9.429952917E-1,7.837490916E-2,6.512822921E0,2.262247975E0,6.894981576E0
9.529342917E-1,-1.877342506E-1,6.547381720E0,1.978628926E0,6.842398992E0
9.628732917E-1,-8.458213788E-1,6.339380472E0,2.131663131E0,6.741449864E0
9.728122917E-1,-1.954756645E0,5.965360984E0,2.084168829E0,6.614405863E0
9.827512917E-1,-2.532035874E0,5.395856212E0,1.769361609E0,6.217484253E0
9.926902917E-1,-2.627244332E0,4.732367390E0,1.557278712E0,5.632302449E0
1.002629292E0,-2.293784932E0,3.177519073E0,9.826387699E-1,4.040254414E0
1.012568292E0,-1.679641055E0,-9.653226793E-1,-3.214717305E-1,1.963768322E0
1.022507292E0,-2.644053031E0,-9.643173090E0,-3.361281273E0,1.054893433E1
1.032446292E0,-2.425019841E0,-2.539288585E1,-4.042804663E0,2.582680086E1
1.042385292E0,-9.669811689E-1,-3.901551136E1,-1.669863049E0,3.906320035E1
1.052324292E0,2.332448184E0,-2.977071959E1,-2.408901991E0,2.995895306E1
1.062263167E0,4.809258276E0,-1.556670660E1,-1.825888982E0,1.639466957E1
1.072202167E0,5.665819235E0,-1.448697496E1,1.007561796E0,1.558810867E1
1.082141167E0,5.643395163E0,-1.974449424E1,1.924273063E0,2.062512518E1
1.092080167E0,4.437485580E0,-2.423825254E1,-4.881981047E-1,2.464594291E1
1.102018167E0,2.920898226E0,-2.350740672E1,-3.437769871E0,2.393633386E1
1.111957167E0,2.408793232E0,-1.865522345E1,-3.864724202E0,1.920301383E1
1.121896167E0,2.957892683E0,-1.431999953E1,-3.757826575E0,1.509744271E1
1.131835167E0,3.068755892E0,-1.166826735E1,-4.550254104E0,1.289459337E1
1.141774167E0,2.201494235E0,-9.534245310E0,-4.403209494E0,1.073017541E1
1.151713167E0,1.465105543E0,-7.102997600E0,-3.299487898E0,7.967793267E0
1.161652167E0,1.082385106E0,-4.290997918E0,-1.704956868E0,4.742478104E0
1.171591167E0,7.296480212E-1,-1.248350136E0,-9.814536855E-2,1.449274581E0
1.181530167E0,4.615256650E-1,1.526962945E0,1.044036873E0,1.906471812E0
1.191469167E0,2.309722907E-1,4.055014234E0,1.803150476E0,4.443854214E0
1.201408167E0,-9.245825697E-2,6.718071300E0,2.608851331E0,7.207436145E0
1.211347167E0,-5.991212109E-1,9.425233330E0,3.396336501E0,1.003638736E1
1.221286167E0,-1.122321881E0,1.194624983E1,3.838053882E0,1.259774381E1
1.231225167E0,-1.394158937E0,1.366884892E1,3.840924865E0,1.426652774E1
1.241164167E0,-1.320511209E0,1.495059835E1,3.607856019E0,1.543634562E1
1.251103167E0,-9.723527867E-1,1.614172997E1,3.008039574E0,1.644838042E1
1.261042167E0,-3.526929384E-1,1.681848554E1,2.766453673E0,1.704814108E1
1.270980167E0,2.978028045E-1,1.620102425E1,2.990169606E0,1.647734771E1
1.280919167E0,9.332708743E-1,1.478978355E1,3.257434723E0,1.517298827E1
1.290858167E0,1.446775399E0,1.358014666E1,3.085414317E0,1.400119009E1
1.300797167E0,1.855298430E0,1.226858812E1,2.834188696E0,1.272764756E1
1.310736167E0,2.074671928E0,1.105939796E1,3.009919746E0,1.164792529E1
1.320675167E0,1.885467724E0,1.012470416E1,3.317139473E0,1.081979839E1
1.330614167E0,1.381878030E0,9.377559226E0,3.451381019E0,1.008762781E1
1.340553167E0,9.085859764E-1,8.734642662E0,3.337487783E0,9.394590764E0
1.350492167E0,3.775646549E-1,8.227559842E0,2.957273755E0,8.751043600E0
1.360431167E0,2.561606522E-1,7.800348818E0,2.245752102E0,8.121235279E0
1.370370167E0,2.122793636E-1,7.596322507E0,1.531353035E0,7.752046199E0
1.380309167E0,1.868466250E-1,7.595223230E0,8.682002811E-1,7.646966673E0
1.390248167E0,-3.244181424E-2,7.826178308E0,5.964908409E-1,7.848943923E0
1.400187167E0,-6.361668304E-1,7.977367424E0,9.947669184E-1,8.064283011E0
1.410126167E0,-1.446160272E0,7.613368310E0,1.467363592E0,7.887199279E0
1.420065167E0,-2.218362867E0,6.746278853E0,1.646173639E0,7.289945118E0
1.430004167E0,-2.214396408E0,5.301666924E0,1.443336067E0,5.924056265E0
1.439943167E0,-1.437082762E0,3.646892030E0,8.733472927E-1,4.015938725E0
1.449881167E0,-2.408599872E-1,1.697751344E0,-1.076401504E-1,1.718126759E0
1.459820167E0,2.987956434E-1,-1.332782761E0,-1.369340723E0,1.934084470E0
1.469759167E0,-2.897748332E-1,-8.496883180E0,-1.334622295E0,8.605940384E0
1.479698167E0,1.284265781E0,-2.065409178E1,1.473400111E0,2.074636724E1
1.489637167E0,4.908666789E0,-2.945691590E1,2.482993230E0,2.996615023E1
1.499576167E0,6.436962900E0,-2.584831846E1,2.998232331E0,2.680595933E1
1.509515167E0,5.601002265E0,-1.840832828E1,3.170408274E0,1.950100677E1
1.519454167E0,5.191797157E0,-1.816187165E1,1.647354777E0,1.896106846E1
1.529393167E0,3.580374105E0,-2.165748568E1,8.493326318E-1,2.196786587E1
1.539332167E0,1.441364386E0,-2.454929167E1,-4.816421700E-1,2.459628492E1
1.549271167E0,1.417602471E0,-2.339587693E1,-1.584080887E0,2.349225333E1
1.559210167E0,1.864586732E0,-1.954753896E1,-2.442723455E0,1.978761889E1
1.569149167E0,2.689397603E0,-1.593278206E1,-3.052268790E0,1.644392740E1
1.579088167E0,3.156862614E0,-1.369060992E1,-2.816569866E0,1.432939801E1
1.589027167E0,1.897639873E0,-1.195412019E1,-2.404539968E0,1.234033383E1
1.598966167E0,3.535374591E-2,-8.974456272E0,-1.788165085E0,9.150937091E0
1.608905167E0,-1.278822608E0,-5.458333127E0,-1.361411898E0,5.769075328E0
1.618843167E0,-2.192221428E0,-2.085252172E0,-1.252894592E0,3.274729954E0
1.628782167E0,-3.175368759E0,8.591465986E-1,-8.055767477E-1,3.386746748E0
1.638721167E0,-3.875318772E0,3.219145986E0,6.487266496E-2,5.038373242E0
1.648660167E0,-3.959038914E0,5.412127259E0,1.058427017E0,6.788621240E0
1.658599167E0,-3.765738150E0,7.769737474E0,1.925904436E0,8.846395432E0
1.668538167E0,-3.291365823E0,9.951535363E0,2.495121524E0,1.077458939E1
1.678477167E0,-2.120522577E0,1.171175544E1,2.806546569E0,1.222859497E1
1.688416167E0,-7.025470537E-1,1.339893209E1,2.779387422E0,1.370218771E1
1.698355167E0,4.140068418E-1,1.492417595E1,2.808022406E0,1.519168916E1
1.708294167E0,1.531541315E0,1.566540175E1,2.891138530E0,1.600340942E1
1.718233167E0,2.385188608E0,1.546206366E1,2.734390758E0,1.588211038E1
1.728172167E0,2.773652765E0,1.454981850E1,2.647880033E0,1.504664868E1
1.738111167E0,3.015086930E0,1.360800981E1,2.663667516E0,1.419027149E1
1.748050167E0,2.594103191E0,1.282715392E1,2.531009395E0,1.332933823E1
1.757989167E0,1.692483003E0,1.205751767E1,2.547353532E0,1.243934247E1
1.767928167E0,8.097012274E-1,1.117189371E1,2.397237965E0,1.145484941E1
1.777867167E0,-3.162261476E-2,1.011568776E1,2.023862986E0,1.031620861E1
1.787805167E0,-8.295284048E-1,9.218922511E0,1.689345825E0,9.409066849E0
1.797744167E0,-1.628093756E0,8.537381580E0,1.407768624E0,8.804509414E0
1.807683167E0,-2.263355876E0,7.983277790E0,1.129939488E0,8.374501020E0
1.817622167E0,-2.690703287E0,7.616146907E0,7.487488282E-1,8.112102236E0
1.827561167E0,-2.840140869E0,7.333465605E0,-2.020761184E-1,7.866826088E0
1.837500167E0,-2.680102285E0,7.490697818E0,-4.690238786E-1,7.969534833E0
1.847439167E0,-2.423532017E0,8.102996607E0,2.318863933E-1,8.460841137E0
1.857378167E0,-2.031654547E0,8.763542526E0,1.590876375E0,9.135545164E0
1.867317167E0,-2.039097029E0,9.057552223E0,3.110958171E0,9.791589744E0
1.877256167E0,-2.648879907E0,8.711556101E0,3.852240397E0,9.886735080E0
1.887195167E0,-2.897327515E0,8.087762856E0,3.591593742E0,9.311603533E0
1.897134167E0,-2.089708920E0,7.580462519E0,3.135197511E0,8.465208728E0
1.907073167E0,-4.351003799E-1,6.356946677E0,2.729636972E0,6.931882962E0
1.917012167E0,7.768834372E-1,3.168237203E0,2.589200885E0,4.164761226E0
1.926951167E0,2.211127523E-1,-5.281434973E0,4.613570094E-1,5.306156473E0
1.936890167E0,-1.266312929E0,-2.740302527E1,-4.538826891E0,2.780522059E1
1.946829167E0,1.780357298E0,-5.500624985E1,-3.057843525E0,5.511993833E1
1.956767167E0,7.200422153E0,-4.660442778E1,-7.432613332E0,4.773952774E1
1.966706167E0,4.272625966E0,-2.290900735E1,-7.961780502E0,2.462656897E1
1.976645167E0,3.649813299E0,-1.646465298E1,-1.795591049E0,1.695966044E1
1.986584167E0,1.939108034E0,-1.929229631E1,3.436412732E0,1.969166751E1
1.996523167E0,1.093793316E-1,-2.156389047E1,4.727598401E0,2.207631135E1
2.006462167E0,2.340257433E-1,-2.076392588E1,2.668654021E0,2.093602399E1
2.016401167E0,2.046768430E0,-1.715593655E1,-5.879246700E-1,1.728759888E1
2.026340167E0,4.421168633E0,-1.380289985E1,-2.412314426E0,1.469306085E1
2.036279167E0,5.087612053E0,-1.115488416E1,-3.402280780E0,1.272362965E1
2.046218167E0,3.681786459E0,-8.410650782E0,-3.994519526E0,1.001253137E1
2.056157167E0,1.971333501E0,-5.613570271E0,-4.634141768E0,7.541458538E0
2.066096583E0,-1.746729230E-1,-2.861965894E0,-4.253302088E0,5.129516357E0
2.076035583E0,-1.671086432E0,-2.518980503E-2,-3.009885832E0,3.442757196E0
2.085974583E0,-2.266519658E0,2.665720473E0,-1.234826550E0,3.710522013E0
2.095913583E0,-2.851345889E0,5.353821164E0,1.509430800E0,6.250756416E0
2.105852583E0,-2.832797644E0,8.105216795E0,3.915625384E0,9.436705141E0
2.115790583E0,-2.758758445E0,1.066453081E1,5.322481842E0,1.223404179E1
2.125729583E0,-2.554316689E0,1.311591867E1,5.772899880E0,1.455603755E1
2.135668583E0,-1.723642961E0,1.529908305E1,5.435623126E0,1.632724367E1
2.145607583E0,-2.850542481E-1,1.645548221E1,4.922710047E0,1.717839413E1
2.155546583E0,1.107771524E0,1.657834508E1,4.692790511E0,1.726531106E1
2.165485583E0,2.258015029E0,1.611063916E1,4.404920097E0,1.685392082E1
2.175424583E0,2.532920850E0,1.554903865E1,4.024813950E0,1.625999442E1
2.185363583E0,1.635505248E0,1.465374457E1,3.127437963E0,1.507275607E1
2.195302583E0,4.050703959E-1,1.347296018E1,2.627262751E0,1.373270722E1
2.205241583E0,-4.771862993E-1,1.224770187E1,2.469624448E0,1.250331767E1
2.215180583E0,-6.386472192E-1,1.130127856E1,2.093248240E0,1.151123171E1
2.225119583E0,-6.798089862E-1,1.041434716E1,1.816531390E0,1.059342028E1
2.235058583E0,-5.964684753E-1,9.251512552E0,1.723453073E0,9.429557235E0
2.244997583E0,-1.529744265E-1,7.995338257E0,1.732620191E0,8.182347325E0
2.254936583E0,2.846342536E-1,7.032943863E0,1.875839552E0,7.284373005E0
2.264875583E0,3.911956841E-1,6.428902513E0,2.292285122E0,6.836548300E0
2.274814583E0,4.011540771E-1,6.334400983E0,2.664302523E0,6.883608671E0
2.284753583E0,4.632824610E-1,6.548631270E0,2.628057972E0,7.071484346E0
2.294691583E0,3.885953907E-1,6.880287096E0,2.140135746E0,7.215922527E0
2.304630583E0,7.697987314E-2,7.225701420E0,1.621558177E0,7.405817837E0
2.314569583E0,-1.564301218E-1,7.570384258E0,1.554249123E0,7.729869244E0
2.324508583E0,-7.672163817E-1,8.084588403E0,1.795374410E0,8.317004262E0
2.334447583E0,-1.762743438E0,8.573964100E0,1.804602778E0,8.937377468E0
2.344386583E0,-2.656754060E0,8.503983454E0,1.474612970E0,9.030534875E0
2.354325583E0,-3.401293185E0,7.609743036E0,1.260193087E0,8.430010144E0
2.364264583E0,-3.968129287E0,4.914456117E0,1.027365000E0,6.399484964E0
2.374203583E0,-3.326833279E0,-1.740184003E-1,1.238789793E0,3.554251289E0
2.384142583E0,-3.626144355E0,-9.751850025E0,-1.586758912E0,1.052450976E1
2.394081583E0,-4.963473911E0,-3.574632139E1,-4.441706393E0,3.636157755E1
2.404020583E0,2.524335676E0,-5.541979769E1,-2.816834160E0,5.554872457E1
2.413959583E0,5.215392426E0,-3.772918005E1,-4.741960917E0,3.838199498E1
2.423898583E0,1.653596533E0,-2.182709236E1,-1.197889835E0,2.192239226E1
2.433837583E0,1.215483229E0,-2.138110651E1,3.428803750E0,2.168837961E1
2.443776583E0,-5.389787972E-1,-2.563577919E1,3.662477199E0,2.590168743E1
2.453715583E0,-1.154074601E0,-2.595247842E1,-1.058316797E0,2.599967420E1
2.463653583E0,1.227067733E0,-2.091418997E1,-4.920692757E0,2.152027543E1
2.473592583E0,3.563892558E0,-1.603910432E1,-3.508204261E0,1.680064567E1
2.483531583E0,3.913971207E0,-1.263307782E1,-1.960109478E0,1.336996092E1
2.493470583E0,3.399276773E0,-9.825932493E0,-3.959728593E0,1.112580255E1
2.503409583E0,2.461785963E0,-7.076999125E0,-5.243953736E0,9.145674252E0
2.513348583E0,1.329345183E0,-3.778963675E0,-3.795895457E0,5.518745092E0
2.523287583E0,4.904135782E-1,-3.352278900E-1,-1.059275594E0,1.214474372E0
2.533226583E0,-1.227839182E-1,3.215633563E0,2.122809716E0,3.855087054E0
2.543165583E0,-5.211120450E-1,6.736076632E0,4.435240834E0,8.081933395E0
2.553104583E0,-4.964585759E-1,9.848747159E0,5.332819719E0,1.121085447E1
2.563043583E0,-3.059277847E-2,1.255903803E1,5.848596765E0,1.385411334E1
2.572982583E0,8.481921324E-1,1.486371107E1,5.878102984E0,1.600629349E1
2.582921583E0,1.523103052E0,1.677979920E1,5.458943576E0,1.771105782E1
2.592860583E0,1.935508780E0,1.786056579E1,4.855621433E0,1.860975723E1
2.602799583E0,2.174678319E0,1.748750876E1,4.201855946E0,1.811622979E1
2.612738583E0,2.001004612E0,1.663018298E1,3.743450611E0,1.716334548E1
2.622676583E0,1.270378059E0,1.553339969E1,3.211783172E0,1.591275958E1
2.632615583E0,6.853129703E-1,1.409359300E1,2.761151710E0,1.437786411E1
2.642554583E0,2.495474696E-1,1.267081575E1,2.341890560E0,1.288783523E1
2.652493583E0,-2.324243371E-1,1.126291848E1,2.009463779E0,1.144313325E1
2.662432583E0,-4.868380058E-1,9.896035931E0,1.887531206E0,1.008619415E1
2.672371583E0,-4.862581082E-1,8.571481957E0,1.968002050E0,8.807938576E0
2.682310583E0,-7.061924272E-1,7.252608553E0,2.197271668E0,7.610981628E0
2.692249583E0,-9.994371627E-1,6.231156111E0,2.487540025E0,6.783364689E0
2.702188583E0,-9.064024799E-1,5.739999937E0,2.668036263E0,6.394339859E0
2.712127583E0,-6.791226692E-1,5.961145726E0,2.380092467E0,6.454557004E0
2.722066583E0,-2.676769262E-1,6.598187007E0,1.903046793E0,6.872358388E0
2.732005583E0,3.037844148E-2,7.432839620E0,1.517587081E0,7.586244012E0
2.741944583E0,4.250870231E-1,8.530357320E0,1.525173990E0,8.676050408E0
2.751883583E0,7.094697185E-1,9.585871546E0,1.761462021E0,9.772155803E0
2.761822583E0,7.358711397E-1,1.037973632E1,2.057726405E0,1.060729326E1
2.771761583E0,6.215206515E-2,1.074393366E1,2.456543057E0,1.102136911E1
2.781700583E0,-9.258851831E-1,1.077438362E1,2.745549877E0,1.115717929E1
2.791639583E0,-1.762027739E0,1.070650680E1,2.777869484E0,1.120047269E1
2.801577583E0,-2.326219584E0,1.019685880E1,2.611181738E0,1.077986536E1
2.811516583E0,-2.610760739E0,8.563204054E0,1.976361229E0,9.167908104E0
2.821455583E0,-2.258645505E0,4.942160810E0,2.225369586E0,5.871856843E0
2.831394583E0,-1.146637089E0,-1.856115578E0,2.938947412E0,3.660239547E0
2.841333583E0,-5.751965094E0,-2.130209192E1,-1.095190435E0,2.209216297E1
2.851272583E0,-7.078077351E0,-6.505961565E1,1.149126468E0,6.545359622E1
2.861211583E0,1.934713559E0,-6.824990328E1,-5.847004422E-1,6.827982344E1
2.871150583E0,1.110016241E1,-2.491421406E1,-7.380031661E0,2.825591151E1
2.881089583E0,1.164044396E1,-1.479368715E1,-3.389110512E0,1.912692305E1
2.891028583E0,6.035653871E0,-2.141730779E1,3.136499101E0,2.247148899E1
2.900967583E0,5.116986126E-2,-2.665181243E1,5.033627050E0,2.712303680E1
2.910906583E0,-4.443635389E0,-2.427871528E1,1.728635752E0,2.474247547E1
2.920845583E0,-4.348223740E0,-1.804733171E1,-1.680892067E0,1.863970573E1
2.930784583E0,-2.222624172E0,-1.279585845E1,-2.164102460E0,1.316652540E1
2.940723583E0,-7.532807127E-2,-8.436264510E0,-3.321384552E0,9.066853288E0
2.950662583E0,7.241906686E-1,-4.900966591E0,-4.519611186E0,6.706027954E0
2.960600583E0,3.334922902E-1,-2.141534547E0,-3.523226928E0,4.136485864E0
2.970539583E0,-6.459082916E-2,3.452231205E-1,-2.314616808E0,2.341111263E0
2.980478583E0,-3.648156052E-1,2.899360008E0,-1.054200065E0,3.106560261E0
2.990417583E0,-2.250509982E-1,5.495377577E0,8.563527989E-1,5.566252131E0
3.000356583E0,5.812720004E-1,8.211022747E0,2.397628413E0,8.573645298E0
3.010295583E0,1.315116422E0,1.093418100E1,3.353286960E0,1.151218393E1
3.020234583E0,1.996349205E0,1.361286300E1,3.458092453E0,1.418639675E1
3.030173583E0,2.399637808E0,1.565484402E1,2.954278811E0,1.611087106E1
3.040112583E0,2.567080284E0,1.672662462E1,2.560451295E0,1.711507473E1
3.050051583E0,2.301064424E0,1.660155969E1,2.499234456E0,1.694558510E1
3.059990583E0,1.143287512E0,1.545885003E1,2.580599631E0,1.571440884E1
3.069928458E0,-6.842617323E-2,1.441649262E1,2.692878158E0,1.466599927E1
3.079867458E0,-3.945557866E-1,1.355770738E1,2.494097969E0,1.379085307E1
3.089806458E0,-4.550138037E-1,1.265806882E1,2.465979002E0,1.290406123E1
3.099745458E0,-4.852421544E-1,1.185007600E1,2.539611819E0,1.212886595E1
3.109684458E0,-1.008454519E0,1.103686396E1,2.729916176E0,1.141410482E1
3.119623458E0,-1.696426072E0,1.015452029E1,2.859923462E0,1.068509737E1
3.129562458E0,-1.839240075E0,9.290545641E0,2.970871163E0,9.925881211E0
3.139500458E0,-1.644980515E0,8.462495704E0,3.054576101E0,9.146049945E0
3.149439458E0,-1.310370968E0,7.496101815E0,3.024078194E0,8.188630131E0
3.159378458E0,-8.628489093E-1,6.520196845E0,2.955024916E0,7.210384691E0
3.169317458E0,-2.586398169E-1,5.786463667E0,2.608470969E0,6.352493771E0
3.179256458E0,3.545241037E-1,5.559371259E0,2.114980148E0,5.958643903E0
3.189195458E0,4.611417953E-1,5.965942782E0,1.591137453E0,6.191675332E0
3.199134458E0,4.460302147E-1,6.562693239E0,1.370363839E0,6.719061136E0
3.209073458E0,6.863898812E-1,7.350907849E0,1.869087042E0,7.615803546E0
3.219012458E0,5.367568187E-1,8.318971118E0,2.314262613E0,8.651543203E0
3.228951458E0,-3.001307455E-1,9.043960370E0,2.729514180E0,9.451642466E0
3.238890458E0,-8.448672594E-1,9.748066877E0,2.802397385E0,1.017801747E1
3.248829458E0,-4.951954311E-1,1.048168603E1,3.239353963E0,1.098200231E1
3.258768458E0,-1.039417719E0,1.069339734E1,4.090038471E0,1.149597976E1
3.268707458E0,-1.572114414E0,8.605294066E0,3.965983944E0,9.604772685E0
3.278646458E0,-4.984777656E-1,4.121178403E0,4.597634093E0,6.194419324E0
3.288585458E0,-8.926461741E-1,-3.736643867E0,4.328472723E0,5.787486561E0
3.298523458E0,-3.963256803E0,-2.526872607E1,-1.678258481E0,2.563264468E1
3.308462458E0,-6.789048312E0,-7.535529006E1,9.854897261E-1,7.566691553E1
3.318401458E0,-1.185839600E0,-6.933999736E1,-6.609090895E0,6.966434907E1
3.328340458E0,1.217950228E1,-2.084798545E1,-1.333369120E1,2.758198858E1
3.338279458E0,1.356709918E1,-1.208418565E1,-6.278571768E0,1.922275179E1
3.348218458E0,8.690587986E0,-1.902210115E1,2.359369057E0,2.104598000E1
3.358157458E0,2.554839723E0,-2.484250849E1,3.102573556E0,2.516552000E1
3.368096458E0,-2.992264663E0,-2.331118820E1,7.756659738E-1,2.351524613E1
3.378035458E0,-2.826656898E0,-1.730836293E1,-3.170820795E-2,1.753768577E1
3.387974458E0,-1.587223765E0,-1.096161848E1,-1.459012452E0,1.117161923E1
3.397913458E0,-4.119898447E-1,-6.109911756E0,-3.003576686E0,6.820720652E0
3.407852458E0,8.336475489E-1,-2.327660776E0,-3.696196922E0,4.446891567E0
3.417791458E0,6.711654127E-1,4.062119186E-1,-2.974821249E0,3.076529311E0
3.427730458E0,9.026376039E-1,2.881373388E0,-2.239027512E0,3.759030652E0
3.437669458E0,1.614893082E0,4.887325037E0,-8.558266957E-1,5.217879360E0
3.447608458E0,1.777128173E0,6.720747571E0,9.594953442E-1,7.017639473E0
3.457547458E0,1.966524459E0,8.855655468E0,2.345313667E0,9.369650389E0
3.467485458E0,2.502646306E0,1.113979717E1,2.917547772E0,1.178432877E1
3.477424458E0,2.997763385E0,1.340822682E1,3.135701541E0,1.409254257E1
3.487363458E0,2.978611414E0,1.525331689E1,3.438823539E0,1.591732734E1
3.497302458E0,2.661977378E0,1.654744254E1,3.772157516E0,1.717943976E1
3.507241458E0,1.359521786E0,1.685759991E1,3.881442561E0,1.735201921E1
3.517180458E0,-4.121690619E-1,1.571750863E1,3.661229111E0,1.614356093E1
3.527119458E0,-1.693721443E0,1.433697751E1,3.504532210E0,1.485595377E1
3.537058458E0,-1.902334602E0,1.252205089E1,3.197948660E0,1.306321212E1
3.546997458E0,-1.856986229E0,1.106488031E1,3.021720597E0,1.161941347E1
3.556936458E0,-1.695045837E0,1.028081313E1,3.096626645E0,1.087002279E1
3.566875458E0,-1.733293352E0,9.802328453E0,3.209526147E0,1.045901559E1
3.576814458E0,-2.091122777E0,9.274751726E0,3.291763726E0,1.006128831E1
3.586753458E0,-2.142801346E0,8.589945125E0,3.180605818E0,9.407178548E0
3.596692458E0,-1.801380962E0,8.108704074E0,3.154905843E0,8.885352329E0
3.606631458E0,-1.326847837E0,7.876322860E0,3.113023700E0,8.572508590E0
3.616570458E0,-6.760425022E-1,7.974494687E0,2.932902853E0,8.523585990E0
3.626509458E0,-1.172044776E-1,8.350036206E0,2.473007062E0,8.709340127E0
3.636448458E0,3.574254190E-1,8.800550723E0,1.936691087E0,9.018215917E0
3.646386458E0,5.424058868E-1,9.218992093E0,1.758256285E0,9.400823609E0
3.656325458E0,4.201730230E-1,9.624369029E0,1.939658257E0,9.826866171E0
3.666264458E0,5.611978512E-2,9.944057944E0,2.004668916E0,1.014426613E1
3.676203458E0,-6.794043589E-1,9.837794155E0,1.607199316E0,9.991339938E0
3.686142458E0,-1.313093724E0,9.466221142E0,1.201549022E0,9.632096235E0
3.696081458E0,-1.561673479E0,8.946155748E0,1.518837655E0,9.207572674E0
3.706020458E0,-1.873559577E0,8.181230598E0,2.025962137E0,8.634076799E0
3.715959458E0,-1.825330573E0,6.535032400E0,2.080635796E0,7.097008207E0
3.725898458E0,-8.336396552E-1,3.223122677E0,2.288352138E0,4.039805735E0
3.735837458E0,1.697338530E0,-3.404641301E0,3.680740392E0,5.293428975E0
3.745776458E0,-1.075540794E0,-2.145955743E1,1.801842892E-1,2.148724877E1
3.755715458E0,-7.678990442E0,-7.326303935E1,1.473711183E0,7.367911274E1
3.765654458E0,-6.043901369E-1,-7.157523354E1,-6.407834995E0,7.186403615E1
3.775593458E0,7.566382424E0,-2.239493418E1,-1.390662127E1,2.742585158E1
3.785532458E0,7.258976170E0,-1.363029940E1,-3.773324035E0,1.589703655E1
3.795471458E0,4.096016665E0,-2.042987679E1,5.190279804E0,2.147315120E1
3.805409458E0,7.086609024E-1,-2.457775592E1,4.107242149E0,2.492865268E1
3.815348458E0,-9.726345494E-1,-2.237151491E1,-1.406171165E0,2.243675589E1
3.825287458E0,-8.716480187E-1,-1.649740090E1,-2.876003305E0,1.676888195E1
3.835226458E0,5.933524210E-1,-1.100080418E1,-1.179978717E0,1.107980638E1
3.845165458E0,1.938055243E0,-6.146703022E0,-5.359465043E-1,6.467244762E0
3.855104458E0,3.255273008E0,-1.749626672E0,-2.578846636E0,4.506489301E0
3.865043458E0,3.423118795E0,1.129258726E0,-3.174344620E0,4.803064784E0
3.874982458E0,3.980806636E0,3.062138305E0,-2.559853710E0,5.637052731E0
3.884921458E0,4.245120956E0,5.030255545E0,-1.734564829E0,6.806852278E0
3.894860458E0,4.384555415E0,7.045574434E0,-7.163974996E-1,8.329325943E0
3.904799458E0,4.248400075E0,8.926795033E0,-4.248962577E-1,9.895307452E0
3.914738458E0,4.018472937E0,1.082028777E1,1.836319537E-1,1.154385000E1
3.924677458E0,3.632693529E0,1.273199399E1,1.200441706E0,1.329440460E1
3.934616458E0,2.645866837E0,1.429773334E1,1.946740404E0,1.467022795E1
3.944555458E0,1.152002933E0,1.484813642E1,2.772641781E0,1.514865698E1
3.954494458E0,-9.198795810E-1,1.471499766E1,3.948363944E0,1.526325367E1
3.964433458E0,-2.340698605E0,1.464481587E1,4.560959187E0,1.551618028E1
3.974372458E0,-2.671488751E0,1.417775315E1,4.820985451E0,1.521142456E1
3.984310458E0,-3.057886210E0,1.345572960E1,4.689935900E0,1.457404631E1
3.994249458E0,-2.707821595E0,1.259398333E1,4.274322536E0,1.357241862E1
4.004188458E0,-2.416885487E0,1.190480477E1,3.793008979E0,1.272606102E1
4.014127458E0,-2.719773889E0,1.123315382E1,3.360034647E0,1.203622647E1
4.024066458E0,-3.014657745E0,1.052966829E1,2.989425255E0,1.135335804E1
4.034005458E0,-2.729014536E0,1.008526235E1,2.604057783E0,1.076759741E1
4.043944458E0,-2.065273991E0,9.529556428E0,2.182020814E0,9.991947618E0
4.053883458E0,-1.329655085E0,8.784922285E0,1.899129012E0,9.085677366E0
4.063822458E0,-7.057209224E-1,8.255225358E0,1.750110236E0,8.468156445E0
4.073762083E0,-3.601199621E-1,7.906657630E0,1.428954402E0,8.042812440E0
4.083701083E0,2.292305148E-1,7.388034745E0,1.356676969E0,7.515063301E0
4.093640083E0,2.834238251E-1,7.171515858E0,1.537545383E0,7.339960120E0
4.103579083E0,2.359424606E-3,7.349278815E0,1.610000278E0,7.523563355E0
4.113518083E0,-3.473910487E-1,7.756992883E0,2.135109480E0,8.052969118E0
4.123457083E0,-5.505093603E-1,8.169682932E0,2.242584958E0,8.489756596E0
4.133396083E0,-1.213762979E0,8.275433920E0,1.603922828E0,8.516372207E0
4.143335083E0,-2.076956728E0,8.125145275E0,1.202876486E0,8.472227973E0
4.153274083E0,-2.506664220E0,7.765257338E0,1.931128192E0,8.385215747E0
4.163212083E0,-2.417843553E0,7.058740609E0,2.421284055E0,7.844386713E0
4.173151083E0,-1.273353854E0,5.457439088E0,2.885413814E0,6.303228086E0
4.183090083E0,7.955601018E-1,2.181310231E0,4.180534658E0,4.782039338E0
4.193029083E0,2.547373705E0,-4.722410166E0,7.434749905E0,9.168739102E0
4.202968083E0,-1.308679076E0,-2.621379516E1,8.978493190E-1,2.626179414E1
4.212907083E0,-5.247155671E0,-7.621699656E1,-4.036011368E0,7.650393843E1
4.222846083E0,5.180206221E0,-6.609014764E1,-1.330280620E1,6.761439791E1
4.232785083E0,1.271032304E1,-2.178306283E1,-1.778915960E1,3.086273379E1
4.242724083E0,1.056419259E1,-1.594952732E1,-7.413674201E0,2.051711851E1
4.252663083E0,4.739154838E0,-2.296589608E1,2.897640342E0,2.362812500E1
4.262602083E0,-3.295834266E-1,-2.610511414E1,5.555744816E0,2.669179480E1
4.272541083E0,-3.109760953E0,-2.174052316E1,1.693824939E0,2.202702893E1
4.282480083E0,-2.179384451E0,-1.534943459E1,-2.012080700E0,1.563340422E1
4.292419083E0,3.730033151E-1,-9.720789616E0,-2.599759787E0,1.006934125E1
4.302358083E0,9.098529949E-1,-5.477057081E0,-1.959145857E0,5.887634434E0
4.312297083E0,7.368199235E-1,-1.969989519E0,-1.503096950E0,2.585162034E0
4.322235083E0,7.128985988E-1,1.305606657E0,-1.111400306E0,1.856890894E0
4.332174083E0,8.006862096E-1,4.130870748E0,-9.260131641E-1,4.308444257E0
4.342113083E0,1.271819690E0,6.346334565E0,-2.413742316E-1,6.477017003E0
4.352052083E0,1.435566287E0,8.065912980E0,7.138995691E-1,8.223712992E0
4.361991083E0,1.541398844E0,9.716911742E0,1.514075828E0,9.954230749E0
4.371930083E0,2.103354129E0,1.149268833E1,2.101606542E0,1.187108814E1
4.381869083E0,2.417343324E0,1.341540720E1,2.508255540E0,1.386030465E1
4.391808083E0,2.062221598E0,1.492619324E1,2.865718637E0,1.533806852E1
4.401747083E0,1.548352791E0,1.577769870E1,3.269946595E0,1.618720863E1
4.411686083E0,7.404625927E-1,1.544744328E1,3.568514782E0,1.587154960E1
4.421625083E0,-3.616309923E-1,1.447094424E1,3.713086020E0,1.494409622E1
4.431564083E0,-1.208865205E0,1.351494553E1,3.619624709E0,1.404338957E1
4.441503083E0,-1.351935023E0,1.210054382E1,3.502580701E0,1.266960775E1
4.451442083E0,-1.214243766E0,1.102229153E1,3.543138159E0,1.164126825E1
4.461381083E0,-1.241172533E0,1.024203205E1,3.782269398E0,1.098841625E1
4.471320083E0,-1.658333070E0,9.534369856E0,3.748222231E0,1.037802712E1
4.481259083E0,-1.747785091E0,9.145337057E0,3.550143123E0,9.964710673E0
4.491198083E0,-1.382054324E0,8.910843244E0,3.442090378E0,9.652004333E0
4.501136083E0,-9.232864612E-1,8.960255724E0,3.431150823E0,9.639057864E0
4.511075083E0,-2.213172586E-1,9.058693600E0,3.269958290E0,9.633355505E0
4.521014083E0,3.196877084E-1,9.305516267E0,2.965116625E0,9.771732181E0
4.530953083E0,8.196600589E-1,9.746033215E0,2.544726963E0,1.010606953E1
4.540892083E0,9.408794175E-1,1.018932057E1,2.506042369E0,1.053507267E1
4.550831083E0,1.036892307E0,1.046408007E1,3.134368376E0,1.097252853E1
4.560770083E0,1.012431795E0,1.066935944E1,4.165899662E0,1.149847681E1
4.570709083E0,5.476417395E-1,1.053137567E1,4.653470032E0,1.152668939E1
4.580648083E0,-5.651836789E-1,9.958617511E0,4.556281122E0,1.096600169E1
4.590587083E0,-1.883938092E0,9.157999202E0,4.039946837E0,1.018525123E1
4.600526083E0,-2.574626116E0,8.216703901E0,3.964302285E0,9.479378421E0
4.610465083E0,-2.667126436E0,7.098286498E0,3.738141339E0,8.454166742E0
4.620404083E0,-1.492519922E0,5.016469565E0,2.020894939E0,5.610400963E0
4.630343083E0,9.957988058E-1,1.262945956E-1,-5.722470423E-1,1.155435963E0
4.640282083E0,-1.919401601E0,-1.670235750E1,-2.949210445E0,1.706899795E1
4.650221083E0,-9.493486708E0,-7.055998850E1,-1.677207152E0,7.121552703E1
4.660160083E0,-2.619132197E0,-7.837378650E1,-5.342287531E0,7.859930216E1
4.670098083E0,7.006365345E0,-2.366367473E1,-1.085024656E1,2.695897823E1
4.680037083E0,1.044951465E1,-1.189883359E1,-3.115044497E0,1.613933393E1
4.689976083E0,6.546559017E0,-2.128253181E1,4.605951172E0,2.273803820E1
4.699915083E0,6.089114964E-2,-2.869139609E1,3.854892694E0,2.894926795E1
4.709854083E0,-4.156420449E0,-2.676128166E1,-2.418045866E0,2.718986894E1
4.719793083E0,-4.182929093E0,-1.934734550E1,-4.153112386E0,2.022535578E1
4.729732083E0,-1.539714992E0,-1.202768401E1,-1.391798708E0,1.220544995E1
4.739671083E0,1.372035412E0,-6.153799202E0,-2.184878641E0,6.672737105E0
4.749610083E0,2.500153053E0,-2.151313430E0,-4.240765657E0,5.372430374E0
4.759549083E0,2.040226858E0,4.482633394E-1,-4.572177655E0,5.026755828E0
4.769488083E0,1.455672669E0,2.335367407E0,-3.042658306E0,4.102522811E0
4.779427083E0,1.552208445E0,4.367642636E0,-8.229311375E-1,4.707745629E0
4.789366083E0,2.041575518E0,6.745069649E0,6.354705732E-1,7.075861645E0
4.799305083E0,2.276553773E0,9.184478318E0,1.533935019E0,9.585942609E0
4.809244083E0,2.405883366E0,1.138113749E1,2.453762999E0,1.188862979E1
4.819183083E0,2.137811040E0,1.359547104E1,3.100072409E0,1.410735687E1
4.829122083E0,1.383096736E0,1.538171707E1,3.101549416E0,1.575213590E1
4.839061083E0,2.920011789E-1,1.599505374E1,2.853242141E0,1.625016922E1
4.848999083E0,-9.270030977E-1,1.551875125E1,2.791048816E0,1.579496529E1
4.858938083E0,-1.548658454E0,1.433446204E1,2.934750280E0,1.471352793E1
4.868877083E0,-1.778212247E0,1.324573270E1,3.090794047E0,1.371730591E1
4.878816083E0,-2.046440548E0,1.225067693E1,3.044265998E0,1.278806317E1
4.888755083E0,-2.155734948E0,1.134516074E1,3.036631581E0,1.194072849E1
4.898694083E0,-2.256176372E0,1.035908863E1,3.111150544E0,1.104899574E1
4.908633083E0,-2.428468090E0,9.376045382E0,3.199985830E0,1.020037223E1
4.918572083E0,-2.489148009E0,8.445463350E0,3.202175904E0,9.368865434E0
4.928511083E0,-1.912564014E0,7.923751965E0,2.883794135E0,8.646387391E0
4.938450083E0,-1.296291019E0,7.875542257E0,2.343797922E0,8.318529013E0
4.948389083E0,-7.103276512E-1,8.009841106E0,1.894440569E0,8.261417855E0
4.958328083E0,-1.341169642E-1,8.205688332E0,1.658998630E0,8.372788353E0
4.968267083E0,5.334066930E-1,8.627046878E0,1.478046309E0,8.768984059E0
4.978206083E0,1.220531642E0,9.151464354E0,1.483034130E0,9.350849562E0
4.988145083E0,1.666741220E0,9.580931234E0,1.461428522E0,9.834024757E0
4.998084083E0,1.987502806E0,1.012800667E1,1.716300612E0,1.046290468E1
5.008023083E0,1.921710082E0,1.079759706E1,2.456071479E0,1.123892162E1
5.017962083E0,1.611194426E0,1.138649705E1,3.683874500E0,1.207556184E1
5.027900083E0,8.297682137E-1,1.191176997E1,4.484964094E0,1.275514336E1
5.037839083E0,-3.738157126E-1,1.211753232E1,4.673571882E0,1.299294431E1
5.047778083E0,-1.836495392E0,1.136700594E1,4.311973050E0,1.229531012E1
5.057717083E0,-3.028803037E0,9.951640613E0,4.632018059E0,1.138702727E1
5.067656333E0,-3.115736808E0,7.977049336E0,5.669449772E0,1.027053030E1
5.077595333E0,-1.881262114E0,4.353188903E0,5.528500299E0,7.283798208E0
5.087534333E0,5.695671172E-1,-2.994898834E0,7.102415217E0,7.729044420E0
5.097473333E0,-8.158099598E0,-3.457517789E1,-5.756221282E-1,3.552926760E1
5.107412333E0,-1.120882004E1,-1.039657583E2,-4.782466334E0,1.046775455E2
5.117351333E0,1.043960128E1,-6.687812778E1,-1.674804882E1,6.972923626E1
5.127290333E0,1.144400324E1,-1.448766026E1,-1.313041859E1,2.265536145E1
5.137229333E0,7.303437229E0,-1.292202733E1,3.119162107E-1,1.484642305E1
5.147168333E0,1.317927032E0,-2.135029870E1,4.796736463E0,2.192215471E1
5.157107333E0,-3.964523894E0,-2.638970514E1,3.593430938E0,2.692669183E1
5.167046333E0,-6.955077662E0,-2.326170204E1,-1.922694315E0,2.435521793E1
5.176985333E0,-4.651713236E0,-1.581629500E1,-3.418275254E0,1.683681173E1
5.186924333E0,-1.635146668E0,-8.601905605E0,-1.743111119E0,8.927761255E0
5.196862333E0,1.164790136E0,-3.138298874E0,-2.818833908E0,4.376240451E0
5.206801333E0,2.156213397E0,6.763439262E-1,-4.009523481E0,4.602496699E0
5.216740333E0,2.182017452E0,3.007558640E0,-3.898929244E0,5.385931524E0
5.226679333E0,2.458605078E0,4.472532914E0,-2.504410411E0,5.685099920E0
5.236618333E0,2.693532462E0,6.121312657E0,-6.084471544E-1,6.715340178E0
5.246557333E0,3.407301492E0,8.497801777E0,9.101984923E-1,9.200586927E0
5.256496333E0,3.846785237E0,1.093083172E1,1.933103674E0,1.174809468E1
5.266435333E0,4.173242303E0,1.355353247E1,2.637474328E0,1.442464782E1
5.276374333E0,4.692855415E0,1.617370957E1,2.930687635E0,1.709387911E1
5.286313333E0,3.878098539E0,1.822814633E1,2.851950198E0,1.885307897E1
5.296252333E0,1.788422655E0,1.871607659E1,3.114879898E0,1.905760886E1
5.306191333E0,3.912164417E-1,1.761715088E1,3.650338087E0,1.799561123E1
5.316130333E0,-1.525054853E0,1.490926555E1,3.329083873E0,1.535235458E1
5.326069333E0,-2.834804116E0,1.286664368E1,3.446004797E0,1.361842806E1
5.336008333E0,-3.365701476E0,1.220853956E1,3.926749419E0,1.325879880E1
5.345947333E0,-3.522494564E0,1.149546810E1,3.890263671E0,1.263676803E1
5.355886333E0,-3.875943547E0,1.054408284E1,3.249344808E0,1.169439451E1
5.365825333E0,-4.105878871E0,9.460444677E0,2.625636933E0,1.064200282E1
5.375763333E0,-3.656594608E0,8.346209203E0,1.983519683E0,9.325462054E0
5.385702333E0,-3.005061002E0,7.417601776E0,1.361438649E0,8.118172388E0
5.395641333E0,-2.123721589E0,6.712642745E0,1.010960051E0,7.112791733E0
5.405580333E0,-9.911751200E-1,6.649841310E0,9.157115395E-1,6.785377307E0
5.415519333E0,5.434175648E-2,7.164582814E0,1.095149432E0,7.248003325E0
5.425458333E0,7.121280089E-1,7.842904269E0,1.151271154E0,7.958875482E0
5.435397333E0,1.243817667E0,8.405548502E0,1.412977470E0,8.613758374E0
5.445336333E0,1.235266114E0,9.343746532E0,1.721560475E0,9.580983880E0
5.455275333E0,9.869136693E-1,1.032632551E1,1.972364073E0,1.055922427E1
5.465214333E0,6.029151402E-1,1.102399307E1,2.174341081E0,1.125254144E1
5.475153333E0,-3.084348515E-1,1.149787832E1,2.049224407E0,1.168313565E1
5.485092333E0,-1.954649056E0,1.142066701E1,2.139393150E0,1.178258422E1
5.495031333E0,-3.953382902E0,1.019060930E1,3.078969516E0,1.135595912E1
5.504970333E0,-5.303732160E0,8.218938122E0,3.669668105E0,1.044734333E1
5.514909333E0,-3.683428650E0,4.237597636E0,4.384218907E0,7.123640626E0
5.524848333E0,-9.979691461E-1,-5.267977021E0,8.173559636E0,9.775203396E0
5.534786333E0,-8.171944050E0,-3.704039675E1,5.203775178E0,3.828643281E1
5.544725333E0,-1.035065695E1,-9.608125113E1,2.425706888E0,9.666761077E1
5.554664333E0,1.533287177E1,-6.086810225E1,-1.525200595E1,6.459602553E1
5.564603333E0,2.077216344E1,-1.850673458E1,-1.802536138E1,3.314959504E1
5.574542333E0,1.256352519E1,-1.463639471E1,-6.713666008E0,2.042399389E1
5.584481333E0,6.359196101E0,-2.236673423E1,1.083252833E0,2.327839367E1
5.594420333E0,1.716456879E0,-2.803740607E1,3.573263891E0,2.831625996E1
5.604359333E0,-4.102533386E0,-2.320569975E1,2.678201355E0,2.371725202E1
5.614298333E0,-4.557864255E0,-1.412728700E1,-1.113005805E0,1.488600505E1
5.624237333E0,-2.933132648E0,-7.989251890E0,-2.701865036E0,8.929248993E0
5.634176333E0,-1.668980265E0,-3.600017241E0,-1.059552898E0,4.107100146E0
5.644115333E0,3.776226155E-1,3.232563007E-1,-2.517552613E0,2.566157562E0
5.654054333E0,1.188713361E0,2.949419190E0,-3.814890722E0,4.966437781E0
5.663993333E0,9.683010317E-1,4.566677179E0,-3.268956077E0,5.698966676E0
5.673932333E0,7.728483468E-1,6.221100070E0,-1.523034932E0,6.451280187E0
5.683871333E0,1.341954119E0,8.300434860E0,1.494434885E0,8.539988018E0
5.693810333E0,2.356085407E0,1.112879505E1,4.046383159E0,1.207370840E1
5.703749333E0,3.490480766E0,1.439264651E1,4.984802799E0,1.562625958E1
5.713687333E0,4.109965197E0,1.741469221E1,5.120328394E0,1.861131596E1
5.723626333E0,3.975308791E0,1.930153959E1,4.408968709E0,2.019384846E1
5.733565333E0,3.641093639E0,1.896199996E1,3.426602566E0,1.961011500E1
5.743504333E0,2.021656685E0,1.701649916E1,3.014348135E0,1.739927108E1
5.753443333E0,-6.834567717E-1,1.465424158E1,3.361813078E0,1.505043842E1
5.763382333E0,-1.703903638E0,1.263815086E1,3.377947592E0,1.319229604E1
5.773321333E0,-2.320832544E0,1.124492075E1,3.254361134E0,1.193421019E1
5.783260333E0,-2.797340420E0,1.049478614E1,2.831675563E0,1.122426104E1
5.793199333E0,-3.302688664E0,9.672774035E0,2.399801384E0,1.049901694E1
5.803138333E0,-3.361995218E0,8.755492664E0,2.245936582E0,9.643956386E0
5.813077333E0,-3.145270509E0,7.937731488E0,2.127852062E0,8.799321687E0
5.823016333E0,-2.707868080E0,7.184315997E0,2.064891437E0,7.950517124E0
5.832955333E0,-2.040586023E0,6.663010994E0,2.017019259E0,7.254520902E0
5.842894333E0,-1.135910080E0,6.758912348E0,1.953196900E0,7.126581646E0
5.852833333E0,-3.109605563E-1,7.443607852E0,1.790683043E0,7.662280345E0
5.862772333E0,6.385846540E-2,8.150773621E0,1.665483484E0,8.319436505E0
5.872711333E0,1.839884146E-1,8.746708392E0,1.564567413E0,8.887442299E0
5.882650333E0,2.387704664E-1,9.198571862E0,1.763722554E0,9.369175678E0
5.892588333E0,6.423093304E-2,9.557745270E0,1.992007209E0,9.763335136E0
5.902527333E0,-1.986664608E-1,9.747420759E0,1.993287749E0,9.951124352E0
5.912466333E0,-5.257477542E-1,9.898896389E0,1.959314403E0,1.010462633E1
5.922405333E0,-4.997970437E-1,9.768635627E0,1.957320356E0,9.975326665E0
5.932344333E0,-4.561724660E-1,9.186593256E0,2.275867456E0,9.475292167E0
5.942283333E0,-5.681439780E-1,7.658155058E0,2.158245889E0,7.976725631E0
5.952222333E0,-4.696153975E-1,5.081126322E0,2.182153984E0,5.549790927E0
5.962161333E0,1.426261905E0,1.973493755E-1,3.629370264E0,3.904548413E0
5.972100333E0,1.559881600E0,-1.103690957E1,2.967273663E0,1.153478723E1
5.982039333E0,-4.426749507E0,-4.474166860E1,-2.856573007E0,4.505078278E1
5.991978333E0,-7.157561477E0,-8.146852595E1,-1.478240436E-1,8.178247526E1
6.001917333E0,6.279469315E0,-4.209717878E1,-1.161989919E1,4.412058763E1
6.011856333E0,6.192030053E0,-1.499447586E1,-1.199125234E1,2.017339028E1
6.021795333E0,4.293926203E0,-1.700754591E1,-1.094352018E0,1.757532436E1
6.031734333E0,1.448307955E0,-2.381410254E1,6.461617684E0,2.471763700E1
6.041673333E0,-1.051526645E0,-2.382802593E1,6.177078137E0,2.463811726E1
6.051612333E0,-3.920813180E-1,-1.802275586E1,1.067530839E0,1.805860124E1
6.061550333E0,1.920908283E0,-1.302149666E1,-3.143694685E0,1.353263020E1
6.071489333E0,3.457141989E0,-9.655317757E0,-5.162276319E0,1.148155427E1
6.081428333E0,3.361579481E0,-6.330268756E0,-6.029442959E0,9.366253334E0
6.091367333E0,2.004781036E0,-3.216193727E0,-4.254015448E0,5.697341180E0
6.101306333E0,1.331004330E0,-2.160686517E-1,-1.807737909E0,2.255254872E0
6.111245333E0,9.540860850E-1,2.301421981E0,-1.200088388E0,2.765327382E0
6.121184333E0,8.456722017E-1,4.766440870E0,-9.218753819E-1,4.927877257E0
6.131123333E0,1.004988728E0,7.179061689E0,5.379508567E-1,7.268997194E0
6.141062333E0,1.082590928E0,9.592712789E0,2.576423550E0,9.991501392E0
6.151001333E0,1.543277554E0,1.194915239E1,3.671380169E0,1.259535553E1
6.160940333E0,2.074353839E0,1.437047738E1,3.884907621E0,1.503017202E1
6.170879333E0,2.740059341E0,1.673344013E1,4.007721077E0,1.742348335E1
6.180818333E0,2.497775283E0,1.837975644E1,4.125422312E0,1.900193247E1
6.190757333E0,1.766345031E0,1.855160845E1,4.127579935E0,1.908714402E1
6.200696333E0,8.142180553E-1,1.696528925E1,4.055382024E0,1.746224824E1
6.210635333E0,-5.074172813E-1,1.479170261E1,3.810490108E0,1.528305510E1
6.220574333E0,-1.226244738E0,1.321778067E1,3.510301950E0,1.373082743E1
6.230513333E0,-1.473574943E0,1.207463364E1,3.300042214E0,1.260390730E1
6.240451333E0,-1.857283560E0,1.111630891E1,3.202091120E0,1.171645055E1
6.250390333E0,-2.222263837E0,1.020484727E1,3.003174106E0,1.086721763E1
6.260329333E0,-2.229925444E0,9.404181599E0,2.818321399E0,1.006747906E1
6.270268333E0,-1.908627960E0,8.582447825E0,2.594800179E0,9.167020199E0
6.280207333E0,-1.334153641E0,7.692227368E0,2.534516555E0,8.208172878E0
6.290146333E0,-6.330572811E-1,6.899572967E0,2.490933748E0,7.362718220E0
6.300085333E0,4.948593624E-2,6.623612455E0,2.355391635E0,7.030118105E0
6.310024333E0,4.443225719E-1,6.475224740E0,2.079296929E0,6.815382139E0
6.319963333E0,9.339343871E-1,6.697652823E0,1.479805444E0,6.922471447E0
6.329902333E0,1.360916054E0,7.288240900E0,1.385338558E0,7.542526821E0
6.339841333E0,1.419066029E0,8.047880167E0,1.807442332E0,8.369526353E0
6.349780333E0,1.239408574E0,8.606097474E0,2.020807085E0,8.926629185E0
6.359719333E0,6.596971956E-1,8.877759697E0,2.093904297E0,9.145176480E0
6.369658333E0,-4.506496247E-1,8.746777389E0,2.103312614E0,9.007392726E0
6.379597333E0,-1.856663755E0,8.493860754E0,2.197944975E0,8.967933592E0
6.389536333E0,-2.942562160E0,7.527911838E0,2.148494049E0,8.363262245E0
6.399475333E0,-2.612218157E0,5.486257675E0,1.676537061E0,6.303450126E0
6.409414333E0,-5.870176937E-1,1.690515999E0,1.855471069E0,2.577829902E0
6.419352333E0,-1.315616213E0,-6.816615595E0,2.008013377E0,7.226978062E0
6.429291333E0,-8.306159869E0,-3.173809015E1,-3.775500369E0,3.302352284E1
6.439230333E0,-7.425957447E0,-7.260003058E1,-1.372914541E0,7.299174049E1
6.449169333E0,7.051083096E0,-5.238897532E1,-8.459797214E0,5.353401420E1
6.459108333E0,8.463814251E0,-1.922078018E1,-8.812702407E0,2.277582636E1
6.469047333E0,8.771768389E0,-1.470428790E1,7.712956917E-1,1.713927946E1
6.478986333E0,6.632352288E0,-2.057420478E1,8.303395890E0,2.315669196E1
6.488925333E0,5.157083407E0,-2.521849849E1,7.292936214E0,2.675359964E1
6.498864333E0,4.263399644E0,-2.216208402E1,3.610257689E-1,2.257132881E1
6.508803333E0,3.249349486E0,-1.646749707E1,-4.352794801E0,1.734022936E1
6.518742333E0,3.105777245E0,-1.206482903E1,-5.149256909E0,1.348038569E1
6.528681333E0,1.956841616E0,-7.993793423E0,-4.069864408E0,9.181163254E0
6.538620333E0,1.368597541E0,-4.380072062E0,-2.159266813E0,5.071540562E0
6.548559333E0,1.423271347E0,-9.889641416E-1,-2.828271314E0,3.317057435E0
6.558498333E0,6.640411652E-1,1.497615185E0,-3.203303540E0,3.597909877E0
6.568437333E0,6.043633128E-1,3.613195111E0,-2.475540369E0,4.421395033E0
6.578376333E0,8.516355577E-1,5.736820806E0,-7.346757495E-1,5.846036652E0
6.588314333E0,1.198002613E0,8.023586740E0,1.187947375E0,8.199047104E0
6.598253333E0,1.496176186E0,1.035202520E1,2.458819671E0,1.074470861E1
6.608192333E0,1.364379360E0,1.267233135E1,3.168440101E0,1.313348870E1
6.618131333E0,1.503203369E0,1.485309252E1,3.420776693E0,1.531586403E1
6.628070333E0,1.019079641E0,1.618985841E1,3.356044507E0,1.656541799E1
6.638009333E0,5.240882778E-1,1.649676823E1,3.286560874E0,1.682912692E1
6.647948333E0,-9.493104447E-2,1.620561431E1,3.447855148E0,1.656860442E1
6.657887333E0,-7.666465706E-1,1.533455928E1,3.562526064E0,1.576160040E1
6.667826333E0,-1.489849206E0,1.432463754E1,3.677081205E0,1.486390990E1
6.677765333E0,-1.655476559E0,1.312697107E1,3.303231286E0,1.363705647E1
6.687704333E0,-1.486118098E0,1.187117626E1,3.183867395E0,1.238024170E1
6.697643333E0,-1.316666665E0,1.103693646E1,3.500138612E0,1.165326340E1
6.707582333E0,-1.242938831E0,1.034099150E1,3.512496117E0,1.099175287E1
6.717521333E0,-8.595605814E-1,9.698095987E0,3.321679251E0,1.028715039E1
6.727460333E0,-2.118276844E-1,9.059911575E0,3.079634929E0,9.571364584E0
6.737399333E0,4.564038330E-1,8.567740324E0,2.882020090E0,9.050995443E0
6.747338333E0,9.029536459E-1,7.940068620E0,2.426060060E0,8.351394039E0
6.757277333E0,1.313595123E0,7.329053881E0,1.669178778E0,7.630643533E0
6.767216333E0,1.513579546E0,7.234277532E0,8.506504481E-1,7.439711058E0
6.777154333E0,1.443260346E0,7.507740113E0,3.187928286E-1,7.651848855E0
6.787093333E0,1.073099874E0,7.681203028E0,1.892907429E-1,7.758108937E0
6.797032333E0,6.003052355E-1,7.720995085E0,4.039082618E-1,7.754822587E0
6.806971333E0,-3.948638252E-1,7.912543437E0,6.259328873E-1,7.947078273E0
6.816910333E0,-1.309404277E0,8.068075281E0,1.144456955E0,8.253372645E0
6.826849333E0,-2.024833916E0,8.191636303E0,2.158816723E0,8.709956794E0
6.836788333E0,-3.017833075E0,7.685525874E0,3.141102029E0,8.834090015E0
6.846727333E0,-3.548493039E0,6.740284873E0,3.823377371E0,8.522995807E0
6.856666333E0,-3.072186161E0,4.904671386E0,3.945267259E0,7.004231789E0
6.866605333E0,8.052785397E-3,7.676914680E-1,4.514720575E0,4.579532389E0
6.876544333E0,9.582415549E-1,-8.681500243E0,2.469518906E0,9.076629164E0
6.886483333E0,1.056353375E0,-3.735407882E1,-4.396444266E0,3.762674327E1
6.896422333E0,-2.419290154E0,-7.818247963E1,-1.978018330E0,7.824490810E1
6.906361333E0,2.851321330E0,-5.072017529E1,-1.210714884E1,5.222307218E1
6.916300333E0,7.233275903E0,-1.785010629E1,-1.068988550E1,2.202771498E1
6.926239333E0,6.112875710E0,-1.608372209E1,1.184355869E0,1.724691464E1
6.936178333E0,2.643938425E0,-2.163660645E1,6.018015161E0,2.261304171E1
6.946116333E0,-1.613595585E0,-2.405921314E1,2.991154861E0,2.429807472E1
6.956055333E0,-3.791882513E0,-2.076230737E1,-1.564610828E0,2.116364306E1
6.965994333E0,-2.830724806E0,-1.490239040E1,-2.829273527E0,1.543045791E1
6.975933333E0,-1.967105672E0,-9.564505236E0,-3.365492438E0,1.032839796E1
6.985872333E0,-1.077668303E0,-5.357831769E0,-3.842040514E0,6.680494409E0
6.995811333E0,-6.675244977E-1,-1.690381513E0,-2.965719473E0,3.478285585E0
7.005750333E0,-2.826343048E-1,1.680707880E0,-2.075122017E0,2.685291886E0
7.015689333E0,-1.782995854E-1,4.364233124E0,-1.705064456E0,4.688876870E0
7.025628333E0,-9.223701295E-2,6.376765230E0,-6.342838807E-1,6.408896824E0
7.035567333E0,9.230018115E-2,8.296786197E0,1.171871041E0,8.379645712E0
7.045506333E0,3.255077711E-1,1.040879464E1,2.808597772E0,1.078597157E1
7.055445333E0,3.590501409E-1,1.249730079E1,3.601604760E0,1.301088010E1
7.065384333E0,6.065050748E-1,1.421709789E1,3.791609448E0,1.472650750E1
7.075322917E0,9.984642591E-1,1.542866787E1,3.509215829E0,1.585418932E1
7.085261917E0,9.151086916E-1,1.599302826E1,3.181679074E0,1.633209903E1
7.095200917E0,4.711918434E-1,1.554415623E1,3.180361989E0,1.587316972E1
7.105139917E0,1.768306004E-1,1.469702566E1,3.236419538E0,1.505019082E1
7.115077917E0,3.945554942E-2,1.353193286E1,2.840038251E0,1.382680660E1
7.125016917E0,4.426825010E-1,1.229162030E1,2.452776573E0,1.254177062E1
7.134955917E0,6.678221941E-1,1.096791710E1,2.271846326E0,1.122062733E1
7.144894917E0,6.625044438E-1,9.970877953E0,2.356664135E0,1.026699494E1
7.154833917E0,7.025397447E-1,9.508511129E0,2.717215439E0,9.914061011E0
7.164772917E0,6.517386965E-1,9.071772067E0,3.076028366E0,9.601237539E0
7.174711917E0,9.517651789E-1,8.731516156E0,3.320142603E0,9.389812471E0
7.184650917E0,1.388770289E0,8.648348869E0,3.236122499E0,9.337832185E0
7.194589917E0,1.741347014E0,8.698236144E0,2.737526035E0,9.283622689E0
7.204528917E0,1.934147110E0,8.792464024E0,2.293525901E0,9.290242715E0
7.214467917E0,1.960348337E0,8.810568758E0,2.132242298E0,9.274456569E0
7.224406917E0,1.733564370E0,8.821734601E0,2.511047001E0,9.334538223E0
7.234345917E0,1.184774530E0,8.914766141E0,3.165722315E0,9.534072782E0
7.244284917E0,5.802040064E-1,9.048660947E0,3.710636036E0,9.797128223E0
7.254223917E0,1.031739740E-1,9.158978026E0,3.842914088E0,9.933051497E0
7.264162917E0,-2.432554270E-1,9.140004396E0,3.642705424E0,9.842162179E0
7.274101917E0,-8.857248250E-1,9.170637959E0,3.400737115E0,9.820902299E0
7.284040917E0,-1.685849044E0,9.213895075E0,3.283319178E0,9.925630170E0
7.293979917E0,-2.283090375E0,8.907120321E0,2.904380135E0,9.642858396E0
7.303917917E0,-1.988870909E0,7.393724670E0,1.879405038E0,7.883840136E0
7.313856917E0,-6.363160805E-1,3.931988232E0,3.482997791E-1,3.998342450E0
7.323795917E0,1.041396709E0,-2.635820151E0,-6.895177761E-1,2.916760144E0
7.333734917E0,-6.964533779E-1,-2.189220461E1,-4.858868977E0,2.243573662E1
7.343673917E0,-3.832747826E0,-6.437672167E1,1.301356498E-1,6.449084574E1
7.353612917E0,-5.989768577E-1,-6.442870108E1,-2.732500938E0,6.448940112E1
7.363551917E0,5.181167504E0,-2.301595526E1,-9.317340506E0,2.536516366E1
7.373490917E0,6.783871188E0,-1.430571829E1,-3.253154562E0,1.616346184E1
7.383429917E0,4.343386046E0,-2.166769960E1,2.717871205E0,2.226524269E1
7.393368917E0,4.303835772E-2,-2.692398394E1,2.962498827E0,2.708651257E1
7.403307917E0,-3.413101930E0,-2.359615810E1,-1.721719666E0,2.390381268E1
7.413246917E0,-3.330332838E0,-1.767456937E1,-3.242617879E0,1.827555991E1
7.423185917E0,-1.620113184E0,-1.336001302E1,-1.919796435E0,1.359412862E1
7.433124917E0,-5.497071954E-1,-9.570933664E0,-2.645252295E0,9.944963997E0
7.443063917E0,-8.804912746E-2,-6.155065709E0,-5.286075908E0,8.113888404E0
7.453002917E0,-1.017156784E-1,-2.997255846E0,-5.724315366E0,6.462327374E0
7.462941917E0,-1.750261314E-1,-3.766980976E-1,-3.560037489E0,3.584187847E0
7.472880917E0,-2.561292783E-1,1.919358478E0,-1.457978665E0,2.423889635E0
7.482818917E0,-5.062875261E-1,4.466236632E0,1.229764469E-1,4.496523092E0
7.492757917E0,-5.720728683E-1,7.009933900E0,1.497248565E0,7.190840974E0
7.502696917E0,-4.633883687E-1,9.250627284E0,2.316716981E0,9.547565737E0
7.512635917E0,-6.389977598E-1,1.127682316E1,2.954601578E0,1.167496164E1
7.522574917E0,-9.482178193E-1,1.304007677E1,3.100765597E0,1.343716735E1
7.532513917E0,-1.164701770E0,1.426355753E1,3.047771112E0,1.463196885E1
7.542452917E0,-1.672944678E0,1.511612367E1,2.961521173E0,1.549408101E1
7.552391917E0,-1.888799467E0,1.560867908E1,3.046317786E0,1.601494547E1
7.562330917E0,-1.666390972E0,1.567527419E1,3.507869800E0,1.614918668E1
7.572269917E0,-9.623771444E-1,1.527442651E1,3.776362541E0,1.576373017E1
7.582208917E0,-1.196485041E-1,1.437627314E1,3.636495681E0,1.482955312E1
7.592147917E0,6.475740172E-1,1.297458796E1,3.232509212E0,1.338687419E1
7.602086917E0,8.304582582E-1,1.179223651E1,2.931779602E0,1.217956627E1
7.612025917E0,7.528483111E-1,1.116349711E1,2.940049027E0,1.156867912E1
7.621964917E0,9.910938437E-1,1.075669228E1,2.707442403E0,1.113637913E1
7.631903917E0,1.232889367E0,1.034993891E1,2.323262355E0,1.067889506E1
7.641842917E0,1.347885388E0,9.654410854E0,2.018477408E0,9.954832746E0
7.651781917E0,1.511699812E0,8.646951385E0,1.773051202E0,8.955373534E0
7.661719917E0,1.623586138E0,7.945176748E0,1.578472238E0,8.261564023E0
7.671658917E0,1.583203951E0,7.756890557E0,1.153926959E0,8.000464567E0
7.681597917E0,1.414497892E0,7.867159104E0,7.030646785E-1,8.024169527E0
7.691536917E0,1.076139841E0,8.005934581E0,7.883414948E-1,8.116313682E0
7.701475917E0,6.017172284E-1,8.184240745E0,1.104415222E0,8.280313591E0
7.711414917E0,1.629984453E-3,8.376689569E0,1.150938009E0,8.455388169E0
7.721353917E0,-7.186934819E-1,8.461388242E0,9.912667751E-1,8.549515841E0
7.731292917E0,-1.776496382E0,8.307088991E0,1.172596242E0,8.575467850E0
7.741231917E0,-2.938871398E0,7.573953398E0,1.994311012E0,8.365345874E0
7.751170917E0,-3.018436216E0,5.644696169E0,2.885168231E0,7.021235486E0
7.761109917E0,-1.649737371E0,1.459874332E0,4.375714717E0,4.898953535E0
7.771048917E0,-1.884705247E0,-7.791608400E0,5.541886915E0,9.745449497E0
7.780987917E0,-9.182798998E0,-3.840542457E1,-6.847054446E-1,3.949391416E1
7.790926917E0,-8.150804611E0,-8.585865289E1,-5.962218690E-1,8.624673543E1
7.800865917E0,9.588524428E0,-4.994704708E1,-1.476361609E1,5.295858451E1
7.810804917E0,1.277210356E1,-1.723874014E1,-1.447492736E1,2.588096429E1
7.820743917E0,9.163876238E0,-1.648128714E1,-2.151720396E0,1.897997245E1
7.830682917E0,2.798817719E0,-2.178927023E1,3.069125143E0,2.218164121E1
7.840620917E0,-2.577541537E0,-2.383528115E1,2.146227522E0,2.407011925E1
7.850559917E0,-5.518230835E0,-1.993055498E1,-7.848553848E-1,2.069526253E1
7.860498917E0,-4.927063884E0,-1.298044453E1,-3.264348471E0,1.426267400E1
7.870437917E0,-3.340068160E0,-6.896714848E0,-3.484997832E0,8.418191070E0
7.880376917E0,-2.993804235E0,-3.230046950E0,-3.218685225E0,5.454906202E0
7.890315917E0,-2.393955192E0,1.427825743E-1,-2.598234833E0,3.535849625E0
7.900254917E0,-1.335369715E0,3.440346739E0,-2.064297652E0,4.228536715E0
7.910193917E0,-7.516479508E-1,5.823525074E0,-1.109187719E0,5.975677060E0
7.920132917E0,-4.356459251E-1,7.934029616E0,1.119659936E0,8.024478282E0
7.930071917E0,2.935055213E-1,1.043089010E1,3.220366884E0,1.092063994E1
7.940010917E0,1.168882236E0,1.333251240E1,4.666954004E0,1.417401256E1
7.949949917E0,2.302333269E0,1.664421045E1,5.728175697E0,1.775225273E1
7.959888917E0,3.235294241E0,2.009493658E1,5.780053364E0,2.115851181E1
7.969827917E0,3.473280596E0,2.246980895E1,5.243702306E0,2.333350394E1
7.979766917E0,3.252834134E0,2.231288605E1,4.300134777E0,2.295510778E1
7.989705917E0,1.906148595E0,1.960700749E1,3.047021791E0,1.993370229E1
7.999644917E0,8.014508061E-1,1.641716892E1,2.714602611E0,1.665937652E1
8.009583917E0,2.124310623E-1,1.405955753E1,2.537868179E0,1.428835399E1
8.019521917E0,-2.975128740E-1,1.214405412E1,2.224036274E0,1.234961140E1
8.029460917E0,-3.523517534E-1,1.072495593E1,1.952625042E0,1.090695081E1
8.039399917E0,-2.595940094E-1,9.147968304E0,1.734342635E0,9.314540112E0
8.049338917E0,3.275025487E-2,7.400432596E0,1.827418613E0,7.622790433E0
8.059277917E0,1.544192643E-1,5.776677182E0,1.696577808E0,6.022642346E0
8.069217292E0,2.891213521E-1,4.686256832E0,1.666676170E0,4.982208718E0
8.079156292E0,5.559466130E-1,4.505170317E0,1.456743587E0,4.767361755E0
8.089095292E0,6.711324491E-1,5.076468430E0,7.911573677E-1,5.181397539E0
8.099034292E0,8.096812007E-1,5.901012960E0,-1.612393105E-1,5.958484347E0
8.108973292E0,8.668951826E-1,6.650230150E0,-7.454170847E-1,6.747793338E0
8.118912292E0,7.535425217E-1,7.456714386E0,-3.122685054E-1,7.501195064E0
8.128851292E0,6.305736762E-1,8.406954172E0,5.589330053E-1,8.449077330E0
8.138790292E0,-3.878428906E-2,9.280980765E0,1.332429589E0,9.376218683E0
8.148729292E0,-1.468586829E0,9.756135449E0,1.767476467E0,1.002311824E1
8.158668292E0,-2.867962214E0,9.279298521E0,2.508211101E0,1.003103740E1
8.168607292E0,-3.594071792E0,7.630288982E0,3.297725840E0,9.056139228E0
8.178546292E0,-3.470721562E0,5.190076906E0,3.718216367E0,7.266907142E0
8.188485292E0,-1.838286102E0,6.437521309E-1,5.782382895E0,6.101611635E0
8.198423292E0,-2.102583612E0,-1.195760746E1,7.229939482E0,1.413072040E1
8.208362292E0,-8.659884256E0,-4.971364494E1,4.021334857E0,5.062224040E1
8.218301292E0,-5.769916631E0,-8.093006756E1,-6.802755940E-1,8.113834203E1
8.228240292E0,1.072261003E1,-4.410764331E1,-1.582585754E1,4.807199113E1
8.238179292E0,9.633491271E0,-2.109897835E1,-1.479932737E1,2.751347184E1
8.248118292E0,5.003693984E0,-1.986820261E1,-3.062542348E0,2.071621573E1
8.258057292E0,-6.836022212E-1,-2.355554334E1,6.995611145E0,2.458189393E1
8.267996292E0,-4.347346950E0,-2.369411066E1,9.101746649E0,2.575173970E1
8.277935292E0,-4.226435594E0,-1.923208870E1,3.611276640E0,2.001942338E1
8.287874292E0,-1.979929493E0,-1.397573185E1,-1.355591580E0,1.418022673E1
8.297813292E0,-4.728415257E-1,-9.687785007E0,-2.774223161E0,1.008826405E1
8.307752292E0,2.503830367E-1,-5.820576323E0,-2.854249324E0,6.487568080E0
8.317691292E0,1.274540985E-1,-2.318395278E0,-2.221984048E0,3.213785046E0
8.327630292E0,2.579511610E-1,9.576037699E-1,-9.563698612E-2,9.963384037E-1
8.337569292E0,1.176689658E0,3.965717311E0,5.747788136E-1,4.176348049E0
8.347508292E0,1.560838643E0,6.726902935E0,1.802732838E0,7.137036223E0
8.357447292E0,1.836720364E0,9.541217530E0,3.659041375E0,1.038253136E1
8.367386292E0,2.810511566E0,1.229784759E1,4.771028595E0,1.348698426E1
8.377325292E0,4.900209084E0,1.495002299E1,4.700202441E0,1.641971800E1
8.387263292E0,6.057333593E0,1.774402611E1,4.110660724E0,1.919477232E1
8.397202292E0,5.613999456E0,1.945510852E1,3.280980291E0,2.051299756E1
8.407141292E0,5.178152679E0,1.930959939E1,2.610311673E0,2.016153815E1
8.417080292E0,3.343670337E0,1.702740539E1,2.065346496E0,1.747507716E1
8.427019292E0,1.519183225E0,1.507252215E1,1.846479075E0,1.526100674E1
8.436958292E0,3.697498878E-1,1.383554368E1,1.814885399E0,1.395896819E1
8.446897292E0,-3.961561695E-3,1.274635008E1,1.709883147E0,1.286052707E1
8.456836292E0,5.966319781E-2,1.154109860E1,1.831320022E0,1.168564288E1
8.466775292E0,1.660448447E-1,1.067208541E1,2.487393844E0,1.095938438E1
8.476714292E0,2.695303657E-1,9.945214523E0,3.162158730E0,1.043930967E1
8.486653292E0,5.686097818E-1,9.244737968E0,3.553925394E0,9.920629158E0
8.496592292E0,8.905721667E-1,8.663923513E0,3.724146613E0,9.472378657E0
8.506531292E0,1.158571476E0,8.081349045E0,3.604661685E0,8.924352980E0
8.516470292E0,1.354789634E0,7.512986235E0,3.220895473E0,8.285806223E0
8.526409292E0,1.403041735E0,7.208016517E0,2.652126281E0,7.807547760E0
8.536348292E0,1.259424617E0,6.913564185E0,2.041637352E0,7.317909755E0
8.546287292E0,8.926020277E-1,6.654055983E0,1.591200457E0,6.899646245E0
8.556226292E0,6.560796694E-1,6.726182558E0,1.565697241E0,6.937101714E0
8.566164292E0,4.608804248E-1,7.140568884E0,1.942835926E0,7.414495680E0
8.576103292E0,2.419164146E-1,7.732824587E0,2.256552787E0,8.058978230E0
8.586042292E0,-2.599002756E-1,8.171309043E0,2.571825299E0,8.570421518E0
8.595981292E0,-1.044559395E0,8.435362870E0,2.567397203E0,8.879075372E0
8.605920292E0,-1.702408797E0,8.574408488E0,2.578219814E0,9.114049267E0
8.615859292E0,-2.648135264E0,8.409710550E0,3.069518076E0,9.335833821E0
8.625798292E0,-2.693219928E0,7.004795367E0,3.214195733E0,8.164045929E0
8.635737292E0,-1.669535312E0,3.837820578E0,1.877750423E0,4.587173596E0
8.645676292E0,-1.576563195E-1,-3.893539866E0,7.140304736E-1,3.961609233E0
8.655615292E0,-9.055719706E0,-3.116992322E1,-2.899940636E0,3.258803198E1
8.665554292E0,-1.380618130E1,-8.337875050E1,2.302456938E0,8.454541965E1
8.675493292E0,6.587847376E0,-5.724906402E1,-7.027484318E0,5.805377335E1
8.685432292E0,1.258002837E1,-1.657889354E1,-9.808493757E0,2.300702881E1
8.695371292E0,1.516016139E1,-1.228088598E1,-1.208135472E0,1.954764040E1
8.705310292E0,9.426063049E0,-1.863440853E1,3.291803488E0,2.114066735E1
8.715249292E0,2.021219021E0,-2.553741966E1,2.644013854E0,2.575336752E1
8.725188292E0,-2.948570467E0,-2.339098398E1,-1.221202683E-1,2.357641009E1
8.735127292E0,-3.361974168E0,-1.641251219E1,-2.080096536E0,1.688194978E1
8.745065292E0,-1.697657057E0,-9.914564588E0,-1.705621111E0,1.020243960E1
8.755004292E0,1.924350100E-1,-4.913765561E0,-1.763206684E0,5.224080879E0
8.764943292E0,1.835902631E0,-1.452064791E0,-2.938241068E0,3.756632961E0
8.774882292E0,2.713805051E0,1.140442695E0,-2.970370349E0,4.181919105E0
8.784821292E0,2.544591600E0,3.412042707E0,-1.331314964E0,4.459751268E0
8.794760292E0,2.207291603E0,5.557331166E0,3.409371114E-1,5.989349215E0
8.804699292E0,1.611417936E0,7.355254669E0,1.977288452E0,7.784992526E0
8.814638292E0,1.171071288E0,9.446254655E0,2.711912892E0,9.897353510E0
8.824577292E0,7.245233752E-1,1.145237646E1,2.820523753E0,1.181681915E1
8.834516292E0,2.879345866E-1,1.303445643E1,3.217444446E0,1.342877170E1
8.844455292E0,-6.070637306E-2,1.443100307E1,3.254860487E0,1.479363552E1
8.854394292E0,-6.647879277E-1,1.516434683E1,2.800120479E0,1.543502616E1
8.864333292E0,-1.593492419E0,1.506855774E1,2.273990353E0,1.532226102E1
8.874272292E0,-2.564528851E0,1.443723621E1,1.769664934E0,1.476964155E1
8.884211292E0,-2.923732957E0,1.358601726E1,1.721287118E0,1.400324637E1
8.894150292E0,-2.380658916E0,1.277024882E1,2.006020938E0,1.314423492E1
8.904089292E0,-1.341300692E0,1.174194227E1,2.381045563E0,1.205577346E1
8.914028292E0,-8.496868269E-1,1.053807190E1,2.586719327E0,1.088411889E1
8.923967292E0,-1.060673079E0,9.583844901E0,2.828170742E0,1.004856508E1
8.933906292E0,-1.169731252E0,9.041179435E0,3.147740665E0,9.644660080E0
8.943844292E0,-9.943541050E-1,8.787468163E0,2.993215420E0,9.336363069E0
8.953783292E0,-5.752632554E-1,8.642636139E0,2.780004888E0,9.096950831E0
8.963722292E0,-3.893105417E-2,8.632725694E0,2.553094329E0,9.002430737E0
8.973661292E0,3.047350989E-1,8.629502124E0,2.098928225E0,8.886319265E0
8.983600292E0,7.508446164E-1,8.439890953E0,1.418058700E0,8.591066140E0
8.993539292E0,1.140298854E0,8.428920407E0,6.707573502E-1,8.532109712E0
9.003478292E0,1.193631307E0,8.674832078E0,2.346395548E-1,8.759710212E0
9.013417292E0,1.084996326E0,9.148783990E0,6.225156283E-1,9.233904441E0
9.023356292E0,7.575766620E-1,9.679800634E0,1.207754087E0,9.784228771E0
9.033295292E0,3.681903988E-2,9.752335344E0,1.538158025E0,9.872959557E0
9.043234292E0,-8.871271335E-1,9.526066809E0,1.952207551E0,9.764428182E0
9.053173292E0,-1.420726492E0,9.066006128E0,2.980546843E0,9.648553796E0
9.063112292E0,-1.740107551E0,7.932756093E0,4.070436265E0,9.084329634E0
9.073050917E0,-1.724672071E0,5.821878498E0,4.204771367E0,7.385720361E0
9.082989917E0,-2.990512033E-1,1.817998749E0,3.889940904E0,4.304206235E0
9.092928917E0,1.328367528E0,-6.609284438E0,4.284052595E0,7.987509481E0
9.102867917E0,-5.297922367E0,-3.313376673E1,-2.688360307E0,3.366217105E1
9.112806917E0,-1.173970980E1,-8.445111114E1,-2.172945789E0,8.529087086E1
9.122744917E0,3.005072697E0,-5.651013033E1,-9.302895545E0,5.734953493E1
9.132683917E0,1.080314958E1,-1.671255154E1,-9.810529758E0,2.218702129E1
9.142622917E0,1.115009295E1,-1.712162508E1,1.188703859E-1,2.043254141E1
9.152561917E0,4.974108242E0,-2.488330802E1,4.240752794E0,2.572750969E1
9.162500917E0,-9.865988698E-1,-2.769147076E1,1.662020763E0,2.775884081E1
9.172439917E0,-4.720368319E0,-2.320776732E1,-1.716908576E0,2.374510721E1
9.182378917E0,-3.824288367E0,-1.590765658E1,-2.808144028E0,1.660013229E1
9.192317917E0,-3.028125637E0,-9.437776777E0,-1.748531342E0,1.006471744E1
9.202256917E0,-2.666349633E0,-4.487952606E0,-1.180825247E0,5.352147908E0
9.212195917E0,-2.551518796E0,-8.766104776E-1,-1.338749260E0,3.011800737E0
9.222134917E0,-2.321814145E0,2.471198226E0,-1.233122671E0,3.608078868E0
9.232073917E0,-1.843833502E0,5.335050432E0,-3.870235495E-1,5.657938876E0
9.242012917E0,-1.187391890E0,7.438523113E0,5.657428189E-1,7.553912267E0
9.251951917E0,-1.180906962E-1,9.228044752E0,1.909638798E0,9.424302399E0
9.261890917E0,1.138649354E0,1.141776211E1,3.095427089E0,1.188459014E1
9.271829917E0,2.464954277E0,1.390023494E1,3.499808536E0,1.454445567E1
9.281768917E0,3.812866416E0,1.617428727E1,3.234413066E0,1.692946978E1
9.291707917E0,4.759277153E0,1.789395573E1,2.770342948E0,1.872215722E1
9.301646917E0,4.488921782E0,1.840638466E1,2.542407373E0,1.911568075E1
9.311585917E0,3.225650136E0,1.708628101E1,2.427147642E0,1.755667574E1
9.321523917E0,2.416857712E0,1.521782780E1,2.285286882E0,1.557709923E1
9.331462917E0,1.823635757E0,1.359162240E1,2.023451488E0,1.386189752E1
9.341401917E0,1.736022832E0,1.233485111E1,2.022436119E0,1.261953149E1
9.351340917E0,1.560954272E0,1.108562389E1,2.197994092E0,1.140871655E1
9.361279917E0,1.182211988E0,1.020432687E1,2.447574013E0,1.056013876E1
9.371218917E0,5.730069610E-1,9.481284739E0,2.740572142E0,9.886042330E0
9.381157917E0,1.834341534E-1,8.820855764E0,3.084668212E0,9.346460425E0
9.391096917E0,2.665692808E-1,8.413866166E0,3.221112112E0,9.013310506E0
9.401035917E0,6.247834709E-1,8.297958564E0,3.149164462E0,8.897398919E0
9.410974917E0,9.077773064E-1,8.383305693E0,2.918995543E0,8.923251031E0
9.420913917E0,1.122970922E0,8.246282042E0,2.680228000E0,8.743331935E0
9.430852917E0,1.393452447E0,8.099273100E0,2.220098906E0,8.512859309E0
9.440791917E0,1.681045849E0,8.257685866E0,1.614839726E0,8.580384511E0
9.450730917E0,1.874495716E0,8.603127088E0,1.127670768E0,8.876889728E0
9.460669917E0,1.711198478E0,8.909712977E0,8.233487749E-1,9.109834728E0
9.470608917E0,1.312764526E0,9.375324420E0,1.056729863E0,9.525583273E0
9.480547917E0,4.784909958E-1,9.584889799E0,1.054296105E0,9.654564017E0
9.490486917E0,-7.966614980E-1,9.542837209E0,8.471527898E-1,9.613432237E0
9.500425917E0,-1.983787632E0,9.121282781E0,1.506425039E0,9.455291076E0
9.510364917E0,-3.261651735E0,8.059041917E0,3.301206980E0,9.299704092E0
9.520302917E0,-3.917785930E0,5.892590631E0,4.608974183E0,8.444780278E0
9.530241917E0,-1.985812230E0,2.038800722E0,5.226574641E0,5.951238617E0
9.540180917E0,3.028696910E-1,-6.927101659E0,7.167699380E0,9.972581503E0
9.550119917E0,-9.419946277E0,-4.000295873E1,1.635117724E0,4.112962078E1
9.560058917E0,-1.276249541E1,-9.510351248E1,1.073290347E0,9.596203065E1
9.569997917E0,7.839785948E0,-5.538194515E1,-1.513357527E1,5.794520854E1
9.579936917E0,1.226792271E1,-1.797141614E1,-1.595604696E1,2.698275672E1
9.589875917E0,1.107922353E1,-1.591071584E1,-1.221775711E0,1.942660054E1
9.599814917E0,2.893362811E0,-2.165833938E1,5.671695102E0,2.257483861E1
9.609753917E0,-4.067034648E0,-2.542156761E1,4.003576863E0,2.605427984E1
9.619692917E0,-5.827074918E0,-2.191591156E1,-9.418117560E-2,2.267754069E1
9.629631917E0,-4.373739527E0,-1.466128046E1,-1.361748698E0,1.536024419E1
9.639570917E0,-1.740997789E0,-7.625711782E0,-1.239608549E0,7.919544358E0
9.649509917E0,-5.984741434E-1,-2.394661682E0,-1.332791093E0,2.805157387E0
9.659448917E0,1.623488197E-1,1.518064653E0,-1.273184431E0,1.987932600E0
9.669387917E0,8.848592178E-1,4.306428135E0,-1.637809928E0,4.691558427E0
9.679326917E0,9.328461472E-1,5.956596592E0,-1.173013587E0,6.142247615E0
9.689265917E0,9.709588104E-1,7.421902987E0,3.366511023E-1,7.492712388E0
9.699203917E0,1.815242956E0,9.443215857E0,1.716972896E0,9.768184510E0
9.709142917E0,3.268313760E0,1.174479922E1,2.010225964E0,1.235569472E1
9.719081917E0,4.352412978E0,1.401289675E1,2.504537880E0,1.488547897E1
9.729020917E0,3.574578052E0,1.548061805E1,3.949305346E0,1.637144331E1
9.738959917E0,2.443389453E0,1.585683726E1,2.164258288E0,1.618930059E1
9.748898917E0,3.310510485E0,1.600086119E1,2.404259594E-1,1.634150676E1
9.758837917E0,2.935538485E0,1.522054091E1,3.369060409E-1,1.550470114E1
9.768776917E0,2.421623485E0,1.369034796E1,1.210632087E0,1.395548343E1
9.778715917E0,1.648242677E0,1.302506112E1,2.039052737E0,1.328633347E1
9.788654917E0,3.217670149E-1,1.267490646E1,2.993296112E0,1.302753274E1
9.798593917E0,-5.295419759E-1,1.204800776E1,3.612760663E0,1.258915983E1
9.808532917E0,-8.347622475E-1,1.100274195E1,3.530120502E0,1.158528848E1
9.818471917E0,-1.124912198E0,1.011214551E1,3.484329202E0,1.075460201E1
9.828410917E0,-1.438452473E0,9.527445583E0,3.570760113E0,1.027578185E1
9.838349917E0,-1.467215804E0,8.935646548E0,3.467695920E0,9.696567250E0
9.848288917E0,-1.302288362E0,8.395960237E0,3.012153090E0,9.014497741E0
9.858227917E0,-1.006956901E0,8.166250032E0,2.306042451E0,8.545140933E0
9.868166917E0,-4.543760186E-1,8.434329082E0,1.678668956E0,8.611753253E0
9.878105917E0,1.594548865E-1,8.932577929E0,8.136260247E-1,8.970973282E0
9.888044917E0,7.091481216E-1,9.375231450E0,-1.363078062E-1,9.403001415E0
9.897983917E0,8.381374066E-1,9.530663890E0,-3.537616633E-1,9.573984323E0
9.907921917E0,6.926309069E-1,9.445099245E0,-1.108971226E-1,9.471110573E0
9.917860917E0,4.791800536E-1,9.285634564E0,5.031762958E-2,9.298126405E0
9.927799917E0,-2.285876866E-1,8.981319734E0,2.129427302E-1,8.986751421E0
9.937738917E0,-1.219964755E0,8.688776518E0,5.631688745E-1,8.792059518E0
9.947677917E0,-2.192704993E0,8.253032652E0,1.358753754E0,8.646774827E0
9.957616917E0,-2.933264503E0,7.016807302E0,2.607060621E0,8.039676016E0
9.967555917E0,-3.165765000E0,4.362867215E0,3.692292151E0,6.533735509E0
9.977494917E0,-1.806172755E0,-1.088503048E0,4.659669542E0,5.114647510E0
9.987433917E0,-1.964727902E0,-1.189716129E1,5.498649094E0,1.325283910E1
9.997372917E0,-9.812914252E0,-4.015411160E1,-3.682705057E-1,4.133741147E1
1.000731192E1,-1.104862856E1,-7.063915980E1,-3.830361285E0,7.160052205E1
1.001725092E1,2.751252082E0,-3.904798212E1,-6.768319348E0,3.972561443E1
1.002718992E1,1.065136405E1,-1.536651782E1,-3.433787917E0,1.900979551E1
1.003712892E1,8.941758642E0,-1.811017875E1,-6.183921719E-1,2.020683129E1
1.004706792E1,4.740072266E0,-2.531018985E1,3.264639663E0,2.595634541E1
1.005700692E1,-8.127002643E-1,-2.900919694E1,3.531893671E0,2.923470988E1
1.006694592E1,-3.350651035E0,-2.478742070E1,1.881759127E0,2.508354251E1
1.007688492E1,-2.985626904E0,-1.695391291E1,8.888878763E-1,1.723772759E1
1.008682392E1,-2.420679599E0,-1.076833993E1,7.368146610E-1,1.106163327E1
1.009676192E1,-1.640119871E0,-6.484656299E0,-2.553221432E-1,6.693724666E0
1.010670092E1,-1.481160097E0,-3.558197955E0,-1.234171808E0,4.046947982E0
1.011663992E1,-2.046748550E0,-9.621078801E-1,-1.378306843E0,2.648501643E0
1.012657892E1,-1.999376163E0,1.598443403E0,-4.545730333E-1,2.599839032E0
1.013651792E1,-1.495945074E0,4.018926389E0,3.412097378E-1,4.301865301E0
1.014645692E1,-5.007102326E-1,6.396031805E0,1.231883208E0,6.532799540E0
1.015639592E1,6.902415884E-1,8.871482127E0,2.023243035E0,9.125411824E0
1.016633492E1,1.943530868E0,1.112332907E1,2.227652485E0,1.150948294E1
1.017627392E1,3.643379023E0,1.316714612E1,2.103266859E0,1.382286798E1
1.018621292E1,5.932322461E0,1.517159504E1,2.005351725E0,1.641314051E1
1.019615192E1,6.826469323E0,1.668749388E1,2.595064473E0,1.821558385E1
1.020609092E1,4.649829848E0,1.634760342E1,1.212617655E0,1.703923404E1
1.021602992E1,4.772610852E0,1.540063281E1,1.981036663E-2,1.612320371E1
1.022596892E1,4.070852880E0,1.470321669E1,-1.222053453E-2,1.525636174E1
1.023590792E1,3.417291167E0,1.377706802E1,2.030175202E-1,1.419600994E1
1.024584692E1,2.270244335E0,1.276076931E1,3.685463481E-1,1.296638227E1
1.025578592E1,8.772560102E-1,1.204189859E1,7.025360902E-1,1.209423237E1
1.026572492E1,-3.873546481E-1,1.135196924E1,1.069770323E0,1.140884121E1
1.027566392E1,-1.253876340E0,1.068019082E1,1.619129244E0,1.087475339E1
1.028560292E1,-1.687808446E0,1.008427418E1,2.180046648E0,1.045437164E1
1.029554192E1,-1.631386031E0,9.452318217E0,2.293516691E0,9.862451971E0
1.030548092E1,-1.466026772E0,8.821578480E0,2.252393224E0,9.221862969E0
1.031541892E1,-1.368461301E0,8.463818344E0,1.873713505E0,8.776087374E0
1.032535792E1,-1.304738638E0,8.080455006E0,1.338715200E0,8.293868482E0
1.033529692E1,-1.289645512E0,7.933864140E0,9.124347599E-1,8.089618219E0
1.034523592E1,-1.130151011E0,8.024729286E0,4.293715703E-1,8.115286894E0
1.035517492E1,-1.271681111E0,8.224537416E0,-4.663739204E-2,8.322401312E0
1.036511392E1,-1.397426361E0,8.484701675E0,1.831767480E-1,8.600960218E0
1.037505292E1,-1.309354722E0,8.703036708E0,3.906442916E-1,8.809645889E0
1.038499192E1,-1.471689508E0,8.728356321E0,3.812631650E-1,8.859764990E0
1.039493092E1,-2.362471882E0,8.396549052E0,1.049275832E0,8.785458961E0
1.040486992E1,-3.676616351E0,7.338842704E0,2.390462211E0,8.549294100E0
1.041480892E1,-4.536802585E0,5.095433289E0,3.571462948E0,7.700737996E0
1.042474792E1,-3.109142318E0,4.936190218E-1,5.782781675E0,6.584146838E0
1.043468692E1,-4.173403394E0,-9.993407274E0,8.348999494E0,1.367447540E1
1.044462592E1,-1.472606644E1,-3.934234966E1,5.844169253E0,4.241263755E1
1.045456492E1,-1.749972359E1,-7.976083961E1,2.095393583E0,8.168489784E1
1.046450392E1,5.658051209E0,-4.735091608E1,-1.156056983E1,4.906902864E1
1.047444292E1,1.837126863E1,-1.809207577E1,-1.074535336E1,2.793365954E1
1.048438192E1,1.771993207E1,-1.598777279E1,-3.373144104E0,2.410358837E1
1.049432092E1,1.045975313E1,-2.095364698E1,1.871260452E0,2.349390076E1
1.050425892E1,3.408912400E0,-2.553705480E1,3.559541645E0,2.600830998E1
1.051419792E1,-2.395564199E0,-2.449764205E1,1.557994119E0,2.466374950E1
1.052413692E1,-4.894185867E0,-1.890339449E1,-1.756595968E0,1.960553513E1
1.053407592E1,-4.355030776E0,-1.196753019E1,-3.481836827E0,1.320269895E1
1.054401492E1,-4.208608310E0,-6.819613463E0,-3.542095892E0,8.761618287E0
1.055395392E1,-4.189280924E0,-2.857293969E0,-1.504371497E0,5.289360744E0
1.056389292E1,-3.159216996E0,7.382589233E-1,8.699252828E-1,3.358935584E0
1.057383192E1,-2.291838979E0,4.457017912E0,1.262965690E0,5.168424993E0
1.058377092E1,-1.705238996E0,7.503579819E0,2.491351240E0,8.088163026E0
1.059370992E1,6.858977649E-1,9.653757720E0,4.142783865E0,1.052749505E1
1.060364892E1,3.318151626E0,1.171248166E1,4.939271700E0,1.313730420E1
1.061358792E1,4.145674436E0,1.397678785E1,5.676123784E0,1.564466671E1
1.062352692E1,4.144194506E0,1.648301324E1,5.776707587E0,1.795088923E1
1.063346592E1,3.801274603E0,1.880066125E1,4.307785274E0,1.965888008E1
1.064340492E1,4.320073490E0,1.950473618E1,2.432593885E0,2.012499146E1
1.065334392E1,3.577320104E0,1.824789237E1,1.191751574E0,1.863338582E1
1.066328292E1,1.903893178E0,1.715852569E1,1.818602474E-1,1.726478747E1
1.067322192E1,4.984973538E-1,1.600327492E1,1.435095294E-1,1.601168020E1
1.068316092E1,-7.819344082E-1,1.427215294E1,1.123870078E0,1.433767257E1
1.069309992E1,-1.528998946E0,1.255842408E1,2.037930218E0,1.281425037E1
1.070303792E1,-1.601251236E0,1.110699897E1,2.553021823E0,1.150857733E1
1.071297692E1,-1.701259673E0,9.532927932E0,2.870863602E0,1.010014145E1
1.072291592E1,-1.743130415E0,8.194116692E0,3.584978203E0,9.112306004E0
1.073285492E1,-1.520081650E0,7.055819925E0,4.193017294E0,8.347253265E0
1.074279392E1,-9.658255398E-1,5.712874119E0,4.191515729E0,7.151122554E0
1.075273292E1,-2.808263092E-1,4.596077564E0,3.896179883E0,6.031833061E0
1.076267192E1,2.293856122E-1,4.340870574E0,3.182026984E0,5.387120829E0
1.077261092E1,2.027953260E-2,5.002725685E0,2.390493933E0,5.544559205E0
1.078254992E1,2.026988469E-2,6.138684735E0,2.005447911E0,6.457993687E0
1.079248892E1,9.738738667E-2,7.105268074E0,2.035111860E0,7.391616804E0
1.080242792E1,1.624607573E-1,7.760105356E0,1.874716887E0,7.984997936E0
1.081236692E1,-7.872047961E-2,8.288052211E0,1.605940118E0,8.442573662E0
1.082230592E1,-4.621850482E-1,8.818609264E0,1.391228313E0,8.939630898E0
1.083224492E1,-6.473700956E-1,9.175241472E0,9.171790445E-1,9.243666021E0
1.084218392E1,-1.188317285E0,9.118302455E0,8.520093410E-1,9.234796021E0
1.085212292E1,-2.472725811E0,7.783247466E0,1.226163461E0,8.258134831E0
1.086206192E1,-3.435746149E0,4.687750211E0,1.910348357E0,6.117906872E0
1.087200092E1,-2.490310143E0,-1.974667291E0,2.303734993E0,3.925321699E0
1.088193992E1,-7.613762412E0,-1.875301462E1,8.979475522E-1,2.025959638E1
1.089187892E1,-2.058934673E1,-6.517429124E1,5.988946313E0,6.861105534E1
1.090181792E1,-8.019397795E0,-7.414338678E1,4.788509431E0,7.472939427E1
1.091175592E1,1.544116805E1,-2.494491428E1,-4.157509493E0,2.963044557E1
1.092169492E1,2.091782460E1,-1.355839969E1,-1.856526053E0,2.499664532E1
1.093163392E1,1.671275619E1,-1.863584812E1,5.445605493E-1,2.503812295E1
1.094157292E1,8.154003038E0,-2.414363524E1,6.585156926E-1,2.549189148E1
1.095151192E1,4.862888791E-1,-2.336845349E1,-7.724709090E-1,2.338627389E1
1.096145092E1,-3.603650116E0,-1.843572131E1,-8.513077482E-1,1.880390490E1
1.097138992E1,-4.345593955E0,-1.194642408E1,-2.762257565E-1,1.271524816E1
1.098132892E1,-3.924506135E0,-6.362082871E0,1.337397091E-1,7.476344907E0
1.099126792E1,-3.378448114E0,-2.278793841E0,9.665457706E-1,4.188200539E0
1.100120692E1,-1.576255266E0,8.236411357E-1,2.601486178E-1,1.797398867E0
1.101114592E1,1.441837864E-1,3.480719424E0,8.367717893E-1,3.582789932E0
1.102108492E1,1.326516885E0,5.931304461E0,1.809493243E0,6.341473445E0
1.103102392E1,2.959301862E0,8.175500327E0,2.851222805E0,9.150177298E0
1.104096292E1,4.322437811E0,1.049237124E1,3.151652745E0,1.177736124E1
1.105090192E1,5.337142566E0,1.238887236E1,2.449798294E0,1.371024292E1
1.106084092E1,5.769137197E0,1.298334007E1,1.742807064E0,1.431388975E1
1.107077992E1,5.209601929E0,1.452298679E1,3.821148705E0,1.589522806E1
1.108071942E1,5.070007256E0,1.622567962E1,3.580058355E0,1.737223274E1
1.109065842E1,5.540809858E0,1.798011796E1,3.424009618E-1,1.881761022E1
1.110059742E1,2.193705159E0,1.720667050E1,1.269809710E0,1.739236237E1
1.111053642E1,-1.193034891E0,1.531394901E1,2.881744101E0,1.562833374E1
1.112047442E1,-3.660573345E0,1.408288792E1,3.769277762E0,1.503113383E1
1.113041342E1,-4.365918292E0,1.252553349E1,2.280577826E0,1.345924466E1
1.114035242E1,-2.991999492E0,1.063821366E1,2.836928701E-1,1.105459780E1
1.115029142E1,-9.495582935E-1,9.422726628E0,9.025693376E-1,9.513362679E0
1.116023042E1,2.438440589E-1,7.772857549E0,2.853551166E0,8.283690521E0
1.117016942E1,1.157170117E0,7.728426896E0,4.372268368E0,8.954571773E0
1.118010842E1,-1.122046770E0,7.161442859E0,4.624221382E0,8.598178654E0
1.119004742E1,-2.024685836E0,6.591298403E0,4.406228997E0,8.182873660E0
1.119998642E1,-9.185484624E-1,9.014426669E0,3.103985074E0,9.578013509E0
1.120992542E1,-2.276039656E-1,9.607823163E0,2.344944853E0,9.892463589E0
1.121986442E1,7.730419627E-1,9.923999655E0,2.235645483E0,1.020203282E1
1.122980342E1,1.020707433E0,9.595172127E0,2.726029532E0,1.002698403E1
1.123974242E1,9.584769785E-1,9.920549798E0,2.937870647E0,1.039072040E1
1.124968142E1,4.403242823E-1,1.045839540E1,2.666989903E0,1.080207179E1
1.125962042E1,-1.212484777E0,1.000461288E1,1.653279322E0,1.021252812E1
1.126955942E1,-2.913869289E0,8.909704206E0,1.042457833E0,9.431870525E0
1.127949842E1,-4.328115166E0,7.722202535E0,1.547341515E0,8.986615527E0
1.128943742E1,-4.816121737E0,6.086976053E0,1.817568394E0,7.971816664E0
1.129937642E1,-3.094333659E0,2.874918646E0,1.837033629E0,4.605947304E0
1.130931542E1,-7.894575821E-1,-4.157217717E0,2.598149464E0,4.965489206E0
1.131925442E1,-4.761766313E0,-2.660988321E1,-1.964448112E0,2.710386244E1
1.132919242E1,-3.096719908E0,-7.200462499E1,3.918663597E-1,7.207225023E1
1.133913142E1,1.000205180E1,-6.200474952E1,-4.644190793E0,6.297776204E1
1.134907042E1,1.000044381E1,-2.125469672E1,-8.527408569E0,2.498975202E1
1.135900942E1,1.174365784E1,-1.132388389E1,1.715549866E-1,1.631481772E1
1.136894842E1,6.729507869E0,-1.708540977E1,4.090108638E0,1.881293416E1
1.137888742E1,7.531006184E-1,-2.374710514E1,3.946290522E0,2.408454633E1
1.138882642E1,-4.327122016E0,-2.333365788E1,9.927309179E-1,2.375224388E1
1.139876542E1,-4.699348455E0,-1.645446713E1,-1.617671971E0,1.718866566E1
1.140870442E1,-1.764275116E0,-9.719365819E0,-1.790010320E0,1.003906746E1
1.141864342E1,8.747879735E-1,-5.053351462E0,-3.182827760E0,6.035893269E0
1.142858242E1,2.435323073E0,-2.148267615E0,-4.650975902E0,5.672515232E0
1.143852142E1,2.424020551E0,-6.046903914E-1,-4.482756186E0,5.131922556E0
1.144846042E1,2.210014651E0,6.067766780E-1,-3.238793800E0,3.967635061E0
1.145839942E1,2.398753563E0,2.028561078E0,-1.249319605E0,3.380810284E0
1.146833842E1,2.446952893E0,4.058921928E0,9.398672645E-1,4.831746698E0
1.147827742E1,2.922367047E0,6.916606491E0,2.115702717E0,7.801017402E0
1.148821642E1,3.219079912E0,9.837767258E0,2.508144443E0,1.065058349E1
1.149815542E1,3.736135744E0,1.247646132E1,2.727767032E0,1.330644619E1
1.150809442E1,3.892007895E0,1.487325723E1,2.865926213E0,1.563889507E1
1.151803342E1,2.755318235E0,1.682190617E1,2.927904360E0,1.729569107E1
1.152797242E1,1.604179814E0,1.742768823E1,3.105524353E0,1.777475714E1
1.153791142E1,3.700386306E-1,1.721930399E1,3.476704433E0,1.757068104E1
1.154784942E1,-1.264914129E0,1.614283510E1,3.860898077E0,1.664625083E1
1.155778842E1,-2.407658580E0,1.462829983E1,3.508341086E0,1.523458016E1
1.156772742E1,-2.703016646E0,1.331068825E1,3.223958244E0,1.395975026E1
1.157766642E1,-2.687262785E0,1.240753200E1,3.355910313E0,1.313127433E1
1.158760542E1,-2.689363397E0,1.155498223E1,3.420636652E0,1.234710674E1
1.159754442E1,-2.738774123E0,1.070845275E1,3.185806624E0,1.150309558E1
1.160748342E1,-2.521394234E0,9.840610174E0,2.824605110E0,1.054388124E1
1.161742242E1,-2.083700614E0,9.058629280E0,2.450667629E0,9.612821881E0
1.162736142E1,-1.739063969E0,8.491204948E0,2.256020690E0,8.956256714E0
1.163730042E1,-1.312775928E0,7.915823141E0,1.946444535E0,8.256650832E0
1.164723942E1,-9.844572540E-1,7.285955808E0,1.354500343E0,7.475893211E0
1.165717842E1,-5.541564149E-1,6.883185561E0,5.345045078E-1,6.926112031E0
1.166711742E1,-2.338421407E-1,6.854334229E0,-1.060018337E-1,6.859141073E0
1.167705642E1,-2.683567929E-1,7.159415630E0,-3.585138416E-1,7.173407816E0
1.168699542E1,-5.700327017E-1,7.560604790E0,-9.433517665E-2,7.582650011E0
1.169693442E1,-9.578541769E-1,8.038105377E0,7.443520144E-2,8.095317367E0
1.170687342E1,-1.658302519E0,8.211280024E0,1.934165382E-1,8.379289757E0
1.171681242E1,-2.553762081E0,7.664324455E0,9.008151729E-1,8.128655368E0
1.172675142E1,-3.493273981E0,6.078450812E0,1.622251364E0,7.195986859E0
1.173669042E1,-2.490926732E0,2.465365044E0,2.552909557E0,4.335906824E0
1.174662942E1,2.023385122E-1,-6.026826915E0,4.588258667E0,7.577314902E0
1.175656742E1,-1.002451183E0,-2.751561692E1,-8.821097839E-1,2.754799812E1
1.176650642E1,-5.870264207E0,-7.419614738E1,9.587094784E-3,7.442800803E1
1.177644542E1,6.906185583E0,-6.461786084E1,-1.064828724E1,6.585248181E1
1.178638442E1,1.382731899E1,-2.354988090E1,-1.311937320E1,3.029702285E1
1.179632342E1,9.645522501E0,-1.431237710E1,-4.005244489E0,1.771785049E1
1.180626242E1,2.997082769E0,-1.882151826E1,2.196486679E0,1.918480150E1
1.181620142E1,-9.257500394E-1,-2.453959933E1,4.389538704E0,2.494628226E1
1.182614042E1,-3.366773563E0,-2.249899357E1,2.891782601E0,2.293255944E1
1.183607942E1,-2.363147821E0,-1.564137087E1,3.439741552E-1,1.582261889E1
1.184601842E1,-9.931245817E-1,-9.534899029E0,-2.325191351E-1,9.589299300E0
1.185595742E1,2.783105812E-1,-4.702803867E0,-3.494212751E-1,4.723972504E0
1.186589642E1,1.650319023E0,-1.026259437E0,-1.246357405E0,2.308715680E0
1.187583542E1,2.022736959E0,1.722131894E0,-1.686573222E0,3.146701812E0
1.188577442E1,1.980453111E0,3.808415515E0,-1.102700672E0,4.431949011E0
1.189571342E1,2.949178285E0,5.963399827E0,9.233937576E-2,6.653443967E0
1.190565242E1,2.990575402E0,8.422299605E0,2.820521707E0,9.371980291E0
1.191559142E1,2.860786803E0,1.121833463E1,5.534846867E0,1.283236778E1
1.192553042E1,3.664616403E0,1.418057501E1,5.911104670E0,1.579427996E1
1.193546942E1,4.028795027E0,1.718423707E1,4.391831690E0,1.818838582E1
1.194540842E1,4.047248547E0,1.893334509E1,2.237833511E0,1.948998912E1
1.195534742E1,3.069636482E0,1.849549623E1,1.752955199E0,1.883026555E1
1.196528642E1,1.493638494E0,1.779581022E1,2.011531208E0,1.797131256E1
1.197522442E1,-4.986853418E-1,1.682111328E1,2.859569120E0,1.706972978E1
1.198516342E1,-1.368710977E0,1.490899775E1,3.492545710E0,1.537366122E1
1.199510242E1,-1.289835254E0,1.304630639E1,3.506949449E0,1.357086880E1
1.200504142E1,-1.081844239E0,1.156844837E1,3.483993280E0,1.213002860E1
1.201498042E1,-9.291164276E-1,1.045944089E1,3.487281754E0,1.106455128E1
1.202491942E1,-7.595027348E-1,9.481605751E0,3.835393107E0,1.025611682E1
1.203485842E1,-8.694227877E-1,8.114401016E0,4.231765623E0,9.192781958E0
1.204479742E1,-1.115920350E0,6.480305970E0,4.375283192E0,7.898274920E0
1.205473642E1,-1.106032196E0,5.340942087E0,4.107723083E0,6.828056716E0
1.206467542E1,-9.118241644E-1,4.982741656E0,3.318729623E0,6.055832232E0
1.207461454E1,-8.223459774E-1,5.428700023E0,2.265309285E0,5.939584413E0
1.208455354E1,-8.878140351E-1,6.219618970E0,1.335502593E0,6.423039862E0
1.209449254E1,-8.542551103E-1,6.933815432E0,1.501260924E0,7.145721279E0
1.210443154E1,-4.257416189E-1,8.052023504E0,1.820060623E0,8.266133263E0
1.211437054E1,-3.359956294E-1,9.299983631E0,2.057841302E0,9.530860372E0
1.212430954E1,-9.792674115E-1,1.013263065E1,2.563055938E0,1.049754373E1
1.213424854E1,-2.110325033E0,1.004314486E1,2.887077639E0,1.066083710E1
1.214418754E1,-2.955940298E0,9.173386150E0,2.646624928E0,9.994659575E0
1.215412654E1,-2.537512084E0,8.233388931E0,2.204573525E0,8.893132479E0
1.216406554E1,-1.156759643E0,6.318377273E0,2.218454522E0,6.795698986E0
1.217400454E1,1.884471358E0,1.868805791E0,4.004853895E0,4.804427344E0
1.218394354E1,1.465166062E0,-9.557914254E0,1.388395629E0,9.768729646E0
1.219388154E1,2.776415684E-1,-4.736674098E1,-2.819658365E0,4.745140366E1
1.220382054E1,5.470130469E0,-8.177984107E1,-4.515933287E0,8.208689534E1
1.221375954E1,1.377309425E1,-4.042425296E1,-1.167093251E1,4.427221497E1
1.222369854E1,1.130481028E1,-1.375915917E1,-4.365580323E0,1.833497990E1
1.223363754E1,7.430422965E0,-1.710679304E1,3.715171137E0,1.901725664E1
1.224357654E1,2.190860488E0,-2.545744379E1,6.103899064E0,2.627049481E1
1.225351554E1,-5.018995562E-1,-2.632871634E1,3.185076599E0,2.652542026E1
1.226345454E1,-1.700823471E0,-2.095533098E1,9.953722514E-2,2.102447632E1
1.227339354E1,-8.728448707E-1,-1.515063628E1,-6.177257355E-1,1.518832522E1
1.228333254E1,9.198020323E-1,-9.323210526E0,-1.857523296E0,9.550847244E0
1.229327154E1,1.910585316E0,-4.621585457E0,-3.173504959E0,5.922881234E0
1.230321054E1,1.516324229E0,-1.212109094E0,-2.781380153E0,3.391831832E0
1.231314954E1,5.093436099E-1,1.185065137E0,-1.649025765E0,2.093584549E0
1.232308854E1,-2.481230879E-1,3.433776807E0,-4.688320899E-1,3.474505973E0
1.233302754E1,-9.019979185E-1,5.904808972E0,6.237843280E-1,6.005786887E0
1.234296654E1,-1.761492134E0,8.370980347E0,1.684033191E0,8.718493809E0
1.235290554E1,-2.114784412E0,1.095962224E1,2.976211717E0,1.155177341E1
1.236284454E1,-2.254279682E0,1.341791215E1,3.397417358E0,1.402371520E1
1.237278354E1,-2.738158412E0,1.496413816E1,3.021838126E0,1.550981780E1
1.238272254E1,-3.144390796E0,1.601611307E1,2.825023770E0,1.656453533E1
1.239266154E1,-2.792898290E0,1.631457484E1,2.512221414E0,1.674147214E1
1.240260054E1,-1.997530489E0,1.535370072E1,2.608358703E0,1.570126711E1
1.241253854E1,-7.527231807E-1,1.413812306E1,2.750363305E0,1.442281575E1
1.242247754E1,3.203271380E-1,1.343187413E1,2.874279546E0,1.373969924E1
1.243241654E1,1.096660791E0,1.250200897E1,2.991073000E0,1.290152746E1
1.244235554E1,1.495097667E0,1.125606438E1,3.177344534E0,1.179109073E1
1.245229454E1,1.495927971E0,1.011561993E1,3.196991470E0,1.071374451E1
1.246223354E1,1.425424291E0,9.199722594E0,2.970808890E0,9.772023111E0
1.247217254E1,1.333562487E0,8.674744955E0,2.534723547E0,9.135338658E0
1.248211154E1,1.188184041E0,8.412137144E0,2.068307818E0,8.743782356E0
1.249205054E1,1.130541605E0,8.022623704E0,1.591509482E0,8.256725613E0
1.250198954E1,7.892709097E-1,7.587389715E0,1.104194197E0,7.707832126E0
1.251192854E1,3.637488903E-1,7.451209817E0,7.081349453E-1,7.493617023E0
1.252186754E1,1.873623312E-1,7.520650181E0,6.466576123E-1,7.550725121E0
1.253180654E1,2.332161598E-1,7.791874448E0,8.355054286E-1,7.840010619E0
1.254174554E1,5.544914603E-1,8.229271907E0,1.042556212E0,8.313561231E0
1.255168454E1,8.532955822E-1,8.756415355E0,1.425045100E0,8.912557251E0
1.256162354E1,9.344142973E-1,9.349045279E0,2.002645926E0,9.606683528E0
1.257156254E1,8.484973571E-1,9.855244585E0,2.297023705E0,1.015490579E1
1.258150154E1,8.591551501E-1,1.023570887E1,2.426083157E0,1.055432438E1
1.259144054E1,7.301669616E-1,1.060525758E1,2.705441194E0,1.096923171E1
1.260137954E1,3.512945768E-1,1.065955132E1,3.076056433E0,1.110007051E1
1.261131854E1,-3.559491798E-1,1.007741422E1,3.611012346E0,1.071076035E1
1.262125754E1,-6.581108460E-1,7.586986257E0,3.872216824E0,8.543391217E0
1.263119554E1,8.190987262E-1,2.753549745E0,2.419642156E0,3.756012125E0
1.264113454E1,2.252652402E0,-4.435645754E0,-3.526083000E-1,4.987356886E0
1.265107354E1,7.279714052E-1,-3.021575352E1,-2.044780669E0,3.029361040E1
1.266101254E1,-5.630719569E0,-7.243082152E1,3.153402232E0,7.271776162E1
1.267095154E1,-4.218669614E-1,-5.181798301E1,-6.506744156E0,5.222661251E1
1.268089054E1,4.415416434E0,-1.869790696E1,-8.388761730E0,2.096375325E1
1.269082954E1,8.013354698E0,-1.685656612E1,1.857426524E0,1.875653775E1
1.270076854E1,5.359892913E0,-2.371826433E1,7.852216544E0,2.555272627E1
1.271070754E1,-3.034719542E-1,-2.722233461E1,2.951591431E0,2.738356239E1
1.272064654E1,-3.475083877E0,-2.360911085E1,-8.774261642E-1,2.387961892E1
1.273058554E1,-3.464239047E0,-1.818197671E1,6.892581598E-1,1.852188722E1
1.274052454E1,-1.528329147E0,-1.350415624E1,2.721644998E-1,1.359309013E1
1.275046354E1,-2.533352959E-1,-9.476663100E0,-2.252335775E0,9.743938563E0
1.276040254E1,-6.461524129E-1,-6.183756827E0,-2.855370820E0,6.841747142E0
1.277034154E1,-1.192383219E0,-3.424327122E0,-1.698144861E0,4.003934309E0
1.278028054E1,-1.243517705E0,-8.159163791E-1,-1.115924881E0,1.859393493E0
1.279021954E1,-5.716955037E-1,1.781430847E0,-7.061002605E-1,1.999727279E0
1.280015854E1,-1.861179706E-1,4.433920240E0,-2.289958222E-1,4.443729029E0
1.281009754E1,-8.312404695E-1,6.855123019E0,3.021538456E-1,6.911943957E0
1.282003654E1,-5.410133724E-1,9.059683533E0,5.259244497E-1,9.091048219E0
1.282997554E1,-6.714920528E-2,1.112951075E1,4.529747334E-1,1.113892745E1
1.283991454E1,3.362748705E-1,1.291164268E1,8.895578210E-1,1.294661773E1
1.284985354E1,4.071035824E-1,1.429518161E1,1.546359475E0,1.438433795E1
1.285979154E1,1.308753043E-2,1.517871578E1,1.697182410E0,1.527331045E1
1.286973054E1,-8.382191214E-1,1.519014357E1,1.798256210E0,1.531916442E1
1.287966954E1,-1.195063583E0,1.436152412E1,2.026595975E0,1.455295995E1
1.288960854E1,-3.936184779E-1,1.342621052E1,2.040913613E0,1.358614709E1
1.289954754E1,7.067722517E-1,1.268229032E1,2.083328000E0,1.287168483E1
1.290948654E1,1.250251066E0,1.175597208E1,2.135010516E0,1.201350395E1
1.291942554E1,1.424511833E0,1.082258105E1,2.204535956E0,1.113631327E1
1.292936454E1,1.235674542E0,1.008148622E1,2.426409724E0,1.044273528E1
1.293930354E1,9.499784160E-1,9.425063760E0,2.607624292E0,9.825171262E0
1.294924254E1,6.484661561E-1,8.826680760E0,2.611027372E0,9.227581782E0
1.295918154E1,3.673630178E-1,8.336638480E0,2.190502639E0,8.627444497E0
1.296912054E1,1.602619484E-1,8.103105365E0,1.645584240E0,8.270063358E0
1.297905954E1,-6.429342516E-2,8.127752548E0,1.146236993E0,8.208431907E0
1.298899854E1,-3.556612409E-1,8.415095251E0,7.900101440E-1,8.459576764E0
1.299893754E1,-6.226544997E-1,8.875733637E0,6.202505632E-1,8.919139924E0
1.300887654E1,-7.951888767E-1,9.215353371E0,5.444716716E-1,9.265609127E0
1.301881554E1,-1.073560196E0,9.528605086E0,8.822676587E-1,9.629394716E0
1.302875454E1,-1.110934210E0,9.964092844E0,1.747807749E0,1.017704048E1
1.303869354E1,-8.381693470E-1,1.046101730E1,2.311135229E0,1.074601120E1
1.304863254E1,-4.020315249E-1,1.090279315E1,2.373525313E0,1.116539969E1
1.305857154E1,-1.647608692E-1,1.112803491E1,2.834454160E0,1.148453036E1
1.306851054E1,-5.583181706E-1,1.116083779E1,3.651913619E0,1.175638093E1
1.307844883E1,-5.746207560E-1,1.076436383E1,4.873806274E0,1.183028762E1
1.308838683E1,-2.863838319E-1,9.160200094E0,4.912686750E0,1.039835432E1
1.309832583E1,1.460238613E0,5.425464758E0,2.547683315E0,6.169169711E0
1.310826483E1,4.241346871E0,-1.525565461E0,-5.068741480E-1,4.535779388E0
1.311820383E1,3.668541346E0,-1.965309056E1,-4.151934757E0,2.041912649E1
1.312814283E1,-4.267140693E0,-6.392317420E1,1.763923699E0,6.408971927E1
1.313808183E1,-8.213500212E0,-6.559451426E1,-1.413186654E0,6.612184951E1
1.314802083E1,3.106524519E0,-2.186196515E1,-7.315076112E0,2.326169283E1
1.315795983E1,9.772576066E0,-1.010233272E1,-1.530079511E0,1.413865314E1
1.316789883E1,7.940817649E0,-1.781169827E1,4.712045392E0,2.006281516E1
1.317783783E1,2.419082285E0,-2.833119825E1,6.003729243E0,2.906120297E1
1.318777683E1,-3.538033247E0,-2.978187608E1,1.751372066E0,3.004238883E1
1.319771583E1,-3.546947912E0,-2.184649108E1,-1.500825891E0,2.218338321E1
1.320765483E1,-1.350028246E0,-1.556819647E1,-3.614187384E-1,1.563080104E1
1.321759383E1,5.305324576E-1,-1.205233470E1,-9.548491466E-1,1.210173431E1
1.322753283E1,5.769091004E-1,-9.060410342E0,-2.555979345E0,9.431696035E0
1.323747183E1,-7.959422904E-1,-6.536042215E0,-3.305450889E0,7.367453939E0
1.324741083E1,-2.238515004E0,-3.997540197E0,-3.280575664E0,5.635020296E0
1.325734983E1,-1.768908450E0,-9.724796712E-1,-2.127849723E0,2.933001579E0
1.326728883E1,-1.437709584E0,2.027219726E0,-1.370013152E0,2.837880319E0
1.327722783E1,-1.537898116E0,4.757766525E0,-6.295110910E-1,5.039618749E0
1.328716683E1,-1.462956399E0,7.145862368E0,2.175094056E-1,7.297321478E0
1.329710583E1,-1.710236319E0,9.440582271E0,8.994935560E-1,9.636316232E0
1.330704483E1,-1.419592571E0,1.191256519E1,1.613865434E0,1.210491694E1
1.331698283E1,-1.411647667E0,1.420183783E1,2.279759362E0,1.445275924E1
1.332692183E1,-9.892772600E-1,1.586159455E1,2.597237298E0,1.610324479E1
1.333686083E1,-2.849178618E-1,1.677280827E1,2.094346201E0,1.690545951E1
1.334679983E1,3.615906465E-1,1.697986519E1,1.526074169E0,1.705213981E1
1.335673883E1,7.410386896E-1,1.613258025E1,1.519992918E0,1.622096367E1
1.336667783E1,1.356058187E0,1.479301940E1,1.853221353E0,1.497019526E1
1.337661683E1,1.980366280E0,1.360181410E1,1.968362385E0,1.388544734E1
1.338655583E1,2.055050426E0,1.214328931E1,2.028882528E0,1.248194984E1
1.339649483E1,1.703825139E0,1.071890290E1,2.266087257E0,1.108751779E1
1.340643383E1,1.053253401E0,9.726683609E0,2.688757918E0,1.014628680E1
1.341637283E1,4.389800075E-1,9.028467003E0,2.907298772E0,9.495172775E0
1.342631183E1,1.286024733E-1,8.612564494E0,2.770659868E0,9.048168978E0
1.343625083E1,1.485581981E-1,8.498538526E0,2.408615331E0,8.834514952E0
1.344618983E1,2.085353548E-1,8.365783927E0,2.021505389E0,8.609083095E0
1.345612883E1,2.929808433E-1,8.146853063E0,1.676939495E0,8.322810744E0
1.346606783E1,3.430258099E-1,8.022358240E0,1.289138851E0,8.132513598E0
1.347600683E1,3.648081135E-1,7.952463548E0,9.945399003E-1,8.022709708E0
1.348594583E1,3.679640750E-1,8.052515840E0,1.019878517E0,8.125180681E0
1.349588483E1,4.563223009E-1,8.353761467E0,1.289860543E0,8.465063550E0
1.350582383E1,5.196484504E-1,8.697250303E0,1.507767852E0,8.842259962E0
1.351576283E1,2.233721164E-1,9.067279651E0,1.612234061E0,9.212206795E0
1.352570183E1,-3.513459958E-1,9.364324054E0,1.590015665E0,9.504849226E0
1.353564083E1,-1.138213736E0,9.590135336E0,1.655042696E0,9.798234157E0
1.354557983E1,-1.944849707E0,9.213137276E0,1.587361175E0,9.549034210E0
1.355551883E1,-2.330420370E0,7.874242421E0,2.040950743E0,8.461680255E0
1.356545683E1,-1.538821391E0,5.320116643E0,2.849086232E0,6.228073918E0
1.357539583E1,-2.825372411E-1,2.934694147E-1,3.819906464E0,3.841566995E0
1.358533483E1,-8.205259585E-1,-1.151664087E1,1.611222492E0,1.165771494E1
1.359527383E1,-3.517400469E0,-4.324333128E1,-5.311867976E-1,4.338939923E1
1.360521283E1,-3.107288750E0,-7.131448514E1,1.874769366E-1,7.138239406E1
1.361515183E1,6.633500097E0,-3.605059880E1,-1.009075757E1,3.801936856E1
1.362509083E1,9.665467939E0,-1.354353958E1,-9.126537673E0,1.897741881E1
1.363502983E1,8.713192152E0,-1.629148185E1,8.270890195E-2,1.847536032E1
1.364496883E1,4.848134658E0,-2.352556817E1,3.868735392E0,2.432948584E1
1.365490783E1,-1.254012872E0,-2.653859864E1,1.463573281E0,2.660849136E1
1.366484683E1,-3.314585117E0,-2.229540756E1,-3.946531427E-1,2.254389992E1
1.367478583E1,-1.445306287E0,-1.669028300E1,-1.219372505E0,1.679706303E1
1.368472483E1,-1.738794558E-1,-1.237092609E1,-8.914841131E-1,1.240422470E1
1.369466383E1,9.519910276E-2,-8.614025713E0,-1.715180140E0,8.783640747E0
1.370460283E1,-4.155698025E-1,-5.483144617E0,-3.036912832E0,6.281752359E0
1.371454183E1,-7.727401733E-1,-2.568497064E0,-2.885645363E0,3.939702236E0
1.372448083E1,-8.167496804E-1,2.576493716E-1,-1.800748293E0,1.994030505E0
1.373441983E1,-6.807749462E-1,2.898157235E0,-7.864668775E-1,3.079171973E0
1.374435883E1,-5.881275684E-1,5.408475673E0,2.023545921E-1,5.444120730E0
1.375429783E1,-4.348789897E-1,7.902395010E0,1.101560319E0,7.990644640E0
1.376423683E1,-3.865365496E-1,1.037737288E1,1.697466438E0,1.052238902E1
1.377417583E1,-5.459106714E-1,1.233329575E1,1.902750632E0,1.249114336E1
1.378411483E1,-2.737017328E-1,1.373368285E1,2.013976368E0,1.388326539E1
1.379405283E1,-3.926369862E-1,1.478932396E1,1.952241319E0,1.492278503E1
1.380399183E1,-8.131640947E-1,1.526238592E1,1.901135484E0,1.540181730E1
1.381393083E1,-1.496357449E0,1.516285462E1,2.035629777E0,1.537189105E1
1.382386983E1,-1.592976256E0,1.445337920E1,2.222261352E0,1.470973110E1
1.383380883E1,-8.069973287E-1,1.371766732E1,2.270908871E0,1.392776610E1
1.384374783E1,7.521452565E-2,1.284125507E1,2.349979452E0,1.305472682E1
1.385368683E1,7.032305932E-1,1.191525257E1,2.519310286E0,1.219896313E1
1.386362583E1,1.014138744E0,1.106107611E1,2.781347408E0,1.145040504E1
1.387356483E1,1.108523037E0,1.039597287E1,2.982020341E0,1.087186831E1
1.388350383E1,1.175327768E0,9.930405865E0,2.964119675E0,1.042978243E1
1.389344283E1,1.226873313E0,9.535672615E0,2.740796091E0,9.997311317E0
1.390338183E1,1.165854402E0,9.143949512E0,2.388741814E0,9.522453288E0
1.391332083E1,1.041107710E0,8.751589648E0,1.889421611E0,9.013553164E0
1.392325983E1,7.969585365E-1,8.458630110E0,1.255040520E0,8.588288127E0
1.393319883E1,5.050069859E-1,8.353723460E0,7.879147942E-1,8.405982240E0
1.394313783E1,2.340608266E-1,8.374393367E0,6.787260818E-1,8.405112601E0
1.395307683E1,6.742132008E-3,8.470199996E0,8.675548947E-1,8.514516129E0
1.396301583E1,-1.607733240E-1,8.560823652E0,1.050757663E0,8.626566022E0
1.397295483E1,-3.942607214E-1,8.700934634E0,1.020871082E0,8.769485890E0
1.398289383E1,-9.429728669E-1,8.809861829E0,7.137848175E-1,8.888889247E0
1.399283283E1,-1.703032257E0,8.562286041E0,3.347298534E-1,8.736424050E0
1.400277183E1,-2.491705581E0,8.036193337E0,4.056741209E-1,8.423394301E0
1.401271083E1,-2.756297936E0,7.062490429E0,1.091392157E0,7.659444249E0
1.402264983E1,-2.328510377E0,4.731354067E0,1.625113138E0,5.518030862E0
1.403258883E1,-8.035255444E-1,-4.212544656E-1,1.774738709E0,1.993189933E0
1.404252783E1,2.355407569E-1,-1.256712122E1,-1.025891647E0,1.261112481E1
1.405246583E1,1.417109989E0,-4.468379052E1,6.275137552E-1,4.471065991E1
1.406240483E1,3.253323254E0,-6.896951777E1,9.282443154E-1,6.905244479E1
1.407234383E1,9.900526593E0,-3.505580498E1,-8.601974602E0,3.742891739E1
1.408228308E1,1.170849386E1,-1.419223085E1,-6.632272182E0,1.955748653E1
1.409222208E1,9.273790444E0,-1.608771457E1,-1.104024116E-1,1.856959714E1
1.410216108E1,3.144716485E0,-2.294994488E1,3.620915190E0,2.344568699E1
1.411210008E1,-3.823343457E0,-2.575146986E1,2.641209530E0,2.616738701E1
1.412203908E1,-5.515410138E0,-2.130466001E1,-1.984077946E-1,2.200789978E1
1.413197808E1,-3.614338534E0,-1.485741946E1,-1.346253576E0,1.534987801E1
1.414191708E1,-1.863818116E0,-1.002154758E1,-2.144262857E0,1.041648200E1
1.415185608E1,-1.391523597E0,-6.436845371E0,-3.462061543E0,7.440106611E0
1.416179508E1,-2.010060487E0,-3.518790060E0,-3.578721682E0,5.406429092E0
1.417173408E1,-2.840741671E0,-7.154875267E-1,-2.064477600E0,3.583825247E0
1.418167308E1,-2.825728067E0,1.992765593E0,-6.242825838E-1,3.513628120E0
1.419161208E1,-2.159341950E0,4.627533830E0,2.427811448E-1,5.112315492E0
1.420155108E1,-1.633888054E0,7.173033210E0,1.152959976E0,7.446563792E0
1.421149008E1,-1.232111541E0,9.569090037E0,2.016821623E0,9.856629873E0
1.422142908E1,-7.353028634E-1,1.174258897E1,2.478713068E0,1.202385481E1
1.423136808E1,-6.857729634E-2,1.357438130E1,2.466788256E0,1.379686830E1
1.424130708E1,3.407178408E-1,1.496010125E1,2.201936430E0,1.512511957E1
1.425124608E1,5.810328493E-1,1.581135761E1,2.165958220E0,1.596959623E1
1.426118508E1,8.865872893E-1,1.589493187E1,2.432623998E0,1.610442658E1
1.427112408E1,1.136018984E0,1.493262518E1,2.636110758E0,1.520601571E1
1.428106308E1,1.834770610E0,1.384090090E1,2.654725953E0,1.421212478E1
1.429100208E1,2.583149017E0,1.299911235E1,2.540004752E0,1.349448794E1
1.430094108E1,2.580204944E0,1.195774312E1,2.336587282E0,1.245410447E1
1.431087908E1,2.053256501E0,1.074005461E1,2.299985759E0,1.117383416E1
1.432081808E1,1.360113816E0,9.942989073E0,2.431803049E0,1.032601605E1
1.433075708E1,6.325751781E-1,9.359714109E0,2.672275786E0,9.754253300E0
1.434069608E1,8.551995087E-2,8.952843794E0,2.927869277E0,9.419827183E0
1.435063508E1,-6.568265051E-2,8.766482506E0,2.929043398E0,9.243096070E0
1.436057408E1,4.282676160E-2,8.876488513E0,2.746067648E0,9.291650552E0
1.437051308E1,2.081173520E-1,9.059989927E0,2.603109072E0,9.428833818E0
1.438045208E1,3.327530925E-1,9.007736869E0,2.587826790E0,9.378000620E0
1.439039108E1,2.128941618E-1,8.853393765E0,2.404632500E0,9.176609534E0
1.440033008E1,4.375299711E-2,8.879547776E0,2.113703993E0,9.127761368E0
1.441026908E1,-1.334068564E-1,8.953945994E0,2.007155006E0,9.177124684E0
1.442020808E1,-5.407765236E-1,9.052360480E0,1.736202049E0,9.233204594E0
1.443014708E1,-1.268287680E0,9.184588246E0,1.368299918E0,9.372164080E0
1.444008608E1,-2.420667466E0,9.312496088E0,8.552580540E-1,9.659900657E0
1.445002508E1,-3.245963363E0,8.737521247E0,1.491110158E-1,9.322166582E0
1.445996408E1,-3.522503919E0,6.983858242E0,-7.215160060E-1,7.855119041E0
1.446990308E1,-3.114438726E0,3.926455012E0,-1.537106695E0,5.242086849E0
1.447984208E1,-1.486269540E0,-1.172835100E0,-1.944592137E0,2.714033511E0
1.448978108E1,3.300059975E-1,-1.188272802E1,-1.114039593E0,1.193939753E1
1.449972008E1,3.028285558E0,-3.761444130E1,4.670697756E-1,3.773903632E1
1.450965908E1,3.430211175E0,-6.188428285E1,-1.053855189E-1,6.197936688E1
1.451959808E1,6.572841666E0,-3.980944396E1,-3.873478653E0,4.053391065E1
1.452953708E1,1.015527808E1,-1.623656246E1,-2.214151118E0,1.927843610E1
1.453947608E1,7.529645537E0,-1.550608384E1,1.646881152E0,1.731607390E1
1.454941508E1,2.229745057E0,-2.224848716E1,2.953612229E0,2.255417409E1
1.455935308E1,-2.403689490E0,-2.569861103E1,2.569613882E0,2.593837403E1
1.456929208E1,-4.853732198E0,-2.227533523E1,5.372047885E-1,2.280433873E1
1.457923108E1,-3.051714182E0,-1.658822336E1,-1.105110894E0,1.690276261E1
1.458917008E1,-6.274503860E-1,-1.215238757E1,-2.801172978E0,1.248682457E1
1.459910908E1,3.847196004E-1,-8.922324836E0,-4.556882508E0,1.002601954E1
1.460904808E1,-8.066000104E-2,-6.172759384E0,-4.439066960E0,7.603603088E0
1.461898708E1,-2.816361486E-1,-3.358128455E0,-3.042430265E0,4.540124178E0
1.462892608E1,-1.832137499E-1,-5.023734730E-1,-1.560667466E0,1.649736138E0
1.463886508E1,2.720705789E-2,2.210249856E0,-7.718288116E-1,2.341295445E0
1.464880408E1,5.970825791E-2,5.252517568E0,9.961948085E-1,5.346485759E0
1.465874308E1,5.066612363E-3,8.296293862E0,2.548836386E0,8.679002502E0
1.466868208E1,3.577697834E-1,1.105396706E1,3.193212415E0,1.151150696E1
1.467862108E1,8.750890321E-1,1.344359897E1,2.888681238E0,1.377826598E1
1.468856008E1,1.327280823E0,1.523149158E1,2.189978874E0,1.544525874E1
1.469849908E1,1.515271730E0,1.613935016E1,1.626736179E0,1.629174461E1
1.470843808E1,1.039836087E0,1.606803869E1,1.242112473E0,1.614948822E1
1.471837708E1,7.539350161E-1,1.496302018E1,1.460424993E0,1.505301405E1
1.472831608E1,9.483485046E-1,1.406673090E1,1.977713106E0,1.423670018E1
1.473825508E1,1.100868739E0,1.344374047E1,2.183888415E0,1.366438577E1
1.474819408E1,1.071222479E0,1.264297014E1,2.256959753E0,1.288743880E1
1.475813308E1,8.967371786E-1,1.169232631E1,2.456162696E0,1.198112546E1
1.476807208E1,4.762940142E-1,1.093342437E1,2.863158434E0,1.131213069E1
1.477801108E1,6.042891811E-2,1.039882397E1,3.107431422E0,1.085335532E1
1.478795008E1,-1.696613476E-1,9.702032917E0,3.067970903E0,1.017696778E1
1.479788908E1,-1.335974756E-1,8.935051886E0,2.909175729E0,9.397675452E0
1.480782808E1,-3.212898821E-2,8.394848682E0,2.546285831E0,8.772575915E0
1.481776708E1,7.763757527E-2,8.073910217E0,2.139009719E0,8.352808891E0
1.482770608E1,2.131701869E-1,8.060437648E0,1.697723862E0,8.240046293E0
1.483764408E1,4.363768271E-1,8.220380630E0,1.537976761E0,8.374392812E0
1.484758308E1,6.207339817E-1,8.592908494E0,1.750226157E0,8.791284244E0
1.485752208E1,7.880111271E-1,8.938989401E0,2.022617383E0,9.198775686E0
1.486746108E1,6.394713843E-1,9.315857652E0,2.262089954E0,9.607870649E0
1.487740008E1,9.172998626E-2,9.527485344E0,2.166599075E0,9.771158730E0
1.488733908E1,-8.025019893E-1,9.442063370E0,1.699284045E0,9.627260067E0
1.489727808E1,-1.864644620E0,9.049950258E0,1.122752090E0,9.308011146E0
1.490721708E1,-2.780320345E0,8.044481766E0,9.157115395E-1,8.560513753E0
1.491715608E1,-3.106286538E0,6.042944764E0,1.218777331E0,6.903014969E0
1.492709508E1,-2.218904904E0,2.066366835E0,1.919037466E0,3.588330485E0
1.493703408E1,-3.479268730E0,-7.632082323E0,-6.158544803E-1,8.410307261E0
1.494697308E1,-5.192036308E0,-3.144997210E1,-3.524313340E0,3.206990444E1
1.495691208E1,-1.481046369E0,-6.430859927E1,-1.713250558E0,6.434846281E1
1.496685108E1,6.667683504E0,-4.589022547E1,-5.458665833E0,4.669226735E1
1.497679008E1,1.246248881E1,-1.549734459E1,-4.457231920E0,2.038009404E1
1.498672908E1,9.960137787E0,-1.377935311E1,-2.062967849E0,1.712690145E1
1.499666808E1,5.334278015E0,-2.142403443E1,6.620732117E-1,2.208805365E1
1.500660708E1,-4.578512382E-1,-2.707925559E1,1.397493896E0,2.711915744E1
1.501654608E1,-4.623531118E0,-2.516437666E1,5.150192098E-1,2.559078227E1
1.502648508E1,-4.240860967E0,-1.838450672E1,-1.015740881E0,1.889462142E1
1.503642408E1,-1.863236025E0,-1.278202043E1,-1.234005747E0,1.297591866E1
1.504636308E1,-4.114753994E-1,-8.792275743E0,-1.747574884E0,8.973708416E0
1.505630208E1,-5.267054915E-2,-5.931641845E0,-2.956321828E0,6.627743803E0
1.506624108E1,-6.317027005E-1,-3.388610575E0,-3.102192317E0,4.637383648E0
1.507618008E1,-7.457047677E-1,-5.197309327E-1,-1.790378841E0,2.007897467E0
1.508611879E1,-6.071640195E-1,2.245672873E0,-7.524315508E-1,2.444963811E0
1.509605679E1,-4.833568294E-1,4.954811845E0,3.436945121E-1,4.990182378E0
1.510599579E1,-7.802731046E-2,7.639946828E0,1.956976686E0,7.886991413E0
1.511593479E1,2.001177397E-1,1.026548640E1,3.216563855E0,1.075948611E1
1.512587379E1,5.466632080E-1,1.261586829E1,3.678282223E0,1.315251814E1
1.513581279E1,1.064231256E0,1.430200297E1,3.337188406E0,1.472469706E1
1.514575179E1,1.494574049E0,1.567079523E1,2.919257498E0,1.601029790E1
1.515569079E1,1.541963392E0,1.620954598E1,2.642851428E0,1.649580843E1
1.516562979E1,1.419244954E0,1.585911767E1,2.446480876E0,1.610934940E1
1.517556879E1,8.096104494E-1,1.508207183E1,2.171688492E0,1.525911500E1
1.518550779E1,5.230036193E-1,1.421862869E1,2.108252049E0,1.438359000E1
1.519544679E1,3.469863483E-1,1.309022717E1,1.823118717E0,1.322112736E1
1.520538579E1,3.449895242E-1,1.197123849E1,1.571525599E0,1.207887667E1
1.521532479E1,1.893670490E-1,1.108793471E1,1.729767627E0,1.122364700E1
1.522526379E1,-9.136670058E-2,1.038628052E1,2.288454172E0,1.063579774E1
1.523520279E1,-2.137075643E-1,9.792568281E0,2.703938459E0,1.016126703E1
1.524514179E1,-1.440116773E-1,9.319794583E0,2.860331597E0,9.749913193E0
1.525508079E1,-6.620963082E-2,8.991438925E0,2.875623236E0,9.440316025E0
1.526501979E1,3.687195718E-2,8.660924476E0,2.758972453E0,9.089824053E0
1.527495879E1,1.435463303E-1,8.417544065E0,2.519459975E0,8.787680706E0
1.528489779E1,1.709206551E-1,8.315370988E0,2.223523181E0,8.609219702E0
1.529483679E1,1.916181540E-1,8.383213892E0,1.839837222E0,8.584870044E0
1.530477579E1,4.939698547E-2,8.669149754E0,1.541294471E0,8.805236292E0
1.531471479E1,-8.483710572E-2,8.966644977E0,1.178732017E0,9.044187561E0
1.532465379E1,-5.634657304E-1,9.233868579E0,5.434120099E-1,9.266990837E0
1.533459279E1,-1.400632536E0,9.450865769E0,-3.022542715E-2,9.554137787E0
1.534453179E1,-2.236577529E0,9.639503378E0,-6.478495672E-2,9.895782006E0
1.535447079E1,-2.765876845E0,9.642036391E0,3.353613527E-1,1.003650376E1
1.536440979E1,-3.439843586E0,9.001889654E0,1.252562617E0,9.717790610E0
1.537434879E1,-4.592035676E0,7.234331326E0,2.155106957E0,8.835543412E0
1.538428779E1,-3.415951863E0,2.422398534E0,3.012772018E0,5.158830974E0
1.539422579E1,-9.821321087E-1,-8.319038361E0,2.972186494E0,8.888468670E0
1.540416479E1,-4.091327198E0,-3.240447392E1,-1.969785451E0,3.272107797E1
1.541410379E1,-3.962343175E0,-6.412957156E1,-1.402524256E0,6.426717036E1
1.542404279E1,1.193384789E1,-4.161728142E1,-3.653866004E0,4.344842431E1
1.543398179E1,1.613834327E1,-1.564327238E1,-2.593166467E0,2.262482280E1
1.544392079E1,1.314430807E1,-1.539506159E1,-7.920398587E-1,2.025853112E1
1.545385979E1,7.964369064E0,-2.277198136E1,1.855059571E0,2.419577557E1
1.546379879E1,-8.902253538E-1,-2.911794813E1,4.468318241E0,2.947224580E1
1.547373779E1,-5.569309772E0,-2.797986947E1,3.783429193E0,2.877854484E1
1.548367679E1,-3.120466913E0,-1.995480689E1,1.018940477E0,2.022300352E1
1.549361579E1,-1.447229728E-2,-1.433558821E1,-4.878390491E-1,1.434389367E1
1.550355479E1,2.682015201E0,-1.102226697E1,-2.118053298E0,1.153991874E1
1.551349379E1,3.533658068E0,-8.605013984E0,-5.247812898E0,1.068047495E1
1.552343279E1,1.731647945E0,-6.471730444E0,-5.115795633E0,8.429309847E0
1.553337179E1,4.996320791E-1,-3.946422669E0,-3.553536555E0,5.333995326E0
1.554331079E1,-5.174234752E-1,-7.650818557E-1,-1.342920663E0,1.629881347E0
1.555324979E1,-1.038234535E0,2.550090614E0,1.983644521E-1,2.760478499E0
1.556318879E1,-1.439091866E0,5.393775773E0,7.555444622E-1,5.633351571E0
1.557312779E1,-2.158610463E0,7.987805289E0,1.416700684E0,8.394740812E0
1.558306679E1,-2.748821102E0,1.065737381E1,2.284375008E0,1.124072966E1
1.559300579E1,-2.778530805E0,1.324546607E1,2.870347001E0,1.383479298E1
1.560294479E1,-1.816211986E0,1.521341666E1,3.018839089E0,1.561601940E1
1.561288379E1,-9.272840564E-1,1.627074060E1,2.449452577E0,1.648019033E1
1.562282279E1,-5.124671194E-1,1.681586950E1,1.424295340E0,1.688385936E1
1.563276179E1,-1.637444404E-1,1.653549200E1,7.244596405E-1,1.655216450E1
1.564270079E1,-6.171520505E-2,1.533808398E1,7.490530296E-1,1.535648753E1
1.565263979E1,-3.034149438E-2,1.394540117E1,1.023701280E0,1.398295744E1
1.566257879E1,1.674848312E-1,1.280015148E1,1.246692012E0,1.286181053E1
1.567251779E1,2.714639668E-1,1.166779607E1,1.441097899E0,1.175958847E1
1.568245679E1,1.298602277E-1,1.068324190E1,1.818456001E0,1.083767979E1
1.569239479E1,2.061106972E-3,9.937994381E0,2.263861953E0,1.019258591E1
1.570233379E1,-9.309472639E-2,9.227094580E0,2.490101105E0,9.557643252E0
1.571227279E1,-1.227949639E-1,8.502807578E0,2.582303802E0,8.887131610E0
1.572221179E1,-6.228607602E-2,8.065859186E0,2.468254738E0,8.435297589E0
1.573215079E1,6.111316111E-2,7.858865998E0,1.957833742E0,8.099297658E0
1.574208979E1,2.500150276E-1,7.842141207E0,1.294131642E0,7.952135746E0
1.575202879E1,4.120760546E-1,8.041568683E0,6.453993646E-1,8.077943667E0
1.576196779E1,5.975063926E-1,8.491462226E0,4.132872688E-1,8.522485024E0
1.577190679E1,7.591561411E-1,9.129704525E0,7.117278401E-1,9.188818166E0
1.578184579E1,8.579903117E-1,9.779640087E0,1.233039787E0,9.894336497E0
1.579178479E1,7.411394810E-1,1.025147414E1,1.485373016E0,1.038500567E1
1.580172379E1,3.245424323E-1,1.047785494E1,1.268295281E0,1.055932502E1
1.581166279E1,-5.094401986E-1,1.027527932E1,1.115960842E0,1.034824927E1
1.582160179E1,-1.402720138E0,9.418212578E0,1.220233288E0,9.599964647E0
1.583154079E1,-1.844822266E0,7.770413997E0,1.806995459E0,8.188280373E0
1.584147979E1,-1.795200309E0,5.218638216E0,2.506891969E0,6.061471465E0
1.585141879E1,-3.854397581E-1,8.533332968E-1,2.743131176E0,2.898535867E0
1.586135779E1,4.951765738E-1,-8.394980244E0,5.735580977E-1,8.429108021E0
1.587129679E1,-2.865971822E-1,-3.180799478E1,-1.701885910E0,3.185478120E1
1.588123579E1,-1.679829628E0,-6.611707758E1,2.512398877E0,6.618611579E1
1.589117479E1,4.427967190E0,-4.880086184E1,-4.663440412E0,4.922274561E1
1.590111379E1,8.685023190E0,-1.832658186E1,-1.001120269E1,2.261675065E1
1.591105279E1,7.981087423E0,-1.771381471E1,-4.095769327E0,1.985578794E1
1.592099179E1,5.391301231E0,-2.404243163E1,2.167304395E0,2.473462868E1
1.593093079E1,1.433736401E0,-2.586290843E1,2.380049490E0,2.601173328E1
1.594086979E1,-2.061187372E-1,-2.263210894E1,-3.519439101E-1,2.263578372E1
1.595080879E1,-3.691950966E-1,-1.784269202E1,-1.841943097E0,1.794131316E1
1.596074779E1,-3.191430768E-1,-1.274746339E1,-1.710784203E0,1.286570860E1
1.597068679E1,-6.410178997E-1,-8.365331352E0,-2.206226971E0,8.675085592E0
1.598062579E1,-8.689080135E-1,-5.309024475E0,-4.068243560E0,6.744727398E0
1.599056479E1,-1.367452949E0,-2.838356591E0,-4.371615819E0,5.388619543E0
1.600050279E1,-1.633354350E0,3.296432143E-1,-1.122436194E0,2.009072943E0
1.601044179E1,-1.555777586E0,3.731172042E0,1.410717959E0,4.281613465E0
1.602038079E1,-7.976058233E-1,6.694310555E0,2.757447499E0,7.283782367E0
1.603031979E1,5.647719618E-2,9.599557539E0,3.445152565E0,1.019920442E1
1.604025879E1,6.548847909E-1,1.233440204E1,3.484904276E0,1.283397466E1
1.605019779E1,9.234966686E-1,1.452988417E1,3.005056032E0,1.486609370E1
1.606013679E1,8.395108444E-1,1.602039323E1,2.591190400E0,1.625029370E1
1.607007579E1,9.015637627E-1,1.691301982E1,2.592307511E0,1.713426727E1
1.608001517E1,4.396787863E-1,1.740300012E1,2.979814187E0,1.766173896E1
1.608995417E1,-1.125399125E0,1.700407032E1,3.138270807E0,1.732782948E1
1.609989317E1,-2.132350471E0,1.587439995E1,2.967781202E0,1.628960459E1
1.610983217E1,-2.312540169E0,1.415585182E1,2.628530427E0,1.458235766E1
1.611977117E1,-1.816928124E0,1.241735298E1,2.280113704E0,1.275503043E1
1.612971017E1,-1.224525510E0,1.115793290E1,2.199437184E0,1.143837633E1
1.613964917E1,-1.021889374E0,1.041373671E1,2.511628214E0,1.076096866E1
1.614958817E1,-7.795706713E-1,9.797723186E0,2.653561188E0,1.018059414E1
1.615952717E1,-4.271455353E-1,9.345679622E0,2.336873649E0,9.642881279E0
1.616946617E1,-1.710197289E-1,8.970355620E0,2.122459614E0,9.219618349E0
1.617940517E1,1.433485482E-1,8.631880771E0,2.063748014E0,8.876315131E0
1.618934417E1,3.182054393E-1,8.165923757E0,1.870356034E0,8.383423954E0
1.619928317E1,4.250161256E-1,7.719846107E0,1.581756034E0,7.891680098E0
1.620922217E1,4.927345939E-1,7.540184559E0,1.204346476E0,7.651641719E0
1.621916117E1,4.437635415E-1,7.665635401E0,5.859961121E-1,7.700797597E0
1.622910017E1,3.912861697E-1,7.904102982E0,4.142647040E-1,7.924617597E0
1.623903917E1,3.877693619E-1,8.207879868E0,5.763647246E-1,8.237223641E0
1.624897817E1,3.113414294E-1,8.668470308E0,8.755398524E-1,8.718135179E0
1.625891717E1,-6.548700267E-1,8.863655044E0,1.305671561E0,8.983207318E0
1.626885617E1,-2.485004087E0,8.461822105E0,1.107703550E0,8.888458011E0
1.627879517E1,-3.587038469E0,7.534517437E0,4.988340072E-1,8.359702947E0
1.628873417E1,-3.859454984E0,6.209778691E0,7.724910088E-1,7.352107624E0
1.629867317E1,-3.188602763E0,4.184417210E0,1.960977205E0,5.614442676E0
1.630861217E1,-1.824334792E0,-6.344100344E-1,2.771412989E0,3.378076891E0
1.631855117E1,-2.273255505E0,-1.143940382E1,1.710618142E0,1.178786940E1
1.632848917E1,-2.751638290E0,-3.508116553E1,5.448084712E-1,3.519313149E1
1.633842817E1,2.287751775E0,-5.691174517E1,1.323131438E-1,5.695786208E1
1.634836717E1,9.471274890E0,-3.769008089E1,-4.585208759E0,3.913146285E1
1.635830617E1,1.075942293E1,-1.826717181E1,-4.878710918E0,2.175446088E1
1.636824517E1,8.766925725E0,-1.769850436E1,-1.101615429E0,1.978154696E1
1.637818417E1,4.590854246E0,-2.407505442E1,2.614791809E0,2.464794766E1
1.638812317E1,-1.179228300E0,-2.711646727E1,2.370510342E0,2.724541605E1
1.639806217E1,-3.084565886E0,-2.310500368E1,-9.400989604E-1,2.332894185E1
1.640800117E1,-1.321718075E0,-1.767874195E1,-1.442021613E0,1.778663211E1
1.641794017E1,9.484688842E-1,-1.383329601E1,-4.936523144E-1,1.387455817E1
1.642787917E1,1.708733292E0,-1.046446131E1,-1.186818717E0,1.066926701E1
1.643781817E1,1.587778374E0,-7.787956814E0,-2.172434742E0,8.239707774E0
1.644775717E1,5.537977613E-1,-5.283418933E0,-2.128864800E0,5.723047520E0
1.645769617E1,-2.919739162E-1,-2.375262959E0,-1.230257682E0,2.690846866E0
1.646763517E1,-6.175414751E-1,6.543741828E-1,-1.355222328E-1,9.099062150E-1
1.647757417E1,-7.246121067E-1,3.612663015E0,1.169103992E0,3.865643660E0
1.648751317E1,-6.953890385E-1,6.412715666E0,2.225174289E0,6.823334137E0
1.649745217E1,-4.685035129E-1,8.942701213E0,2.631574195E0,9.333626481E0
1.650739117E1,2.796807300E-2,1.115243418E1,2.815325578E0,1.150233143E1
1.651733017E1,6.793881328E-1,1.308182004E1,3.034801987E0,1.344639755E1
1.652726917E1,1.213406591E0,1.488136849E1,2.983452909E0,1.522591458E1
1.653720817E1,1.545316478E0,1.575178618E1,2.369357125E0,1.600376906E1
1.654714717E1,1.361536298E0,1.539811851E1,1.749686898E0,1.555690326E1
1.655708617E1,6.353964597E-1,1.456626204E1,1.560466322E0,1.466338206E1
1.656702517E1,-1.724701672E-1,1.368139938E1,1.457231098E0,1.375986764E1
1.657696417E1,-4.862794505E-1,1.285980711E1,1.511112459E0,1.295741361E1
1.658690317E1,-6.582568802E-1,1.213725264E1,1.717005348E0,1.227576112E1
1.659684217E1,-7.712161696E-1,1.149277136E1,2.017707768E0,1.169400328E1
1.660678117E1,-7.785218270E-1,1.088466561E1,2.318656941E0,1.115608407E1
