"Time (s)","Linear Acceleration x (m/s^2)","Linear Acceleration y (m/s^2)","Linear Acceleration z (m/s^2)","Absolute acceleration (m/s^2)"
1.950187499E-2,8.584519494E-1,-1.313712652E0,3.560281903E-2,1.569728716E0
2.944087500E-2,7.263382047E-2,-5.000801951E-1,9.726235127E-1,1.096062211E0
3.938087499E-2,-8.717593351E-1,-2.735970676E-2,1.623510124E0,1.842959038E0
4.931987500E-2,-2.143350399E0,1.051955611E0,2.762881024E0,3.651585012E0
5.925987500E-2,-3.472136588E0,1.655022231E0,3.939082367E0,5.505560913E0
6.919887500E-2,-4.622376001E0,1.606292120E0,3.964149088E0,6.297698965E0
7.913887500E-2,-4.893622195E0,1.397854085E0,2.129791876E0,5.517023443E0
8.907787500E-2,-1.791071444E0,1.489324418E0,3.393419909E0,4.115983822E0
9.901787500E-2,6.046843688E0,3.777076778E0,-3.051453688E0,7.755127155E0
1.089568750E-1,1.729721580E0,3.370055020E0,-8.988372645E0,9.753976133E0
1.188968750E-1,-4.161792578E0,-7.888671595E-1,-8.186726396E0,9.217663367E0
1.288358750E-1,-4.120702147E0,-1.225342512E-2,-3.818489099E0,5.617935148E0
1.387758750E-1,-3.124052718E0,1.136378880E0,-4.093276075E-1,3.349419566E0
1.487148750E-1,-1.851026747E0,2.588550090E0,5.270903845E-1,3.225634179E0
1.586548750E-1,-6.207117623E-1,3.610140526E0,1.434773697E0,3.934078452E0
1.685938750E-1,9.638407025E-1,3.080954061E0,-1.855955949E-1,3.233529426E0
1.785338750E-1,3.651468938E0,1.264501900E0,-1.059990270E0,4.006965165E0
1.884728750E-1,6.171258988E0,-2.544356250E0,-1.453447365E0,6.831595382E0
1.984128750E-1,8.161576352E0,-7.257873386E0,-2.772109100E0,1.126821386E1
2.083518750E-1,9.181870460E0,-8.396302299E0,-1.373589602E0,1.251764298E1
2.182918750E-1,8.136609326E0,-6.359038226E0,-2.771831357E0,1.069227888E1
2.282308750E-1,4.719611689E0,-6.781296659E0,-8.276403973E0,1.169442524E1
2.381708750E-1,2.288269254E0,-9.240004647E0,-1.012420598E1,1.389652506E1
2.481098750E-1,1.968109200E0,-7.851048855E0,-7.638738209E0,1.112936401E1
2.580498750E-1,4.422308840E0,-5.412459381E0,-5.577571303E-1,7.011606452E0
2.679888750E-1,4.662065147E0,-1.874484022E0,7.501667780E0,9.029039886E0
2.779288750E-1,3.842224409E0,2.496331898E0,1.119792902E1,1.209908987E1
2.878678750E-1,3.531872328E0,4.726526606E0,1.064634947E1,1.217205542E1
2.978078750E-1,-1.171708927E-1,4.405733153E0,7.271544760E0,8.502915784E0
3.077468750E-1,-4.273061291E0,3.772477359E0,1.836049104E0,5.988465123E0
3.176868750E-1,-5.259570479E0,4.221620704E0,9.164341092E-2,6.744891512E0
3.276258750E-1,-4.152428847E0,5.537321409E0,8.430357653E-1,6.972467498E0
3.375658750E-1,-3.690866016E0,4.559810793E0,1.493619783E0,6.053533387E0
3.475048750E-1,-3.665137097E0,2.984462723E0,1.489273548E0,4.955621393E0
3.574448750E-1,-1.061432047E0,1.499728369E0,6.235529244E-2,1.838399128E0
3.673838750E-1,7.507221173E-1,3.766624296E-1,-1.037000772E0,1.334477008E0
3.773238750E-1,4.332645003E-1,-1.794140940E0,-1.733833927E-1,1.853839702E0
3.872628750E-1,-1.038050494E0,-3.253942181E0,1.144787176E0,3.602252938E0
3.972028750E-1,-2.688218220E0,-5.182938625E0,1.660793433E0,6.070222798E0
4.071418750E-1,-2.523023268E0,-4.517028471E0,1.837964652E0,5.490656306E0
4.170818750E-1,-3.445137947E0,-2.821026614E0,1.796878606E0,4.801660062E0
4.270208750E-1,-3.783699335E0,-1.732736405E0,1.413269684E0,4.395007088E0
4.369608750E-1,-3.970420226E0,-2.413923579E-1,1.655609584E0,4.308543854E0
4.468998750E-1,-3.633597801E0,7.259055108E-1,1.563218314E0,4.021644351E0
4.568398750E-1,-1.966801617E0,1.745006787E0,1.803866029E-2,2.629388271E0
4.667788750E-1,-1.872278306E0,6.613166404E0,4.852656895E-1,6.890201647E0
4.767188750E-1,-2.127998535E0,1.137154806E1,1.333087986E0,1.164549726E1
4.866578750E-1,-1.436076749E0,1.576232286E1,2.567030875E0,1.603442503E1
4.965978750E-1,3.412177046E-1,1.927432197E1,5.597567026E0,2.007358148E1
5.065368750E-1,2.715977876E0,1.625382110E1,8.099024593E0,1.836184728E1
5.164768750E-1,4.230110569E0,9.830113252E0,9.162230247E0,1.408798868E1
5.264158750E-1,4.029671232E0,8.078143601E0,9.684377834E0,1.323940438E1
5.363558750E-1,2.143163289E0,5.433347974E0,5.734629269E0,8.185376714E0
5.462948750E-1,2.880241951E0,-3.538080025E-1,6.749572005E0,7.346951480E0
5.562348750E-1,1.568252182E0,1.143002021E-1,7.396346562E0,7.561641482E0
5.661738750E-1,2.944125889E-1,-2.353202584E0,8.318868792E0,8.650307460E0
5.761138750E-1,2.676888216E-2,-1.903178648E0,9.175287080E0,9.370629570E0
5.860528750E-1,-3.389098817E-1,3.458573095E0,9.999756181E0,1.058639275E1
5.959928750E-1,-7.818300354E-1,1.661642448E0,1.139757752E1,1.154456960E1
6.059318750E-1,-3.135032619E0,-2.034949746E0,1.153948711E1,1.212968312E1
6.158718750E-1,-4.396118284E0,3.541002463E0,1.157863422E1,1.288135570E1
6.258108750E-1,-1.975652839E0,-8.074145275E-1,-6.059586525E-1,2.218627560E0
6.357508750E-1,2.742712516E0,-3.433403755E0,-1.215867216E1,1.292841993E1
6.456898750E-1,4.300655179E0,-1.815733538E0,-1.170264080E1,1.259937795E1
6.556298750E-1,2.967850783E0,-4.669554260E0,-9.735153301E0,1.119759282E1
6.655688750E-1,1.074178100E0,-7.779888825E0,-2.404352711E0,8.213491382E0
6.755088750E-1,7.423468579E-1,-1.039044608E1,2.161826285E0,1.063888817E1
6.854478750E-1,2.492287964E0,-7.613934905E0,2.114885423E0,8.285906371E0
6.953878750E-1,4.338706812E0,-4.233213394E0,3.686823251E0,7.094867026E0
7.053268750E-1,3.547186478E0,-3.627061783E0,2.671497522E0,5.733673177E0
7.152668750E-1,2.148004198E0,-5.345227511E0,9.498281425E-1,5.838454648E0
7.252058750E-1,1.233208918E0,-7.875948054E0,9.877641468E-1,8.032872462E0
7.351458750E-1,-5.712144971E-3,-9.557238316E0,2.633608149E0,9.913461996E0
7.450848750E-1,-1.318996781E0,-9.811591612E0,3.794675728E0,1.060220007E1
7.550248750E-1,-2.148201542E0,-9.838734387E0,4.572376460E0,1.105993177E1
7.649638750E-1,-2.462270697E0,-9.595139383E0,4.807221398E0,1.101085166E1
7.749038750E-1,-2.750616782E0,-1.017995100E1,4.061529787E0,1.130014686E1
7.848428750E-1,-3.568818837E0,-1.197226877E1,3.461641713E0,1.296358943E1
7.947828750E-1,-4.607172655E0,-1.485936074E1,2.205531006E0,1.571276578E1
8.047218750E-1,-3.725523047E0,-1.995596230E1,1.419969424E0,2.035033824E1
8.146618750E-1,-2.877575438E-1,-2.621699242E1,2.072078834E0,2.630032332E1
8.246008750E-1,2.211522502E0,-2.723476813E1,1.906920720E0,2.739087026E1
8.345408750E-1,3.544684747E0,-2.516796217E1,9.202909327E-1,2.543301094E1
8.444798750E-1,3.166342120E0,-2.230102088E1,6.335610187E-1,2.253358947E1
8.544198750E-1,3.086176209E0,-2.022557975E1,1.656057334E0,2.052659460E1
8.643588750E-1,2.931022680E0,-1.858078606E1,2.881252935E0,1.902992703E1
8.742978750E-1,2.475545923E0,-1.681668928E1,3.584705722E0,1.737180132E1
8.842378750E-1,1.643728041E0,-1.491020111E1,3.456666902E0,1.539365080E1
8.941768750E-1,4.911620218E-1,-1.321477988E1,1.169638427E0,1.327553018E1
9.041168750E-1,-4.403748242E-1,-1.118948213E1,-2.556320822E0,1.148621855E1
9.140558750E-1,-1.370692306E0,-8.254200926E0,-6.117734746E0,1.036519699E1
9.239958750E-1,-2.189091998E0,-2.062132866E0,-9.755461850E0,1.020850389E1
9.339358750E-1,-2.854932863E0,4.697944831E0,-9.671397015E0,1.112462348E1
9.438748750E-1,-2.953459032E0,7.567753596E0,-7.200474193E0,1.085544303E1
9.538148750E-1,-3.382351715E0,8.257009928E0,-3.408734937E0,9.551857932E0
9.637538750E-1,-5.326333403E0,1.184245474E1,1.333680893E0,1.305343888E1
9.736928750E-1,-4.804328488E0,1.642139411E1,1.878975999E0,1.721262059E1
9.836328750E-1,-3.589518566E0,2.036162107E1,2.455941671E0,2.082094872E1
9.935718750E-1,-2.490168640E0,2.302647791E1,3.398958392E0,2.340881336E1
1.003511875E0,-2.134967246E0,2.581870816E1,3.789732492E0,2.618254855E1
1.013451875E0,2.784313262E-1,2.489735303E1,2.625412692E0,2.503694278E1
1.023390875E0,6.468330288E0,2.234727470E1,2.373845594E0,2.338536136E1
1.033330875E0,6.655913644E0,1.896444526E1,1.142637082E0,2.013099576E1
1.043269875E0,3.245609899E0,1.498308548E1,1.554015673E0,1.540914660E1
1.053209875E0,2.245550373E0,1.068504752E1,2.152041993E0,1.112852289E1
1.063148875E0,-1.420669043E0,7.490354587E0,7.740415442E-1,7.663083758E0
1.073087875E0,-6.206829940E0,7.185118235E0,-1.391276552E0,9.596161337E0
1.083027875E0,-8.909888393E0,7.540441836E0,-2.044829786E0,1.185013515E1
1.092966875E0,-9.275716517E0,3.080703800E0,-2.455392618E0,1.007762897E1
1.102906875E0,-6.853514450E0,-3.887300302E0,-2.151491185E0,8.167660514E0
1.112845875E0,-1.780866883E0,-4.551782566E0,-1.655760734E0,5.160596380E0
1.122785875E0,3.445499013E0,-1.794858393E0,-2.139824236E0,4.435293436E0
1.132724875E0,5.501011369E0,2.318669513E0,-1.902030255E0,6.265386938E0
1.142664875E0,4.771757158E0,4.497209333E0,-1.538287102E0,6.735049025E0
1.152604875E0,3.530997585E0,4.675433051E0,1.623530589E-2,5.859000063E0
1.162543875E0,3.468313971E0,4.794250812E0,8.658771823E-1,5.980283099E0
1.172482875E0,2.931338722E0,5.428839771E0,8.784188752E-1,6.231907227E0
1.182422875E0,1.603142079E0,6.414653433E0,7.813667898E-1,6.657955936E0
1.192361875E0,-1.173767146E-1,7.311174849E0,7.861470348E-1,7.354256056E0
1.202301875E0,-8.290344612E-1,7.186490577E0,1.208069691E0,7.334328690E0
1.212240875E0,-5.790569289E-1,6.788861786E0,1.189529632E0,6.916569383E0
1.222180875E0,-2.694549000E-1,6.952421857E0,1.164950130E0,7.054493917E0
1.232120875E0,1.055368339E-1,7.508099717E0,1.985010577E0,7.766786103E0
1.242059875E0,1.823927826E-1,8.063656540E0,2.939011731E0,8.584498464E0
1.251999875E0,-6.062934056E-2,9.163551718E0,4.566332778E0,1.023844476E1
1.261938875E0,4.817654000E-1,1.093112642E1,5.438374241E0,1.221873713E1
1.271877875E0,1.429463402E0,1.254586309E1,4.724131587E0,1.348181981E1
1.281817875E0,1.731683321E0,1.465315751E1,2.730874243E0,1.500571312E1
1.291756875E0,9.148654474E-1,1.632023260E1,2.543070301E-1,1.634783298E1
1.301696875E0,-1.603699172E0,1.761839517E1,-2.043542229E0,1.780886757E1
1.311635875E0,-5.451441014E0,1.830871862E1,-6.768226962E0,2.026662979E1
1.321575875E0,-1.004368514E1,1.080365829E1,-6.549890760E0,1.613987957E1
1.331515875E0,-9.258996989E0,-3.709659551E0,1.470316143E0,1.008228292E1
1.341454875E0,-6.836817725E0,-1.751754006E1,6.794328933E0,1.999422896E1
1.351394875E0,-1.789807568E0,-3.065428300E1,1.996372594E0,3.077131750E1
1.361333875E0,7.758066432E0,-3.907869169E1,-4.852553984E0,4.013575737E1
1.371272875E0,1.247163035E1,-2.874680665E1,3.544465184E-2,3.133563007E1
1.381212875E0,6.126440080E0,-1.131875939E1,-2.462008742E0,1.310378073E1
1.391151875E0,-1.871374619E0,-2.434271890E0,-5.570430683E0,6.360614797E0
1.401091875E0,-1.165849081E1,1.043257293E0,-9.362818980E-1,1.174246216E1
1.411030875E0,-1.154266331E1,-6.396469177E0,-1.229223309E0,1.325363664E1
1.420970875E0,-6.291771272E0,-1.306157230E1,-1.065707678E-1,1.449835902E1
1.430909875E0,-2.454842979E0,-1.256914085E1,5.716506994E-1,1.281937363E1
1.440849875E0,1.516679740E0,-1.166124017E1,-3.394671214E-1,1.176435624E1
1.450788875E0,2.550755442E0,-9.649868737E0,9.710919808E-1,1.002842658E1
1.460728875E0,4.589294647E-1,-7.147398432E0,1.709963108E0,7.363415948E0
1.470667500E0,-7.486330533E-1,-5.658480395E0,1.106812434E0,5.814110903E0
1.480607500E0,-1.813564513E0,-5.373901087E0,3.663391703E-1,5.683487796E0
1.490546500E0,-3.925780243E0,-4.714267334E0,1.184374288E0,6.248104470E0
1.500486500E0,-6.756836001E0,-5.652777606E0,4.325675122E-1,8.820195126E0
1.510425500E0,-7.305015977E0,-8.351720788E0,-5.878571346E-1,1.111125891E1
1.520365500E0,-7.116151496E0,-7.815738105E0,-2.762239292E-2,1.057005853E1
1.530304500E0,-5.657495724E0,-5.930270088E0,-8.258227319E-2,8.196473694E0
1.540244500E0,-3.530267560E0,-6.660005525E0,-1.015050325E-1,7.538485651E0
1.550183500E0,-1.960768021E0,-8.706224025E0,-5.193160728E-2,8.924440873E0
1.560123500E0,-4.971815841E-1,-1.016869627E1,-4.387974282E-1,1.019029522E1
1.570062500E0,-1.637585834E-1,-1.100135148E1,-6.253719932E-1,1.102032855E1
1.580002500E0,-8.790252315E-1,-1.089165187E1,-1.140430270E0,1.098641647E1
1.589941500E0,-1.017887832E0,-1.036890143E1,-1.385601975E0,1.051047598E1
1.599881500E0,-2.196568979E0,-9.813552768E0,-1.835691400E0,1.022254842E1
1.609820500E0,-2.812411911E0,-9.544598390E0,-2.039590681E0,1.015721169E1
1.619760500E0,-3.503264826E0,-8.985924416E0,-2.553788978E0,9.977050676E0
1.629699500E0,-3.814739572E0,-8.345198804E0,-3.197486437E0,9.716918266E0
1.639639500E0,-4.087796356E0,-7.461417886E0,-3.435081321E0,9.175108697E0
1.649578500E0,-3.724136380E0,-5.963717916E0,-2.958355490E0,7.628039746E0
1.659518500E0,-2.993123034E0,-4.017423069E0,-2.577068498E0,5.633804723E0
1.669457500E0,-1.916428731E0,-1.951041616E0,-1.850520962E0,3.302073637E0
1.679397500E0,-4.659816088E-1,3.767554003E-1,-8.304426169E-1,1.024069544E0
1.689336500E0,1.169293149E0,2.874843217E0,1.379264617E-1,3.106604851E0
1.699276500E0,2.738828210E0,5.295432622E0,1.499476354E0,6.147456056E0
1.709215500E0,3.815786223E0,7.920886245E0,3.291687713E0,9.388070696E0
1.719155500E0,4.656578996E0,1.078770708E1,5.325814755E0,1.290049049E1
1.729094500E0,5.302015418E0,1.357589807E1,6.876370046E0,1.611523630E1
1.739034500E0,4.723321747E0,1.635912594E1,7.128745229E0,1.845940894E1
1.748973500E0,3.454718902E0,1.840208696E1,5.770430017E0,1.959259426E1
1.758913500E0,2.986035624E0,1.916478724E1,4.024236245E0,1.980908772E1
1.768852500E0,3.621333851E0,1.915002887E1,3.420361540E0,1.978728222E1
1.778792500E0,4.100549426E0,1.914372090E1,3.536118869E0,1.989474031E1
1.788731500E0,4.111154521E0,1.914316424E1,4.132583982E0,2.001101144E1
1.798671500E0,3.645424087E0,1.900906420E1,4.653417699E0,1.990698206E1
1.808610500E0,2.407876681E0,1.876796128E1,4.565328226E0,1.946474923E1
1.818550500E0,6.717693570E-1,1.840534971E1,3.989630084E0,1.884476904E1
1.828489500E0,-1.035690411E0,1.789719977E1,3.099152935E0,1.819305261E1
1.838429500E0,-2.452401474E0,1.539917335E1,2.668645835E0,1.581993942E1
1.848368500E0,-2.026259614E0,1.064218743E1,2.616890960E0,1.114495399E1
1.858308500E0,-3.782145730E-1,6.370207577E0,2.875892208E0,6.999524758E0
1.868247500E0,1.096694412E0,2.719388557E0,2.904978597E0,4.127555379E0
1.878187500E0,2.158797574E0,2.640327770E-1,2.006090813E0,2.958803917E0
1.888126500E0,2.440533088E0,-8.039436203E-1,2.117581208E-1,2.578249135E0
1.898066500E0,2.487423080E0,-1.738978892E0,-1.546987320E0,3.406536501E0
1.908005500E0,2.845586674E0,-2.099068558E0,-1.085201125E0,3.698798969E0
1.917945500E0,4.318811368E0,-1.352853329E0,5.152087692E-1,4.554973528E0
1.927884500E0,5.545137382E0,2.511622367E0,1.330244923E0,6.231079125E0
1.937824500E0,4.418460202E0,6.554216530E0,2.057748770E0,8.167917414E0
1.947763500E0,3.391690011E0,9.320116180E0,2.798489398E0,1.030532239E1
1.957703500E0,2.509640746E0,1.147687512E1,3.336579126E0,1.221268683E1
1.967642500E0,1.595827066E0,1.294103195E1,3.482766534E0,1.349617112E1
1.977582500E0,7.175700125E-1,1.394353474E1,3.098004541E0,1.430156285E1
1.987521500E0,-2.101951236E-1,1.485196986E1,1.884736530E0,1.497255564E1
1.997461500E0,-1.260451826E0,1.566286640E1,-3.988912046E-1,1.571856345E1
2.007400500E0,-2.811850871E0,1.655859669E1,-4.729091195E0,1.744872297E1
2.017340500E0,-5.440585658E0,1.821756871E1,-1.176871784E1,2.236028850E1
2.027279500E0,-9.431722569E0,1.992532523E1,-1.702566409E1,2.785406997E1
2.037219500E0,-1.622848862E1,1.778223298E1,-1.234105383E1,2.705315624E1
2.047158500E0,-2.383642253E1,7.700029893E0,-3.985408687E0,2.536432498E1
2.057098500E0,-2.068769924E1,-5.151184736E0,1.159018247E1,2.426618910E1
2.067037500E0,-6.370979995E0,-1.084761882E1,1.997280930E1,2.360451930E1
2.076977500E0,4.285645084E0,-1.183124212E1,1.867409359E1,2.251814413E1
2.086916500E0,7.094364771E0,-1.315435008E1,1.377446133E1,2.032492859E1
2.096856500E0,3.840637182E0,-2.693822074E1,6.333569509E0,2.793800876E1
2.106795500E0,1.137184977E1,-6.152476796E1,-4.739015674E0,6.274610992E1
2.116735500E0,3.269750129E1,-7.863001616E1,-6.517717625E0,8.540659621E1
2.126674500E0,2.969571151E1,-5.788434763E1,4.009117684E0,6.518056464E1
2.136614500E0,2.340291785E-1,-3.310420087E1,8.498301129E0,3.417841434E1
2.146553500E0,-1.947705195E1,-1.348600532E1,1.154688413E0,2.371837257E1
2.156493500E0,-9.902987101E0,-2.038422992E0,-1.498894995E0,1.022110601E1
2.166432500E0,-1.922213966E0,2.143873433E0,-1.679598663E0,3.333489387E0
2.176372500E0,4.180680985E-1,2.035554348E0,-3.460704551E-1,2.106662573E0
2.186311500E0,3.031962579E0,9.106909740E-1,3.577492597E0,4.777092046E0
2.196251500E0,3.334329702E0,-6.401099002E-1,5.971245621E0,6.869007899E0
2.206190500E0,1.838129835E0,-3.262181493E0,5.604699460E0,6.740415819E0
2.216130500E0,1.425936508E0,-4.695167989E0,3.406149298E0,5.973252916E0
2.226069500E0,1.131634230E0,-4.714802939E0,1.028403465E0,4.956569022E0
2.236009500E0,1.395701725E0,-4.436353852E0,1.367079020E-2,4.650742488E0
2.245948500E0,2.799114758E0,-3.351776624E0,2.077194124E-1,4.371795663E0
2.255888500E0,4.320289252E0,-1.771936138E0,4.724328053E-1,4.693383604E0
2.265827500E0,5.252146854E0,-3.131195676E-1,4.656313241E-1,5.282035874E0
2.275767500E0,5.277286958E0,1.053213347E0,6.473920226E-1,5.420159815E0
2.285706500E0,4.278232276E0,1.975180092E0,7.743159248E-1,4.775371499E0
2.295646500E0,2.756181284E0,2.472033209E0,8.641512305E-1,3.801873329E0
2.305585500E0,1.750025598E0,2.941371667E0,1.256518697E0,3.645969845E0
2.315525500E0,1.253171019E0,3.464679927E0,2.033166929E0,4.208112684E0
2.325464500E0,7.692913393E-1,3.860686700E0,2.570697956E0,4.701616630E0
2.335404500E0,2.090093813E-1,4.251409344E0,2.689894617E0,5.035245712E0
2.345343500E0,-3.044882002E-1,4.571892310E0,2.433273770E0,5.188037548E0
2.355283500E0,-5.314200284E-1,4.632104014E0,2.144426579E0,5.131993783E0
2.365222500E0,-5.552314255E-1,4.531760530E0,1.972144217E0,4.973377952E0
2.375162500E0,-4.409755891E-1,4.349251388E0,1.843906592E0,4.744516691E0
2.385101500E0,-1.999572337E-1,4.129258085E0,1.528728805E0,4.407694067E0
2.395041500E0,3.722279012E-2,3.858305129E0,1.006960702E0,3.987715368E0
2.404980500E0,2.656319173E-1,3.586186822E0,4.388920069E-1,3.622695465E0
2.414920500E0,5.210578852E-1,3.407593560E0,-6.026376167E-2,3.447727790E0
2.424859500E0,7.283037463E-1,3.231406428E0,-4.852931714E-1,3.347823668E0
2.434799500E0,1.023491585E0,3.169519497E0,-6.045787461E-1,3.385100342E0
2.444738500E0,1.548720435E0,3.096646818E0,-5.423058629E-1,3.504547353E0
2.454678500E0,2.437184096E0,2.914749295E0,-5.003719346E-1,3.832231966E0
2.464617500E0,3.918018649E0,2.740164299E0,-7.688912436E-1,4.842578266E0
2.474558000E0,5.440682137E0,2.537958226E0,-1.412649879E0,6.167481962E0
2.484497000E0,6.299905334E0,2.487447054E0,-2.207811567E0,7.123947780E0
2.494437000E0,6.499975419E0,2.823852573E0,-3.340451152E0,7.834694487E0
2.504376000E0,6.377373340E0,3.577428278E0,-4.253643565E0,8.459454319E0
2.514316000E0,6.467579505E0,4.680682096E0,-4.705514052E0,9.267158790E0
2.524255000E0,6.775499144E0,5.415073087E0,-5.279932823E0,1.015421567E1
2.534195000E0,5.426682733E0,5.142984016E0,-2.313858862E0,7.826436795E0
2.544134000E0,2.215275537E0,6.391829411E0,2.743627020E0,7.300028641E0
2.554074000E0,-1.968233746E0,6.830544248E0,6.392200710E0,9.559838320E0
2.564013000E0,-5.448862392E0,3.862798714E0,7.506170136E0,1.004758207E1
2.573953000E0,-6.747160029E0,4.154581207E-1,5.565000958E0,8.755912835E0
2.583892000E0,-6.623321264E0,2.819644332E-2,3.520120887E0,7.500695345E0
2.593832000E0,-5.814335005E0,1.554626123E0,3.361702273E0,6.893794028E0
2.603771000E0,-3.472421055E0,3.587724055E0,4.391705682E0,6.649552668E0
2.613711000E0,3.742878753E-1,4.472883747E0,4.606694938E0,6.431828564E0
2.623650000E0,3.304720572E0,5.252105339E0,3.817587458E0,7.285585944E0
2.633590000E0,4.361415059E0,5.791617402E0,2.295561901E0,7.604891708E0
2.643529000E0,2.790771073E0,5.909700168E0,1.278562700E0,6.659405517E0
2.653469000E0,8.235741851E-1,5.429394087E0,2.275182016E0,5.944160815E0
2.663408000E0,-8.110590971E-1,3.754206564E0,3.641085745E0,5.292389742E0
2.673348000E0,-2.806575220E0,2.078482266E0,4.222724658E0,5.479813549E0
2.683287000E0,-5.289478403E0,-1.405670643E-3,4.512002789E0,6.952463802E0
2.693227000E0,-7.292995856E0,-2.989314743E0,4.674968197E0,9.164012158E0
2.703166000E0,-8.070698342E0,-7.424904948E0,4.733465497E0,1.194450002E1
2.713106000E0,-7.465029711E0,-1.264673457E1,4.537613593E0,1.537063763E1
2.723045000E0,-5.561168693E0,-1.675044968E1,4.801933469E0,1.829105592E1
2.732985000E0,-3.050002702E0,-1.896448152E1,5.253177134E0,1.991356185E1
2.742924000E0,3.553849965E-1,-2.042038559E1,5.264373382E0,2.109104249E1
2.752864000E0,3.868633066E0,-2.132628302E1,5.122632197E0,2.227146223E1
2.762803000E0,6.544632944E0,-2.267282895E1,5.021620377E0,2.412687432E1
2.772743000E0,9.481212233E0,-2.476470310E1,4.599390011E0,2.691353365E1
2.782682000E0,1.239575454E1,-2.653092241E1,4.236124138E0,2.958866882E1
2.792622000E0,1.364437014E1,-2.790259501E1,3.975226053E0,3.131335285E1
2.802561000E0,1.255731427E1,-2.761778883E1,4.073728833E0,3.061084233E1
2.812501000E0,9.197642155E0,-2.448300296E1,4.728242179E0,2.657762836E1
2.822440000E0,5.473949870E0,-2.081740218E1,4.499117280E0,2.199023458E1
2.832380000E0,2.312730204E0,-1.852997609E1,2.189752441E0,1.880169542E1
2.842319000E0,-8.040506244E-1,-1.664523839E1,-2.414646295E0,1.683867499E1
2.852259000E0,-3.008514952E0,-1.349435163E1,-6.968018135E0,1.548231136E1
2.862198000E0,-5.326799426E0,-9.321318367E0,-8.752656180E0,1.385174207E1
2.872138000E0,-8.303480090E0,-4.323164620E0,-5.186535248E0,1.070222789E1
2.882077000E0,-1.007385561E1,8.301186812E-1,-2.433576071E0,1.039682434E1
2.892017000E0,-9.832998269E0,5.102946961E0,-3.028851861E0,1.148485377E1
2.901956000E0,-8.899849893E0,8.554667119E0,-3.604038956E0,1.285996712E1
2.911896000E0,-8.042195504E0,1.262877427E1,-3.589077101E0,1.539624378E1
2.921835000E0,-7.600955840E0,1.775549834E1,-2.158491472E0,1.943428251E1
2.931775000E0,-6.331180921E0,2.379026695E1,-1.506633346E0,2.466435885E1
2.941714000E0,-3.888608324E0,2.843958224E1,-3.117060617E0,2.887294892E1
2.951654000E0,-2.371141695E0,3.073573705E1,-4.508441834E0,3.115499788E1
2.961593000E0,-5.558636557E-1,3.181258133E1,-3.078335677E0,3.196600485E1
2.971533000E0,2.213083124E0,3.161299014E1,9.056752324E-3,3.169036075E1
2.981472000E0,2.104751613E0,2.916381603E1,1.878864756E0,2.929997061E1
2.991412000E0,-1.511468993E0,1.838701284E1,1.187126865E0,1.848718610E1
3.001351000E0,-3.703731059E0,9.075758699E0,2.895272219E-1,9.806673530E0
3.011291000E0,-4.576018106E0,5.089683722E0,-4.982178569E-2,6.844509062E0
3.021230000E0,-4.791573957E0,2.496863995E0,3.711976218E-1,5.415837743E0
3.031170000E0,-4.940908921E0,-9.800845599E-1,1.350301165E0,5.215022526E0
3.041109000E0,-4.693237238E0,-5.511366203E0,2.241592539E0,7.578018891E0
3.051049000E0,-2.605677170E0,-1.172151561E1,1.499023195E0,1.210084923E1
3.060988000E0,4.821466677E0,-1.578704372E1,-1.812403110E0,1.660608609E1
3.070928000E0,1.356952578E1,-1.151437098E1,-4.352262120E0,1.832088847E1
3.080867000E0,1.297184444E1,-2.302482666E0,-5.595634521E0,1.431367529E1
3.090807000E0,6.031429258E0,2.824294623E0,-4.419146665E0,7.992723957E0
3.100746000E0,1.528727928E0,5.478284411E0,-2.260664549E0,6.120393237E0
3.110686000E0,-1.139276029E0,7.471557543E0,3.525870308E-1,7.566137694E0
3.120625000E0,-3.010339576E0,9.040661371E0,3.007569750E0,9.992055754E0
3.130565000E0,-4.246611119E0,9.801264845E0,5.008522614E0,1.179761829E1
3.140504000E0,-4.322840100E0,1.022475470E1,6.047982141E0,1.264162344E1
3.150444000E0,-3.385276785E0,1.115462103E1,6.290736900E0,1.324609528E1
3.160383000E0,-2.067585541E0,1.253013875E1,6.218442510E0,1.414030815E1
3.170323000E0,-8.521656078E-1,1.388361598E1,5.794581356E0,1.506844889E1
3.180262000E0,-1.487302159E-1,1.525253804E1,5.389174599E0,1.617730634E1
3.190202000E0,3.838112354E-3,1.670147574E1,5.169814550E0,1.748331459E1
3.200141000E0,-2.268959409E-1,1.785018582E1,4.894139966E0,1.851035444E1
3.210081000E0,-1.130144579E0,1.817299422E1,3.546318752E0,1.855023780E1
3.220020000E0,-2.468091601E0,1.834604491E1,1.191991163E0,1.854965452E1
3.229960000E0,-4.113631109E0,1.850233279E1,-9.772603548E-1,1.897928654E1
3.239899000E0,-6.915383838E0,1.821685068E1,-4.189624740E0,1.993060806E1
3.249839000E0,-1.114884515E1,1.419570995E1,-9.337562517E0,2.032252452E1
3.259778000E0,-1.232690591E1,4.185595424E0,-7.922779573E0,1.523949653E1
3.269718000E0,-7.863714509E0,-6.227861205E0,5.131224681E0,1.126737449E1
3.279657000E0,-1.880282998E0,-1.363910179E1,3.872323828E0,1.430228841E1
3.289597000E0,3.194997862E0,-1.844270172E1,-3.812536633E0,1.910174583E1
3.299536000E0,6.793202759E0,-2.164997084E1,-5.041619024E0,2.324406943E1
3.309476000E0,1.172489530E1,-3.165012697E1,-5.120909607E0,3.413835705E1
3.319415000E0,1.854775397E1,-3.369608644E1,-4.491135246E-1,3.846618153E1
3.329355000E0,1.117143061E1,-2.032407025E1,2.450288437E0,2.332107645E1
3.339294000E0,-3.021653354E0,-1.251795667E1,1.431486246E0,1.295680443E1
3.349234000E0,-1.026210204E1,-6.980320677E0,-6.612983094E-1,1.242871395E1
3.359173000E0,-1.081079891E1,-2.638373630E0,-2.723234271E0,1.145645640E1
3.369112000E0,-7.509476736E0,-7.979432076E-1,-2.686161754E0,8.015261642E0
3.379052000E0,-4.407854815E0,-6.828670800E-1,-1.519246960E0,4.712069911E0
3.388992000E0,-2.703423319E0,-1.575737495E0,-1.310059458E0,3.392300411E0
3.398931000E0,-1.757532400E0,-2.771965551E0,-1.364837197E0,3.554643966E0
3.408870000E0,-6.557971027E-1,-3.947348868E0,-5.647872376E-1,4.041115879E0
3.418810000E0,4.939374027E-1,-4.720039705E0,1.976160085E-1,4.749926427E0
3.428749000E0,1.684245445E0,-4.721572260E0,4.902000817E-1,5.036886285E0
3.438689000E0,2.384160667E0,-4.317260687E0,1.907033571E-1,4.935517166E0
3.448629000E0,1.377592752E0,-3.850835896E0,-1.808720680E-1,4.093826277E0
3.458568000E0,-3.388462932E-1,-3.367784547E0,-2.366638608E-1,3.393051627E0
3.468506625E0,-1.704406645E0,-2.640804902E0,-1.591015685E-1,3.147088472E0
3.478446625E0,-2.649299737E0,-1.671369292E0,3.286997661E-2,3.132625870E0
3.488385625E0,-2.761976168E0,-6.299696589E-1,1.029500256E-1,2.834779150E0
3.498325625E0,-2.237430053E0,1.533981943E-1,-1.616509545E-1,2.248500673E0
3.508264625E0,-1.693401162E0,4.676006663E-1,-3.594855027E-1,1.793178102E0
3.518204625E0,-1.311237964E0,3.652053952E-1,-3.440187402E-1,1.403947603E0
3.528143625E0,-1.166396000E0,1.292433465E-1,-2.964434548E-1,1.210397535E0
3.538083625E0,-1.148942062E0,-1.567042100E-1,-2.918472509E-1,1.195741982E0
3.548022625E0,-1.017104013E0,-5.056835818E-1,-1.971670154E-1,1.152862217E0
3.557962625E0,-7.466805218E-1,-8.645429939E-1,-1.283938922E-2,1.142423407E0
3.567901625E0,-6.992154564E-1,-1.002081200E0,-1.535727337E-2,1.222008524E0
3.577841625E0,-9.149076936E-1,-8.445145261E-1,-2.286097598E-1,1.265908091E0
3.587780625E0,-1.403727759E0,-5.694293422E-1,-3.646219162E-1,1.558091955E0
3.597720625E0,-1.924506952E0,-3.545979613E-1,-5.765904272E-1,2.040079224E0
3.607659625E0,-2.353048656E0,-3.021232939E-1,-6.003687874E-1,2.447153273E0
3.617599625E0,-2.570609663E0,-2.645303750E-1,-4.902271982E-1,2.630272432E0
3.627538625E0,-2.547052693E0,-3.044364524E-1,-5.145631635E-1,2.616282520E0
3.637478625E0,-2.468888576E0,-3.332328200E-1,-4.008125997E-1,2.523312437E0
3.647417625E0,-2.306998617E0,-3.549558109E-1,-3.335556594E-1,2.357858270E0
3.657357625E0,-2.090314399E0,-4.239523709E-1,-3.929445863E-1,2.168768164E0
3.667296625E0,-1.830056439E0,-5.355219233E-1,-5.577607848E-1,1.986702643E0
3.677236625E0,-1.485421548E0,-7.687720335E-1,-7.163507219E-1,1.819518060E0
3.687175625E0,-1.067574986E0,-9.712178421E-1,-8.174325621E-1,1.658667068E0
3.697115625E0,-7.109746456E-1,-1.170003878E0,-1.101358151E0,1.757095273E0
3.707054625E0,-4.627021614E-1,-1.428964196E0,-1.307688850E0,1.991502471E0
3.716994625E0,-3.640327361E-1,-1.720631499E0,-1.259551063E0,2.163229407E0
3.726933625E0,-3.843005012E-1,-2.045205177E0,-1.181077482E0,2.392800683E0
3.736873625E0,-4.551541369E-1,-2.392234502E0,-1.180770503E0,2.706320414E0
3.746812625E0,-4.095300673E-1,-2.819682924E0,-1.324045997E0,3.141882313E0
3.756752625E0,-2.215072931E-1,-3.352673587E0,-1.604604760E0,3.723471780E0
3.766691625E0,1.252739641E-1,-3.913936708E0,-1.967588067E0,4.382464709E0
3.776631625E0,6.037564449E-1,-4.320618743E0,-2.343147566E0,4.952030763E0
3.786570625E0,1.215579562E0,-4.567255468E0,-2.638887600E0,5.413056803E0
3.796510625E0,1.998442508E0,-4.823870468E0,-2.894068277E0,5.969851752E0
3.806449625E0,2.707562563E0,-5.095934395E0,-3.096018827E0,6.548646805E0
3.816389625E0,3.072930511E0,-5.210353296E0,-3.073264972E0,6.784956962E0
3.826328625E0,3.324173089E0,-5.028227731E0,-2.910540469E0,6.693612377E0
3.836268625E0,3.625474849E0,-4.477003110E0,-2.602116215E0,6.321284167E0
3.846207625E0,3.886249557E0,-3.662970119E0,-2.490124494E0,5.892453284E0
3.856147625E0,4.066913610E0,-2.616050130E0,-2.554042747E0,5.468696275E0
3.866086625E0,3.977220538E0,-1.401375278E0,-2.510193892E0,4.907464646E0
3.876026625E0,3.590804076E0,-9.093706727E-2,-2.032896788E0,4.127325140E0
3.885965625E0,3.018268693E0,1.269849179E0,-1.494223216E0,3.599328529E0
3.895905625E0,2.373618868E0,2.598436562E0,-1.133330800E0,3.697347401E0
3.905844625E0,1.965994701E0,4.044683374E0,-1.075988252E0,4.624105262E0
3.915784625E0,1.714489291E0,5.684178908E0,-9.794577384E-1,6.017366604E0
3.925723625E0,1.406661015E0,7.195668951E0,-2.526780323E-1,7.336224714E0
3.935663625E0,9.107297118E-1,8.681177477E0,7.799945945E-1,8.763598722E0
3.945602625E0,4.907125171E-1,1.000697983E1,1.599770136E0,1.014592079E1
3.955542625E0,2.770334031E-1,1.125851670E1,2.205051681E0,1.147576571E1
3.965481625E0,1.280842821E-1,1.251533828E1,2.715199027E0,1.280712316E1
3.975421625E0,1.780937634E-2,1.375783068E1,3.190667707E0,1.412298065E1
3.985360625E0,-1.292222965E-1,1.492586931E1,3.732805170E0,1.538610111E1
3.995300625E0,-3.006590780E-1,1.605047014E1,4.476119596E0,1.666564233E1
4.005239625E0,-5.615432024E-1,1.695541213E1,5.453382289E0,1.781967199E1
4.015179625E0,-9.655662158E-1,1.763084038E1,6.332310019E0,1.875838482E1
4.025118625E0,-1.460704344E0,1.801944517E1,6.726255648E0,1.928928657E1
4.035058625E0,-2.146866915E0,1.816879943E1,6.498637576E0,1.941511268E1
4.044997625E0,-2.661164030E0,1.800461780E1,5.630784473E0,1.905134614E1
4.054937625E0,-3.423883903E0,1.688496839E1,4.550981498E0,1.781955586E1
4.064876625E0,-3.116934902E0,1.354098902E1,3.264596393E0,1.427344585E1
4.074816625E0,-7.276216686E-1,1.005409553E1,1.859381833E0,1.025044248E1
4.084755625E0,1.244768424E0,6.963143896E0,1.205288901E0,7.175482052E0
4.094695625E0,2.534411013E0,4.042580715E0,8.451647365E-1,4.845616725E0
4.104634625E0,3.618540928E0,1.311888320E0,2.176579249E-1,3.855160747E0
4.114574625E0,3.845893829E0,-7.763354069E-1,-9.949341488E-1,4.047652402E0
4.124513625E0,2.770152329E0,-1.499643000E0,-2.733049407E0,4.170399515E0
4.134453625E0,1.461477346E0,-5.979772031E-1,-4.941945047E0,5.188093448E0
4.144392625E0,3.378012496E-1,9.488463950E-1,-6.766107931E0,6.840660473E0
4.154332625E0,-1.219897439E0,2.764420888E0,-8.168925133E0,8.709851344E0
4.164271625E0,-2.675742893E0,4.795085794E0,-8.141914505E0,9.820550881E0
4.174211625E0,-3.701764348E0,6.610648009E0,-7.717766837E0,1.081515841E1
4.184150625E0,-4.963968585E0,7.111767839E0,-5.163636382E0,1.009363000E1
4.194090625E0,-7.511707449E0,5.219129382E0,2.333994480E0,9.439946533E0
4.204029625E0,-7.779325154E0,2.436700239E0,9.746523212E0,1.270630248E1
4.213969625E0,-6.558143520E0,-7.891741383E-1,1.041837121E1,1.233590293E1
4.223908625E0,-5.551993243E0,-5.572842075E0,7.689655763E0,1.100054560E1
4.233848625E0,-5.969313701E0,-1.142961442E1,5.109734409E0,1.387004605E1
4.243787625E0,-5.828266581E0,-1.858971943E1,4.051805867E0,1.989883139E1
4.253727625E0,-2.331288389E0,-2.761969034E1,4.702688677E0,2.811400862E1
4.263666625E0,6.884683617E0,-3.672539789E1,3.876291749E0,3.756566726E1
4.273606625E0,1.898938247E1,-3.581216338E1,1.984741459E0,4.058382549E1
4.283545625E0,1.788339098E1,-1.954161924E1,2.542052885E-1,2.649066205E1
4.293485625E0,9.066243525E0,-7.352138688E0,-1.076931043E0,1.172222229E1
4.303424625E0,6.791128167E0,-4.412256306E0,1.110573363E-1,8.099367952E0
4.313364625E0,6.097254873E0,-8.021546062E0,1.851302004E0,1.024446374E1
4.323303625E0,3.010267363E0,-1.540636191E1,6.019982749E0,1.681243258E1
4.333243625E0,-1.648300856E0,-1.685513706E1,1.108529995E1,2.024095887E1
4.343182625E0,-6.287401063E0,-1.366891909E1,1.087005576E1,1.856148898E1
4.353121625E0,-9.079310297E0,-9.871146673E0,5.700451709E0,1.457287075E1
4.363061625E0,-1.036446573E1,-6.404208552E0,1.369579289E0,1.226017066E1
4.373000625E0,-9.337277758E0,-3.818013135E0,4.490397765E-1,1.009770355E1
4.382940625E0,-6.640342509E0,-2.229362065E0,2.368953813E0,7.394332020E0
4.392879625E0,-3.553690044E0,-1.351136586E0,4.188985639E0,5.657020743E0
4.402819625E0,-8.135289609E-1,-8.934615684E-1,4.543287731E0,4.701230302E0
4.412758625E0,1.085713926E0,-8.280616307E-1,3.490207701E0,3.747800767E0
4.422698625E0,2.636158705E0,-1.109821411E0,2.005407858E0,3.493235886E0
4.432637625E0,3.815088066E0,-1.274683657E0,7.927649134E-1,4.099779455E0
4.442577625E0,4.189754548E0,-6.530480343E-1,9.566625874E-2,4.241422750E0
4.452516625E0,3.414642379E0,6.174045771E-1,-1.230371483E-1,3.472190825E0
4.462456625E0,2.182349281E0,2.096023328E0,7.398712199E-2,3.026786460E0
4.472395417E0,8.141677693E-1,3.687615548E0,4.764328855E-1,3.806358612E0
4.482335417E0,-4.559848800E-1,5.089589581E0,9.439873588E-1,5.196436900E0
4.492274417E0,-1.646892554E0,6.147062625E0,1.209904693E0,6.477847125E0
4.502214417E0,-2.520479144E0,6.828379608E0,1.148837543E0,7.368813398E0
4.512153417E0,-3.053688202E0,7.121577712E0,5.783551168E-1,7.770223638E0
4.522093417E0,-3.132513639E0,6.998548202E0,-1.803246224E-1,7.669735041E0
4.532032417E0,-2.601468344E0,6.608932436E0,-6.041109324E-1,7.128153723E0
4.541972417E0,-1.486297899E0,6.269871111E0,-5.751169288E-1,6.469244521E0
4.551911417E0,-1.761488333E-1,6.057371600E0,-1.517831842E-1,6.061832829E0
4.561851417E0,1.086161238E0,5.476317408E0,4.623323250E-1,5.602102263E0
4.571790417E0,1.548772767E0,5.529890767E0,1.213699536E0,5.869536229E0
4.581730417E0,2.111287777E0,5.410194170E0,1.948016267E0,6.125561559E0
4.591669417E0,2.944499343E0,4.341133699E0,2.633135694E0,5.869320383E0
4.601609417E0,3.692171406E0,2.569581723E0,3.008599445E0,5.411704957E0
4.611548417E0,4.215987789E0,5.257430398E-1,2.734852104E0,5.052759128E0
4.621488417E0,4.654185731E0,-1.769765067E0,2.035771279E0,5.379393824E0
4.631427417E0,4.951898763E0,-3.966436518E0,9.614950919E-1,6.417039257E0
4.641367417E0,5.077214534E0,-5.728946360E0,-8.900058639E-1,7.706558523E0
4.651306417E0,5.005927620E0,-7.042262571E0,-3.183128307E0,9.207881367E0
4.661246417E0,4.623188471E0,-7.549062971E0,-4.909667248E0,1.012260124E1
4.671185417E0,3.880440641E0,-6.232050151E0,-5.710423551E0,9.300817479E0
4.681125417E0,3.080221404E0,-3.910475741E0,-5.420226238E0,7.359241597E0
4.691064417E0,2.686917214E0,-2.093416055E0,-4.204397730E0,5.410995765E0
4.701004417E0,2.883162051E0,-7.769037563E-1,-2.494388283E0,3.890780869E0
4.710943417E0,3.360313267E0,5.219060969E-1,-6.501706195E-1,3.462197721E0
4.720883417E0,3.952118734E0,1.906982846E0,1.126951414E0,4.530545834E0
4.730822417E0,4.097241071E0,3.234580881E0,2.496632445E0,5.786455862E0
4.740762417E0,3.749046688E0,4.452028483E0,3.058662136E0,6.575053060E0
4.750701417E0,3.292998951E0,5.586104144E0,2.970970273E0,7.132675933E0
4.760641417E0,2.829003093E0,6.620880636E0,2.834275235E0,7.737728026E0
4.770580417E0,1.725191450E0,8.297225908E0,3.010375829E0,8.993475743E0
4.780520417E0,6.274421999E-1,1.017350853E1,3.379671936E0,1.073853537E1
4.790459417E0,-3.823082086E-1,1.218225164E1,4.152947495E0,1.287634993E1
4.800399417E0,-8.172808269E-1,1.413743543E1,5.522537309E0,1.519978443E1
4.810338417E0,-1.185246985E0,1.624460121E1,6.971128854E0,1.771689917E1
4.820278417E0,-1.541394166E0,1.737517088E1,6.076680275E0,1.847155928E1
4.830217417E0,-2.753512908E0,1.775743728E1,3.537169029E0,1.831447452E1
4.840157417E0,-4.407853061E0,1.730183744E1,-8.602314033E-2,1.785469539E1
4.850096417E0,-5.357278038E0,1.540723315E1,-2.302081547E0,1.647370149E1
4.860036417E0,-5.998246309E0,1.333293574E1,-3.710530787E0,1.508357295E1
4.869975417E0,-5.625652957E0,1.030612455E1,-6.087910438E-1,1.175732967E1
4.879915417E0,-3.138877456E0,3.495516388E0,5.529127121E-2,4.698323491E0
4.889854417E0,-2.644042506E0,-7.512239546E0,2.510693829E0,8.350346536E0
4.899794417E0,-5.138418510E0,-2.400409495E1,1.513241401E1,2.883730003E1
4.909733417E0,-4.683912683E0,-4.259129189E1,1.568292703E1,4.562796712E1
4.919673417E0,3.118488800E0,-4.596266546E1,-7.227064991E-1,4.607400453E1
4.929612417E0,9.307102032E0,-2.902728121E1,-3.588005891E0,3.069330528E1
4.939552417E0,9.111953548E0,-2.132270920E1,2.859534622E0,2.336370183E1
4.949491417E0,1.082532924E1,-2.584772906E1,8.936456387E0,2.941348506E1
4.959431417E0,1.167268200E1,-2.575292230E1,1.169700876E1,3.059876674E1
4.969370417E0,1.010360975E1,-2.468846008E1,1.047030267E1,2.865711481E1
4.979310417E0,9.006363943E0,-2.596422664E1,7.771814405E0,2.855970511E1
4.989249417E0,7.981812478E0,-2.510042215E1,4.442243752E0,2.671093507E1
4.999189417E0,7.060156220E0,-2.266328396E1,2.364339629E0,2.385498580E1
5.009128417E0,6.623158126E0,-1.930141095E1,1.405575187E0,2.045449412E1
5.019068417E0,6.529011523E0,-1.570672520E1,2.004039609E-1,1.701086034E1
5.029007417E0,6.568525252E0,-1.263989333E1,-2.540312315E0,1.446947180E1
5.038947417E0,5.970209495E0,-1.025103443E1,-6.817818367E0,1.368246160E1
5.048886417E0,2.872173378E0,-7.661620118E0,-9.826244735E0,1.278690300E1
5.058825417E0,-1.210957192E0,-4.297712860E0,-8.749867058E0,9.823284923E0
5.068765417E0,-5.286688111E0,-3.921031719E-1,-6.422951217E0,8.328092123E0
5.078704417E0,-7.686683623E0,4.029830861E0,-5.356445979E0,1.019883108E1
5.088644417E0,-7.374850443E0,7.853279568E0,-5.105492839E0,1.192176481E1
5.098583417E0,-6.232597450E0,1.158286760E1,-4.448977990E0,1.388529791E1
5.108523417E0,-5.479850881E0,1.752256749E1,-1.582279944E0,1.842749975E1
5.118462417E0,-3.323610294E0,2.384941036E1,-6.546615735E-3,2.407988378E1
5.128402417E0,-2.974561633E0,2.785173592E1,3.357974088E-1,2.801213970E1
5.138341417E0,-3.613660257E0,2.998708061E1,-1.081150174E0,3.022337555E1
5.148281417E0,-3.823749838E0,3.102607470E1,-2.204861646E0,3.133847138E1
5.158220417E0,-3.826591585E0,3.081439379E1,-9.027223885E-1,3.106420087E1
5.168160417E0,-6.161142136E0,2.504588400E1,5.554878259E-1,2.579853765E1
5.178099417E0,-6.944165003E0,1.443009676E1,1.157124143E0,1.605577953E1
5.188039417E0,-6.351204711E0,6.742978685E0,7.096767099E-1,9.290274692E0
5.197978417E0,-5.303170828E0,3.199934959E0,8.976610386E-1,6.258514193E0
5.207918417E0,-4.862856193E0,1.040946473E0,1.303871642E0,5.141110889E0
5.217857417E0,-4.927537508E0,-1.842923090E0,2.132168477E0,5.676542418E0
5.227797417E0,-4.682893513E0,-6.934063354E0,3.272170876E0,8.984310129E0
5.237736417E0,-1.224692156E0,-1.229791191E1,1.624829987E0,1.246509449E1
5.247676417E0,5.307504784E0,-1.311451650E1,-1.933391357E0,1.427929103E1
5.257615417E0,1.036942417E1,-5.719969130E0,-4.433079411E0,1.264496728E1
5.267555417E0,9.108750443E0,1.732719448E0,-5.196988315E0,1.062922099E1
5.277494417E0,5.292800206E0,4.319575015E0,-3.187485652E0,7.538735113E0
5.287434417E0,1.715938523E0,5.911347329E0,-5.858717126E-1,6.183180244E0
5.297373417E0,-9.233414251E-1,7.727238742E0,2.210520582E0,8.090066699E0
5.307313417E0,-2.460563310E0,9.427565199E0,4.420769852E0,1.069937211E1
5.317252417E0,-3.049581994E0,1.068272851E1,5.409814101E0,1.235664709E1
5.327192417E0,-2.491641262E0,1.123952027E1,5.235434343E0,1.264693104E1
5.337131417E0,-1.522727807E0,1.190341547E1,4.867953211E0,1.295017252E1
5.347071417E0,-1.140375160E0,1.293357442E1,4.376933277E0,1.370165492E1
5.357010417E0,-1.015877121E0,1.421154655E1,4.074650939E0,1.481900273E1
5.366950417E0,-1.520553666E0,1.549044020E1,3.842580796E0,1.603219412E1
5.376889417E0,-2.693797925E0,1.645053196E1,3.611584203E0,1.705637973E1
5.386829417E0,-3.522799496E0,1.714927072E1,2.868704810E0,1.774083058E1
5.396768417E0,-4.458633790E0,1.778257797E1,9.584995633E-1,1.835805589E1
5.406708417E0,-5.472763470E0,1.851782090E1,-1.711478852E0,1.938530347E1
5.416647417E0,-6.677905607E0,1.925165114E1,-5.730789403E0,2.116748549E1
5.426587417E0,-9.413669876E0,1.641881315E1,-1.260280327E1,2.273818938E1
5.436526417E0,-9.779890348E0,4.522720735E0,-8.119927804E0,1.349201562E1
5.446466417E0,-6.247496156E0,-7.583533477E0,1.325818961E1,1.650214471E1
5.456405417E0,-2.054866385E0,-1.432375812E1,1.600843100E1,2.157921189E1
5.466345417E0,1.414999291E0,-1.939167558E1,1.593355156E0,1.950841064E1
5.476284875E0,5.080052773E0,-2.801120821E1,-1.169695496E1,3.077748327E1
5.486224875E0,1.405636729E1,-3.421019235E1,-1.177874699E1,3.881568758E1
5.496163875E0,2.441051386E1,-2.440833635E1,-3.257577395E0,3.467350402E1
5.506103875E0,1.983163880E1,-1.180000044E1,3.982107349E0,2.341775154E1
5.516042875E0,6.208431492E0,-5.822319378E0,2.370969787E0,8.835469555E0
5.525982875E0,-4.913346316E0,-3.975365217E0,-2.727733996E0,6.883678768E0
5.535921875E0,-1.212386369E1,-3.488977447E0,-2.217915848E0,1.280937879E1
5.545861875E0,-1.335936632E1,-2.653503885E0,-6.202776065E-1,1.363445986E1
5.555800875E0,-9.837701769E0,-1.654875466E0,-8.503459543E-1,1.001209654E1
5.565740875E0,-6.290858522E0,-2.156788763E0,3.324889080E-1,6.658617543E0
5.575679875E0,-3.078716331E0,-3.556419232E0,8.833774602E-1,4.786122411E0
5.585619875E0,-3.425135207E-1,-4.465320958E0,2.144828868E-1,4.483571085E0
5.595558875E0,8.876159607E-1,-4.807068493E0,2.131717949E-1,4.892975762E0
5.605498875E0,1.398049528E0,-4.922566205E0,-4.150298122E-1,5.134048137E0
5.615437875E0,2.749467804E0,-4.723630480E0,-1.695876434E0,5.722609108E0
5.625377875E0,3.385640189E0,-4.267396801E0,-2.184456764E0,5.868993636E0
5.635316875E0,1.871425343E0,-3.701915499E0,-1.323002708E0,4.353934697E0
5.645256875E0,-6.215331499E-1,-3.361091239E0,-6.513057102E-1,3.479574241E0
5.655195875E0,-2.014848480E0,-3.369784879E0,-3.620923376E-1,3.942863856E0
5.665134875E0,-2.337673402E0,-3.792560790E0,3.487542540E-2,4.455272223E0
5.675074875E0,-2.302593032E0,-4.468617033E0,-2.249806854E-1,5.032006476E0
5.685013875E0,-2.039549750E0,-5.174917415E0,-1.200091311E0,5.690320957E0
5.694953875E0,-1.601135461E0,-5.846660167E0,-2.030609942E0,6.392999813E0
5.704892875E0,-1.122926191E0,-6.469482189E0,-2.279828213E0,6.950739508E0
5.714832875E0,-8.795121583E-1,-6.932005718E0,-2.317812896E0,7.361963158E0
5.724771875E0,-7.345001869E-1,-6.989813631E0,-2.018766553E0,7.312482719E0
5.734711875E0,-5.405742100E-1,-6.596105983E0,-1.689469348E0,6.830456888E0
5.744650875E0,-4.296209541E-1,-6.033581618E0,-1.766519862E0,6.301529475E0
5.754590875E0,-4.721250956E-1,-5.446812358E0,-1.796241552E0,5.754750271E0
5.764529875E0,-6.247255835E-1,-4.989923791E0,-1.287831706E0,5.191159022E0
5.774469875E0,-7.686355010E-1,-4.836029168E0,-8.923131752E-1,4.977368928E0
5.784408875E0,-7.655652742E-1,-4.989881106E0,-5.217438367E-1,5.075157167E0
5.794348875E0,-6.082580701E-1,-5.136622245E0,-2.269006187E-1,5.177484897E0
5.804287875E0,-5.877881375E-1,-5.058633252E0,1.358132780E-1,5.094478435E0
5.814227875E0,-9.234604890E-1,-4.656712605E0,5.009998159E-1,4.773756632E0
5.824166875E0,-1.529795921E0,-3.958470272E0,6.347450799E-1,4.290997992E0
5.834106875E0,-2.255881234E0,-3.022567858E0,6.571124339E-1,3.828408723E0
5.844045875E0,-3.029412901E0,-2.038301954E0,6.614941911E-1,3.710740081E0
5.853985875E0,-3.602863958E0,-8.948999834E-1,6.633670543E-1,3.771144459E0
5.863924875E0,-4.039212719E0,4.359455949E-1,8.279902947E-1,4.146185702E0
5.873864875E0,-4.385528976E0,1.604630926E0,9.066989337E-1,4.757079752E0
5.883803875E0,-4.555735576E0,2.773837245E0,8.604538898E-1,5.402710486E0
5.893743875E0,-4.547518777E0,4.001815097E0,7.428080571E-1,6.102967713E0
5.903682875E0,-4.219563361E0,5.134456437E0,2.616851199E-1,6.651002703E0
5.913622875E0,-3.535422465E0,6.510324991E0,-3.006392705E-1,7.414440469E0
5.923561875E0,-3.168122305E0,7.742325143E0,-8.783911009E-1,8.411430822E0
5.933501875E0,-3.105997393E0,8.719400725E0,-1.574794339E0,9.389097189E0
5.943440875E0,-2.666167493E0,9.652785913E0,-1.207053591E0,1.008670924E1
5.953380875E0,-2.384828711E0,9.882762752E0,-1.903251153E-1,1.016821672E1
5.963319875E0,-2.311238579E0,1.018897910E1,1.002272989E0,1.049579296E1
5.973259875E0,-1.555975952E0,1.106694788E1,2.189163626E0,1.138818835E1
5.983198875E0,-4.306810543E-1,1.190837157E1,2.728534772E0,1.222455323E1
5.993138875E0,3.023738471E-1,1.275005838E1,2.510209680E0,1.299832956E1
6.003077875E0,1.115758528E0,1.345824858E1,2.075400199E0,1.366296666E1
6.013017875E0,1.821859519E0,1.372609550E1,1.528845895E0,1.393062237E1
6.022956875E0,2.566220743E0,1.324234365E1,8.692255904E-1,1.351668256E1
6.032896875E0,3.056215076E0,1.189120298E1,8.867115426E-1,1.230964728E1
6.042835875E0,3.428059692E0,1.046848419E1,9.413069952E-1,1.105562361E1
6.052775875E0,3.566543686E0,9.217286460E0,7.664833602E-1,9.912925920E0
6.062714875E0,3.177909667E0,8.353600084E0,3.448874172E-1,8.944310568E0
6.072654875E0,2.565336644E0,7.704877235E0,-2.315110751E-1,8.124018875E0
6.082593875E0,2.613334683E0,7.023902898E0,-5.697467729E-1,7.515939161E0
6.092533875E0,3.108437728E0,5.721677687E0,-9.122118348E-1,6.575113010E0
6.102472875E0,3.155969160E0,4.332613721E0,-1.406416748E0,5.541632526E0
6.112412875E0,2.205391112E0,4.147949295E0,-1.588109618E0,4.958964153E0
6.122351875E0,3.973969486E-1,5.014485020E0,-1.135580735E0,5.156794349E0
6.132291875E0,-1.583687808E0,6.343557138E0,-4.651927829E-1,6.554783639E0
6.142230875E0,-3.131307066E0,7.630315880E0,-2.718194592E-1,8.252314232E0
6.152170875E0,-4.231413621E0,8.628690530E0,-4.547145724E-1,9.621118793E0
6.162109875E0,-4.888482785E0,9.595481445E0,-8.559107494E-1,1.080292143E1
6.172048875E0,-5.270755033E0,1.054820279E1,-1.284255549E0,1.186148191E1
6.181988875E0,-5.751552866E0,1.135683646E1,-1.680506151E0,1.284064623E1
6.191927875E0,-6.843574183E0,1.193746147E1,-2.185167639E0,1.393242447E1
6.201867875E0,-8.325886620E0,1.183858388E1,-2.668380371E0,1.471708905E1
6.211806875E0,-9.652381285E0,1.066239774E1,-2.781505283E0,1.464895770E1
6.221746875E0,-1.021963254E1,8.933160896E0,-1.811696620E0,1.369395843E1
6.231685875E0,-7.651886258E0,6.007184948E0,1.243995130E0,9.807403234E0
6.241625875E0,-4.799130313E0,-1.102764407E0,5.694696295E0,7.528433236E0
6.251564875E0,-3.256920753E0,-1.403214228E1,1.000656585E1,1.753966675E1
6.261504875E0,2.362807805E0,-3.242355690E1,1.254564206E1,3.484627724E1
6.271443875E0,1.161586812E1,-4.806236318E1,8.875191016E0,5.023632313E1
6.281383875E0,1.709450804E1,-5.128299085E1,-1.587050103E0,5.408036689E1
6.291322875E0,1.132742848E1,-3.889116681E1,-8.728752177E0,4.143699562E1
6.301262875E0,1.897704192E0,-2.329753846E1,-1.046854383E1,2.561185252E1
6.311201875E0,-3.783452290E0,-1.549737266E1,-4.621479038E0,1.660846588E1
6.321141875E0,-2.503325460E0,-1.269145642E1,1.991407285E0,1.308836916E1
6.331080875E0,3.168949686E0,-1.113979600E1,4.703256442E0,1.250031673E1
6.341020875E0,4.714363813E0,-9.238532318E0,4.549317965E0,1.132572291E1
6.350959875E0,4.078142896E0,-7.129144009E0,4.280926673E0,9.261872217E0
6.360899875E0,4.873377965E0,-5.928543406E0,5.193251944E0,9.266461324E0
6.370838875E0,6.913482324E0,-4.556438119E0,6.959070725E0,1.081600811E1
6.380778875E0,7.837100322E0,-3.314488345E0,7.447132553E0,1.130777422E1
6.390717875E0,7.446837269E0,-2.299792947E0,6.626184061E0,1.022989482E1
6.400657875E0,6.942662269E0,-1.529814048E0,4.583718889E0,8.458804245E0
6.410596875E0,6.609789637E0,-6.305485332E-1,2.071517063E0,6.955436251E0
6.420536875E0,6.169567389E0,-9.921321630E-2,-4.806990141E-1,6.189061041E0
6.430475875E0,5.308122250E0,1.277371037E-1,-2.672493303E0,5.944299710E0
6.440415875E0,4.276941504E0,1.549038523E-1,-3.294369246E0,5.400841838E0
6.450354875E0,3.054540433E0,4.972963357E-1,-1.988241602E0,3.678399866E0
6.460294875E0,1.511952558E0,1.345684057E0,-1.665584860E-1,2.030913058E0
6.470233250E0,-3.546127986E-2,2.515937027E0,1.752752593E0,3.066486309E0
6.480173250E0,-1.209607947E0,3.538309236E0,3.065138512E0,4.835065432E0
6.490112250E0,-2.392147087E0,4.622780628E0,3.979653565E0,6.552107364E0
6.500052250E0,-3.390119449E0,5.729273804E0,4.131211056E0,7.834819270E0
6.509991250E0,-4.079283687E0,6.605905917E0,3.539917220E0,8.532851944E0
6.519931250E0,-4.460026012E0,7.284402203E0,2.530988345E0,8.908436983E0
6.529870250E0,-4.306036372E0,7.679550605E0,1.468186734E0,8.925974401E0
6.539810250E0,-3.198987125E0,7.126477679E0,8.197948372E-1,7.854442457E0
6.549749250E0,-1.469055338E0,5.199649383E0,4.911900884E-1,5.425471868E0
6.559689250E0,1.786327305E-1,3.000339668E0,2.987617296E-1,3.020464591E0
6.569628250E0,1.262142841E0,1.454779653E0,1.707737621E-1,1.933533570E0
6.579568250E0,1.568968466E0,4.101073337E-1,1.891936608E-1,1.632680101E0
6.589507250E0,1.580702950E0,-3.632038933E-1,2.056886744E-1,1.634884313E0
6.599446250E0,1.487314438E0,-8.362091410E-1,2.480552785E-1,1.724204566E0
6.609386250E0,7.104136053E-1,-8.992631757E-1,2.274847738E-1,1.168379678E0
6.619325250E0,-1.334071487E-2,-8.749750113E-1,2.744297111E-1,9.170991830E-1
6.629265250E0,-4.618786176E-1,-7.350581574E-1,4.941803545E-1,9.989277126E-1
6.639204250E0,-6.105864313E-1,-2.491346562E-1,3.495418739E-1,7.463667923E-1
6.649144250E0,-5.532500964E-1,2.478196174E-1,1.337088650E-1,6.207884443E-1
6.659083250E0,-6.727519816E-1,5.839111412E-1,1.296339587E-1,9.001957636E-1
6.669023250E0,-9.733266404E-1,7.668482995E-1,1.892989290E-1,1.253497167E0
6.678962250E0,-1.170977440E0,8.311127079E-1,1.744095790E-1,1.446497563E0
6.688902250E0,-1.214330743E0,7.462982601E-1,2.969268733E-1,1.455927819E0
6.698841250E0,-1.076797214E0,4.508074629E-1,4.376623374E-1,1.246702824E0
6.708781250E0,-8.412561652E-1,5.843707323E-3,3.871160817E-1,9.260696222E-1
6.718720250E0,-5.914806542E-1,-4.322905004E-1,-1.390502965E-1,7.456939224E-1
6.728660250E0,-2.541191152E-1,-8.176377994E-1,-1.134695467E0,1.421492841E0
6.738599250E0,1.276888276E-1,-1.004519489E0,-2.124579960E0,2.353551327E0
6.748539250E0,4.253720748E-1,-8.398852855E-1,-2.553070940E0,2.721124752E0
6.758478250E0,5.364013445E-1,-1.726805574E-1,-2.013410357E0,2.090781252E0
6.768418250E0,4.787147980E-1,1.134292009E0,-7.281958652E-1,1.430403942E0
6.778357250E0,4.662431986E-1,2.837364319E0,7.804745778E-1,2.979456253E0
6.788297250E0,7.880631673E-1,4.849050917E0,2.543281531E0,5.531963422E0
6.798236250E0,1.619849474E0,7.024272442E0,4.278863776E0,8.382898716E0
6.808176250E0,3.033953556E0,8.245364614E0,6.458821546E0,1.090446182E1
6.818115250E0,3.847584259E0,1.020066183E1,8.782293377E0,1.399950297E1
6.828055250E0,4.176530193E0,1.245515874E1,1.054883780E1,1.684791864E1
6.837994250E0,4.195602933E0,1.462544755E1,1.132142572E1,1.896527038E1
6.847934250E0,3.583486578E0,1.629205838E1,1.096602143E1,1.996312021E1
6.857873250E0,2.123267553E0,1.721301239E1,9.719115558E0,1.988107813E1
6.867813250E0,1.727935548E0,1.615350042E1,6.627504362E0,1.754551655E1
6.877752250E0,7.850413263E-1,1.315414659E1,1.954196774E0,1.332166459E1
6.887692250E0,-1.209213260E0,9.656585433E0,-2.158047084E0,9.968400381E0
6.897631250E0,-2.671953020E0,4.598486617E0,-2.010644624E0,5.685780853E0
6.907571250E0,-4.158441539E0,-2.745463631E0,2.162970439E0,5.432186273E0
6.917510250E0,-6.398689950E0,-1.576746841E1,8.112125280E0,1.885107079E1
6.927450250E0,-7.912448128E0,-3.385736434E1,1.434361644E1,3.761206307E1
6.937389250E0,8.745369818E-3,-4.240696426E1,2.210710616E0,4.246454917E1
6.947329250E0,7.788102409E0,-2.648591289E1,-2.488973177E0,2.771918303E1
6.957268250E0,6.672852443E0,-1.650036076E1,2.788755831E0,1.801571603E1
6.967208250E0,7.073186740E0,-2.313927304E1,4.823624300E0,2.467231807E1
6.977147250E0,6.221998202E0,-2.907568446E1,4.956298208E0,3.014421305E1
6.987086250E0,4.849932385E0,-2.852156254E1,3.271328877E0,2.911533903E1
6.997026250E0,3.738195133E0,-2.688554201E1,7.877783348E-1,2.715560838E1
7.006965250E0,1.708531563E0,-2.495113572E1,6.871635409E-1,2.501900173E1
7.016905250E0,6.309791806E-1,-2.240123514E1,2.365340234E0,2.253460239E1
7.026844250E0,5.609155038E-1,-2.005051412E1,3.001708501E0,2.028171582E1
7.036784250E0,8.493893498E-1,-1.774266254E1,2.303586035E0,1.791172925E1
7.046723250E0,1.040496530E0,-1.524844616E1,-9.841974914E-2,1.528422160E1
7.056663250E0,1.440646056E0,-1.268050926E1,-3.798058927E0,1.331525545E1
7.066602250E0,3.068333138E0,-9.784642380E0,-6.485479587E0,1.213323288E1
7.076542250E0,3.165027374E0,-6.725702502E0,-6.951746503E0,1.017738925E1
7.086481250E0,-8.375259340E-3,-2.849227735E0,-6.115290610E0,6.746476715E0
7.096421250E0,-3.851551595E0,1.416427181E0,-5.853682673E0,7.148868196E0
7.106360250E0,-5.267934921E0,5.024149883E0,-6.040332813E0,9.459325604E0
7.116300250E0,-5.314595118E0,8.509089827E0,-6.128991805E0,1.175644808E1
7.126239250E0,-5.517688213E0,1.300079284E1,-5.056005514E0,1.500095628E1
7.136179250E0,-5.293849781E0,1.853025559E1,-2.696739367E0,1.945938388E1
7.146118250E0,-3.702074836E0,2.309216085E1,-2.010866818E0,2.347332180E1
7.156058250E0,-1.933568089E0,2.593384217E1,-4.661247121E0,2.642025890E1
7.165997250E0,1.123868762E0,2.776422415E1,-6.019867558E0,2.843156748E1
7.175937250E0,2.071517648E0,2.860396618E1,-3.456845827E0,2.888646482E1
7.185876250E0,3.735551022E0,2.840908784E1,3.115220718E-1,2.865532515E1
7.195816250E0,2.219215391E0,2.324177005E1,2.138519576E0,2.344521397E1
7.205755250E0,-1.121089581E0,1.488720401E1,2.032135481E0,1.506702557E1
7.215695250E0,-3.882073476E0,8.332574666E0,1.229576335E0,9.274381542E0
7.225634250E0,-5.590259761E0,3.978114578E0,1.610720801E-1,6.863114745E0
7.235574250E0,-6.381271094E0,-6.842411757E-2,-3.317318398E-1,6.390254193E0
7.245513250E0,-6.464719048E0,-4.411131887E0,8.304296069E-1,7.870215386E0
7.255453250E0,-5.531440864E0,-1.016827294E1,1.197559905E0,1.163721454E1
7.265392250E0,-7.488796596E-1,-1.423403845E1,-1.162131918E0,1.430102171E1
7.275332250E0,6.441404445E0,-1.030332140E1,-3.865493696E0,1.275116326E1
7.285271250E0,7.033892866E0,-1.400127482E0,-4.759894327E0,8.607705840E0
7.295211250E0,4.708730605E0,4.276301526E0,-2.479100153E0,6.826773486E0
7.305150250E0,3.105553004E0,6.946059501E0,6.268763356E-1,7.634472870E0
7.315090250E0,2.166612524E0,8.331880016E0,3.037399905E0,9.129087173E0
7.325029250E0,2.342200170E0,9.743289117E0,4.374576849E0,1.093409836E1
7.334969250E0,2.794357755E0,1.112889562E1,4.632309251E0,1.237412793E1
7.344908250E0,2.640834431E0,1.201233273E1,4.429555879E0,1.307253263E1
7.354847250E0,2.383132727E0,1.305474860E1,4.875608971E0,1.413779847E1
7.364787250E0,1.369516431E0,1.399016862E1,4.896718004E0,1.488550438E1
7.374726250E0,1.954133624E-1,1.475363606E1,4.039450700E0,1.529787977E1
7.384666250E0,-1.011756588E0,1.546527027E1,3.463537381E0,1.588062742E1
7.394605250E0,-2.175382909E0,1.609529373E1,3.741158502E0,1.666694447E1
7.404545250E0,-3.115142730E0,1.663240025E1,3.767285616E0,1.733589609E1
7.414484250E0,-4.318855222E0,1.714705346E1,3.562264109E0,1.803784018E1
7.424424250E0,-6.776717119E0,1.768313087E1,3.636906155E0,1.928325954E1
7.434363250E0,-1.031947141E1,1.714021221E1,1.561453332E0,2.006779762E1
7.444303250E0,-1.437520543E1,1.305848381E1,-5.161937181E0,2.009517669E1
7.454242250E0,-1.648151869E1,5.188278303E0,-1.076598935E1,2.035841882E1
7.464182250E0,-1.188376999E1,-5.141035139E0,-4.038098824E0,1.356320293E1
7.474121500E0,-5.613976067E0,-1.336449199E1,8.847314415E0,1.698238340E1
7.484061500E0,-4.926710419E-1,-1.821278803E1,8.618445624E0,2.015504844E1
7.494000500E0,2.743981361E0,-2.318959886E1,9.506154701E-2,2.335157308E1
7.503940500E0,7.766663008E0,-3.078327024E1,-6.077815804E0,3.232445863E1
7.513879500E0,1.907761461E1,-2.999735066E1,-4.710992308E0,3.586070097E1
7.523819500E0,2.294835911E1,-1.725292197E1,-2.324702085E0,2.880442227E1
7.533758500E0,1.409063080E1,-7.597025927E0,-9.038136251E-1,1.603363834E1
7.543698500E0,2.461402971E0,-5.416219726E0,-2.584575738E0,6.486445286E0
7.553637500E0,-5.641441609E0,-6.906565652E0,-3.046150264E0,9.423669347E0
7.563577500E0,-9.491994499E0,-8.038010652E0,-7.449519387E-1,1.246043852E1
7.573516500E0,-1.023978789E1,-7.857029972E0,7.654057914E-1,1.292950200E1
7.583456500E0,-8.963759376E0,-7.801041713E0,-4.201446640E-1,1.189040603E1
7.593395500E0,-5.994040992E0,-7.842620094E0,-1.279005919E0,9.953445307E0
7.603335500E0,-3.075837162E0,-7.465138469E0,-2.546273844E-1,8.077988717E0
7.613274500E0,-1.751158204E0,-6.995688913E0,4.964296322E-1,7.228600197E0
7.623214500E0,-1.456548436E0,-6.599506724E0,1.438859439E-1,6.759861353E0
7.633153500E0,-5.485037653E-1,-6.452054563E0,-7.411206968E-1,6.517601120E0
7.643093500E0,4.841830775E-1,-6.378374383E0,-1.612241077E0,6.596773023E0
7.653032500E0,6.792986704E-1,-6.010703802E0,-2.044018338E0,6.384983778E0
7.662972500E0,1.038564903E-1,-5.278196200E0,-1.759607284E0,5.564742500E0
7.672911500E0,-8.763011599E-1,-4.333258084E0,-1.106654559E0,4.557380131E0
7.682850500E0,-1.681061782E0,-3.414229565E0,-5.476070948E-1,3.844841449E0
7.692790500E0,-2.042465757E0,-2.656754937E0,-3.841585600E-1,3.373068479E0
7.702729500E0,-2.159834431E0,-2.021479515E0,-5.332735227E-1,3.005934938E0
7.712669500E0,-2.200791692E0,-1.421551681E0,-7.908060962E-1,2.736725696E0
7.722608500E0,-2.415037182E0,-7.209195900E-1,-8.464476156E-1,2.658684489E0
7.732548500E0,-2.992775710E0,-3.148433268E-1,-7.060367451E-1,3.091006414E0
7.742487500E0,-3.533547848E0,-4.906398654E-2,-4.553624439E-1,3.563105755E0
7.752427500E0,-3.873616063E0,1.851093990E-1,-3.896591820E-2,3.878232231E0
7.762366500E0,-3.989531851E0,5.318276525E-1,9.040190086E-2,4.025838738E0
7.772306500E0,-3.765332646E0,1.126312898E0,-8.816958010E-2,3.931168345E0
7.782245500E0,-3.358668737E0,1.720363111E0,-3.156204218E-1,3.786808838E0
7.792185500E0,-2.834336631E0,2.168407180E0,-6.363646855E-1,3.624970876E0
7.802124500E0,-2.384766585E0,2.557001438E0,-8.390321036E-1,3.595739547E0
7.812064500E0,-2.066860925E0,2.867271073E0,-8.882633936E-1,3.644471065E0
7.822003500E0,-1.774298121E0,2.933869105E0,-7.223797859E-1,3.503934118E0
7.831943500E0,-1.591858268E0,3.102258976E0,-5.651357317E-1,3.532336605E0
7.841882500E0,-1.440142610E0,3.413175312E0,-3.074851906E-1,3.717300579E0
7.851822500E0,-1.453869826E0,3.689111266E0,-1.010849100E-1,3.966547310E0
7.861761500E0,-1.388695006E0,3.963294809E0,-2.459167141E-2,4.199617163E0
7.871701500E0,-1.205992979E0,4.287744527E0,8.141659420E-2,4.454862608E0
7.881640500E0,-8.794380449E-1,4.651018587E0,2.651512762E-1,4.740853338E0
7.891580500E0,-3.830339943E-1,5.183702272E0,4.253012504E-1,5.215205215E0
7.901519500E0,-6.242436267E-2,6.073311694E0,3.283877806E-1,6.082503619E0
7.911459500E0,1.863088822E-1,6.837168558E0,2.130912129E-1,6.843025117E0
7.921398500E0,3.777848026E-1,7.447184009E0,1.614305145E-1,7.458507279E0
7.931338500E0,6.402230439E-1,7.632210377E0,1.655112863E-2,7.659033538E0
7.941277500E0,9.385561725E-1,7.326384627E0,-3.239708304E-2,7.386328517E0
7.951217500E0,1.174189535E0,6.719081115E0,3.342730032E-1,6.829092951E0
7.961156500E0,1.547857094E0,6.014774049E0,9.408105665E-1,6.281599555E0
7.971096500E0,2.151634004E0,5.054261874E0,1.236179742E0,5.630562346E0
7.981035500E0,2.852222971E0,3.573425274E0,9.242114908E-1,4.664623344E0
7.990975500E0,3.582850108E0,1.525808120E0,6.822355807E-2,3.894811905E0
8.000914500E0,4.497864514E0,-1.239972830E0,-1.036739987E0,4.779450555E0
8.010853500E0,5.656479478E0,-5.059099860E0,-2.171776346E0,7.893469705E0
8.020793500E0,6.905468130E0,-9.617504398E0,-3.181637852E0,1.225988174E1
8.030732500E0,8.002244403E0,-1.380251744E1,-4.146300965E0,1.648445373E1
8.040672500E0,8.832469504E0,-1.534623032E1,-5.250279254E0,1.846847949E1
8.050611500E0,8.439261208E0,-1.306394160E1,-5.767513425E0,1.658770361E1
8.060551500E0,5.914857997E0,-9.304514639E0,-5.404425307E0,1.227873571E1
8.070490500E0,3.697866887E0,-6.166313413E0,-4.476756358E0,8.469887137E0
8.080430500E0,1.701428073E0,-3.514252621E0,-3.450361265E0,5.210549091E0
8.090369500E0,-2.495065391E-2,-1.066143880E0,-2.591385405E0,2.802242606E0
8.100309500E0,-1.203491175E0,1.275517470E0,-1.725250799E0,2.460045964E0
8.110248500E0,-1.745971870E0,3.567749382E0,-1.118766482E0,4.126607791E0
8.120188500E0,-1.609598721E0,5.454663999E0,-5.329696137E-1,5.712112043E0
8.130127500E0,-1.068083036E0,7.047192943E0,2.288775623E-1,7.131347326E0
8.140067500E0,-3.666484880E-1,8.497770787E0,1.129013143E0,8.580280306E0
8.150006500E0,4.882789790E-1,1.019874862E1,1.909796526E0,1.038750271E1
8.159946500E0,1.288360294E0,1.179922276E1,2.463924290E0,1.212239469E1
8.169885500E0,1.941195490E0,1.330913757E1,2.971452084E0,1.377428438E1
8.179825500E0,2.255100338E0,1.479295274E1,3.691629077E0,1.541249667E1
8.189764500E0,2.209773307E0,1.629467676E1,4.405724967E0,1.702380690E1
8.199704500E0,1.604766874E0,1.778761710E1,5.298569069E0,1.862926281E1
8.209643500E0,2.865313644E-1,1.928477913E1,6.316686258E0,2.029495828E1
8.219583500E0,-1.547117713E0,2.052227917E1,6.770647709E0,2.166562221E1
8.229522500E0,-3.835103669E0,2.132208939E1,6.384706918E0,2.258548203E1
8.239462500E0,-6.444453768E0,2.139799795E1,5.193653648E0,2.294295837E1
8.249401500E0,-8.837484661E0,2.072412271E1,3.849112136E0,2.285620401E1
8.259341500E0,-1.095753829E1,1.797014963E1,2.869477812E0,2.124212386E1
8.269280500E0,-1.066087864E1,1.300762706E1,2.325435326E0,1.697823149E1
8.279220500E0,-5.669967835E0,8.735861807E0,2.014937650E0,1.060772315E1
8.289159500E0,-8.196074340E-1,5.754819120E0,1.706222205E0,6.058126250E0
8.299099500E0,2.226256608E0,3.643300670E0,8.284896469E-1,4.349281936E0
8.309038500E0,4.412858277E0,2.614558505E0,-9.445931304E-1,5.215504821E0
8.318977500E0,5.897410491E0,1.620756962E0,-2.265065748E0,6.522026255E0
8.328917500E0,7.081086329E0,-5.493318772E-1,-1.767939566E0,7.319095533E0
8.338856500E0,6.953702397E0,-4.673112291E0,-1.648530067E0,8.538712250E0
8.348796500E0,5.117058631E0,-1.022562827E1,-1.587857019E0,1.154422161E1
8.358735500E0,3.081866226E0,-1.683665518E1,-2.377561061E0,1.728073071E1
8.368675500E0,1.388970995E0,-2.441996530E1,-1.486178616E0,2.450454391E1
8.378614500E0,7.528480187E-1,-3.360335194E1,1.096475873E0,3.362966400E1
8.388554500E0,8.414210567E-1,-3.734306501E1,6.093799753E0,3.784635899E1
8.398493500E0,3.799760467E-1,-3.087433711E1,1.010035636E1,3.248670916E1
8.408433500E0,1.958580724E0,-2.057912580E1,8.831048630E0,2.247941007E1
8.418372500E0,1.811676739E0,-1.141993026E1,8.544742055E0,1.437739881E1
8.428312500E0,1.424433188E0,-4.916271093E0,8.972378172E0,1.032968061E1
8.438251500E0,2.988841703E0,-1.774044060E0,7.578653975E0,8.337649736E0
8.448191500E0,3.974408612E0,-1.400788218E0,5.727565833E0,7.110776457E0
8.458130500E0,2.731182683E0,-2.511161606E0,5.487245854E0,6.623832616E0
8.468070500E0,1.712490128E0,-6.430412849E0,6.207360283E0,9.100228212E0
8.478009750E0,2.588217384E0,-1.240709463E1,6.480466769E0,1.423486269E1
8.487949750E0,3.476128190E0,-1.606960457E1,6.391967406E0,1.764009369E1
8.497888750E0,2.520095859E0,-1.257608150E1,4.991249354E0,1.376304033E1
8.507828750E0,-6.806270847E-1,-6.634007635E0,3.011458733E0,7.317253189E0
8.517767750E0,-2.833829385E0,-3.294069868E0,2.004074693E0,4.785164642E0
8.527707750E0,-3.692243912E0,-1.303190002E0,2.033204352E0,4.411903129E0
8.537646750E0,-3.310964521E0,-1.294515073E-2,2.479739839E0,4.136636714E0
8.547586750E0,-2.518318891E0,8.533461607E-1,3.120057315E0,4.099376459E0
8.557525750E0,-2.440242774E0,1.545631936E0,3.528539708E0,4.560082822E0
8.567464750E0,-3.491620680E0,2.513684680E0,3.688511927E0,5.667022664E0
8.577404750E0,-4.576451092E0,3.167630847E0,3.760482380E0,6.717069116E0
8.587343750E0,-5.051504327E0,3.258484299E0,3.449314613E0,6.930597896E0
8.597283750E0,-5.594422978E0,2.860381299E0,1.817647331E0,6.540886137E0
8.607222750E0,-5.818292985E0,1.688633780E0,-3.577728532E-1,6.068938846E0
8.617162750E0,-4.426718517E0,3.272867864E-1,-4.230043033E0,6.131575453E0
8.627101750E0,-1.601928636E0,-3.075571114E-1,-6.863292164E0,7.054469934E0
8.637041750E0,9.494615221E-1,-5.506036466E-1,-7.277753334E0,7.360049942E0
8.646980750E0,2.384943025E0,-3.326568693E-1,-6.128428134E0,6.584545938E0
8.656920750E0,3.748064356E0,4.849739134E-2,-4.193573365E0,5.624624074E0
8.666859750E0,4.386173924E0,1.221588600E-1,-1.927249296E0,4.792466414E0
8.676799750E0,3.742173871E0,1.680940014E-1,-5.933856770E-2,3.746417214E0
8.686738750E0,2.809774232E0,1.982171023E-1,8.788071303E-1,2.950664879E0
8.696678750E0,1.846858851E0,1.580555016E-1,8.395092364E-1,2.034857468E0
8.706617750E0,1.562547930E0,-1.438298106E-2,1.176330420E-1,1.567035557E0
8.716557750E0,1.772751825E0,-1.557119375E-1,-7.781779376E-1,1.942281170E0
8.726496750E0,2.245304206E0,-2.411333263E-1,-1.785178328E0,2.878610414E0
8.736436750E0,2.295293514E0,-4.343341023E-1,-2.524403211E0,3.439422917E0
8.746375750E0,1.983481969E0,-6.029514295E-1,-3.182855827E0,3.798463158E0
8.756315750E0,1.319951338E0,-4.183098078E-1,-3.666458568E0,3.919205667E0
8.766254750E0,3.403354329E-1,3.763852715E-2,-3.932349590E0,3.947229176E0
8.776194750E0,-3.960310025E-1,9.071393752E-1,-3.957464551E0,4.079371039E0
8.786133750E0,-4.644332661E-1,2.214545805E0,-3.555669619E0,4.214581571E0
8.796073750E0,3.721296680E-1,3.309245147E0,-2.718544804E0,4.298845169E0
8.806012750E0,7.881742644E-1,5.252703509E0,-1.210881178E0,5.447783591E0
8.815952750E0,1.325386910E0,6.662612799E0,7.754039454E-1,6.837273656E0
8.825891750E0,1.409787083E0,7.275163602E0,2.374140294E0,7.781519594E0
8.835830750E0,1.806506339E0,8.455743924E0,4.347791923E0,9.678138513E0
8.845770750E0,2.653767887E0,9.962477843E0,6.296480620E0,1.208052635E1
8.855709750E0,3.695190324E0,1.123069097E1,7.460613309E0,1.398011453E1
8.865649750E0,4.883863777E0,1.232299529E1,8.171706069E0,1.557193368E1
8.875588750E0,5.557128267E0,1.301400638E1,8.127432121E0,1.631873737E1
8.885528750E0,5.070217756E0,1.361829155E1,6.926272523E0,1.609777078E1
8.895467750E0,2.865643793E0,1.472397665E1,6.371355386E0,1.629728726E1
8.905407750E0,-4.685964471E-1,1.549063666E1,6.166139166E0,1.667934888E1
8.915346750E0,-2.226902726E0,1.434938764E1,3.864069314E0,1.502647840E1
8.925286750E0,-3.580739848E0,1.285204201E1,1.863892375E0,1.347110895E1
8.935225750E0,-4.973068022E0,9.481203462E0,8.297912371E-1,1.073839737E1
8.945165750E0,-4.812088620E0,2.216378907E0,1.986427430E-1,5.301697020E0
8.955104750E0,-4.823920754E0,-1.089371359E1,1.774701287E0,1.204544611E1
8.965044750E0,-6.157746073E0,-3.235493164E1,1.872382766E1,3.788589659E1
8.974983750E0,-1.478357381E0,-5.674415929E1,1.036869444E1,5.770264273E1
8.984923750E0,1.063564205E1,-6.255280671E1,-7.910525563E0,6.394174633E1
8.994862750E0,9.107091004E0,-3.960813134E1,-5.696418300E0,4.103891271E1
9.004802750E0,2.143686030E0,-2.491232658E1,3.230842756E0,2.521225397E1
9.014741750E0,2.025543037E0,-2.163795130E1,7.584125215E0,2.301787819E1
9.024681750E0,3.211685523E0,-2.138121878E1,7.814090359E0,2.298981184E1
9.034620750E0,4.973872014E0,-2.155625635E1,6.013651968E0,2.292543567E1
9.044560750E0,6.173971512E0,-2.083651322E1,4.519258014E0,2.219688943E1
9.054499750E0,6.811457182E0,-1.845312029E1,2.409130032E0,1.981710132E1
9.064438750E0,7.054223050E0,-1.519366945E1,-2.582259436E-1,1.675339771E1
9.074378750E0,6.817014960E0,-1.212646102E1,-3.557448342E0,1.435890624E1
9.084317750E0,5.271736781E0,-9.484562688E0,-7.156091487E0,1.299837618E1
9.094257750E0,2.700465213E0,-6.141866205E0,-9.318237469E0,1.148235962E1
9.104196750E0,-3.769159064E-1,-2.383884094E0,-7.810422986E0,8.174819642E0
9.114136750E0,-4.343076144E0,1.661055388E0,-5.205399535E0,6.979799403E0
9.124075750E0,-7.542405916E0,6.030713559E0,-3.797071917E0,1.037666363E1
9.134015750E0,-7.744076384E0,1.010798347E1,-3.825423896E0,1.329571046E1
9.143954750E0,-7.287913456E0,1.348966567E1,-3.769936159E0,1.578914758E1
9.153894750E0,-8.046715987E0,1.776117599E1,-2.638090625E0,1.967659861E1
9.163833750E0,-8.126229349E0,2.307056124E1,-5.292220601E-1,2.446561823E1
9.173773750E0,-6.943440533E0,2.676821880E1,6.239470267E-1,2.766113183E1
9.183712750E0,-6.666609371E0,2.918073086E1,-1.639844613E0,2.997745527E1
9.193652750E0,-3.875841806E0,3.074745721E1,-3.049439907E0,3.114044570E1
9.203591750E0,4.840864523E-1,3.041000504E1,-4.528878657E-1,3.041722955E1
9.213531750E0,1.618434448E0,2.386691459E1,1.899501919E0,2.399702168E1
9.223470750E0,8.252540901E-2,1.384222471E1,1.955121803E0,1.397986039E1
9.233410750E0,-2.412041361E0,7.421163899E0,6.653301108E-1,7.831620605E0
9.243349750E0,-3.842761768E0,3.251443666E0,-4.901867062E-1,5.057567293E0
9.253289750E0,-4.878207473E0,-2.326589566E-1,-1.121217708E0,5.010805074E0
9.263228750E0,-5.918085660E0,-4.660640180E0,-1.300622344E0,7.644404702E0
9.273168750E0,-5.894490976E0,-1.143570254E1,-4.458266585E-1,1.287319221E1
9.283107750E0,-4.086961082E-1,-1.728999449E1,-1.626231710E0,1.737111314E1
9.293047750E0,7.862355616E0,-1.549591904E1,-4.389774932E0,1.792233988E1
9.302986750E0,9.611581753E0,-3.412785888E0,-5.792628386E0,1.172962723E1
9.312926750E0,5.977375842E0,3.715125529E0,-3.760865373E0,7.979679693E0
9.322865750E0,3.448449810E0,5.969113142E0,-4.922666339E-1,6.911182550E0
9.332804750E0,1.274293940E0,7.440571393E0,2.203393264E0,7.863896590E0
9.342744750E0,-3.950647867E-1,8.577454303E0,3.840824293E0,9.406419603E0
9.352683750E0,-1.216770055E0,9.580415509E0,4.613913910E0,1.070294783E1
9.362623750E0,-9.693977500E-1,1.049972119E1,5.131504177E0,1.172673067E1
9.372562750E0,-3.321374904E-1,1.146702607E1,5.682753357E0,1.280221418E1
9.382502750E0,-8.255391419E-3,1.270707082E1,6.327878999E0,1.419548413E1
9.392441750E0,-3.058356911E-2,1.385492954E1,7.060254453E0,1.555015115E1
9.402381750E0,-4.111775203E-1,1.529432108E1,6.911655654E0,1.678857671E1
9.412320750E0,-1.201427985E0,1.662612267E1,5.242743362E0,1.747448833E1
9.422260750E0,-1.668214134E0,1.761949328E1,2.076932169E0,1.781973987E1
9.432199750E0,-3.297404535E0,1.823871342E1,1.241423525E0,1.857591656E1
9.442139750E0,-6.184906390E0,1.904508772E1,1.976291063E0,2.012148503E1
9.452078750E0,-1.003443953E1,2.002188147E1,-3.502412009E0,2.266787604E1
9.462018750E0,-1.397056993E1,1.524224227E1,-1.175023947E1,2.378173461E1
9.471957750E0,-1.360274498E1,2.503472518E0,-3.270728953E0,1.421266032E1
9.481897375E0,-9.875380057E0,-8.681995502E0,1.483841250E1,1.982621151E1
9.491836375E0,-4.540799741E0,-1.591756410E1,1.310730221E1,2.111371782E1
9.501776375E0,5.228714722E-1,-1.831682169E1,6.776800150E-1,1.833681002E1
9.511715375E0,5.745901532E0,-2.012945387E1,-5.939253166E0,2.175971106E1
9.521655375E0,1.323442886E1,-2.828280202E1,-6.035567333E0,3.180401029E1
9.531594375E0,1.878843004E1,-2.876704035E1,-2.120047199E0,3.442444355E1
9.541534375E0,1.773134350E1,-1.423574817E1,9.338133498E-1,2.275805518E1
9.551473375E0,6.647143990E0,-7.130254396E0,-1.035800485E0,9.802955351E0
9.561412375E0,-3.794214383E0,-6.741470688E0,-1.663216080E0,7.912634046E0
9.571352375E0,-1.035846415E1,-7.457096794E0,-2.106266481E0,1.293609024E1
9.581291375E0,-1.220259645E1,-7.555793701E0,-2.284370477E0,1.453312516E1
9.591231375E0,-1.092551309E1,-6.726040471E0,-1.120817685E0,1.287876892E1
9.601170375E0,-8.919981857E0,-6.408575837E0,5.529010177E-2,1.098357763E1
9.611110375E0,-6.207422848E0,-6.195393956E0,5.935998313E-1,8.790185745E0
9.621049375E0,-4.492808719E0,-5.858362200E0,6.811677329E-1,7.414157223E0
9.630989375E0,-3.791417075E0,-5.576836892E0,2.793111129E-1,6.749367960E0
9.640928375E0,-2.311681944E0,-5.784075079E0,-9.442018054E-1,6.300072617E0
9.650868375E0,-1.340706615E-1,-6.209339565E0,-2.237247473E0,6.601450525E0
9.660807375E0,1.911931930E0,-6.122911286E0,-2.623795937E0,6.930355794E0
9.670747375E0,2.903840144E0,-5.594211309E0,-2.157603572E0,6.662037296E0
9.680686375E0,2.291322816E0,-4.922321207E0,-1.262932069E0,5.574442010E0
9.690626375E0,7.358007538E-1,-4.108440828E0,-6.343667650E-1,4.221742529E0
9.700565375E0,-7.040660141E-1,-3.181026233E0,-6.521909056E-1,3.322648014E0
9.710505375E0,-1.782193470E0,-2.160185410E0,-7.856039015E-1,2.908571481E0
9.720444375E0,-2.605594139E0,-1.221195082E0,-9.281011317E-1,3.023542617E0
9.730384375E0,-3.159879193E0,-1.174898583E-1,-9.335653547E-1,3.296996307E0
9.740323375E0,-3.789275240E0,8.765490818E-1,-7.252080841E-1,3.956371052E0
9.750263375E0,-4.230122555E0,1.694818380E0,-5.217203017E-1,4.586778635E0
9.760202375E0,-4.310155150E0,2.455617735E0,-4.859142919E-1,4.984336323E0
9.770142375E0,-3.977733047E0,3.154648858E0,-6.019696820E-1,5.112390547E0
9.780081375E0,-3.251015650E0,3.693009020E0,-8.092417824E-1,4.986210048E0
9.790020375E0,-2.334813529E0,3.922577723E0,-8.441624507E-1,4.642260274E0
9.799960375E0,-1.486518924E0,3.646365781E0,-1.109872867E0,4.091153835E0
9.809899375E0,-7.471234484E-1,3.076863933E0,-1.573866386E0,3.535864889E0
9.819839375E0,-2.270777893E-1,2.617980296E0,-1.980276525E0,3.290422506E0
9.829778375E0,9.942649350E-2,2.496124907E0,-2.209658117E0,3.335133306E0
9.839718375E0,2.832622227E-1,2.713889251E0,-2.207429159E0,3.509725893E0
9.849657375E0,2.322592995E-1,3.273500533E0,-1.899504257E0,3.791815732E0
9.859597375E0,2.184720035E-1,3.889953184E0,-1.494213275E0,4.172785532E0
9.869536375E0,2.728993486E-1,4.918546245E0,-1.246844478E0,5.081455733E0
9.879476375E0,8.956528124E-1,5.863759764E0,-7.075908619E-1,5.973822676E0
9.889415375E0,1.583424975E0,6.651195526E0,2.818018075E-1,6.842883079E0
9.899355375E0,1.960704432E0,7.246167845E0,1.312183020E0,7.620573114E0
9.909294375E0,1.866127181E0,7.247407454E0,1.196328774E0,7.578822336E0
9.919234375E0,1.864413070E0,6.167039053E0,2.185009472E-1,6.446405932E0
9.929173375E0,1.804423268E0,4.739908544E0,-4.564218132E-1,5.092248738E0
9.939113375E0,1.585453521E0,2.900125408E0,-1.053075938E0,3.468913256E0
9.949052375E0,1.710062656E0,4.617031646E-1,-2.042087588E0,2.703258370E0
9.958992375E0,2.043565618E0,-2.544021789E0,-3.117835958E0,4.513214858E0
9.968931375E0,1.692503175E0,-5.914874370E0,-3.038217346E0,6.861564723E0
9.978871375E0,1.445001062E0,-8.758035618E0,-1.952922081E0,9.088735919E0
9.988810375E0,2.076132270E0,-9.406995279E0,-1.143663926E0,9.701023274E0
9.998750375E0,2.873049876E0,-7.474291701E0,-1.623932000E0,8.170471661E0
1.000868937E1,2.917341950E0,-4.753955310E0,-2.525729359E0,6.122930993E0
1.001862838E1,2.471740555E0,-2.471788210E0,-3.206476824E0,4.743493644E0
1.002856837E1,1.739389074E0,-6.090781420E-1,-3.458151510E0,3.918579131E0
1.003850738E1,1.080399392E0,1.010345655E0,-3.059608215E0,3.398420754E0
1.004844737E1,5.514307353E-1,2.571115447E0,-2.556980388E0,3.667813954E0
1.005838637E1,6.453536101E-1,4.315053948E0,-2.266229929E0,4.916499765E0
1.006832637E1,1.176294825E0,5.614780059E0,-1.882363729E0,6.037608619E0
1.007826537E1,2.040269835E0,6.849862863E0,-1.352029456E0,7.274015803E0
1.008820537E1,2.533513465E0,8.257968872E0,-4.929354823E-1,8.651920351E0
1.009814437E1,2.405692162E0,9.756448275E0,4.483253199E-1,1.005865962E1
1.010808437E1,1.988360008E0,1.117901211E1,1.225847712E0,1.142044613E1
1.011802337E1,1.504489757E0,1.256294163E1,1.784434562E0,1.277791840E1
1.012796337E1,9.501915470E-1,1.393638944E1,2.381346402E0,1.417027259E1
1.013790237E1,3.522988361E-1,1.536906019E1,3.272296007E0,1.571750765E1
1.014784237E1,-4.827025625E-1,1.672989087E1,4.402869186E0,1.730628520E1
1.015778137E1,-1.839102812E0,1.797125359E1,5.152310325E0,1.878548792E1
1.016772138E1,-3.741970680E0,1.880516243E1,5.314681656E0,1.989679170E1
1.017766037E1,-6.071386206E0,1.937620385E1,5.020804106E0,2.091667947E1
1.018760038E1,-7.906507357E0,1.958356951E1,4.303793964E0,2.155346134E1
1.019753937E1,-9.061381565E0,1.907319763E1,3.274585776E0,2.136863158E1
1.020747937E1,-9.495550776E0,1.678297657E1,2.263551904E0,1.941539220E1
1.021741837E1,-7.362896980E0,1.344718916E1,1.451007614E0,1.539949906E1
1.022735837E1,-2.898943394E0,1.063959243E1,3.745626944E-1,1.103381607E1
1.023729737E1,-6.119500020E-1,7.863546694E0,-5.308639948E-1,7.905167044E0
1.024723637E1,1.704089141E-1,4.983637449E0,7.345623136E-1,5.040363401E0
1.025717637E1,1.569189490E0,5.584026629E-1,2.350964270E0,2.881180693E0
1.026711537E1,4.408426088E0,-6.140824816E0,8.268350018E0,1.120310502E1
1.027705537E1,7.932426894E0,-1.641037562E1,7.517302065E0,1.971632965E1
1.028699437E1,9.441999636E0,-4.027896602E1,-1.168240358E1,4.298866146E1
1.029693438E1,8.992707186E0,-5.861649387E1,-8.941767998E0,5.997263836E1
1.030687337E1,6.236209860E0,-4.994536776E1,-7.604504223E-1,5.033893482E1
1.031681338E1,1.016014165E0,-2.885316282E1,7.891729104E0,2.993019675E1
1.032675237E1,-1.890244022E-1,-1.712783717E1,9.883459740E0,1.977577591E1
1.033669237E1,-9.900756973E-1,-1.214927569E1,1.195685434E1,1.707487966E1
1.034663137E1,2.103945136E-2,-8.329947512E0,1.411223393E1,1.638730041E1
1.035657137E1,2.566842887E0,-5.162364028E0,1.297946570E1,1.420229611E1
1.036651037E1,4.884546732E0,-3.526061658E0,9.417308013E0,1.117933799E1
1.037645037E1,4.430811861E0,-2.936500352E0,6.880700494E0,8.694778166E0
1.038638937E1,2.104098625E0,-5.953079492E0,4.048484064E0,7.500440632E0
1.039632937E1,8.472059995E-2,-1.040416014E1,1.908248184E0,1.057804977E1
1.040626837E1,-1.574224235E0,-1.281394857E1,1.301643268E0,1.297573640E1
1.041620837E1,-2.405992416E0,-1.145424640E1,7.926555705E-1,1.173102139E1
1.042614737E1,-3.486758721E0,-7.792538692E0,2.632548049E-2,8.537086076E0
1.043608637E1,-3.765857141E0,-4.756909908E0,-7.040983200E-2,6.067522511E0
1.044602638E1,-3.386367583E0,-2.532998033E0,1.340155515E0,4.436167405E0
1.045596537E1,-2.677702587E0,-7.237227452E-1,2.963113369E0,4.058806056E0
1.046590538E1,-1.830195456E0,8.233113527E-1,4.230131911E0,4.682037268E0
1.047584412E1,-1.011967161E0,2.048529904E0,4.972506105E0,5.472327591E0
1.048578412E1,-9.415121593E-1,3.685093060E0,5.129268787E0,6.385589581E0
1.049572313E1,-9.919923415E-1,5.034411746E0,4.900519863E0,7.095381975E0
1.050566312E1,-8.742701295E-1,6.360711114E0,4.899861467E0,8.076610461E0
1.051560213E1,-6.032730263E-1,7.835025730E0,4.808688172E0,9.212765517E0
1.052554212E1,-6.227934442E-1,9.255693896E0,4.203391424E0,1.018450984E1
1.053548112E1,-9.251330850E-1,1.049917856E1,3.225887825E0,1.102247586E1
1.054542112E1,-1.216725763E0,1.132275889E1,1.813823837E0,1.153148938E1
1.055536012E1,-1.721753872E0,1.136178671E1,4.773900747E-1,1.150141448E1
1.056530012E1,-2.773161014E0,9.983587461E0,-9.825988626E-1,1.040807096E1
1.057523912E1,-3.442093594E0,6.569713991E0,-4.568226106E0,8.710788712E0
1.058517912E1,-2.144135973E0,1.538466758E0,-7.163542010E0,7.634168793E0
1.059511812E1,-2.065973683E-1,-1.759136583E0,-4.627418055E0,4.954820062E0
1.060505812E1,1.861345328E0,-3.341939853E0,-3.318780202E0,5.064333168E0
1.061499712E1,4.544273280E0,-3.621387645E0,-2.221917390E0,6.221075872E0
1.062493712E1,6.421198221E0,-3.556856604E0,-6.395450592E-1,7.368312791E0
1.063487612E1,6.609208424E0,-3.339595120E0,1.174796841E0,7.497644909E0
1.064481513E1,5.645863273E0,-3.204375919E0,2.546857688E0,6.973541512E0
1.065475512E1,4.610024635E0,-3.409479872E0,3.424455176E0,6.678605647E0
1.066469413E1,3.934173337E0,-3.774630303E0,4.312229158E0,6.951321750E0
1.067463412E1,3.793504238E0,-3.864644095E0,4.222778453E0,6.867168722E0
1.068457312E1,3.498985833E0,-3.988831939E0,2.619915140E0,5.917570231E0
1.069451312E1,3.033969344E0,-4.599292363E0,-9.533185283E-2,5.510675855E0
1.070445212E1,2.677790295E0,-4.841259502E0,-3.101690626E0,6.342620844E0
1.071439212E1,1.836573014E0,-4.491045198E0,-5.657702715E0,7.453327272E0
1.072433112E1,1.460116114E0,-2.846245655E0,-7.418534406E0,8.078843119E0
1.073427112E1,1.753779657E0,-8.827822137E-1,-7.561446204E0,7.812203032E0
1.074421012E1,1.903147365E0,4.264339292E-1,-6.028487524E0,6.336124810E0
1.075415012E1,1.871826170E0,1.352060446E0,-3.597637424E0,4.274903004E0
1.076408912E1,1.868506121E0,2.096068352E0,-9.825520849E-1,2.974932984E0
1.077402912E1,1.766967174E0,2.934867225E0,1.120275137E0,3.604252350E0
1.078396812E1,1.526194621E0,3.915573344E0,2.588445425E0,4.935689856E0
1.079390813E1,1.006721551E0,4.994941871E0,3.744927617E0,6.323560345E0
1.080384712E1,2.313623366E-1,6.077065022E0,3.821220918E0,7.182337859E0
1.081378713E1,-3.603960603E-1,7.102390659E0,3.496834935E0,7.924751917E0
1.082372612E1,-7.663942632E-1,8.078300307E0,2.829830182E0,8.593848665E0
1.083366612E1,-9.235478318E-1,8.988463862E0,2.106777527E0,9.278142850E0
1.084360512E1,-8.557411802E-1,9.699425059E0,1.526145651E0,9.855975852E0
1.085354412E1,-7.236838612E-1,1.034989915E1,1.180626369E0,1.044212667E1
1.086348412E1,-6.108735296E-1,1.108717457E1,1.440651026E0,1.119705684E1
1.087342312E1,-3.765606880E-3,1.214661637E1,3.437759346E0,1.262372737E1
1.088336312E1,9.342394656E-1,1.333954426E1,6.996274220E0,1.509185533E1
1.089330212E1,9.748314214E-1,1.365837422E1,8.970914029E0,1.637005746E1
1.090324212E1,6.974231386E-1,1.308554004E1,6.615047454E0,1.467912157E1
1.091318112E1,1.721125004E-1,1.318891180E1,4.930655243E0,1.408149063E1
1.092312113E1,-6.962045789E-1,1.267957488E1,5.983535299E0,1.403777100E1
1.093306012E1,-8.329560426E-1,1.088546200E1,4.375798917E0,1.176157791E1
1.094300013E1,-3.348375884E-1,8.073396832E0,3.959685323E0,8.998386548E0
1.095293912E1,1.364702126E-1,4.124349933E0,2.448707496E0,4.798442965E0
1.096287912E1,3.520883363E-1,-2.110389352E0,2.720636938E0,3.461152230E0
1.097281812E1,-6.789447677E-1,-1.390790415E1,1.092792448E1,1.770057336E1
1.098275812E1,-2.975229970E0,-3.419106728E1,1.907384082E1,3.926439199E1
1.099269712E1,3.155649902E0,-5.286359615E1,1.146333063E1,5.418418471E1
1.100263712E1,9.378639207E0,-5.882058509E1,-9.693362812E-1,5.957146730E1
1.101257612E1,6.025448726E0,-4.505143069E1,-1.019418897E1,4.658174458E1
1.102251512E1,3.761940091E0,-3.105895944E1,-3.611698809E0,3.149373783E1
1.103245512E1,6.429077345E0,-2.521850784E1,4.353910450E0,2.638679044E1
1.104239412E1,6.934707132E0,-2.222407386E1,6.050242090E0,2.405421068E1
1.105233413E1,6.472831475E0,-2.209929194E1,4.959453950E0,2.355573041E1
1.106227312E1,5.698848987E0,-2.172801012E1,3.144742506E0,2.268199085E1
1.107221313E1,4.356543159E0,-1.924921636E1,1.061633265E0,1.976458611E1
1.108215212E1,2.786379230E0,-1.574361294E1,-1.982176285E0,1.611068839E1
1.109209212E1,1.730203391E0,-1.204784637E1,-6.337226942E0,1.372241420E1
1.110203112E1,1.310757177E0,-8.054101020E0,-9.480740948E0,1.250883994E1
1.111197112E1,9.361401396E-3,-4.439416038E0,-8.653846421E0,9.726127713E0
1.112191012E1,-3.171870663E0,-9.235069013E-1,-5.337654197E0,6.277274952E0
1.113185012E1,-7.631462519E0,3.319243301E0,-2.755640709E0,8.766421846E0
1.114178912E1,-1.011475805E1,7.727810014E0,-2.212511559E0,1.291985238E1
1.115172912E1,-1.099011079E1,1.087937388E1,-2.668979126E0,1.569288886E1
1.116166812E1,-1.085512314E1,1.302035060E1,-2.828611622E0,1.718616513E1
1.117160812E1,-1.145333306E1,1.646694977E1,-2.109088347E0,2.016897436E1
1.118154712E1,-1.059735799E1,2.201526979E1,-1.053153633E0,2.445578118E1
1.119148712E1,-7.917165661E0,2.708088579E1,-1.766853154E0,2.826973041E1
1.120142613E1,-7.153133381E0,2.967890661E1,-1.612217689E0,3.057129472E1
1.121136512E1,-6.217323938E0,3.096084784E1,-8.710468519E-1,3.159094709E1
1.122130513E1,-1.749282124E0,2.999911184E1,1.367104163E0,3.008115145E1
1.123124412E1,3.409936832E-1,2.400060533E1,3.067151123E0,2.419819722E1
1.124118412E1,6.750227478E-1,1.477093330E1,1.678829169E0,1.488135053E1
1.125112312E1,-1.677316202E-1,8.064710793E0,-7.355201606E-1,8.099918764E0
1.126106312E1,-8.550976941E-1,3.982219323E0,-2.013006899E0,4.543287310E0
1.127100212E1,-1.743413128E0,4.762755954E-1,-2.803116007E0,3.335234194E0
1.128094212E1,-2.562855963E0,-4.577568787E0,-2.710076866E0,5.904818652E0
1.129088112E1,-1.950996593E0,-1.285740274E1,-2.147363051E0,1.318068135E1
1.130082112E1,5.209600174E0,-1.854278149E1,-1.451287111E0,1.931530258E1
1.131076012E1,1.254846978E1,-1.584391491E1,-3.185923861E0,2.046078797E1
1.132070012E1,1.048740227E1,-4.135835034E0,-4.981213778E0,1.232490278E1
1.133063913E1,2.642842657E0,4.363190566E0,-2.412058318E0,5.642700998E0
1.134057912E1,-1.511951681E0,7.229834232E0,5.562964958E-1,7.407156452E0
1.135051813E1,-3.501904471E0,9.052211961E0,3.159779205E0,1.020735426E1
1.136045812E1,-4.439947258E0,1.011354417E1,5.135410702E0,1.218069581E1
1.137039712E1,-4.054961902E0,1.061174214E1,6.200464661E0,1.294208443E1
1.138033712E1,-2.721510512E0,1.138793897E1,7.117584064E0,1.370225443E1
1.139027612E1,-1.525034826E0,1.261723420E1,7.175548682E0,1.459482199E1
1.140021612E1,-7.574491927E-1,1.402144421E1,6.728989806E0,1.557093224E1
1.141015512E1,-7.005768344E-1,1.552158130E1,6.644086481E0,1.689834841E1
1.142009412E1,-7.449589553E-1,1.661577895E1,6.266584976E0,1.777383361E1
1.143003412E1,-7.823957536E-1,1.704107969E1,4.540851781E0,1.765304152E1
1.143997312E1,-1.082169929E0,1.724779981E1,1.711171288E0,1.736622576E1
1.144991312E1,-2.663702891E0,1.789333710E1,-7.442336082E-3,1.809051909E1
1.145985213E1,-4.999196890E0,1.830426187E1,1.385532924E-1,1.897517244E1
1.146979212E1,-7.409878188E0,1.891544677E1,-1.356738803E0,2.036028392E1
1.147973187E1,-1.119529660E1,1.767403377E1,-8.403092086E0,2.254591077E1
1.148967187E1,-1.429139261E1,6.668968722E0,-1.048061599E1,1.893574288E1
1.149961087E1,-1.052010458E1,-7.292819270E0,7.980526675E0,1.508464846E1
1.150955087E1,-4.438091936E0,-1.552798049E1,1.343222146E1,2.100569950E1
1.151948987E1,6.081481424E-1,-1.735278423E1,8.389333588E-1,1.738369276E1
1.152942987E1,3.829260547E0,-1.577765894E1,-7.466427780E0,1.787023508E1
1.153936887E1,9.802408560E0,-1.469595913E1,-5.173869009E0,1.840726348E1
1.154930888E1,1.646499680E1,-1.592535961E1,-5.242474683E-1,2.291261735E1
1.155924787E1,1.929453228E1,-1.982713878E1,-2.758599401E-1,2.766713767E1
1.156918788E1,1.376760605E1,-1.802945677E1,-2.884677064E0,2.286765510E1
1.157912687E1,9.011746305E-1,-1.165946963E1,-2.229474331E0,1.190486890E1
1.158906587E1,-7.533670176E0,-8.405823905E0,-5.767225742E-1,1.130250728E1
1.159900587E1,-1.130485939E1,-5.847519123E0,-1.233054990E0,1.278724952E1
1.160894487E1,-9.580978011E0,-5.115754702E0,-3.585607363E0,1.143777365E1
1.161888487E1,-5.799534532E0,-6.178203142E0,-2.526835653E0,8.842493611E0
1.162882387E1,-3.073019974E0,-7.881752585E0,-6.990438406E-1,8.488470878E0
1.163876387E1,-1.642629203E0,-8.506574939E0,1.193511732E-1,8.664542262E0
1.164870287E1,-1.636718984E0,-8.183806881E0,3.233972186E-1,8.352133252E0
1.165864287E1,-1.936577651E0,-7.659935535E0,-7.753157987E-1,7.938895389E0
1.166858187E1,-1.501965660E0,-6.899589924E0,-2.266171603E0,7.415913679E0
1.167852188E1,-1.142910220E0,-5.876385657E0,-2.883583635E0,6.644787938E0
1.168846087E1,-1.704456638E0,-4.723776661E0,-2.178361773E0,5.473983776E0
1.169840088E1,-2.933315081E0,-3.884870784E0,-1.037911038E0,4.977330378E0
1.170833987E1,-3.740112143E0,-3.662680682E0,-7.263422978E-1,5.285001585E0
1.171827988E1,-3.494552767E0,-3.764799380E0,-9.783071525E-1,5.229024602E0
1.172821887E1,-2.542585713E0,-3.863162996E0,-1.172927340E0,4.771218815E0
1.173815887E1,-1.613634469E0,-3.809956841E0,-1.312732658E0,4.340835676E0
1.174809787E1,-1.020994750E0,-3.581754633E0,-1.331661411E0,3.955340522E0
1.175803687E1,-9.848743066E-1,-3.259243852E0,-1.344725699E0,3.660728765E0
1.176797687E1,-1.246574922E0,-2.762883071E0,-1.300631846E0,3.298350360E0
1.177791587E1,-1.511392980E0,-2.011774891E0,-1.231651658E0,2.801519723E0
1.178785587E1,-1.597712647E0,-1.031833003E0,-1.007040370E0,2.152090926E0
1.179779487E1,-1.636455275E0,-2.091133887E-1,-1.126333948E0,1.997584150E0
1.180773487E1,-1.448390693E0,5.286906213E-1,-1.330291847E0,2.036424752E0
1.181767387E1,-1.020887015E0,9.527184212E-1,-1.440131939E0,2.005956802E0
1.182761388E1,-6.874083200E-1,1.048160768E0,-1.685760897E0,2.100704881E0
1.183755287E1,-5.449423724E-1,9.136081499E-1,-1.882296925E0,2.162101699E0
1.184749288E1,-4.956661320E-1,6.424020088E-1,-1.745188635E0,1.924590509E0
1.185743187E1,-3.413222967E-1,4.190588361E-1,-1.466797581E0,1.563203878E0
1.186737187E1,1.135926890E-1,3.964213407E-1,-1.397896185E0,1.457452202E0
1.187731087E1,8.765765637E-1,5.004988557E-1,-1.458217231E0,1.773494592E0
1.188725087E1,1.677295737E0,7.413801670E-1,-1.411851150E0,2.314365833E0
1.189718987E1,2.325991104E0,1.188101596E0,-1.314457733E0,2.923973179E0
1.190712987E1,2.793039793E0,1.899572085E0,-1.292267257E0,3.616545321E0
1.191706887E1,3.025995496E0,2.755582822E0,-1.064979188E0,4.228955675E0
1.192700787E1,3.055681225E0,3.584748992E0,-6.553437974E-1,4.755742694E0
1.193694787E1,3.084988932E0,4.251087162E0,-7.016541839E-2,5.252982197E0
1.194688687E1,3.091358011E0,4.702353047E0,3.525642997E-1,5.638521093E0
1.195682688E1,3.024544802E0,4.968485559E0,2.352422565E-1,5.821431004E0
1.196676587E1,3.065173595E0,5.178711673E0,-3.043529834E-1,6.025526906E0
1.197670588E1,3.199092960E0,5.062925693E0,-9.313037248E-1,6.060918987E0
1.198664487E1,3.014396374E0,4.636045037E0,-1.344369750E0,5.690942726E0
1.199658487E1,2.170465400E0,4.070726872E0,-1.704815365E0,4.918143222E0
1.200652387E1,6.123398651E-1,3.671573128E0,-2.164407685E0,4.305818153E0
1.201646387E1,-9.612188110E-1,3.590050077E0,-2.380328110E0,4.413429853E0
1.202640287E1,-2.093900058E0,3.349188647E0,-2.186318371E0,4.514584152E0
1.203634287E1,-2.379342708E0,3.470829443E0,-1.927531132E0,4.628531625E0
1.204628187E1,-2.313840151E0,3.988398660E0,-1.490636387E0,4.845944383E0
1.205622187E1,-1.932942583E0,4.824851046E0,-1.218387761E0,5.338531950E0
1.206616087E1,-1.328990695E0,5.908950555E0,-8.964285187E-1,6.122540079E0
1.207610087E1,-8.361210673E-1,7.243322589E0,-6.159245738E-1,7.317389128E0
1.208603988E1,-3.467368184E-1,8.582012208E0,-4.882940356E-1,8.602882715E0
1.209597987E1,2.689979401E-1,9.985577853E0,5.400488377E-2,9.989346399E0
1.210591888E1,8.863285500E-1,1.159098470E1,1.047029332E0,1.167187967E1
1.211585787E1,1.677389585E0,1.342724665E1,2.235860075E0,1.371508872E1
1.212579787E1,2.211232188E0,1.526768935E1,3.632678618E0,1.584891920E1
1.213573687E1,2.083795923E0,1.700982866E1,4.803422170E0,1.779745322E1
1.214567687E1,5.872668582E-1,1.839278872E1,5.368581290E0,1.916927814E1
1.215561587E1,-2.134942688E0,1.924871818E1,4.837007407E0,1.996165756E1
1.216555587E1,-5.447666636E0,1.938209083E1,3.333186572E0,2.040717152E1
1.217549487E1,-8.735429698E0,1.831239184E1,8.044716239E-1,2.030513732E1
1.218543487E1,-1.113644204E1,1.553181627E1,-2.310175847E0,1.925083298E1
1.219537387E1,-1.291718935E1,1.127781953E1,-4.716406830E0,1.778447321E1
1.220531387E1,-1.315655097E1,7.264160897E0,-5.349700631E0,1.595249710E1
1.221525287E1,-1.023807232E1,4.006513335E0,-4.908401910E0,1.204004498E1
1.222519287E1,-5.293101922E0,1.036736478E0,-3.109446958E0,6.225785964E0
1.223513188E1,-3.414397527E-1,-2.059578803E0,2.450631230E0,3.219322813E0
1.224507187E1,7.295872686E0,-6.682993854E0,1.187934716E1,1.545998234E1
1.225501088E1,1.506235034E1,-1.291771560E1,2.024792313E1,2.834995882E1
1.226495087E1,2.615749583E1,-3.010634510E1,2.252138139E0,3.994594760E1
1.227488987E1,3.181032197E1,-5.120019895E1,-2.306374806E1,6.453908452E1
1.228482887E1,1.612056773E1,-4.481235909E1,-1.877999368E1,5.119285491E1
1.229476887E1,1.042766712E0,-2.155359469E1,1.507940784E0,2.163142834E1
1.230470787E1,-2.491173777E0,-1.605560049E1,1.245021901E1,2.046939685E1
1.231464787E1,-4.290455004E0,-2.087688473E1,1.596595799E1,2.663013584E1
1.232458687E1,-4.571282738E0,-2.046702766E1,1.430097269E1,2.538333444E1
1.233452687E1,-3.191883928E0,-1.472920406E1,9.672505063E0,1.790795715E1
1.234446587E1,-3.022606157E0,-8.280040357E0,8.422322994E0,1.219142079E1
1.235440587E1,-7.257106816E0,-2.744679519E0,1.192634942E1,1.422802430E1
1.236434488E1,-9.796067255E0,2.686088079E-1,1.206861452E1,1.554627096E1
1.237428487E1,-8.558772449E0,1.400460774E-1,7.906236631E0,1.165250086E1
1.238422388E1,-5.419756706E0,-2.062923995E0,3.429556872E0,6.737304988E0
1.239416387E1,-4.528229982E-1,-5.412848221E0,7.343401194E-1,5.481170490E0
1.240410287E1,3.437345655E0,-7.844454950E0,8.212893125E-1,8.603797694E0
1.241404187E1,3.641170530E0,-6.958562018E0,1.947834418E0,8.091586192E0
1.242398187E1,2.294519635E0,-3.982743233E0,3.061289290E0,5.522549786E0
1.243392087E1,1.756451834E0,-1.689300363E0,4.641815654E0,5.242643544E0
1.244386087E1,1.622024931E0,-9.211645067E-2,5.866562920E0,6.087364849E0
1.245379987E1,1.150802792E0,1.429806195E0,6.055001138E0,6.327063427E0
1.246373987E1,6.035329351E-1,2.859576722E0,5.587451928E0,6.305636374E0
1.247367887E1,-1.926394433E-2,4.462103820E0,5.005187947E0,6.705419300E0
1.248361862E1,-9.636921832E-1,5.928924059E0,4.255907607E0,7.361629757E0
1.249355762E1,-2.385832386E0,7.003741699E0,1.362947377E0,7.523444657E0
1.250349762E1,-4.451342897E0,7.596126625E0,-5.483214784E0,1.037213756E1
1.251343662E1,-5.712245543E0,5.178360255E0,-7.794888103E0,1.096382436E1
1.252337662E1,-5.992065802E0,9.947669184E-1,-5.589770933E0,8.254692780E0
1.253331562E1,-5.645006071E0,-1.728840405E-1,-4.288778315E0,7.091516190E0
1.254325562E1,-4.168304622E0,8.179015088E-1,-2.360420387E0,4.859558694E0
1.255319462E1,-1.550993248E0,2.334704332E0,-5.059268260E-1,2.848225119E0
1.256313462E1,1.199483493E0,3.662035734E0,6.986639178E-1,3.916298972E0
1.257307362E1,3.034472204E0,4.181791225E0,1.565786119E0,5.398804088E0
1.258301263E1,4.642398329E0,4.513790867E0,2.777970057E0,7.045799307E0
1.259295262E1,5.588621956E0,4.160443625E0,4.421099635E0,8.251551885E0
1.260289162E1,5.869975355E0,3.071260546E0,6.147194188E0,9.037546591E0
1.261283162E1,5.665947289E0,1.820039427E0,7.092714686E0,9.258623214E0
1.262277062E1,4.892587238E0,8.711713976E-1,6.679113057E0,8.325076619E0
1.263271062E1,4.031211973E0,2.691590309E-2,5.023159364E0,6.440770485E0
1.264264962E1,3.508605088E0,-1.257040268E0,2.420598176E0,4.444069692E0
1.265258962E1,2.528782775E0,-2.848290426E0,-7.303979266E-1,3.878270466E0
1.266252862E1,1.221840030E0,-4.383433042E0,-4.465936085E0,6.375889225E0
1.267246862E1,3.005796289E-1,-5.476787524E0,-7.967292672E0,9.672812529E0
1.268240762E1,1.240031595E0,-5.147569987E0,-9.514520313E0,1.088858356E1
1.269234762E1,1.488618952E0,-5.280076665E0,-8.859728639E0,1.042065197E1
1.270228662E1,2.534091755E0,-3.692778640E0,-7.035020210E0,8.339648941E0
1.271222663E1,3.577011079E0,-2.015684924E0,-4.553070123E0,6.130941324E0
1.272216562E1,3.856952668E0,-9.856756675E-1,-2.148519630E0,4.523690640E0
1.273210462E1,3.735179724E0,-8.772226810E-2,-3.933591539E-1,3.756859618E0
1.274204462E1,2.880937185E0,7.054922962E-1,3.619297850E-1,2.988061515E0
1.275198362E1,1.823001042E0,1.615947627E0,4.969911110E-1,2.486286327E0
1.276192362E1,1.192898651E0,2.827375520E0,3.601113009E-1,3.089779875E0
1.277186262E1,8.085886484E-1,3.896336589E0,6.044847887E-2,3.979812613E0
1.278180262E1,4.634187742E-1,4.866229452E0,-2.672996894E-1,4.895548505E0
1.279174162E1,8.731669061E-2,6.568823460E0,-4.078443150E-1,6.582051567E0
1.280168162E1,4.054862791E-1,8.310327764E0,1.996005535E-1,8.322608188E0
1.281162062E1,7.994430184E-1,9.736367183E0,1.060097859E0,9.826482714E0
1.282156062E1,1.054100662E0,1.120780029E1,2.560577595E0,1.154480286E1
1.283149962E1,1.211145473E0,1.297336004E1,5.340825727E0,1.408188068E1
1.284143963E1,1.117952257E0,1.488394945E1,9.524957592E0,1.770611718E1
1.285137862E1,2.845047560E-1,1.682303351E1,1.406847687E1,2.193210982E1
1.286131863E1,-6.592267871E-1,1.830748369E1,1.430334900E1,2.324186592E1
1.287125762E1,-2.409770595E0,1.878960767E1,1.086770284E1,2.183948982E1
1.288119762E1,-5.861890994E0,1.894669195E1,8.829336566E0,2.170935480E1
1.289113662E1,-8.276519163E0,1.938864673E1,3.412233911E0,2.135564870E1
1.290107562E1,-7.304047678E0,1.762891080E1,-3.584682333E0,1.941590987E1
1.291101562E1,-5.023801973E0,1.121742247E1,-2.651370821E0,1.257373931E1
1.292095462E1,-7.347739828E-1,2.036901546E0,1.479365441E0,2.622476467E0
1.293089462E1,2.161857714E0,-8.492818780E0,9.427032518E0,1.287130691E1
1.294083362E1,3.203554970E0,-2.569350290E1,2.218530916E1,3.409702037E1
1.295077362E1,6.167195174E0,-5.721209558E1,1.218782053E1,5.882007435E1
1.296071262E1,1.664600789E1,-7.008988172E1,-1.255779608E0,7.205038570E1
1.297065262E1,2.063534795E1,-5.367193863E1,-8.718638833E0,5.815934357E1
1.298059162E1,1.095876855E1,-3.435979921E1,-3.870146325E0,3.627214417E1
1.299053163E1,6.381841198E0,-2.495509078E1,4.276951736E0,2.611085539E1
1.300047062E1,6.500544353E0,-1.957928467E1,7.201005705E0,2.185085692E1
1.301041063E1,5.468123120E0,-1.738890014E1,9.572799511E0,2.058914056E1
1.302034962E1,4.692580888E0,-1.858063988E1,1.036699173E1,2.178841461E1
1.303028862E1,4.049418741E0,-1.932057344E1,9.042871034E0,2.171303449E1
1.304022862E1,4.225907298E0,-1.791855146E1,6.105982427E0,1.939628316E1
1.305016762E1,4.164724957E0,-1.559816813E1,6.912273558E-1,1.615938050E1
1.306010762E1,3.899618631E0,-1.274530927E1,-7.349871722E0,1.522072759E1
1.307004662E1,2.767088681E0,-9.429228147E0,-1.346860166E1,1.667244295E1
1.307998662E1,2.437554736E-1,-5.681317281E0,-1.219662059E1,1.345712958E1
1.308992562E1,-2.201943301E0,-1.691901789E0,-7.772741189E0,8.253883423E0
1.309986562E1,-4.312404282E0,2.447928062E0,-5.727606179E0,7.575926018E0
1.310980462E1,-6.331907145E0,6.391273341E0,-4.313161204E0,9.977213168E0
1.311974463E1,-6.167977531E0,9.640912557E0,-3.343161922E0,1.192341702E1
1.312968362E1,-5.911381828E0,1.192089046E1,-2.911364926E0,1.362087039E1
1.313962363E1,-7.410017937E0,1.507948034E1,-1.799630306E0,1.689786266E1
1.314956262E1,-8.218786095E0,2.010315777E1,-1.113520725E-1,2.171860484E1
1.315950262E1,-7.683237274E0,2.540409613E1,4.409233296E-1,2.654420179E1
1.316944162E1,-9.653434954E0,2.853940123E1,-2.773205928E-1,3.012910778E1
1.317938062E1,-1.101295352E1,2.983950624E1,2.595929861E-2,3.180694817E1
1.318932062E1,-9.165821022E0,2.962246695E1,1.740719608E0,3.105693043E1
1.319925962E1,-6.223963451E0,2.600433620E1,2.212205749E0,2.683015238E1
1.320919962E1,-4.072644759E0,1.890079715E1,1.419052581E0,1.938660049E1
1.321913862E1,-2.570990902E0,1.140670619E1,-3.423609084E-1,1.169786952E1
1.322907862E1,-2.149259888E0,6.477446682E0,-2.261979588E0,7.189797302E0
1.323901762E1,-2.390735861E0,2.961121223E0,-3.292430894E0,5.032291530E0
1.324895763E1,-2.659967982E0,1.053609788E-2,-3.126680456E0,4.105078727E0
1.325889662E1,-2.165653434E0,-3.960705078E0,-2.343670307E0,5.086258941E0
1.326883663E1,-1.092499620E-1,-9.835683310E0,-2.324374495E0,1.010719143E1
1.327877562E1,6.380686957E0,-1.408723591E1,-2.218667946E0,1.562324771E1
1.328871562E1,1.370520106E1,-1.112416873E1,-2.158734716E0,1.778313251E1
1.329865462E1,1.256454026E1,-1.045799078E0,-2.802021409E0,1.291559877E1
1.330859462E1,6.068307647E0,3.471572624E0,-2.956105481E0,7.590436997E0
1.331853362E1,2.012115638E0,4.534199404E0,-1.756580911E0,5.262428154E0
1.332847362E1,-8.687889495E-1,5.074839395E0,2.537305677E-1,5.154916908E0
1.333841262E1,-3.481669889E0,5.851864189E0,2.594382688E0,7.286779894E0
1.334835162E1,-4.912614244E0,7.137233632E0,3.924808436E0,9.511992635E0
1.335829162E1,-4.442097864E0,8.284316425E0,4.125638659E0,1.026562353E1
1.336823062E1,-2.718928089E0,9.382292547E0,3.924955201E0,1.052735754E1
1.337817062E1,-1.599497656E0,1.055054986E1,4.371540974E0,1.153181970E1
1.338810962E1,-1.259617428E0,1.205558575E1,5.107394353E0,1.315329848E1
1.339804963E1,-1.185819135E0,1.372043773E1,6.167908534E0,1.508972082E1
1.340798862E1,-1.706511058E0,1.552367226E1,7.093067858E0,1.715249813E1
1.341792863E1,-2.794342260E0,1.700467142E1,6.225389003E0,1.832273634E1
1.342786762E1,-3.743848221E0,1.796626942E1,2.160699965E0,1.847895724E1
1.343780762E1,-5.528519011E0,1.888774617E1,-9.163124871E-1,1.970155086E1
1.344774662E1,-7.932461393E0,1.948322895E1,-1.869941905E0,2.111911070E1
1.345768662E1,-1.116677155E1,1.884317986E1,-6.903791149E0,2.296572547E1
1.346762562E1,-1.301075532E1,9.248929837E0,-1.286328270E1,2.050089020E1
1.347756537E1,-1.034192706E1,-6.061990900E0,5.140872002E0,1.304345636E1
1.348750437E1,-5.468445886E0,-1.533920197E1,1.698652517E1,2.353161819E1
1.349744337E1,6.227031778E-1,-1.823533957E1,4.249627697E0,1.873431889E1
1.350738337E1,5.125270461E0,-1.857769171E1,-5.950867490E0,2.016957735E1
1.351732237E1,1.320294161E1,-2.490326106E1,-3.412578896E0,2.839253024E1
1.352726237E1,1.923116718E1,-3.505017529E1,-2.430662988E0,4.005322335E1
1.353720137E1,1.739685703E1,-2.754495591E1,5.048322272E-1,3.258266542E1
1.354714137E1,6.624011235E0,-1.335681810E1,9.950850070E-2,1.490946064E1
1.355708037E1,-4.859876160E0,-7.453520637E0,-8.194896126E-1,8.935598995E0
1.356702037E1,-1.181638434E1,-4.246633338E0,-8.844800989E-1,1.258741986E1
1.357695938E1,-1.222818620E1,-3.182596210E0,-2.705972121E0,1.292206413E1
1.358689937E1,-8.272985691E0,-4.060297778E0,-2.920826306E0,9.667447264E0
1.359683838E1,-5.455539912E0,-6.316606736E0,-1.036210667E0,8.410479709E0
1.360677837E1,-3.527694493E0,-8.346992730E0,-1.145118713E-1,9.062561947E0
1.361671738E1,-2.227808898E0,-9.105163177E0,4.351190910E-2,9.373847782E0
1.362665637E1,-1.710475470E0,-8.560461709E0,-8.981674075E-2,8.730137345E0
1.363659637E1,-6.513673984E-1,-7.163920909E0,-6.183560653E-1,7.220000450E0
1.364653537E1,8.677481452E-1,-5.903860554E0,-1.575251591E0,6.171707532E0
1.365647537E1,9.760735162E-1,-5.075454522E0,-2.363305988E0,5.683148186E0
1.366641437E1,-1.127081515E-1,-4.391154875E0,-1.979936802E0,4.818204437E0
1.367635437E1,-1.085081111E0,-3.758069819E0,-9.920942292E-1,4.035435632E0
1.368629337E1,-1.548274585E0,-3.218350765E0,-3.177844763E-1,3.585515696E0
1.369623337E1,-1.687081637E0,-2.652187092E0,-4.196640229E-1,3.171192002E0
1.370617237E1,-1.630375924E0,-2.103354567E0,-9.198558998E-1,2.815734534E0
1.371611237E1,-1.618509877E0,-1.639467468E0,-1.329755073E0,2.660014352E0
1.372605138E1,-1.793953244E0,-1.228567836E0,-1.342082173E0,2.555157868E0
1.373599137E1,-2.223689535E0,-8.945579213E-1,-1.102359268E0,2.638223830E0
1.374593038E1,-2.519757013E0,-3.681272489E-1,-9.204757778E-1,2.707760834E0
1.375587037E1,-2.659270117E0,1.313845968E-1,-9.854756927E-1,2.839038888E0
1.376580937E1,-2.494331565E0,6.063492465E-1,-9.831813184E-1,2.748816995E0
1.377574837E1,-2.047172180E0,1.083806564E0,-7.807751977E-1,2.444414145E0
1.378568837E1,-1.582741290E0,1.544684687E0,-6.902848577E-1,2.316811161E0
1.379562737E1,-1.257385985E0,1.948214487E0,-6.800546423E-1,2.416409220E0
1.380556737E1,-1.070574900E0,2.300405150E0,-6.693513141E-1,2.624123788E0
1.381550637E1,-8.586047079E-1,2.512391276E0,-5.165571371E-1,2.704837009E0
1.382544637E1,-6.199922624E-1,2.788997905E0,-4.697501028E-1,2.895438633E0
1.383538537E1,-5.313958356E-1,3.310198828E0,-6.231693470E-1,3.410005550E0
1.384532537E1,-5.244037351E-1,3.926647970E0,-9.030216929E-1,4.063128319E0
1.385526438E1,-6.691040500E-1,4.784310545E0,-1.093319472E0,4.953047051E0
1.386520437E1,-8.844580257E-1,5.697608793E0,-1.060031201E0,5.862480542E0
1.387514338E1,-1.026682483E0,6.625547299E0,-8.121718953E-1,6.753634364E0
1.388508337E1,-9.831812453E-1,7.386605101E0,-5.378264572E-1,7.471133620E0
1.389502237E1,-8.140104792E-1,7.850987459E0,-5.081228940E-1,7.909412495E0
1.390496137E1,-5.920063189E-1,7.881404091E0,-4.187122424E-1,7.914690257E0
1.391490137E1,-2.971253863E-1,7.480369881E0,-1.520370356E-1,7.487812252E0
1.392484037E1,-5.469076216E-2,6.498115420E0,-1.256755216E-1,6.499560710E0
1.393478037E1,1.139218873E-1,5.105940735E0,-2.302142358E-1,5.112397440E0
1.394471937E1,2.280583674E-1,3.634141592E0,-1.989333862E-1,3.646720475E0
1.395465937E1,3.571958792E-1,2.271717541E0,-1.748967983E-1,2.306269362E0
1.396459837E1,4.914637381E-1,9.183654445E-1,-3.803964615E-1,1.108888256E0
1.397453837E1,7.510181326E-1,-6.368658650E-1,-7.024763024E-1,1.209586426E0
1.398447738E1,1.284721864E0,-2.289059213E0,-9.247228298E-1,2.783058508E0
1.399441737E1,2.075480306E0,-3.891451240E0,-1.511270188E0,4.662075593E0
1.400435638E1,2.951173355E0,-5.166596827E0,-2.244047785E0,6.359158545E0
1.401429637E1,3.739360483E0,-5.871560535E0,-2.804984778E0,7.505063593E0
1.402423537E1,4.111355665E0,-5.916143800E0,-3.031416450E0,7.816232376E0
1.403417437E1,3.729339233E0,-5.195959205E0,-2.735543829E0,6.956231970E0
1.404411437E1,2.957708496E0,-4.211817262E0,-2.122311240E0,5.567014388E0
1.405405337E1,2.747684695E0,-3.480838707E0,-1.556238785E0,4.699775361E0
1.406399337E1,3.053620082E0,-2.951939925E0,-1.393313868E0,4.469884614E0
1.407393237E1,3.537007938E0,-2.437010726E0,-1.393656369E0,4.515719710E0
1.408387237E1,3.913097925E0,-1.873426845E0,-1.631863164E0,4.635195886E0
1.409381137E1,3.900381108E0,-1.281733060E0,-2.143462520E0,4.631440812E0
1.410375137E1,3.529058356E0,-3.068794191E-2,-2.696402568E0,4.441371571E0
1.411369037E1,2.748110080E0,1.291601406E0,-3.293020293E0,4.479322031E0
1.412363037E1,1.637478245E0,2.565184032E0,-4.043493465E0,5.060765112E0
1.413356938E1,9.937151505E-1,3.672444363E0,-4.931567409E0,6.228537108E0
1.414350937E1,3.984849693E-1,4.662684367E0,-5.300134953E0,7.070420518E0
1.415344838E1,-2.571241455E-1,5.592950649E0,-5.075801847E0,7.557180306E0
1.416338837E1,-8.508111003E-1,6.506990908E0,-4.220722572E0,7.802519416E0
1.417332737E1,-1.732515087E0,7.297266662E0,-3.047644227E0,8.095668262E0
1.418326737E1,-2.891090291E0,8.062106443E0,-1.958710240E0,8.785926768E0
1.419320637E1,-3.750815471E0,9.028093951E0,-7.292729223E-1,9.803414511E0
1.420314537E1,-4.356812423E0,1.023705724E1,1.024961940E0,1.117272135E1
1.421308537E1,-4.819789403E0,1.175972599E1,2.934979491E0,1.304360494E1
1.422302437E1,-5.001938649E0,1.363702837E1,4.465733771E0,1.519640455E1
1.423296437E1,-4.921219591E0,1.545275957E1,5.366678606E0,1.708237161E1
1.424290337E1,-4.938741358E0,1.725989302E1,6.462909919E0,1.908046850E1
1.425284337E1,-4.952760057E0,1.913150957E1,7.480593245E0,2.113063572E1
1.426278238E1,-5.206018755E0,2.110535416E1,8.126075567E0,2.320714781E1
1.427272237E1,-5.619622139E0,2.281323463E1,8.038328741E0,2.483220805E1
1.428266138E1,-6.128456785E0,2.330653381E1,6.512242877E0,2.496320909E1
1.429260137E1,-5.891709455E0,2.205089571E1,4.082364585E0,2.318663284E1
1.430254037E1,-5.326019992E0,1.816012333E1,1.677401279E0,1.899921691E1
1.431248037E1,-2.937248503E0,1.286142796E1,-2.971859050E-1,1.319591139E1
1.432241937E1,2.938509455E-1,7.644269675E0,4.917800725E-2,7.650073576E0
1.433235837E1,2.111925124E0,2.234188356E0,-2.256095535E-1,3.082649025E0
1.434229837E1,3.560407325E0,-5.208954057E0,-2.694808617E0,6.860881589E0
1.435223737E1,8.584824134E0,-1.376324871E1,9.727158403E0,1.891411724E1
1.436217737E1,1.676420467E1,-3.033563079E1,1.258895005E1,3.687506905E1
1.437211637E1,2.189994633E1,-6.356713490E1,-6.044177942E0,6.750496556E1
1.438205637E1,1.923855221E1,-6.964160142E1,-1.736703740E1,7.430806502E1
1.439199538E1,5.294014088E0,-3.354254323E1,-9.549926373E0,3.527506039E1
1.440193537E1,1.073047103E0,-1.199847716E1,2.307750715E0,1.226542285E1
1.441187438E1,-1.846778452E0,-7.071616178E0,1.064553671E1,1.291300886E1
1.442181437E1,-2.771475554E0,-1.086989438E1,1.650942044E1,1.995987584E1
1.443175337E1,-2.168885190E0,-1.388747164E1,1.664563249E1,2.178630332E1
1.444169237E1,-3.057829784E0,-1.209009719E1,1.362458082E1,1.847024568E1
1.445163237E1,-3.610652157E0,-9.094262213E0,1.073096687E1,1.452226099E1
1.446157137E1,-4.664290889E0,-5.733462165E0,8.715725750E0,1.142768888E1
1.447151137E1,-5.941706657E0,-3.606898245E0,5.257392976E0,8.715146233E0
1.448145025E1,-5.387142692E0,-3.412806938E0,1.390421104E0,6.527007616E0
1.449139025E1,-2.387828041E0,-5.051035380E0,-1.871137075E0,5.892014521E0
1.450132925E1,2.000671613E-1,-6.088303370E0,-2.098185629E0,6.442813650E0
1.451126925E1,5.836889470E-1,-5.151851903E0,-5.481168258E-1,5.213703374E0
1.452120825E1,4.444670346E-1,-3.502391544E0,1.562329245E0,3.860721453E0
1.453114825E1,9.790545729E-1,-2.159023569E0,3.433759850E0,4.172605581E0
1.454108725E1,1.105088675E0,-5.768880504E-1,4.880666227E0,5.037352839E0
1.455102725E1,1.318620805E0,8.890100831E-1,5.432826988E0,5.660804610E0
1.456096625E1,1.759241541E0,2.370672895E0,5.444772264E0,6.193590702E0
1.457090525E1,2.148191602E0,3.871663093E0,5.204057599E0,6.832767942E0
1.458084525E1,2.150886583E0,5.122278441E0,4.809602677E0,7.348219337E0
1.459078425E1,2.066317719E0,6.115035671E0,4.076660627E0,7.634297089E0
1.460072425E1,1.864817405E0,6.970641780E0,3.077328202E0,7.844573898E0
1.461066325E1,1.589507103E0,7.830727442E0,2.077147931E0,8.255989864E0
1.462060325E1,1.044252782E0,8.498033327E0,8.884177601E-1,8.607921957E0
1.463054225E1,7.240545016E-2,8.585514690E0,-1.774103336E-1,8.587652733E0
1.464048225E1,-1.078226859E0,7.706500422E0,-5.870236140E-1,7.803673406E0
1.465042125E1,-9.505374098E-1,6.122903100E0,-6.963905203E-1,6.235256490E0
1.466036125E1,-1.919897811E-1,4.875846367E0,-3.376778734E-1,4.891294739E0
1.467030025E1,3.403634995E-1,4.116901749E0,4.365045887E-1,4.153945544E0
1.468024025E1,7.076926035E-1,3.499541026E0,1.310189704E0,3.803184623E0
1.469017925E1,6.939098391E-1,2.897226359E0,2.032617876E0,3.606517277E0
1.470011925E1,3.032631720E-1,2.336361433E0,2.620994536E0,3.524225540E0
1.471005825E1,-1.715611445E-1,1.622418741E0,2.961552163E0,3.381193134E0
1.471999725E1,-7.781828347E-1,3.718221045E-1,2.847604548E0,2.975343991E0
1.472993725E1,-1.317484106E0,-1.530687037E0,2.064698625E0,2.888208369E0
1.473987625E1,-1.307145059E0,-3.438825878E0,1.692488265E-1,3.682770260E0
1.474981625E1,-1.854089957E-2,-4.588817076E0,-2.375492170E0,5.167257394E0
1.475975525E1,2.385556105E0,-3.681888785E0,-4.730488095E0,6.451720745E0
1.476969525E1,2.974176301E0,-1.281472859E0,-4.776437854E0,5.770810683E0
1.477963425E1,2.112668889E0,8.674531531E-1,-2.905268034E0,3.695460345E0
1.478957425E1,1.565438209E0,2.242636998E0,-5.784171339E-1,2.795457722E0
1.479951325E1,8.232210863E-1,2.775513057E0,1.684195159E0,3.349280373E0
1.480945325E1,1.788860612E-2,2.672351800E0,2.801482880E0,3.871703821E0
1.481939225E1,-2.834221075E-1,2.119085332E0,3.934363371E0,4.477729991E0
1.482933225E1,-8.525126401E-1,1.193518456E0,4.876848580E0,5.092633521E0
1.483927125E1,-1.134519758E0,1.540934283E-1,4.543456131E0,4.685496076E0
1.484921025E1,-9.294207752E-1,-1.186513492E0,3.654747180E0,3.953329507E0
1.485915025E1,-1.341851208E-1,-3.147019411E0,2.525811220E0,4.037506550E0
1.486908925E1,7.271500906E-1,-5.169032777E0,9.086608938E-1,5.298425400E0
1.487902925E1,1.815868316E0,-6.767108974E0,-1.738059125E0,7.218863563E0
1.488896825E1,3.309624924E0,-7.607059164E0,-5.204928249E0,9.793479685E0
1.489890825E1,4.723954708E0,-7.287812884E0,-7.761863614E0,1.164793937E1
1.490884725E1,5.259131353E0,-5.212785738E0,-8.111444664E0,1.098303839E1
1.491878725E1,4.544459806E0,-3.253824068E0,-6.359377949E0,8.466473522E0
1.492872625E1,3.772223882E0,-2.203692788E0,-3.978157847E0,5.908610223E0
1.493866625E1,3.284221403E0,-1.408259205E0,-1.866646999E0,4.031584705E0
1.494860525E1,3.085843210E0,-6.871109891E-1,-2.507801358E-1,3.171346797E0
1.495854425E1,2.950029055E0,1.192545480E-1,8.924008834E-1,3.084359319E0
1.496848425E1,2.649336867E0,9.522886509E-1,1.493530905E0,3.186922352E0
1.497842325E1,2.205233237E0,1.667954518E0,1.279405868E0,3.046638357E0
1.498836325E1,1.677757375E0,2.460501330E0,5.308090675E-1,3.025011549E0
1.499830225E1,1.248418256E0,3.567288036E0,-8.763690789E-2,3.780446046E0
1.500824225E1,1.157295248E0,4.678059036E0,-2.993540525E-1,4.828372550E0
1.501818125E1,1.170579244E0,5.692735723E0,-1.338907135E-1,5.813383052E0
1.502812125E1,5.525762048E-1,7.459601741E0,2.423928165E-1,7.483966386E0
1.503806025E1,3.751494625E-1,9.046902689E0,1.018142917E0,9.111739702E0
1.504800025E1,5.801423183E-1,1.067529436E1,3.602361975E0,1.128164379E1
1.505793925E1,6.603064755E-1,1.240682215E1,6.357479943E0,1.395646057E1
1.506787925E1,2.667464515E-1,1.412021421E1,8.178390605E0,1.631985526E1
1.507781825E1,-5.017431797E-1,1.567971574E1,8.716091201E0,1.794646143E1
1.508775825E1,-2.145546321E0,1.673689233E1,8.453997946E0,1.887318243E1
1.509769725E1,-4.899649798E0,1.779345379E1,8.369830785E0,2.026493606E1
1.510763625E1,-6.574522741E0,1.908658658E1,5.710998917E0,2.097945770E1
1.511757625E1,-4.830444492E0,1.902507387E1,2.543894320E0,1.979287822E1
1.512751525E1,-1.945486177E0,1.550610489E1,-2.608291240E-1,1.562985083E1
1.513745525E1,2.991513734E-1,8.921098675E0,1.201416875E0,9.006602890E0
1.514739425E1,9.138320982E-1,2.383038002E0,1.696298311E0,3.064537025E0
1.515733425E1,3.253412716E-2,-6.687583918E0,5.938155059E0,8.943518470E0
1.516727325E1,-1.996767720E0,-2.478039702E1,1.940033180E1,3.153455299E1
1.517721325E1,3.887266973E-1,-5.155009166E1,1.908406760E1,5.497058026E1
1.518715225E1,9.661602929E0,-6.261699042E1,9.572822900E0,6.407708638E1
1.519709225E1,1.454845142E1,-4.939207615E1,-3.368723609E0,5.160022213E1
1.520703125E1,8.518486887E0,-3.304974458E1,-1.040710831E1,3.568134161E1
1.521697025E1,5.697129321E0,-2.435546817E1,-4.116996474E0,2.534947282E1
1.522691025E1,5.859901772E0,-1.923466849E1,3.276163940E0,2.037263289E1
1.523684925E1,4.646107803E0,-1.715102255E1,7.468504127E0,1.927491754E1
1.524678925E1,1.928518434E0,-1.735912027E1,9.827551003E0,2.004093308E1
1.525672825E1,3.333366081E-1,-1.772590909E1,1.052664995E1,2.061866450E1
1.526666825E1,1.875061727E-1,-1.676296389E1,9.789845817E0,1.941322225E1
1.527660725E1,-3.267113473E-3,-1.491610446E1,6.052254117E0,1.609720357E1
1.528654725E1,-6.865508258E-2,-1.288488114E1,-8.636220574E-1,1.291397377E1
1.529648625E1,1.132486681E0,-1.081772318E1,-9.129359540E0,1.420038262E1
1.530642625E1,1.812473130E0,-8.313824399E0,-1.284098376E1,1.540440193E1
1.531636525E1,6.105545640E-1,-5.299536198E0,-1.135363219E1,1.254443401E1
1.532630425E1,-1.542142610E0,-1.450015342E0,-8.848634716E0,9.098301196E0
1.533624425E1,-2.701504263E0,2.848445377E0,-7.218967767E0,8.217375613E0
1.534618325E1,-2.668065499E0,6.240325130E0,-5.517001165E0,8.746286817E0
1.535612325E1,-2.986589940E0,8.925400472E0,-4.318296229E0,1.035520040E1
1.536606225E1,-3.997755667E0,1.182934294E1,-4.600694525E0,1.330720838E1
1.537600225E1,-5.012033867E0,1.564090426E1,-4.953431318E0,1.715502409E1
1.538594125E1,-4.007175824E0,2.089584141E1,-4.127498074E0,2.167325279E1
1.539588125E1,-3.437871028E0,2.635424294E1,-2.660163864E0,2.671032666E1
1.540582025E1,-6.391130669E0,3.031408030E1,-8.038810551E-1,3.099090577E1
1.541576025E1,-8.568839015E0,3.187977286E1,1.641757822E0,3.305208448E1
1.542569925E1,-8.955070413E0,3.132084453E1,4.185412406E0,3.284366400E1
1.543563925E1,-9.871934878E0,2.676522970E1,4.349280624E0,2.885738833E1
1.544557825E1,-7.293213957E0,1.754247960E1,2.799025295E0,1.920323158E1
1.545551825E1,-5.773833681E0,8.678032844E0,7.156484713E-1,1.044784964E1
1.546545725E1,-5.545647844E0,3.346257437E0,-4.068597901E-1,6.489775323E0
1.547539625E1,-4.548930002E0,1.130126452E-1,-2.594164002E-1,4.557722336E0
1.548533692E1,-3.198188688E0,-2.404308418E0,-2.064096361E-1,4.006459134E0
1.549527592E1,-1.361106235E0,-6.358448827E0,-2.389436902E-1,6.506886794E0
1.550521592E1,2.719570405E0,-1.235251555E1,-2.003923835E0,1.280610847E1
1.551515492E1,1.029777824E1,-1.568249434E1,-3.398350282E0,1.906655842E1
1.552509492E1,1.618647287E1,-1.057451292E1,-5.447366089E0,2.008721048E1
1.553503392E1,1.222274829E1,6.012808800E-2,-6.462219948E0,1.382604346E1
1.554497392E1,4.717304085E0,5.129792697E0,-3.544342100E0,7.818573519E0
1.555491292E1,-5.881427711E-1,7.341040088E0,-2.286565375E-1,7.368111380E0
1.556485292E1,-3.789831895E0,8.788113111E0,2.381194228E0,9.862243345E0
1.557479192E1,-5.188259007E0,9.177425991E0,3.540739338E0,1.112115167E1
1.558473092E1,-5.114246705E0,9.540528728E0,4.149188320E0,1.159279826E1
1.559467092E1,-4.283001850E0,1.041217433E1,5.137521547E0,1.237544370E1
1.560460992E1,-3.405419273E0,1.151484811E1,5.637729211E0,1.326546637E1
1.561454992E1,-2.534924398E0,1.295214166E1,5.386817002E0,1.425488032E1
1.562448892E1,-2.097036651E0,1.437712566E1,5.047935771E0,1.538118853E1
1.563442892E1,-2.461182531E0,1.555756039E1,4.233703390E0,1.631009960E1
1.564436792E1,-2.952649485E0,1.609303436E1,2.645468642E0,1.657414849E1
1.565430792E1,-3.406889555E0,1.639701707E1,4.507676288E-1,1.675327600E1
1.566424692E1,-4.669686992E0,1.721402045E1,-3.468857177E0,1.817034526E1
1.567418692E1,-7.859891599E0,1.836888998E1,-1.272884585E1,2.369003022E1
1.568412592E1,-1.309746018E1,1.255156295E1,-2.152416215E1,2.814915189E1
1.569406592E1,-1.069254248E1,-3.284482189E0,1.076846390E1,1.552669001E1
1.570400492E1,-6.150558091E0,-1.405358752E1,2.745730381E1,3.145212583E1
1.571394492E1,-2.027963785E0,-1.870081770E1,1.041706495E1,2.150228969E1
1.572388392E1,8.191042811E-2,-2.034576108E1,-5.777075377E0,2.115020812E1
1.573382292E1,5.571932833E0,-2.675564728E1,-1.350910767E1,3.048617862E1
1.574376292E1,1.384960390E1,-2.984498859E1,-7.719926214E0,3.379544544E1
1.575370192E1,1.673188477E1,-2.260438612E1,1.916587483E0,2.818842932E1
1.576364192E1,1.294726041E1,-1.116099918E1,2.062640112E0,1.721783781E1
1.577358092E1,5.965729358E0,-6.409212599E0,-1.987303709E0,8.978714214E0
1.578352092E1,-2.335959437E0,-6.838005295E0,-2.829790421E0,7.760330968E0
1.579345992E1,-7.717604284E0,-7.023397114E0,-1.171631159E0,1.050058296E1
1.580339992E1,-1.011670517E1,-7.109611970E0,-6.867028534E-2,1.236523439E1
1.581333892E1,-9.310233216E0,-6.890752442E0,9.930348270E-1,1.162536150E1
1.582327892E1,-6.940724502E0,-6.262918772E0,2.446693715E0,9.663545844E0
1.583321792E1,-5.224134014E0,-4.963668623E0,1.627142999E0,7.387636749E0
1.584315692E1,-4.100372840E0,-3.853926149E0,2.552846114E-1,5.633025335E0
1.585309692E1,-2.827605316E0,-3.522868493E0,-8.839633512E-1,4.602971372E0
1.586303592E1,-1.081126785E0,-3.832742271E0,-1.874700369E0,4.401505415E0
1.587297592E1,4.775150590E-1,-4.247789333E0,-1.889212135E0,4.673420304E0
1.588291492E1,1.387516208E0,-4.335298762E0,-1.240206134E0,4.717852037E0
1.589285492E1,1.464662617E0,-4.285741271E0,-8.020818669E-1,4.599581518E0
1.590279392E1,7.823662251E-1,-3.976831698E0,-5.504216520E-1,4.090262982E0
1.591273392E1,-4.067568791E-1,-3.426594672E0,-4.809380190E-1,3.484006829E0
1.592267292E1,-1.552957035E0,-2.942813006E0,-6.419668297E-1,3.388797036E0
1.593261292E1,-2.632532846E0,-2.606878188E0,-9.823019703E-1,3.832878844E0
1.594255192E1,-3.481019971E0,-2.520013706E0,-1.325695351E0,4.497269981E0
1.595249092E1,-3.855194118E0,-2.176445932E0,-1.434862867E0,4.653844650E0
1.596243092E1,-3.957695808E0,-1.665454833E0,-1.249166408E0,4.471857849E0
1.597236992E1,-3.803303002E0,-9.141291368E-1,-9.685520965E-1,4.029744281E0
1.598230992E1,-3.498675931E0,4.399094224E-2,-9.072645056E-1,3.614664211E0
1.599224892E1,-2.908224971E0,1.038330429E0,-9.474664521E-1,3.230107621E0
1.600218892E1,-2.084172630E0,1.975493503E0,-8.317922274E-1,2.989687014E0
1.601212792E1,-1.285366812E0,2.634766483E0,-6.955888671E-1,3.012972972E0
1.602206792E1,-6.482591647E-1,3.075652975E0,-6.593653661E-1,3.211641925E0
1.603200692E1,-1.624764352E-1,3.554503684E0,-6.512518428E-1,3.617322766E0
1.604194692E1,2.626098570E-1,3.963429880E0,-6.735869640E-1,4.028828583E0
1.605188592E1,6.134050816E-1,4.376201205E0,-5.919498932E-1,4.458453483E0
1.606182592E1,8.807546917E-1,4.750213092E0,-5.929814883E-1,4.867430564E0
1.607176492E1,1.016991893E0,5.027120268E0,-7.400214203E-1,5.182069317E0
1.608170392E1,9.294359779E-1,5.349602398E0,-8.818653703E-1,5.500889345E0
1.609164392E1,7.688217348E-1,5.709889115E0,-8.836628044E-1,5.828788941E0
1.610158292E1,7.053681891E-1,5.736335487E0,-7.713489745E-1,5.830786254E0
1.611152292E1,5.866124086E-1,5.626881457E0,-6.709990595E-1,5.697029821E0
1.612146192E1,7.909715724E-1,5.374886928E0,-3.284006810E-1,5.442691661E0
1.613140192E1,1.214419329E0,5.089703602E0,-1.505529392E-1,5.234745768E0
1.614134092E1,1.416875224E0,4.660181758E0,-3.559534190E-1,4.883803053E0
1.615128092E1,1.279942204E0,3.925671485E0,-8.798604331E-1,4.221765393E0
1.616121992E1,1.092282249E0,3.011856928E0,-1.173190172E0,3.411852554E0
1.617115992E1,7.307911518E-1,1.892447838E0,-1.115618341E0,2.315171443E0
1.618109892E1,2.239059672E-1,7.307592845E-1,-1.174095175E0,1.400943430E0
1.619103892E1,-3.825450209E-1,-5.424578905E-2,-1.418212336E0,1.469901197E0
1.620097792E1,-9.956644660E-1,-3.112092823E-1,-1.978993646E0,2.237099639E0
1.621091692E1,-1.255733123E0,-5.193648970E-1,-2.354362671E0,2.718387235E0
1.622085692E1,-1.203361367E0,-9.165200633E-1,-2.166070633E0,2.641959423E0
1.623079592E1,-1.003222431E0,-6.023409802E-1,-2.030039985E0,2.343145800E0
1.624073592E1,-1.164212504E0,5.199227214E-2,-1.999933695E0,2.314698411E0
1.625067492E1,-1.461936060E0,1.218613536E0,-1.906810938E0,2.694105408E0
1.626061492E1,-1.684300848E0,2.621954648E0,-1.804786527E0,3.601217840E0
1.627055392E1,-1.413402855E0,3.927392321E0,-1.576044474E0,4.461617896E0
1.628049392E1,-7.439527226E-1,5.181930565E0,-1.232042252E0,5.378084989E0
1.629043292E1,3.464709163E-2,6.289492612E0,-9.123802346E-1,6.355419375E0
1.630037292E1,7.621675303E-1,7.173417372E0,-5.595130857E-1,7.235459283E0
1.631031192E1,1.303266893E0,8.130493723E0,-1.698902295E-1,8.236036393E0
1.632025092E1,1.664242705E0,9.163194453E0,1.745709439E-1,9.314736249E0
1.633019092E1,1.985561823E0,1.012224716E1,7.707489771E-1,1.034390629E1
1.634012992E1,2.260098831E0,1.086987099E1,1.276610899E0,1.117550345E1
1.635006992E1,2.077464558E0,1.148249780E1,1.590014641E0,1.177674664E1
1.636000892E1,1.377024256E0,1.195453534E1,1.839241683E0,1.217332826E1
1.636994892E1,5.242359200E-1,1.225592773E1,1.670051329E0,1.238029318E1
1.637988792E1,-2.229549358E-1,1.228154789E1,8.075531065E-1,1.231008812E1
1.638982792E1,-1.111174457E0,1.205469463E1,-7.904792368E-1,1.213157981E1
1.639976692E1,-2.220806419E0,1.116893970E1,-2.926291698E0,1.175756685E1
1.640970692E1,-4.024075447E0,9.513708134E0,-5.620016241E0,1.175960919E1
1.641964592E1,-6.283726673E0,7.123603773E0,-8.433809264E0,1.270275916E1
1.642958592E1,-8.530192428E0,4.033520454E0,-9.046955899E0,1.307214141E1
1.643952492E1,-9.556086999E0,1.554299848E0,-3.741794679E0,1.037957967E1
1.644946392E1,-8.373381214E0,-7.362001187E-1,4.221207306E0,9.406066909E0
1.645940392E1,-4.498786620E0,-3.664972790E0,9.231922041E0,1.090410433E1
1.646934292E1,1.750582984E0,-6.888128797E0,1.107586372E1,1.316000061E1
1.647928275E1,6.443062715E0,-1.250785385E1,1.043264193E1,1.751569247E1
1.648922175E1,1.024703142E1,-2.398921963E1,3.845643568E0,2.636803531E1
1.649916175E1,1.517757323E1,-3.465357034E1,-1.518742930E0,3.786205550E1
1.650910075E1,1.563154404E1,-2.552942067E1,5.971293569E-1,2.994082584E1
1.651904075E1,1.235815343E1,-1.129268081E1,2.867190381E0,1.698438627E1
